"participant","session","assignmentId","projectId","date","practiceTrial.started","practiceTrial.stopped","tooLate.started","tooLate.stopped","blank.started","blank.stopped","trials_pract.thisRepN","trials_pract.thisTrialN","trials_pract.thisN","trials_pract.thisIndex","trials_pract.ran","delay_pract","amount_pract","responseMade","key","rt","trial.started","trial.stopped","trials.thisRepN","trials.thisTrialN","trials.thisN","trials.thisIndex","trials.ran","delay","amount","trials_2.thisRepN","trials_2.thisTrialN","trials_2.thisN","trials_2.thisIndex","trials_2.ran","block","trial","taskType"
"JustineFinalTest",1,"JustineFinalTest_Aug26","Test_Aug26","2025-08-26_18h09.07.813",40.1132,43.0964,43.0973,43.1109,43.111,43.446,0,0,0,4,1,30,40,TRUE,1,1.1076,NA,NA,NA,NA,NA,NA,NA,NA,NA,NA,NA,NA,NA,NA,0,1,"binary"
"JustineFinalTest",1,"JustineFinalTest_Aug26","Test_Aug26","2025-08-26_18h09.07.813",43.4493,46.4459,46.4462,46.4463,46.4463,46.7956,0,1,1,2,1,14,45,TRUE,2,0.7105,NA,NA,NA,NA,NA,NA,NA,NA,NA,NA,NA,NA,NA,NA,0,2,"binary"
"JustineFinalTest",1,"JustineFinalTest_Aug26","Test_Aug26","2025-08-26_18h09.07.813",46.798,49.7955,49.7957,50.0458,50.0459,50.1458,0,2,2,1,1,100,50,FALSE,NA,NA,NA,NA,NA,NA,NA,NA,NA,NA,NA,NA,NA,NA,NA,NA,0,3,"binary"
"JustineFinalTest",1,"JustineFinalTest_Aug26","Test_Aug26","2025-08-26_18h09.07.813",50.1486,53.146,53.1462,53.1462,53.1462,53.4953,0,3,3,3,1,3,27,TRUE,1,0.8755,NA,NA,NA,NA,NA,NA,NA,NA,NA,NA,NA,NA,NA,NA,0,4,"binary"
"JustineFinalTest",1,"JustineFinalTest_Aug26","Test_Aug26","2025-08-26_18h09.07.813",53.4977,56.4959,56.4961,56.4961,56.4962,56.8457,0,4,4,0,1,7,30,TRUE,2,1.075,NA,NA,NA,NA,NA,NA,NA,NA,NA,NA,NA,NA,NA,NA,0,5,"binary"
"JustineFinalTest",1,"JustineFinalTest_Aug26","Test_Aug26","2025-08-26_18h09.07.813",NA,NA,79.3217,79.3219,79.3219,79.6711,NA,NA,NA,NA,NA,NA,NA,TRUE,2,0.8232,76.3338,79.3212,0,0,0,55,1,45,29,NA,NA,NA,NA,NA,1,1,"binary"
"JustineFinalTest",1,"JustineFinalTest_Aug26","Test_Aug26","2025-08-26_18h09.07.813",NA,NA,82.6704,82.6704,82.6705,83.0208,NA,NA,NA,NA,NA,NA,NA,TRUE,1,1.0133,79.6733,82.6702,0,1,1,60,1,50,27,NA,NA,NA,NA,NA,1,2,"binary"
"JustineFinalTest",1,"JustineFinalTest_Aug26","Test_Aug26","2025-08-26_18h09.07.813",NA,NA,86.0207,86.0208,86.0208,86.3701,NA,NA,NA,NA,NA,NA,NA,TRUE,1,0.4136,83.023,86.0204,0,2,2,66,1,60,29,NA,NA,NA,NA,NA,1,3,"binary"
"JustineFinalTest",1,"JustineFinalTest_Aug26","Test_Aug26","2025-08-26_18h09.07.813",NA,NA,89.3711,89.3712,89.3712,89.7208,NA,NA,NA,NA,NA,NA,NA,TRUE,1,1.1129,86.3721,89.3709,0,3,3,25,1,21,27,NA,NA,NA,NA,NA,1,4,"binary"
"JustineFinalTest",1,"JustineFinalTest_Aug26","Test_Aug26","2025-08-26_18h09.07.813",NA,NA,92.7127,92.7127,92.7128,93.0792,NA,NA,NA,NA,NA,NA,NA,TRUE,1,1.9809,89.7226,92.7125,0,4,4,57,1,45,35,NA,NA,NA,NA,NA,1,5,"binary"
"JustineFinalTest",1,"JustineFinalTest_Aug26","Test_Aug26","2025-08-26_18h09.07.813",NA,NA,96.0462,96.0462,96.0462,96.4125,NA,NA,NA,NA,NA,NA,NA,TRUE,1,1.6085,93.0811,96.046,0,5,5,1,1,7,26,NA,NA,NA,NA,NA,1,6,"binary"
"JustineFinalTest",1,"JustineFinalTest_Aug26","Test_Aug26","2025-08-26_18h09.07.813",NA,NA,99.4129,99.413,99.413,99.7459,NA,NA,NA,NA,NA,NA,NA,TRUE,1,0.9751,96.4145,99.4126,0,6,6,61,1,50,30,NA,NA,NA,NA,NA,1,7,"binary"
"JustineFinalTest",1,"JustineFinalTest_Aug26","Test_Aug26","2025-08-26_18h09.07.813",NA,NA,102.7795,102.7797,102.7797,103.1126,NA,NA,NA,NA,NA,NA,NA,TRUE,2,0.5167,99.7482,102.7793,0,7,7,37,1,28,28,NA,NA,NA,NA,NA,1,8,"binary"
"JustineFinalTest",1,"JustineFinalTest_Aug26","Test_Aug26","2025-08-26_18h09.07.813",NA,NA,106.1079,106.108,106.108,106.4749,NA,NA,NA,NA,NA,NA,NA,TRUE,2,0.3586,103.1145,106.1078,0,8,8,40,1,28,39,NA,NA,NA,NA,NA,1,9,"binary"
"JustineFinalTest",1,"JustineFinalTest_Aug26","Test_Aug26","2025-08-26_18h09.07.813",NA,NA,109.4794,109.4794,109.4794,109.8125,NA,NA,NA,NA,NA,NA,NA,TRUE,2,0.7558,106.477,109.4792,0,9,9,12,1,12,25,NA,NA,NA,NA,NA,1,10,"binary"
"JustineFinalTest",1,"JustineFinalTest_Aug26","Test_Aug26","2025-08-26_18h09.07.813",NA,NA,112.8128,112.8128,112.8128,113.1793,NA,NA,NA,NA,NA,NA,NA,TRUE,1,0.3301,109.8145,112.8126,0,10,10,41,1,28,46,NA,NA,NA,NA,NA,1,11,"binary"
"JustineFinalTest",1,"JustineFinalTest_Aug26","Test_Aug26","2025-08-26_18h09.07.813",NA,NA,116.1461,116.4125,116.4125,116.5124,NA,NA,NA,NA,NA,NA,NA,FALSE,NA,NA,113.1817,116.1458,0,11,11,104,1,200,35,NA,NA,NA,NA,NA,1,12,"binary"
"JustineFinalTest",1,"JustineFinalTest_Aug26","Test_Aug26","2025-08-26_18h09.07.813",NA,NA,119.5126,119.7456,119.7457,119.8792,NA,NA,NA,NA,NA,NA,NA,FALSE,NA,NA,116.5147,119.5125,0,12,12,99,1,180,39,NA,NA,NA,NA,NA,1,13,"binary"
"JustineFinalTest",1,"JustineFinalTest_Aug26","Test_Aug26","2025-08-26_18h09.07.813",NA,NA,122.8794,123.1124,123.1124,123.2117,NA,NA,NA,NA,NA,NA,NA,FALSE,NA,NA,119.8811,122.8791,0,13,13,0,1,7,25,NA,NA,NA,NA,NA,1,14,"binary"
"JustineFinalTest",1,"JustineFinalTest_Aug26","Test_Aug26","2025-08-26_18h09.07.813",NA,NA,126.2122,126.479,126.4791,126.579,NA,NA,NA,NA,NA,NA,NA,FALSE,NA,NA,123.2138,126.2119,0,14,14,22,1,14,35,NA,NA,NA,NA,NA,1,15,"binary"
"JustineFinalTest",1,"JustineFinalTest_Aug26","Test_Aug26","2025-08-26_18h09.07.813",NA,NA,129.5794,129.8124,129.8124,129.9124,NA,NA,NA,NA,NA,NA,NA,FALSE,NA,NA,126.581,129.5792,0,15,15,95,1,150,54,NA,NA,NA,NA,NA,1,16,"binary"
"JustineFinalTest",1,"JustineFinalTest_Aug26","Test_Aug26","2025-08-26_18h09.07.813",NA,NA,132.9125,133.1783,133.1784,133.2458,NA,NA,NA,NA,NA,NA,NA,FALSE,NA,NA,129.9136,132.9124,0,16,16,29,1,21,38,NA,NA,NA,NA,NA,1,17,"binary"
"JustineFinalTest",1,"JustineFinalTest_Aug26","Test_Aug26","2025-08-26_18h09.07.813",NA,NA,136.2793,136.5124,136.5124,136.6123,NA,NA,NA,NA,NA,NA,NA,FALSE,NA,NA,133.2479,136.279,0,17,17,49,1,40,33,NA,NA,NA,NA,NA,1,18,"binary"
"JustineFinalTest",1,"JustineFinalTest_Aug26","Test_Aug26","2025-08-26_18h09.07.813",NA,NA,139.6125,139.8789,139.879,139.979,NA,NA,NA,NA,NA,NA,NA,FALSE,NA,NA,136.6142,139.6123,0,18,18,28,1,21,32,NA,NA,NA,NA,NA,1,19,"binary"
"JustineFinalTest",1,"JustineFinalTest_Aug26","Test_Aug26","2025-08-26_18h09.07.813",NA,NA,142.946,143.2121,143.2121,143.3123,NA,NA,NA,NA,NA,NA,NA,FALSE,NA,NA,139.9811,142.9457,0,19,19,73,1,90,30,NA,NA,NA,NA,NA,1,20,"binary"
"JustineFinalTest",1,"JustineFinalTest_Aug26","Test_Aug26","2025-08-26_18h09.07.813",NA,NA,146.3126,146.579,146.5791,146.6788,NA,NA,NA,NA,NA,NA,NA,FALSE,NA,NA,143.3144,146.3125,0,20,20,16,1,12,33,NA,NA,NA,NA,NA,1,21,"binary"
"JustineFinalTest",1,"JustineFinalTest_Aug26","Test_Aug26","2025-08-26_18h09.07.813",NA,NA,149.6792,149.9124,149.9125,150.0123,NA,NA,NA,NA,NA,NA,NA,FALSE,NA,NA,146.6808,149.679,0,21,21,103,1,200,28,NA,NA,NA,NA,NA,1,22,"binary"
"JustineFinalTest",1,"JustineFinalTest_Aug26","Test_Aug26","2025-08-26_18h09.07.813",NA,NA,153.0125,153.0126,153.0126,153.3457,NA,NA,NA,NA,NA,NA,NA,TRUE,2,1.2031,150.0143,153.0123,0,22,22,69,1,60,40,NA,NA,NA,NA,NA,1,23,"binary"
"JustineFinalTest",1,"JustineFinalTest_Aug26","Test_Aug26","2025-08-26_18h09.07.813",NA,NA,156.3791,156.3792,156.3793,156.7123,NA,NA,NA,NA,NA,NA,NA,TRUE,1,0.358,153.3475,156.3789,0,23,23,10,1,10,30,NA,NA,NA,NA,NA,1,24,"binary"
"JustineFinalTest",1,"JustineFinalTest_Aug26","Test_Aug26","2025-08-26_18h09.07.813",NA,NA,159.7115,159.7115,159.7115,160.079,NA,NA,NA,NA,NA,NA,NA,TRUE,2,0.4571,156.7144,159.7114,0,24,24,63,1,50,40,NA,NA,NA,NA,NA,1,25,"binary"
"JustineFinalTest",1,"JustineFinalTest_Aug26","Test_Aug26","2025-08-26_18h09.07.813",NA,NA,163.0741,163.3081,163.3082,163.4074,NA,NA,NA,NA,NA,NA,NA,FALSE,NA,NA,160.0809,163.0739,0,25,25,26,1,21,29,NA,NA,NA,NA,NA,1,26,"binary"
"JustineFinalTest",1,"JustineFinalTest_Aug26","Test_Aug26","2025-08-26_18h09.07.813",NA,NA,166.4084,166.6747,166.6747,166.7748,NA,NA,NA,NA,NA,NA,NA,FALSE,NA,NA,163.4094,166.4082,0,26,26,88,1,100,46,NA,NA,NA,NA,NA,1,27,"binary"
"JustineFinalTest",1,"JustineFinalTest_Aug26","Test_Aug26","2025-08-26_18h09.07.813",NA,NA,169.7751,170.0081,170.0081,170.1072,NA,NA,NA,NA,NA,NA,NA,FALSE,NA,NA,166.7769,169.7748,0,27,27,102,1,200,26,NA,NA,NA,NA,NA,1,28,"binary"
"JustineFinalTest",1,"JustineFinalTest_Aug26","Test_Aug26","2025-08-26_18h09.07.813",NA,NA,173.1082,173.3749,173.3749,173.4748,NA,NA,NA,NA,NA,NA,NA,FALSE,NA,NA,170.1091,173.1081,0,28,28,38,1,28,32,NA,NA,NA,NA,NA,1,29,"binary"
"JustineFinalTest",1,"JustineFinalTest_Aug26","Test_Aug26","2025-08-26_18h09.07.813",NA,NA,176.4749,176.475,176.475,176.8082,NA,NA,NA,NA,NA,NA,NA,TRUE,2,1.1435,173.4768,176.4746,0,29,29,30,1,25,27,NA,NA,NA,NA,NA,1,30,"binary"
"JustineFinalTest",1,"JustineFinalTest_Aug26","Test_Aug26","2025-08-26_18h09.07.813",NA,NA,179.8074,179.8075,179.8075,180.1748,NA,NA,NA,NA,NA,NA,NA,TRUE,1,1.3512,176.8103,179.8072,0,30,30,45,1,30,30,NA,NA,NA,NA,NA,1,31,"binary"
"JustineFinalTest",1,"JustineFinalTest_Aug26","Test_Aug26","2025-08-26_18h09.07.813",NA,NA,183.1748,183.4081,183.4081,183.5081,NA,NA,NA,NA,NA,NA,NA,FALSE,NA,NA,180.1771,183.1746,0,31,31,79,1,95,33,NA,NA,NA,NA,NA,1,32,"binary"
"JustineFinalTest",1,"JustineFinalTest_Aug26","Test_Aug26","2025-08-26_18h09.07.813",NA,NA,186.5041,186.5041,186.5042,186.8706,NA,NA,NA,NA,NA,NA,NA,TRUE,2,1.9501,183.51,186.5039,0,32,32,33,1,25,33,NA,NA,NA,NA,NA,1,33,"binary"
"JustineFinalTest",1,"JustineFinalTest_Aug26","Test_Aug26","2025-08-26_18h09.07.813",NA,NA,189.871,189.8712,189.8712,190.2039,NA,NA,NA,NA,NA,NA,NA,TRUE,1,1.0643,186.8727,189.8708,0,33,33,48,1,40,27,NA,NA,NA,NA,NA,1,34,"binary"
"JustineFinalTest",1,"JustineFinalTest_Aug26","Test_Aug26","2025-08-26_18h09.07.813",NA,NA,193.2043,193.2043,193.2043,193.5696,NA,NA,NA,NA,NA,NA,NA,TRUE,2,1.692,190.2061,193.204,0,34,34,56,1,45,31,NA,NA,NA,NA,NA,1,35,"binary"
"JustineFinalTest",1,"JustineFinalTest_Aug26","Test_Aug26","2025-08-26_18h09.07.813",NA,NA,196.5676,196.7997,196.7997,196.8988,NA,NA,NA,NA,NA,NA,NA,FALSE,NA,NA,193.5717,196.5674,0,35,35,71,1,60,54,NA,NA,NA,NA,NA,1,36,"binary"
"JustineFinalTest",1,"JustineFinalTest_Aug26","Test_Aug26","2025-08-26_18h09.07.813",NA,NA,199.8999,200.1664,200.1664,200.2663,NA,NA,NA,NA,NA,NA,NA,FALSE,NA,NA,196.901,199.8998,0,36,36,84,1,100,26,NA,NA,NA,NA,NA,1,37,"binary"
"JustineFinalTest",1,"JustineFinalTest_Aug26","Test_Aug26","2025-08-26_18h09.07.813",NA,NA,203.271,203.504,203.504,203.6037,NA,NA,NA,NA,NA,NA,NA,FALSE,NA,NA,200.2685,203.2707,0,37,37,3,1,7,30,NA,NA,NA,NA,NA,1,38,"binary"
"JustineFinalTest",1,"JustineFinalTest_Aug26","Test_Aug26","2025-08-26_18h09.07.813",NA,NA,206.6041,206.8706,206.8706,206.9697,NA,NA,NA,NA,NA,NA,NA,FALSE,NA,NA,203.6059,206.6039,0,38,38,4,1,7,32,NA,NA,NA,NA,NA,1,39,"binary"
"JustineFinalTest",1,"JustineFinalTest_Aug26","Test_Aug26","2025-08-26_18h09.07.813",NA,NA,209.9708,210.2032,210.2032,210.3039,NA,NA,NA,NA,NA,NA,NA,FALSE,NA,NA,206.9716,209.9707,0,39,39,2,1,7,28,NA,NA,NA,NA,NA,1,40,"binary"
"JustineFinalTest",1,"JustineFinalTest_Aug26","Test_Aug26","2025-08-26_18h09.07.813",NA,NA,213.3043,213.5707,213.5708,213.6706,NA,NA,NA,NA,NA,NA,NA,FALSE,NA,NA,210.3059,213.3041,0,40,40,96,1,180,27,NA,NA,NA,NA,NA,1,41,"binary"
"JustineFinalTest",1,"JustineFinalTest_Aug26","Test_Aug26","2025-08-26_18h09.07.813",NA,NA,216.6709,216.904,216.9041,217.004,NA,NA,NA,NA,NA,NA,NA,FALSE,NA,NA,213.6725,216.6706,0,41,41,44,1,30,29,NA,NA,NA,NA,NA,1,42,"binary"
"JustineFinalTest",1,"JustineFinalTest_Aug26","Test_Aug26","2025-08-26_18h09.07.813",NA,NA,220,220.2656,220.2656,220.3661,NA,NA,NA,NA,NA,NA,NA,FALSE,NA,NA,217.006,219.9998,0,42,42,91,1,150,33,NA,NA,NA,NA,NA,1,43,"binary"
"JustineFinalTest",1,"JustineFinalTest_Aug26","Test_Aug26","2025-08-26_18h09.07.813",NA,NA,223.3667,223.5997,223.5998,223.6997,NA,NA,NA,NA,NA,NA,NA,FALSE,NA,NA,220.3683,223.3665,0,43,43,85,1,100,31,NA,NA,NA,NA,NA,1,44,"binary"
"JustineFinalTest",1,"JustineFinalTest_Aug26","Test_Aug26","2025-08-26_18h09.07.813",NA,NA,226.6998,226.966,226.9661,227.0664,NA,NA,NA,NA,NA,NA,NA,FALSE,NA,NA,223.7019,226.6997,0,44,44,101,1,180,54,NA,NA,NA,NA,NA,1,45,"binary"
"JustineFinalTest",1,"JustineFinalTest_Aug26","Test_Aug26","2025-08-26_18h09.07.813",NA,NA,230.0667,230.2998,230.2998,230.3998,NA,NA,NA,NA,NA,NA,NA,FALSE,NA,NA,227.0683,230.0665,0,45,45,93,1,150,40,NA,NA,NA,NA,NA,1,46,"binary"
"JustineFinalTest",1,"JustineFinalTest_Aug26","Test_Aug26","2025-08-26_18h09.07.813",NA,NA,233.4,233.6664,233.6665,233.7664,NA,NA,NA,NA,NA,NA,NA,FALSE,NA,NA,230.402,233.3999,0,46,46,9,1,10,29,NA,NA,NA,NA,NA,1,47,"binary"
"JustineFinalTest",1,"JustineFinalTest_Aug26","Test_Aug26","2025-08-26_18h09.07.813",NA,NA,236.7667,236.9998,236.9998,237.0987,NA,NA,NA,NA,NA,NA,NA,FALSE,NA,NA,233.7687,236.7665,0,47,47,23,1,14,39,NA,NA,NA,NA,NA,1,48,"binary"
"JustineFinalTest",1,"JustineFinalTest_Aug26","Test_Aug26","2025-08-26_18h09.07.813",NA,NA,240.0999,240.366,240.366,240.4663,NA,NA,NA,NA,NA,NA,NA,FALSE,NA,NA,237.1008,240.0997,0,48,48,77,1,90,54,NA,NA,NA,NA,NA,1,49,"binary"
"JustineFinalTest",1,"JustineFinalTest_Aug26","Test_Aug26","2025-08-26_18h09.07.813",NA,NA,243.4666,243.4666,243.4666,243.7997,NA,NA,NA,NA,NA,NA,NA,TRUE,2,2.3089,240.4685,243.4664,0,49,49,68,1,60,35,NA,NA,NA,NA,NA,1,50,"binary"
"JustineFinalTest",1,"JustineFinalTest_Aug26","Test_Aug26","2025-08-26_18h09.07.813",NA,NA,246.7999,246.7999,246.8,247.1665,NA,NA,NA,NA,NA,NA,NA,TRUE,1,0.5563,243.8017,246.7997,0,50,50,62,1,50,35,NA,NA,NA,NA,NA,1,51,"binary"
"JustineFinalTest",1,"JustineFinalTest_Aug26","Test_Aug26","2025-08-26_18h09.07.813",NA,NA,250.1657,250.1658,250.1658,250.4998,NA,NA,NA,NA,NA,NA,NA,TRUE,2,0.2846,247.1687,250.1655,0,51,51,5,1,7,35,NA,NA,NA,NA,NA,1,52,"binary"
"JustineFinalTest",1,"JustineFinalTest_Aug26","Test_Aug26","2025-08-26_18h09.07.813",NA,NA,253.5292,253.5292,253.5292,253.8616,NA,NA,NA,NA,NA,NA,NA,TRUE,1,0.037,250.5017,253.5289,0,52,52,35,1,25,46,NA,NA,NA,NA,NA,1,53,"binary"
"JustineFinalTest",1,"JustineFinalTest_Aug26","Test_Aug26","2025-08-26_18h09.07.813",NA,NA,256.8624,257.1289,257.129,257.2287,NA,NA,NA,NA,NA,NA,NA,FALSE,NA,NA,253.8637,256.8622,0,53,53,54,1,45,26,NA,NA,NA,NA,NA,1,54,"binary"
"JustineFinalTest",1,"JustineFinalTest_Aug26","Test_Aug26","2025-08-26_18h09.07.813",NA,NA,260.2291,260.4622,260.4622,260.5612,NA,NA,NA,NA,NA,NA,NA,FALSE,NA,NA,257.2307,260.2289,0,54,54,80,1,95,35,NA,NA,NA,NA,NA,1,55,"binary"
"JustineFinalTest",1,"JustineFinalTest_Aug26","Test_Aug26","2025-08-26_18h09.07.813",NA,NA,263.5614,263.8289,263.8289,263.9278,NA,NA,NA,NA,NA,NA,NA,FALSE,NA,NA,260.5632,263.5612,0,55,55,53,1,40,54,NA,NA,NA,NA,NA,1,56,"binary"
"JustineFinalTest",1,"JustineFinalTest_Aug26","Test_Aug26","2025-08-26_18h09.07.813",NA,NA,266.9291,267.1613,267.1614,267.2622,NA,NA,NA,NA,NA,NA,NA,FALSE,NA,NA,263.9298,266.9289,0,56,56,105,1,200,39,NA,NA,NA,NA,NA,1,57,"binary"
"JustineFinalTest",1,"JustineFinalTest_Aug26","Test_Aug26","2025-08-26_18h09.07.813",NA,NA,270.2624,270.5279,270.5279,270.5955,NA,NA,NA,NA,NA,NA,NA,FALSE,NA,NA,267.264,270.2622,0,57,57,67,1,60,33,NA,NA,NA,NA,NA,1,58,"binary"
"JustineFinalTest",1,"JustineFinalTest_Aug26","Test_Aug26","2025-08-26_18h09.07.813",NA,NA,273.629,273.8619,273.8619,273.9619,NA,NA,NA,NA,NA,NA,NA,FALSE,NA,NA,270.5975,273.6288,0,58,58,92,1,150,35,NA,NA,NA,NA,NA,1,59,"binary"
"JustineFinalTest",1,"JustineFinalTest_Aug26","Test_Aug26","2025-08-26_18h09.07.813",NA,NA,276.9582,277.2246,277.2246,277.3246,NA,NA,NA,NA,NA,NA,NA,FALSE,NA,NA,273.9625,276.958,0,59,59,97,1,180,31,NA,NA,NA,NA,NA,1,60,"binary"
"JustineFinalTest",1,"JustineFinalTest_Aug26","Test_Aug26","2025-08-26_18h09.07.813",NA,NA,280.3249,280.5579,280.558,280.658,NA,NA,NA,NA,NA,NA,NA,FALSE,NA,NA,277.3267,280.3247,0,60,60,100,1,180,46,NA,NA,NA,NA,NA,1,61,"binary"
"JustineFinalTest",1,"JustineFinalTest_Aug26","Test_Aug26","2025-08-26_18h09.07.813",NA,NA,283.6582,283.9247,283.9248,284.0246,NA,NA,NA,NA,NA,NA,NA,FALSE,NA,NA,280.6599,283.658,0,61,61,65,1,50,54,NA,NA,NA,NA,NA,1,62,"binary"
"JustineFinalTest",1,"JustineFinalTest_Aug26","Test_Aug26","2025-08-26_18h09.07.813",NA,NA,287.0206,287.2528,287.2528,287.3537,NA,NA,NA,NA,NA,NA,NA,FALSE,NA,NA,284.0265,287.0204,0,62,62,21,1,14,32,NA,NA,NA,NA,NA,1,63,"binary"
"JustineFinalTest",1,"JustineFinalTest_Aug26","Test_Aug26","2025-08-26_18h09.07.813",NA,NA,290.354,290.354,290.354,290.7205,NA,NA,NA,NA,NA,NA,NA,TRUE,2,1.8276,287.3555,290.3538,0,63,63,82,1,95,47,NA,NA,NA,NA,NA,1,64,"binary"
"JustineFinalTest",1,"JustineFinalTest_Aug26","Test_Aug26","2025-08-26_18h09.07.813",NA,NA,293.7207,293.9537,293.9538,294.0537,NA,NA,NA,NA,NA,NA,NA,FALSE,NA,NA,290.7223,293.7204,0,64,64,15,1,12,31,NA,NA,NA,NA,NA,1,65,"binary"
"JustineFinalTest",1,"JustineFinalTest_Aug26","Test_Aug26","2025-08-26_18h09.07.813",NA,NA,297.054,297.3206,297.3207,297.4204,NA,NA,NA,NA,NA,NA,NA,FALSE,NA,NA,294.0558,297.0539,0,65,65,46,1,30,32,NA,NA,NA,NA,NA,1,66,"binary"
"JustineFinalTest",1,"JustineFinalTest_Aug26","Test_Aug26","2025-08-26_18h09.07.813",NA,NA,300.4207,300.6538,300.6538,300.7537,NA,NA,NA,NA,NA,NA,NA,FALSE,NA,NA,297.4223,300.4206,0,66,66,86,1,100,38,NA,NA,NA,NA,NA,1,67,"binary"
"JustineFinalTest",1,"JustineFinalTest_Aug26","Test_Aug26","2025-08-26_18h09.07.813",NA,NA,303.7582,304.0246,304.0246,304.1247,NA,NA,NA,NA,NA,NA,NA,FALSE,NA,NA,300.7558,303.758,0,67,67,90,1,150,31,NA,NA,NA,NA,NA,1,68,"binary"
"JustineFinalTest",1,"JustineFinalTest_Aug26","Test_Aug26","2025-08-26_18h09.07.813",NA,NA,307.1249,307.3579,307.358,307.4579,NA,NA,NA,NA,NA,NA,NA,FALSE,NA,NA,304.1266,307.1247,0,68,68,76,1,90,46,NA,NA,NA,NA,NA,1,69,"binary"
"JustineFinalTest",1,"JustineFinalTest_Aug26","Test_Aug26","2025-08-26_18h09.07.813",NA,NA,310.4581,310.7244,310.7244,310.8246,NA,NA,NA,NA,NA,NA,NA,FALSE,NA,NA,307.46,310.458,0,69,69,18,1,14,25,NA,NA,NA,NA,NA,1,70,"binary"
"JustineFinalTest",1,"JustineFinalTest_Aug26","Test_Aug26","2025-08-26_18h09.07.813",NA,NA,313.8249,314.0578,314.0579,314.158,NA,NA,NA,NA,NA,NA,NA,FALSE,NA,NA,310.8266,313.8247,0,70,70,11,1,10,32,NA,NA,NA,NA,NA,1,71,"binary"
"JustineFinalTest",1,"JustineFinalTest_Aug26","Test_Aug26","2025-08-26_18h09.07.813",NA,NA,317.1582,317.4245,317.4245,317.5245,NA,NA,NA,NA,NA,NA,NA,FALSE,NA,NA,314.16,317.158,0,71,71,75,1,90,40,NA,NA,NA,NA,NA,1,72,"binary"
"JustineFinalTest",1,"JustineFinalTest_Aug26","Test_Aug26","2025-08-26_18h09.07.813",NA,NA,320.5248,320.7579,320.758,320.8579,NA,NA,NA,NA,NA,NA,NA,FALSE,NA,NA,317.5265,320.5247,0,72,72,81,1,95,40,NA,NA,NA,NA,NA,1,73,"binary"
"JustineFinalTest",1,"JustineFinalTest_Aug26","Test_Aug26","2025-08-26_18h09.07.813",NA,NA,323.8582,324.1245,324.1246,324.2245,NA,NA,NA,NA,NA,NA,NA,FALSE,NA,NA,320.86,323.858,0,73,73,42,1,30,26,NA,NA,NA,NA,NA,1,74,"binary"
"JustineFinalTest",1,"JustineFinalTest_Aug26","Test_Aug26","2025-08-26_18h09.07.813",NA,NA,327.2247,327.4578,327.4578,327.5578,NA,NA,NA,NA,NA,NA,NA,FALSE,NA,NA,324.2266,327.2246,0,74,74,36,1,28,26,NA,NA,NA,NA,NA,1,75,"binary"
"JustineFinalTest",1,"JustineFinalTest_Aug26","Test_Aug26","2025-08-26_18h09.07.813",NA,NA,330.558,330.5581,330.5581,330.9245,NA,NA,NA,NA,NA,NA,NA,TRUE,2,1.0824,327.5597,330.5579,0,75,75,27,1,21,30,NA,NA,NA,NA,NA,1,76,"binary"
"JustineFinalTest",1,"JustineFinalTest_Aug26","Test_Aug26","2025-08-26_18h09.07.813",NA,NA,333.9242,333.9243,333.9243,334.2579,NA,NA,NA,NA,NA,NA,NA,TRUE,1,1.0697,330.9266,333.9242,0,76,76,6,1,10,25,NA,NA,NA,NA,NA,1,77,"binary"
"JustineFinalTest",1,"JustineFinalTest_Aug26","Test_Aug26","2025-08-26_18h09.07.813",NA,NA,337.2581,337.2581,337.2582,337.6246,NA,NA,NA,NA,NA,NA,NA,TRUE,2,0.8048,334.2599,337.2579,0,77,77,50,1,40,35,NA,NA,NA,NA,NA,1,78,"binary"
"JustineFinalTest",1,"JustineFinalTest_Aug26","Test_Aug26","2025-08-26_18h09.07.813",NA,NA,340.624,340.6241,340.6241,340.9579,NA,NA,NA,NA,NA,NA,NA,TRUE,2,0.8698,337.6265,340.6238,0,78,78,58,1,45,40,NA,NA,NA,NA,NA,1,79,"binary"
"JustineFinalTest",1,"JustineFinalTest_Aug26","Test_Aug26","2025-08-26_18h09.07.813",NA,NA,343.9539,343.9539,343.9539,344.3203,NA,NA,NA,NA,NA,NA,NA,TRUE,1,0.3345,340.9599,343.9538,0,79,79,87,1,100,39,NA,NA,NA,NA,NA,1,80,"binary"
"JustineFinalTest",1,"JustineFinalTest_Aug26","Test_Aug26","2025-08-26_18h09.07.813",NA,NA,347.3205,347.5527,347.5527,347.6536,NA,NA,NA,NA,NA,NA,NA,FALSE,NA,NA,344.3222,347.3203,0,80,80,74,1,90,33,NA,NA,NA,NA,NA,1,81,"binary"
"JustineFinalTest",1,"JustineFinalTest_Aug26","Test_Aug26","2025-08-26_18h09.07.813",NA,NA,350.654,350.9202,350.9203,351.0203,NA,NA,NA,NA,NA,NA,NA,FALSE,NA,NA,347.6558,350.6538,0,81,81,106,1,200,47,NA,NA,NA,NA,NA,1,82,"binary"
"JustineFinalTest",1,"JustineFinalTest_Aug26","Test_Aug26","2025-08-26_18h09.07.813",NA,NA,354.0207,354.2537,354.2537,354.353,NA,NA,NA,NA,NA,NA,NA,FALSE,NA,NA,351.0227,354.0204,0,82,82,89,1,100,54,NA,NA,NA,NA,NA,1,83,"binary"
"JustineFinalTest",1,"JustineFinalTest_Aug26","Test_Aug26","2025-08-26_18h09.07.813",NA,NA,357.3533,357.6202,357.6203,357.7203,NA,NA,NA,NA,NA,NA,NA,FALSE,NA,NA,354.3551,357.3532,0,83,83,32,1,25,31,NA,NA,NA,NA,NA,1,84,"binary"
"JustineFinalTest",1,"JustineFinalTest_Aug26","Test_Aug26","2025-08-26_18h09.07.813",NA,NA,360.7206,360.9537,360.9538,361.0535,NA,NA,NA,NA,NA,NA,NA,FALSE,NA,NA,357.7223,360.7204,0,84,84,7,1,10,26,NA,NA,NA,NA,NA,1,85,"binary"
"JustineFinalTest",1,"JustineFinalTest_Aug26","Test_Aug26","2025-08-26_18h09.07.813",NA,NA,364.054,364.3203,364.3204,364.4203,NA,NA,NA,NA,NA,NA,NA,FALSE,NA,NA,361.0557,364.0538,0,85,85,14,1,12,28,NA,NA,NA,NA,NA,1,86,"binary"
"JustineFinalTest",1,"JustineFinalTest_Aug26","Test_Aug26","2025-08-26_18h09.07.813",NA,NA,367.4205,367.6537,367.6538,367.7537,NA,NA,NA,NA,NA,NA,NA,FALSE,NA,NA,364.4224,367.4203,0,86,86,98,1,180,35,NA,NA,NA,NA,NA,1,87,"binary"
"JustineFinalTest",1,"JustineFinalTest_Aug26","Test_Aug26","2025-08-26_18h09.07.813",NA,NA,370.7541,371.0203,371.0204,371.1203,NA,NA,NA,NA,NA,NA,NA,FALSE,NA,NA,367.7557,370.7538,0,87,87,20,1,14,28,NA,NA,NA,NA,NA,1,88,"binary"
"JustineFinalTest",1,"JustineFinalTest_Aug26","Test_Aug26","2025-08-26_18h09.07.813",NA,NA,374.1206,374.3537,374.3538,374.4536,NA,NA,NA,NA,NA,NA,NA,FALSE,NA,NA,371.1223,374.1203,0,88,88,24,1,21,26,NA,NA,NA,NA,NA,1,89,"binary"
"JustineFinalTest",1,"JustineFinalTest_Aug26","Test_Aug26","2025-08-26_18h09.07.813",NA,NA,377.4539,377.7202,377.7203,377.8203,NA,NA,NA,NA,NA,NA,NA,FALSE,NA,NA,374.4556,377.4537,0,89,89,31,1,25,29,NA,NA,NA,NA,NA,1,90,"binary"
"JustineFinalTest",1,"JustineFinalTest_Aug26","Test_Aug26","2025-08-26_18h09.07.813",NA,NA,380.8206,381.0536,381.0537,381.1537,NA,NA,NA,NA,NA,NA,NA,FALSE,NA,NA,377.8223,380.8205,0,90,90,83,1,95,54,NA,NA,NA,NA,NA,1,91,"binary"
"JustineFinalTest",1,"JustineFinalTest_Aug26","Test_Aug26","2025-08-26_18h09.07.813",NA,NA,384.1498,384.4152,384.4152,384.5162,NA,NA,NA,NA,NA,NA,NA,FALSE,NA,NA,381.1558,384.1495,0,91,91,19,1,14,26,NA,NA,NA,NA,NA,1,92,"binary"
"JustineFinalTest",1,"JustineFinalTest_Aug26","Test_Aug26","2025-08-26_18h09.07.813",NA,NA,387.5121,387.7786,387.7787,387.8776,NA,NA,NA,NA,NA,NA,NA,FALSE,NA,NA,384.5181,387.512,0,92,92,59,1,45,46,NA,NA,NA,NA,NA,1,93,"binary"
"JustineFinalTest",1,"JustineFinalTest_Aug26","Test_Aug26","2025-08-26_18h09.07.813",NA,NA,390.8788,391.1119,391.1119,391.212,NA,NA,NA,NA,NA,NA,NA,FALSE,NA,NA,387.8797,390.8786,0,93,93,47,1,30,38,NA,NA,NA,NA,NA,1,94,"binary"
"JustineFinalTest",1,"JustineFinalTest_Aug26","Test_Aug26","2025-08-26_18h09.07.813",NA,NA,394.2122,394.4785,394.4786,394.5787,NA,NA,NA,NA,NA,NA,NA,FALSE,NA,NA,391.2142,394.212,0,94,94,94,1,150,47,NA,NA,NA,NA,NA,1,95,"binary"
"JustineFinalTest",1,"JustineFinalTest_Aug26","Test_Aug26","2025-08-26_18h09.07.813",NA,NA,397.5788,397.812,397.8121,397.9119,NA,NA,NA,NA,NA,NA,NA,FALSE,NA,NA,394.5807,397.5785,0,95,95,52,1,40,47,NA,NA,NA,NA,NA,1,96,"binary"
"JustineFinalTest",1,"JustineFinalTest_Aug26","Test_Aug26","2025-08-26_18h09.07.813",NA,NA,400.9122,401.1777,401.1778,401.2453,NA,NA,NA,NA,NA,NA,NA,FALSE,NA,NA,397.9139,400.9119,0,96,96,17,1,12,35,NA,NA,NA,NA,NA,1,97,"binary"
"JustineFinalTest",1,"JustineFinalTest_Aug26","Test_Aug26","2025-08-26_18h09.07.813",NA,NA,404.2788,404.5119,404.5119,404.6119,NA,NA,NA,NA,NA,NA,NA,FALSE,NA,NA,401.2474,404.2785,0,97,97,107,1,200,54,NA,NA,NA,NA,NA,1,98,"binary"
"JustineFinalTest",1,"JustineFinalTest_Aug26","Test_Aug26","2025-08-26_18h09.07.813",NA,NA,407.6122,407.8785,407.8786,407.9785,NA,NA,NA,NA,NA,NA,NA,FALSE,NA,NA,404.6138,407.612,0,98,98,39,1,28,35,NA,NA,NA,NA,NA,1,99,"binary"
"JustineFinalTest",1,"JustineFinalTest_Aug26","Test_Aug26","2025-08-26_18h09.07.813",NA,NA,410.9788,411.2109,411.211,411.3109,NA,NA,NA,NA,NA,NA,NA,FALSE,NA,NA,407.9806,410.9785,0,99,99,72,1,90,26,NA,NA,NA,NA,NA,1,100,"binary"
"JustineFinalTest",1,"JustineFinalTest_Aug26","Test_Aug26","2025-08-26_18h09.07.813",NA,NA,414.3122,414.5785,414.5786,414.6787,NA,NA,NA,NA,NA,NA,NA,FALSE,NA,NA,411.3129,414.312,0,100,100,8,1,10,27,NA,NA,NA,NA,NA,1,101,"binary"
"JustineFinalTest",1,"JustineFinalTest_Aug26","Test_Aug26","2025-08-26_18h09.07.813",NA,NA,417.6781,417.9119,417.9119,418.0119,NA,NA,NA,NA,NA,NA,NA,FALSE,NA,NA,414.6806,417.6778,0,101,101,51,1,40,40,NA,NA,NA,NA,NA,1,102,"binary"
"JustineFinalTest",1,"JustineFinalTest_Aug26","Test_Aug26","2025-08-26_18h09.07.813",NA,NA,421.0121,421.2786,421.2786,421.3786,NA,NA,NA,NA,NA,NA,NA,FALSE,NA,NA,418.014,421.0119,0,102,102,78,1,95,31,NA,NA,NA,NA,NA,1,103,"binary"
"JustineFinalTest",1,"JustineFinalTest_Aug26","Test_Aug26","2025-08-26_18h09.07.813",NA,NA,424.3788,424.6118,424.6119,424.7118,NA,NA,NA,NA,NA,NA,NA,FALSE,NA,NA,421.3803,424.3786,0,103,103,34,1,25,35,NA,NA,NA,NA,NA,1,104,"binary"
"JustineFinalTest",1,"JustineFinalTest_Aug26","Test_Aug26","2025-08-26_18h09.07.813",NA,NA,427.7122,427.9785,427.9785,428.0783,NA,NA,NA,NA,NA,NA,NA,FALSE,NA,NA,424.7138,427.712,0,104,104,13,1,12,26,NA,NA,NA,NA,NA,1,105,"binary"
"JustineFinalTest",1,"JustineFinalTest_Aug26","Test_Aug26","2025-08-26_18h09.07.813",NA,NA,431.0788,431.3118,431.3119,431.4119,NA,NA,NA,NA,NA,NA,NA,FALSE,NA,NA,428.0804,431.0787,0,105,105,70,1,60,47,NA,NA,NA,NA,NA,1,106,"binary"
"JustineFinalTest",1,"JustineFinalTest_Aug26","Test_Aug26","2025-08-26_18h09.07.813",NA,NA,434.4123,434.6788,434.6788,434.7783,NA,NA,NA,NA,NA,NA,NA,FALSE,NA,NA,431.4139,434.4121,0,106,106,43,1,30,27,NA,NA,NA,NA,NA,1,107,"binary"
"JustineFinalTest",1,"JustineFinalTest_Aug26","Test_Aug26","2025-08-26_18h09.07.813",NA,NA,437.7787,438.0119,438.0119,438.1119,NA,NA,NA,NA,NA,NA,NA,FALSE,NA,NA,434.7806,437.7784,0,107,107,64,1,50,46,NA,NA,NA,NA,NA,1,108,"binary"
"JustineFinalTest",1,"JustineFinalTest_Aug26","Test_Aug26","2025-08-26_18h09.07.813",NA,NA,454.4786,454.4786,454.4786,454.8118,NA,NA,NA,NA,NA,NA,NA,TRUE,1,0.7827,451.4906,454.4784,NA,NA,NA,NA,NA,25,35,0,0,0,34,1,2,1,"binary"
"JustineFinalTest",1,"JustineFinalTest_Aug26","Test_Aug26","2025-08-26_18h09.07.813",NA,NA,457.812,457.8121,457.8121,458.1785,NA,NA,NA,NA,NA,NA,NA,TRUE,2,0.4686,454.8139,457.8118,NA,NA,NA,NA,NA,40,27,0,1,1,48,1,2,2,"binary"
"JustineFinalTest",1,"JustineFinalTest_Aug26","Test_Aug26","2025-08-26_18h09.07.813",NA,NA,461.1788,461.1788,461.1788,461.5118,NA,NA,NA,NA,NA,NA,NA,TRUE,1,0.5879,458.1806,461.1786,NA,NA,NA,NA,NA,150,33,0,2,2,91,1,2,3,"binary"
"JustineFinalTest",1,"JustineFinalTest_Aug26","Test_Aug26","2025-08-26_18h09.07.813",NA,NA,464.512,464.5122,464.5122,464.8776,NA,NA,NA,NA,NA,NA,NA,TRUE,1,1.4675,461.5139,464.5118,NA,NA,NA,NA,NA,12,25,0,3,3,12,1,2,4,"binary"
"JustineFinalTest",1,"JustineFinalTest_Aug26","Test_Aug26","2025-08-26_18h09.07.813",NA,NA,467.8778,467.8778,467.8778,468.2118,NA,NA,NA,NA,NA,NA,NA,TRUE,1,0.497,464.8796,467.8776,NA,NA,NA,NA,NA,180,27,0,4,4,96,1,2,5,"binary"
"JustineFinalTest",1,"JustineFinalTest_Aug26","Test_Aug26","2025-08-26_18h09.07.813",NA,NA,471.212,471.212,471.2121,471.5784,NA,NA,NA,NA,NA,NA,NA,TRUE,1,0.4404,468.2138,471.2118,NA,NA,NA,NA,NA,25,31,0,5,5,32,1,2,6,"binary"
"JustineFinalTest",1,"JustineFinalTest_Aug26","Test_Aug26","2025-08-26_18h09.07.813",NA,NA,474.5745,474.8077,474.8077,474.9066,NA,NA,NA,NA,NA,NA,NA,FALSE,NA,NA,471.5804,474.5743,NA,NA,NA,NA,NA,95,35,0,6,6,80,1,2,7,"binary"
"JustineFinalTest",1,"JustineFinalTest_Aug26","Test_Aug26","2025-08-26_18h09.07.813",NA,NA,477.908,478.1743,478.1743,478.2744,NA,NA,NA,NA,NA,NA,NA,FALSE,NA,NA,474.9087,477.9078,NA,NA,NA,NA,NA,60,54,0,7,7,71,1,2,8,"binary"
"JustineFinalTest",1,"JustineFinalTest_Aug26","Test_Aug26","2025-08-26_18h09.07.813",NA,NA,481.2745,481.5076,481.5076,481.6075,NA,NA,NA,NA,NA,NA,NA,FALSE,NA,NA,478.2764,481.2744,NA,NA,NA,NA,NA,150,40,0,8,8,93,1,2,9,"binary"
"JustineFinalTest",1,"JustineFinalTest_Aug26","Test_Aug26","2025-08-26_18h09.07.813",NA,NA,484.6071,484.8742,484.8742,484.9743,NA,NA,NA,NA,NA,NA,NA,FALSE,NA,NA,481.6099,484.6069,NA,NA,NA,NA,NA,60,40,0,9,9,69,1,2,10,"binary"
"JustineFinalTest",1,"JustineFinalTest_Aug26","Test_Aug26","2025-08-26_18h09.07.813",NA,NA,487.9745,488.2075,488.2076,488.3077,NA,NA,NA,NA,NA,NA,NA,FALSE,NA,NA,484.9763,487.9742,NA,NA,NA,NA,NA,50,35,0,10,10,62,1,2,11,"binary"
"JustineFinalTest",1,"JustineFinalTest_Aug26","Test_Aug26","2025-08-26_18h09.07.813",NA,NA,491.308,491.5744,491.5745,491.6742,NA,NA,NA,NA,NA,NA,NA,FALSE,NA,NA,488.3099,491.3077,NA,NA,NA,NA,NA,180,35,0,11,11,98,1,2,12,"binary"
"JustineFinalTest",1,"JustineFinalTest_Aug26","Test_Aug26","2025-08-26_18h09.07.813",NA,NA,494.6745,494.9076,494.9077,495.0076,NA,NA,NA,NA,NA,NA,NA,FALSE,NA,NA,491.6764,494.6743,NA,NA,NA,NA,NA,95,54,0,12,12,83,1,2,13,"binary"
"JustineFinalTest",1,"JustineFinalTest_Aug26","Test_Aug26","2025-08-26_18h09.07.813",NA,NA,498.0071,498.2743,498.2743,498.3742,NA,NA,NA,NA,NA,NA,NA,FALSE,NA,NA,495.0094,498.0069,NA,NA,NA,NA,NA,30,26,0,13,13,42,1,2,14,"binary"
"JustineFinalTest",1,"JustineFinalTest_Aug26","Test_Aug26","2025-08-26_18h09.07.813",NA,NA,501.3745,501.6076,501.6076,501.7077,NA,NA,NA,NA,NA,NA,NA,FALSE,NA,NA,498.3763,501.3744,NA,NA,NA,NA,NA,28,46,0,14,14,41,1,2,15,"binary"
"JustineFinalTest",1,"JustineFinalTest_Aug26","Test_Aug26","2025-08-26_18h09.07.813",NA,NA,504.7079,504.9742,504.9742,505.0742,NA,NA,NA,NA,NA,NA,NA,FALSE,NA,NA,501.7097,504.7077,NA,NA,NA,NA,NA,150,54,0,15,15,95,1,2,16,"binary"
"JustineFinalTest",1,"JustineFinalTest_Aug26","Test_Aug26","2025-08-26_18h09.07.813",NA,NA,508.0745,508.3075,508.3076,508.4075,NA,NA,NA,NA,NA,NA,NA,FALSE,NA,NA,505.0765,508.0743,NA,NA,NA,NA,NA,100,54,0,16,16,89,1,2,17,"binary"
"JustineFinalTest",1,"JustineFinalTest_Aug26","Test_Aug26","2025-08-26_18h09.07.813",NA,NA,511.4078,511.6743,511.6743,511.7741,NA,NA,NA,NA,NA,NA,NA,FALSE,NA,NA,508.4096,511.4075,NA,NA,NA,NA,NA,14,26,0,17,17,19,1,2,18,"binary"
"JustineFinalTest",1,"JustineFinalTest_Aug26","Test_Aug26","2025-08-26_18h09.07.813",NA,NA,514.7744,515.0076,515.0077,515.1076,NA,NA,NA,NA,NA,NA,NA,FALSE,NA,NA,511.7763,514.7742,NA,NA,NA,NA,NA,180,31,0,18,18,97,1,2,19,"binary"
"JustineFinalTest",1,"JustineFinalTest_Aug26","Test_Aug26","2025-08-26_18h09.07.813",NA,NA,518.1079,518.1079,518.1079,518.4737,NA,NA,NA,NA,NA,NA,NA,TRUE,1,1.0744,515.1095,518.1077,NA,NA,NA,NA,NA,95,40,0,19,19,81,1,2,20,"binary"
"JustineFinalTest",1,"JustineFinalTest_Aug26","Test_Aug26","2025-08-26_18h09.07.813",NA,NA,521.4745,521.4746,521.4747,521.8077,NA,NA,NA,NA,NA,NA,NA,TRUE,2,0.3893,518.4756,521.4744,NA,NA,NA,NA,NA,60,33,0,20,20,67,1,2,21,"binary"
"JustineFinalTest",1,"JustineFinalTest_Aug26","Test_Aug26","2025-08-26_18h09.07.813",NA,NA,524.8079,525.0744,525.0745,525.1742,NA,NA,NA,NA,NA,NA,NA,FALSE,NA,NA,521.8098,524.8078,NA,NA,NA,NA,NA,28,28,0,21,21,37,1,2,22,"binary"
"JustineFinalTest",1,"JustineFinalTest_Aug26","Test_Aug26","2025-08-26_18h09.07.813",NA,NA,528.1746,528.4075,528.4076,528.5078,NA,NA,NA,NA,NA,NA,NA,FALSE,NA,NA,525.1764,528.1744,NA,NA,NA,NA,NA,45,40,0,22,22,58,1,2,23,"binary"
"JustineFinalTest",1,"JustineFinalTest_Aug26","Test_Aug26","2025-08-26_18h09.07.813",NA,NA,531.536,531.7692,531.7693,531.87,NA,NA,NA,NA,NA,NA,NA,FALSE,NA,NA,528.5099,531.5358,NA,NA,NA,NA,NA,200,35,0,23,23,104,1,2,24,"binary"
"JustineFinalTest",1,"JustineFinalTest_Aug26","Test_Aug26","2025-08-26_18h09.07.813",NA,NA,534.8703,535.1367,535.1368,535.2367,NA,NA,NA,NA,NA,NA,NA,FALSE,NA,NA,531.8723,534.8701,NA,NA,NA,NA,NA,90,33,0,24,24,74,1,2,25,"binary"
"JustineFinalTest",1,"JustineFinalTest_Aug26","Test_Aug26","2025-08-26_18h09.07.813",NA,NA,538.2369,538.4693,538.4693,538.5701,NA,NA,NA,NA,NA,NA,NA,FALSE,NA,NA,535.2388,538.2368,NA,NA,NA,NA,NA,180,46,0,25,25,100,1,2,26,"binary"
"JustineFinalTest",1,"JustineFinalTest_Aug26","Test_Aug26","2025-08-26_18h09.07.813",NA,NA,541.5703,541.8358,541.8359,541.9359,NA,NA,NA,NA,NA,NA,NA,FALSE,NA,NA,538.5723,541.57,NA,NA,NA,NA,NA,14,28,0,26,26,20,1,2,27,"binary"
"JustineFinalTest",1,"JustineFinalTest_Aug26","Test_Aug26","2025-08-26_18h09.07.813",NA,NA,544.9369,545.1691,545.1692,545.2693,NA,NA,NA,NA,NA,NA,NA,FALSE,NA,NA,541.9378,544.9367,NA,NA,NA,NA,NA,10,25,0,27,27,6,1,2,28,"binary"
"JustineFinalTest",1,"JustineFinalTest_Aug26","Test_Aug26","2025-08-26_18h09.07.813",NA,NA,548.2661,548.5324,548.5325,548.6324,NA,NA,NA,NA,NA,NA,NA,FALSE,NA,NA,545.2713,548.2659,NA,NA,NA,NA,NA,50,46,0,28,28,64,1,2,29,"binary"
"JustineFinalTest",1,"JustineFinalTest_Aug26","Test_Aug26","2025-08-26_18h09.07.813",NA,NA,551.6327,551.8659,551.8659,551.9658,NA,NA,NA,NA,NA,NA,NA,FALSE,NA,NA,548.6346,551.6326,NA,NA,NA,NA,NA,45,46,0,29,29,59,1,2,30,"binary"
"JustineFinalTest",1,"JustineFinalTest_Aug26","Test_Aug26","2025-08-26_18h09.07.813",NA,NA,554.966,555.236,555.2361,555.3366,NA,NA,NA,NA,NA,NA,NA,FALSE,NA,NA,551.9679,554.9659,NA,NA,NA,NA,NA,50,30,0,30,30,61,1,2,31,"binary"
"JustineFinalTest",1,"JustineFinalTest_Aug26","Test_Aug26","2025-08-26_18h09.07.813",NA,NA,558.3369,558.57,558.5701,558.6699,NA,NA,NA,NA,NA,NA,NA,FALSE,NA,NA,555.3386,558.3367,NA,NA,NA,NA,NA,25,33,0,31,31,33,1,2,32,"binary"
"JustineFinalTest",1,"JustineFinalTest_Aug26","Test_Aug26","2025-08-26_18h09.07.813",NA,NA,561.6702,561.9367,561.9368,562.0367,NA,NA,NA,NA,NA,NA,NA,FALSE,NA,NA,558.672,561.67,NA,NA,NA,NA,NA,12,33,0,32,32,16,1,2,33,"binary"
"JustineFinalTest",1,"JustineFinalTest_Aug26","Test_Aug26","2025-08-26_18h09.07.813",NA,NA,565.037,565.27,565.2701,565.37,NA,NA,NA,NA,NA,NA,NA,FALSE,NA,NA,562.0389,565.0368,NA,NA,NA,NA,NA,28,26,0,33,33,36,1,2,34,"binary"
"JustineFinalTest",1,"JustineFinalTest_Aug26","Test_Aug26","2025-08-26_18h09.07.813",NA,NA,568.3703,568.6365,568.6366,568.7366,NA,NA,NA,NA,NA,NA,NA,FALSE,NA,NA,565.372,568.3701,NA,NA,NA,NA,NA,50,40,0,34,34,63,1,2,35,"binary"
"JustineFinalTest",1,"JustineFinalTest_Aug26","Test_Aug26","2025-08-26_18h09.07.813",NA,NA,571.7326,571.9659,571.9659,572.0652,NA,NA,NA,NA,NA,NA,NA,FALSE,NA,NA,568.7386,571.7325,NA,NA,NA,NA,NA,30,32,0,35,35,46,1,2,36,"binary"
"JustineFinalTest",1,"JustineFinalTest_Aug26","Test_Aug26","2025-08-26_18h09.07.813",NA,NA,575.066,575.3324,575.3324,575.4326,NA,NA,NA,NA,NA,NA,NA,FALSE,NA,NA,572.0672,575.0659,NA,NA,NA,NA,NA,30,38,0,36,36,47,1,2,37,"binary"
"JustineFinalTest",1,"JustineFinalTest_Aug26","Test_Aug26","2025-08-26_18h09.07.813",NA,NA,578.4326,578.6659,578.6659,578.7648,NA,NA,NA,NA,NA,NA,NA,FALSE,NA,NA,575.4345,578.4324,NA,NA,NA,NA,NA,7,25,0,37,37,0,1,2,38,"binary"
"JustineFinalTest",1,"JustineFinalTest_Aug26","Test_Aug26","2025-08-26_18h09.07.813",NA,NA,581.766,582.0324,582.0324,582.1315,NA,NA,NA,NA,NA,NA,NA,FALSE,NA,NA,578.7667,581.7658,NA,NA,NA,NA,NA,150,35,0,38,38,92,1,2,39,"binary"
"JustineFinalTest",1,"JustineFinalTest_Aug26","Test_Aug26","2025-08-26_18h09.07.813",NA,NA,585.1327,585.3658,585.3658,585.4658,NA,NA,NA,NA,NA,NA,NA,FALSE,NA,NA,582.1334,585.1325,NA,NA,NA,NA,NA,45,26,0,39,39,54,1,2,40,"binary"
"JustineFinalTest",1,"JustineFinalTest_Aug26","Test_Aug26","2025-08-26_18h09.07.813",NA,NA,588.466,588.7325,588.7325,588.8324,NA,NA,NA,NA,NA,NA,NA,FALSE,NA,NA,585.468,588.4658,NA,NA,NA,NA,NA,28,35,0,40,40,39,1,2,41,"binary"
"JustineFinalTest",1,"JustineFinalTest_Aug26","Test_Aug26","2025-08-26_18h09.07.813",NA,NA,591.8323,592.0657,592.0658,592.1659,NA,NA,NA,NA,NA,NA,NA,FALSE,NA,NA,588.8344,591.8322,NA,NA,NA,NA,NA,100,39,0,41,41,87,1,2,42,"binary"
"JustineFinalTest",1,"JustineFinalTest_Aug26","Test_Aug26","2025-08-26_18h09.07.813",NA,NA,595.166,595.4321,595.4322,595.5324,NA,NA,NA,NA,NA,NA,NA,FALSE,NA,NA,592.1679,595.1658,NA,NA,NA,NA,NA,12,26,0,42,42,13,1,2,43,"binary"
"JustineFinalTest",1,"JustineFinalTest_Aug26","Test_Aug26","2025-08-26_18h09.07.813",NA,NA,598.5326,598.7657,598.7658,598.8659,NA,NA,NA,NA,NA,NA,NA,FALSE,NA,NA,595.5343,598.5325,NA,NA,NA,NA,NA,40,40,0,43,43,51,1,2,44,"binary"
"JustineFinalTest",1,"JustineFinalTest_Aug26","Test_Aug26","2025-08-26_18h09.07.813",NA,NA,601.8661,602.1325,602.1325,602.2323,NA,NA,NA,NA,NA,NA,NA,FALSE,NA,NA,598.8681,601.8658,NA,NA,NA,NA,NA,10,27,0,44,44,8,1,2,45,"binary"
"JustineFinalTest",1,"JustineFinalTest_Aug26","Test_Aug26","2025-08-26_18h09.07.813",NA,NA,605.2318,605.4647,605.4649,605.5658,NA,NA,NA,NA,NA,NA,NA,FALSE,NA,NA,602.2344,605.2316,NA,NA,NA,NA,NA,90,40,0,45,45,75,1,2,46,"binary"
"JustineFinalTest",1,"JustineFinalTest_Aug26","Test_Aug26","2025-08-26_18h09.07.813",NA,NA,608.5659,608.8323,608.8324,608.9323,NA,NA,NA,NA,NA,NA,NA,FALSE,NA,NA,605.5679,608.5657,NA,NA,NA,NA,NA,100,38,0,46,46,86,1,2,47,"binary"
"JustineFinalTest",1,"JustineFinalTest_Aug26","Test_Aug26","2025-08-26_18h09.07.813",NA,NA,611.9326,612.1658,612.1659,612.2657,NA,NA,NA,NA,NA,NA,NA,FALSE,NA,NA,608.9344,611.9324,NA,NA,NA,NA,NA,14,32,0,47,47,21,1,2,48,"binary"
"JustineFinalTest",1,"JustineFinalTest_Aug26","Test_Aug26","2025-08-26_18h09.07.813",NA,NA,615.2659,615.5316,615.5317,615.6324,NA,NA,NA,NA,NA,NA,NA,FALSE,NA,NA,612.2677,615.2657,NA,NA,NA,NA,NA,12,28,0,48,48,14,1,2,49,"binary"
"JustineFinalTest",1,"JustineFinalTest_Aug26","Test_Aug26","2025-08-26_18h09.07.813",NA,NA,618.6326,618.8657,618.8657,618.9658,NA,NA,NA,NA,NA,NA,NA,FALSE,NA,NA,615.6344,618.6324,NA,NA,NA,NA,NA,21,32,0,49,49,28,1,2,50,"binary"
"JustineFinalTest",1,"JustineFinalTest_Aug26","Test_Aug26","2025-08-26_18h09.07.813",NA,NA,621.9659,622.2324,622.2324,622.3324,NA,NA,NA,NA,NA,NA,NA,FALSE,NA,NA,618.9678,621.9658,NA,NA,NA,NA,NA,90,54,0,50,50,77,1,2,51,"binary"
"JustineFinalTest",1,"JustineFinalTest_Aug26","Test_Aug26","2025-08-26_18h09.07.813",NA,NA,625.3319,625.5657,625.5658,625.6657,NA,NA,NA,NA,NA,NA,NA,FALSE,NA,NA,622.3344,625.3317,NA,NA,NA,NA,NA,200,39,0,51,51,105,1,2,52,"binary"
"JustineFinalTest",1,"JustineFinalTest_Aug26","Test_Aug26","2025-08-26_18h09.07.813",NA,NA,628.6656,628.9324,628.9325,629.0315,NA,NA,NA,NA,NA,NA,NA,FALSE,NA,NA,625.6676,628.6653,NA,NA,NA,NA,NA,45,31,0,52,52,56,1,2,53,"binary"
"JustineFinalTest",1,"JustineFinalTest_Aug26","Test_Aug26","2025-08-26_18h09.07.813",NA,NA,632.0326,632.2656,632.2656,632.3648,NA,NA,NA,NA,NA,NA,NA,FALSE,NA,NA,629.0332,632.0324,NA,NA,NA,NA,NA,25,46,0,53,53,35,1,2,54,"binary"
"JustineFinalTest",1,"JustineFinalTest_Aug26","Test_Aug26","2025-08-26_18h09.07.813",NA,NA,635.3661,635.3661,635.3661,635.7032,NA,NA,NA,NA,NA,NA,NA,TRUE,1,0.2843,632.3667,635.3659,NA,NA,NA,NA,NA,40,33,0,54,54,49,1,2,55,"binary"
"JustineFinalTest",1,"JustineFinalTest_Aug26","Test_Aug26","2025-08-26_18h09.07.813",NA,NA,638.7368,638.97,638.9701,639.07,NA,NA,NA,NA,NA,NA,NA,FALSE,NA,NA,635.7053,638.7366,NA,NA,NA,NA,NA,12,35,0,55,55,17,1,2,56,"binary"
"JustineFinalTest",1,"JustineFinalTest_Aug26","Test_Aug26","2025-08-26_18h09.07.813",NA,NA,642.0652,642.0653,642.0654,642.4313,NA,NA,NA,NA,NA,NA,NA,TRUE,1,2.3317,639.072,642.065,NA,NA,NA,NA,NA,30,27,0,56,56,43,1,2,57,"binary"
"JustineFinalTest",1,"JustineFinalTest_Aug26","Test_Aug26","2025-08-26_18h09.07.813",NA,NA,645.4326,645.6652,645.6653,645.7656,NA,NA,NA,NA,NA,NA,NA,FALSE,NA,NA,642.4333,645.4324,NA,NA,NA,NA,NA,90,26,0,57,57,72,1,2,58,"binary"
"JustineFinalTest",1,"JustineFinalTest_Aug26","Test_Aug26","2025-08-26_18h09.07.813",NA,NA,648.7659,649.0324,649.0325,649.1319,NA,NA,NA,NA,NA,NA,NA,FALSE,NA,NA,645.7677,648.7657,NA,NA,NA,NA,NA,60,29,0,58,58,66,1,2,59,"binary"
"JustineFinalTest",1,"JustineFinalTest_Aug26","Test_Aug26","2025-08-26_18h09.07.813",NA,NA,652.1325,652.3657,652.3657,652.4655,NA,NA,NA,NA,NA,NA,NA,FALSE,NA,NA,649.1341,652.1324,NA,NA,NA,NA,NA,60,47,0,59,59,70,1,2,60,"binary"
"JustineFinalTest",1,"JustineFinalTest_Aug26","Test_Aug26","2025-08-26_18h09.07.813",NA,NA,655.4659,655.7323,655.7324,655.8323,NA,NA,NA,NA,NA,NA,NA,FALSE,NA,NA,652.4674,655.4657,NA,NA,NA,NA,NA,200,28,0,60,60,103,1,2,61,"binary"
"JustineFinalTest",1,"JustineFinalTest_Aug26","Test_Aug26","2025-08-26_18h09.07.813",NA,NA,658.8322,659.0657,659.0657,659.1657,NA,NA,NA,NA,NA,NA,NA,FALSE,NA,NA,655.8345,658.8322,NA,NA,NA,NA,NA,200,47,0,61,61,106,1,2,62,"binary"
"JustineFinalTest",1,"JustineFinalTest_Aug26","Test_Aug26","2025-08-26_18h09.07.813",NA,NA,662.1659,662.4323,662.4323,662.5314,NA,NA,NA,NA,NA,NA,NA,FALSE,NA,NA,659.1679,662.1657,NA,NA,NA,NA,NA,200,54,0,62,62,107,1,2,63,"binary"
"JustineFinalTest",1,"JustineFinalTest_Aug26","Test_Aug26","2025-08-26_18h09.07.813",NA,NA,665.5323,665.7656,665.7656,665.8649,NA,NA,NA,NA,NA,NA,NA,FALSE,NA,NA,662.5333,665.532,NA,NA,NA,NA,NA,100,31,0,63,63,85,1,2,64,"binary"
"JustineFinalTest",1,"JustineFinalTest_Aug26","Test_Aug26","2025-08-26_18h09.07.813",NA,NA,668.866,669.1323,669.1323,669.2323,NA,NA,NA,NA,NA,NA,NA,FALSE,NA,NA,665.8668,668.8656,NA,NA,NA,NA,NA,10,29,0,64,64,9,1,2,65,"binary"
"JustineFinalTest",1,"JustineFinalTest_Aug26","Test_Aug26","2025-08-26_18h09.07.813",NA,NA,672.2324,672.4656,672.4657,672.5656,NA,NA,NA,NA,NA,NA,NA,FALSE,NA,NA,669.2342,672.2323,NA,NA,NA,NA,NA,50,54,0,65,65,65,1,2,66,"binary"
"JustineFinalTest",1,"JustineFinalTest_Aug26","Test_Aug26","2025-08-26_18h09.07.813",NA,NA,675.5658,675.8323,675.8323,675.9323,NA,NA,NA,NA,NA,NA,NA,FALSE,NA,NA,672.5677,675.5656,NA,NA,NA,NA,NA,7,35,0,66,66,5,1,2,67,"binary"
"JustineFinalTest",1,"JustineFinalTest_Aug26","Test_Aug26","2025-08-26_18h09.07.813",NA,NA,678.9325,679.1656,679.1657,679.2656,NA,NA,NA,NA,NA,NA,NA,FALSE,NA,NA,675.9343,678.9323,NA,NA,NA,NA,NA,40,54,0,67,67,53,1,2,68,"binary"
"JustineFinalTest",1,"JustineFinalTest_Aug26","Test_Aug26","2025-08-26_18h09.07.813",NA,NA,682.2659,682.5323,682.5323,682.6322,NA,NA,NA,NA,NA,NA,NA,FALSE,NA,NA,679.2677,682.2657,NA,NA,NA,NA,NA,21,30,0,68,68,27,1,2,69,"binary"
"JustineFinalTest",1,"JustineFinalTest_Aug26","Test_Aug26","2025-08-26_18h09.07.813",NA,NA,685.6324,685.8658,685.8659,685.9656,NA,NA,NA,NA,NA,NA,NA,FALSE,NA,NA,682.6342,685.6322,NA,NA,NA,NA,NA,95,47,0,69,69,82,1,2,70,"binary"
"JustineFinalTest",1,"JustineFinalTest_Aug26","Test_Aug26","2025-08-26_18h09.07.813",NA,NA,688.9652,689.2325,689.2326,689.3322,NA,NA,NA,NA,NA,NA,NA,FALSE,NA,NA,685.9676,688.9651,NA,NA,NA,NA,NA,7,30,0,70,70,3,1,2,71,"binary"
"JustineFinalTest",1,"JustineFinalTest_Aug26","Test_Aug26","2025-08-26_18h09.07.813",NA,NA,692.3327,692.5646,692.5647,692.6656,NA,NA,NA,NA,NA,NA,NA,FALSE,NA,NA,689.3342,692.3325,NA,NA,NA,NA,NA,14,35,0,71,71,22,1,2,72,"binary"
"JustineFinalTest",1,"JustineFinalTest_Aug26","Test_Aug26","2025-08-26_18h09.07.813",NA,NA,695.6659,695.9315,695.9315,696.0323,NA,NA,NA,NA,NA,NA,NA,FALSE,NA,NA,692.6674,695.6657,NA,NA,NA,NA,NA,180,54,0,72,72,101,1,2,73,"binary"
"JustineFinalTest",1,"JustineFinalTest_Aug26","Test_Aug26","2025-08-26_18h09.07.813",NA,NA,699.0313,699.2656,699.2657,699.3657,NA,NA,NA,NA,NA,NA,NA,FALSE,NA,NA,696.0346,699.0313,NA,NA,NA,NA,NA,40,47,0,73,73,52,1,2,74,"binary"
"JustineFinalTest",1,"JustineFinalTest_Aug26","Test_Aug26","2025-08-26_18h09.07.813",NA,NA,702.3653,702.6314,702.6314,702.7323,NA,NA,NA,NA,NA,NA,NA,FALSE,NA,NA,699.3677,702.3652,NA,NA,NA,NA,NA,30,30,0,74,74,45,1,2,75,"binary"
"JustineFinalTest",1,"JustineFinalTest_Aug26","Test_Aug26","2025-08-26_18h09.07.813",NA,NA,705.7282,705.9604,705.9605,706.0605,NA,NA,NA,NA,NA,NA,NA,FALSE,NA,NA,702.7341,705.7281,NA,NA,NA,NA,NA,28,39,0,75,75,40,1,2,76,"binary"
"JustineFinalTest",1,"JustineFinalTest_Aug26","Test_Aug26","2025-08-26_18h09.07.813",NA,NA,709.0618,709.0619,709.0619,709.4281,NA,NA,NA,NA,NA,NA,NA,TRUE,1,0.8092,706.0626,709.0616,NA,NA,NA,NA,NA,100,46,0,76,76,88,1,2,77,"binary"
"JustineFinalTest",1,"JustineFinalTest_Aug26","Test_Aug26","2025-08-26_18h09.07.813",NA,NA,712.4275,712.4275,712.4275,712.7615,NA,NA,NA,NA,NA,NA,NA,TRUE,2,0.4481,709.43,712.4273,NA,NA,NA,NA,NA,150,47,0,77,77,94,1,2,78,"binary"
"JustineFinalTest",1,"JustineFinalTest_Aug26","Test_Aug26","2025-08-26_18h09.07.813",NA,NA,715.7617,716.0281,716.0281,716.1281,NA,NA,NA,NA,NA,NA,NA,FALSE,NA,NA,712.7637,715.7615,NA,NA,NA,NA,NA,100,26,0,78,78,84,1,2,79,"binary"
"JustineFinalTest",1,"JustineFinalTest_Aug26","Test_Aug26","2025-08-26_18h09.07.813",NA,NA,719.1283,719.3611,719.3612,719.4611,NA,NA,NA,NA,NA,NA,NA,FALSE,NA,NA,716.13,719.1281,NA,NA,NA,NA,NA,14,25,0,79,79,18,1,2,80,"binary"
"JustineFinalTest",1,"JustineFinalTest_Aug26","Test_Aug26","2025-08-26_18h09.07.813",NA,NA,722.4613,722.7272,722.7272,722.828,NA,NA,NA,NA,NA,NA,NA,FALSE,NA,NA,719.463,722.4612,NA,NA,NA,NA,NA,21,38,0,80,80,29,1,2,81,"binary"
"JustineFinalTest",1,"JustineFinalTest_Aug26","Test_Aug26","2025-08-26_18h09.07.813",NA,NA,725.8278,726.0614,726.0615,726.1605,NA,NA,NA,NA,NA,NA,NA,FALSE,NA,NA,722.8299,725.8276,NA,NA,NA,NA,NA,10,26,0,81,81,7,1,2,82,"binary"
"JustineFinalTest",1,"JustineFinalTest_Aug26","Test_Aug26","2025-08-26_18h09.07.813",NA,NA,729.1608,729.428,729.4281,729.528,NA,NA,NA,NA,NA,NA,NA,FALSE,NA,NA,726.1624,729.1605,NA,NA,NA,NA,NA,60,35,0,82,82,68,1,2,83,"binary"
"JustineFinalTest",1,"JustineFinalTest_Aug26","Test_Aug26","2025-08-26_18h09.07.813",NA,NA,732.5274,732.7614,732.7614,732.8616,NA,NA,NA,NA,NA,NA,NA,FALSE,NA,NA,729.5302,732.5271,NA,NA,NA,NA,NA,10,30,0,83,83,10,1,2,84,"binary"
"JustineFinalTest",1,"JustineFinalTest_Aug26","Test_Aug26","2025-08-26_18h09.07.813",NA,NA,735.8609,736.128,736.1281,736.2281,NA,NA,NA,NA,NA,NA,NA,FALSE,NA,NA,732.864,735.8607,NA,NA,NA,NA,NA,14,39,0,84,84,23,1,2,85,"binary"
"JustineFinalTest",1,"JustineFinalTest_Aug26","Test_Aug26","2025-08-26_18h09.07.813",NA,NA,739.2283,739.4614,739.4614,739.5614,NA,NA,NA,NA,NA,NA,NA,FALSE,NA,NA,736.2301,739.2282,NA,NA,NA,NA,NA,50,27,0,85,85,60,1,2,86,"binary"
"JustineFinalTest",1,"JustineFinalTest_Aug26","Test_Aug26","2025-08-26_18h09.07.813",NA,NA,742.5615,742.828,742.828,742.928,NA,NA,NA,NA,NA,NA,NA,FALSE,NA,NA,739.5634,742.5614,NA,NA,NA,NA,NA,25,27,0,86,86,30,1,2,87,"binary"
"JustineFinalTest",1,"JustineFinalTest_Aug26","Test_Aug26","2025-08-26_18h09.07.813",NA,NA,745.9283,746.1614,746.1615,746.2608,NA,NA,NA,NA,NA,NA,NA,FALSE,NA,NA,742.9301,745.9281,NA,NA,NA,NA,NA,21,26,0,87,87,24,1,2,88,"binary"
"JustineFinalTest",1,"JustineFinalTest_Aug26","Test_Aug26","2025-08-26_18h09.07.813",NA,NA,749.2617,749.5279,749.528,749.628,NA,NA,NA,NA,NA,NA,NA,FALSE,NA,NA,746.2629,749.2615,NA,NA,NA,NA,NA,12,31,0,88,88,15,1,2,89,"binary"
"JustineFinalTest",1,"JustineFinalTest_Aug26","Test_Aug26","2025-08-26_18h09.07.813",NA,NA,752.6281,752.8613,752.8614,752.9614,NA,NA,NA,NA,NA,NA,NA,FALSE,NA,NA,749.6301,752.628,NA,NA,NA,NA,NA,10,32,0,89,89,11,1,2,90,"binary"
"JustineFinalTest",1,"JustineFinalTest_Aug26","Test_Aug26","2025-08-26_18h09.07.813",NA,NA,755.9617,756.2279,756.2281,756.328,NA,NA,NA,NA,NA,NA,NA,FALSE,NA,NA,752.9634,755.9615,NA,NA,NA,NA,NA,7,26,0,90,90,1,1,2,91,"binary"
"JustineFinalTest",1,"JustineFinalTest_Aug26","Test_Aug26","2025-08-26_18h09.07.813",NA,NA,759.3273,759.5613,759.5614,759.6613,NA,NA,NA,NA,NA,NA,NA,FALSE,NA,NA,756.3302,759.3272,NA,NA,NA,NA,NA,21,29,0,91,91,26,1,2,92,"binary"
"JustineFinalTest",1,"JustineFinalTest_Aug26","Test_Aug26","2025-08-26_18h09.07.813",NA,NA,762.6615,762.9279,762.928,763.0281,NA,NA,NA,NA,NA,NA,NA,FALSE,NA,NA,759.6628,762.6613,NA,NA,NA,NA,NA,180,39,0,92,92,99,1,2,93,"binary"
"JustineFinalTest",1,"JustineFinalTest_Aug26","Test_Aug26","2025-08-26_18h09.07.813",NA,NA,766.0283,766.2613,766.2614,766.3603,NA,NA,NA,NA,NA,NA,NA,FALSE,NA,NA,763.0305,766.0281,NA,NA,NA,NA,NA,95,33,0,93,93,79,1,2,94,"binary"
"JustineFinalTest",1,"JustineFinalTest_Aug26","Test_Aug26","2025-08-26_18h09.07.813",NA,NA,769.3613,769.627,769.6271,769.7281,NA,NA,NA,NA,NA,NA,NA,FALSE,NA,NA,766.3623,769.3611,NA,NA,NA,NA,NA,45,35,0,94,94,57,1,2,95,"binary"
"JustineFinalTest",1,"JustineFinalTest_Aug26","Test_Aug26","2025-08-26_18h09.07.813",NA,NA,772.7285,772.9609,772.9609,773.0614,NA,NA,NA,NA,NA,NA,NA,FALSE,NA,NA,769.7301,772.7282,NA,NA,NA,NA,NA,25,29,0,95,95,31,1,2,96,"binary"
"JustineFinalTest",1,"JustineFinalTest_Aug26","Test_Aug26","2025-08-26_18h09.07.813",NA,NA,776.0604,776.327,776.3271,776.428,NA,NA,NA,NA,NA,NA,NA,FALSE,NA,NA,773.0635,776.0603,NA,NA,NA,NA,NA,90,46,0,96,96,76,1,2,97,"binary"
"JustineFinalTest",1,"JustineFinalTest_Aug26","Test_Aug26","2025-08-26_18h09.07.813",NA,NA,779.424,779.6571,779.6571,779.7565,NA,NA,NA,NA,NA,NA,NA,FALSE,NA,NA,776.4301,779.4238,NA,NA,NA,NA,NA,40,35,0,97,97,50,1,2,98,"binary"
"JustineFinalTest",1,"JustineFinalTest_Aug26","Test_Aug26","2025-08-26_18h09.07.813",NA,NA,782.7574,783.0237,783.0238,783.1237,NA,NA,NA,NA,NA,NA,NA,FALSE,NA,NA,779.7586,782.7572,NA,NA,NA,NA,NA,28,32,0,98,98,38,1,2,99,"binary"
"JustineFinalTest",1,"JustineFinalTest_Aug26","Test_Aug26","2025-08-26_18h09.07.813",NA,NA,786.124,786.3568,786.3568,786.4571,NA,NA,NA,NA,NA,NA,NA,FALSE,NA,NA,783.1255,786.1238,NA,NA,NA,NA,NA,21,27,0,99,99,25,1,2,100,"binary"
"JustineFinalTest",1,"JustineFinalTest_Aug26","Test_Aug26","2025-08-26_18h09.07.813",NA,NA,789.4575,789.7238,789.7238,789.8237,NA,NA,NA,NA,NA,NA,NA,FALSE,NA,NA,786.4592,789.4573,NA,NA,NA,NA,NA,45,29,0,100,100,55,1,2,101,"binary"
"JustineFinalTest",1,"JustineFinalTest_Aug26","Test_Aug26","2025-08-26_18h09.07.813",NA,NA,792.824,793.0572,793.0572,793.1573,NA,NA,NA,NA,NA,NA,NA,FALSE,NA,NA,789.8259,792.8238,NA,NA,NA,NA,NA,95,31,0,101,101,78,1,2,102,"binary"
"JustineFinalTest",1,"JustineFinalTest_Aug26","Test_Aug26","2025-08-26_18h09.07.813",NA,NA,796.1574,796.4238,796.4238,796.5237,NA,NA,NA,NA,NA,NA,NA,FALSE,NA,NA,793.1594,796.1572,NA,NA,NA,NA,NA,90,30,0,102,102,73,1,2,103,"binary"
"JustineFinalTest",1,"JustineFinalTest_Aug26","Test_Aug26","2025-08-26_18h09.07.813",NA,NA,799.5241,799.7562,799.7563,799.8572,NA,NA,NA,NA,NA,NA,NA,FALSE,NA,NA,796.5259,799.5239,NA,NA,NA,NA,NA,7,32,0,103,103,4,1,2,104,"binary"
"JustineFinalTest",1,"JustineFinalTest_Aug26","Test_Aug26","2025-08-26_18h09.07.813",NA,NA,802.8573,803.1237,803.1238,803.2237,NA,NA,NA,NA,NA,NA,NA,FALSE,NA,NA,799.8594,802.8572,NA,NA,NA,NA,NA,150,31,0,104,104,90,1,2,105,"binary"
"JustineFinalTest",1,"JustineFinalTest_Aug26","Test_Aug26","2025-08-26_18h09.07.813",NA,NA,806.2241,806.457,806.457,806.5572,NA,NA,NA,NA,NA,NA,NA,FALSE,NA,NA,803.2258,806.2239,NA,NA,NA,NA,NA,200,26,0,105,105,102,1,2,106,"binary"
"JustineFinalTest",1,"JustineFinalTest_Aug26","Test_Aug26","2025-08-26_18h09.07.813",NA,NA,809.5575,809.8238,809.8238,809.9239,NA,NA,NA,NA,NA,NA,NA,FALSE,NA,NA,806.5592,809.5573,NA,NA,NA,NA,NA,7,28,0,106,106,2,1,2,107,"binary"
"JustineFinalTest",1,"JustineFinalTest_Aug26","Test_Aug26","2025-08-26_18h09.07.813",NA,NA,812.924,813.1573,813.1573,813.2571,NA,NA,NA,NA,NA,NA,NA,FALSE,NA,NA,809.9262,812.9238,NA,NA,NA,NA,NA,30,29,0,107,107,44,1,2,108,"binary"
