"subject","session","date","practiceTrial.started","practiceTrial.stopped","tooLate.started","tooLate.stopped","blank.started","blank.stopped","trials_pract.thisRepN","trials_pract.thisTrialN","trials_pract.thisN","trials_pract.thisIndex","trials_pract.ran","delay_pract","amount_pract","responseMade","key","rt","trial.started","trial.stopped","trials.thisRepN","trials.thisTrialN","trials.thisN","trials.thisIndex","trials.ran","delay","amount","trials_2.thisRepN","trials_2.thisTrialN","trials_2.thisN","trials_2.thisIndex","trials_2.ran","block","trial","taskType"
"Liam_Test_Aug1925",1,"2025-08-19_19h21.00.794",45.9294,48.904,48.9051,48.9147,48.9149,49.2539,0,0,0,3,1,3,27,TRUE,2,2.5759,NA,NA,NA,NA,NA,NA,NA,NA,NA,NA,NA,NA,NA,NA,0,1,"binary"
"Liam_Test_Aug1925",1,"2025-08-19_19h21.00.794",49.259,52.2537,52.254,52.2541,52.2541,52.6037,0,1,1,0,1,7,30,TRUE,2,2.1204,NA,NA,NA,NA,NA,NA,NA,NA,NA,NA,NA,NA,NA,NA,0,2,"binary"
"Liam_Test_Aug1925",1,"2025-08-19_19h21.00.794",52.6059,55.6036,55.6038,55.6039,55.604,55.9536,0,2,2,4,1,30,40,TRUE,2,2.4916,NA,NA,NA,NA,NA,NA,NA,NA,NA,NA,NA,NA,NA,NA,0,3,"binary"
"Liam_Test_Aug1925",1,"2025-08-19_19h21.00.794",55.9558,58.9536,58.9538,58.9539,58.954,59.3032,0,3,3,1,1,100,50,TRUE,2,2.9607,NA,NA,NA,NA,NA,NA,NA,NA,NA,NA,NA,NA,NA,NA,0,4,"binary"
"Liam_Test_Aug1925",1,"2025-08-19_19h21.00.794",59.3046,62.3036,62.3038,62.5535,62.5535,62.6533,0,4,4,2,1,14,45,FALSE,NA,NA,NA,NA,NA,NA,NA,NA,NA,NA,NA,NA,NA,NA,NA,NA,0,5,"binary"
"Liam_Test_Aug1925",1,"2025-08-19_19h21.00.794",NA,NA,140.32,140.3203,140.3204,140.6681,NA,NA,NA,NA,NA,NA,NA,TRUE,2,1.3764,137.3417,140.3195,0,0,0,3,1,7,30,NA,NA,NA,NA,NA,1,1,"binary"
"Liam_Test_Aug1925",1,"2025-08-19_19h21.00.794",NA,NA,143.6687,143.6687,143.6688,144.0188,NA,NA,NA,NA,NA,NA,NA,TRUE,2,1.8946,140.6694,143.6686,0,1,1,78,1,95,31,NA,NA,NA,NA,NA,1,2,"binary"
"Liam_Test_Aug1925",1,"2025-08-19_19h21.00.794",NA,NA,147.0193,147.2684,147.2685,147.369,NA,NA,NA,NA,NA,NA,NA,FALSE,NA,NA,144.0209,147.0191,0,2,2,30,1,25,27,NA,NA,NA,NA,NA,1,3,"binary"
"Liam_Test_Aug1925",1,"2025-08-19_19h21.00.794",NA,NA,150.3693,150.3694,150.3694,150.7189,NA,NA,NA,NA,NA,NA,NA,TRUE,1,2.4932,147.371,150.3691,0,3,3,84,1,100,26,NA,NA,NA,NA,NA,1,4,"binary"
"Liam_Test_Aug1925",1,"2025-08-19_19h21.00.794",NA,NA,153.7184,153.7185,153.7185,154.0688,NA,NA,NA,NA,NA,NA,NA,TRUE,2,2.5764,150.7208,153.7183,0,4,4,74,1,90,33,NA,NA,NA,NA,NA,1,5,"binary"
"Liam_Test_Aug1925",1,"2025-08-19_19h21.00.794",NA,NA,157.0691,157.0692,157.0692,157.4189,NA,NA,NA,NA,NA,NA,NA,TRUE,2,2.4625,154.0707,157.0689,0,5,5,34,1,25,35,NA,NA,NA,NA,NA,1,6,"binary"
"Liam_Test_Aug1925",1,"2025-08-19_19h21.00.794",NA,NA,160.4191,160.4192,160.4193,160.7688,NA,NA,NA,NA,NA,NA,NA,TRUE,2,2.1415,157.4208,160.419,0,6,6,49,1,40,33,NA,NA,NA,NA,NA,1,7,"binary"
"Liam_Test_Aug1925",1,"2025-08-19_19h21.00.794",NA,NA,163.7689,163.769,163.7691,164.1189,NA,NA,NA,NA,NA,NA,NA,TRUE,2,2.3601,160.7708,163.7687,0,7,7,46,1,30,32,NA,NA,NA,NA,NA,1,8,"binary"
"Liam_Test_Aug1925",1,"2025-08-19_19h21.00.794",NA,NA,167.119,167.119,167.1191,167.4688,NA,NA,NA,NA,NA,NA,NA,TRUE,1,2.8781,164.1208,167.1188,0,8,8,25,1,21,27,NA,NA,NA,NA,NA,1,9,"binary"
"Liam_Test_Aug1925",1,"2025-08-19_19h21.00.794",NA,NA,170.4687,170.4688,170.4688,170.8187,NA,NA,NA,NA,NA,NA,NA,TRUE,2,1.995,167.4707,170.4686,0,9,9,89,1,100,54,NA,NA,NA,NA,NA,1,10,"binary"
"Liam_Test_Aug1925",1,"2025-08-19_19h21.00.794",NA,NA,173.8189,173.8189,173.8189,174.1687,NA,NA,NA,NA,NA,NA,NA,TRUE,2,2.1804,170.8205,173.8188,0,10,10,50,1,40,35,NA,NA,NA,NA,NA,1,11,"binary"
"Liam_Test_Aug1925",1,"2025-08-19_19h21.00.794",NA,NA,177.1685,177.1685,177.1685,177.5186,NA,NA,NA,NA,NA,NA,NA,TRUE,1,1.7305,174.1706,177.1684,0,11,11,96,1,180,27,NA,NA,NA,NA,NA,1,12,"binary"
"Liam_Test_Aug1925",1,"2025-08-19_19h21.00.794",NA,NA,180.5187,180.5188,180.5188,180.8686,NA,NA,NA,NA,NA,NA,NA,TRUE,2,2.3803,177.5205,180.5186,0,12,12,100,1,180,46,NA,NA,NA,NA,NA,1,13,"binary"
"Liam_Test_Aug1925",1,"2025-08-19_19h21.00.794",NA,NA,183.8688,183.8688,183.8688,184.2181,NA,NA,NA,NA,NA,NA,NA,TRUE,2,2.5483,180.8704,183.8686,0,13,13,107,1,200,54,NA,NA,NA,NA,NA,1,14,"binary"
"Liam_Test_Aug1925",1,"2025-08-19_19h21.00.794",NA,NA,187.2187,187.2187,187.2187,187.5684,NA,NA,NA,NA,NA,NA,NA,TRUE,2,2.8799,184.2199,187.2185,0,14,14,68,1,60,35,NA,NA,NA,NA,NA,1,15,"binary"
"Liam_Test_Aug1925",1,"2025-08-19_19h21.00.794",NA,NA,190.5684,190.5684,190.5684,190.9183,NA,NA,NA,NA,NA,NA,NA,TRUE,1,1.7247,187.5702,190.5683,0,15,15,12,1,12,25,NA,NA,NA,NA,NA,1,16,"binary"
"Liam_Test_Aug1925",1,"2025-08-19_19h21.00.794",NA,NA,193.9186,193.9186,193.9186,194.2684,NA,NA,NA,NA,NA,NA,NA,TRUE,1,1.3259,190.9198,193.9184,0,16,16,6,1,10,25,NA,NA,NA,NA,NA,1,17,"binary"
"Liam_Test_Aug1925",1,"2025-08-19_19h21.00.794",NA,NA,197.2685,197.2685,197.2686,197.6178,NA,NA,NA,NA,NA,NA,NA,TRUE,2,1.5431,194.2703,197.2684,0,17,17,99,1,180,39,NA,NA,NA,NA,NA,1,18,"binary"
"Liam_Test_Aug1925",1,"2025-08-19_19h21.00.794",NA,NA,200.618,200.6181,200.6181,200.9683,NA,NA,NA,NA,NA,NA,NA,TRUE,2,1.659,197.6197,200.6179,0,18,18,63,1,50,40,NA,NA,NA,NA,NA,1,19,"binary"
"Liam_Test_Aug1925",1,"2025-08-19_19h21.00.794",NA,NA,203.9685,203.9687,203.9687,204.3183,NA,NA,NA,NA,NA,NA,NA,TRUE,1,1.0892,200.9703,203.9684,0,19,19,72,1,90,26,NA,NA,NA,NA,NA,1,20,"binary"
"Liam_Test_Aug1925",1,"2025-08-19_19h21.00.794",NA,NA,207.3178,207.3178,207.3178,207.6681,NA,NA,NA,NA,NA,NA,NA,TRUE,2,1.3733,204.3203,207.3177,0,20,20,82,1,95,47,NA,NA,NA,NA,NA,1,21,"binary"
"Liam_Test_Aug1925",1,"2025-08-19_19h21.00.794",NA,NA,210.6684,210.6684,210.6684,211.0181,NA,NA,NA,NA,NA,NA,NA,TRUE,2,1.5892,207.67,210.6682,0,21,21,101,1,180,54,NA,NA,NA,NA,NA,1,22,"binary"
"Liam_Test_Aug1925",1,"2025-08-19_19h21.00.794",NA,NA,214.0183,214.0183,214.0183,214.3681,NA,NA,NA,NA,NA,NA,NA,TRUE,2,1.3148,211.0201,214.0182,0,22,22,57,1,45,35,NA,NA,NA,NA,NA,1,23,"binary"
"Liam_Test_Aug1925",1,"2025-08-19_19h21.00.794",NA,NA,217.3669,217.3669,217.3669,217.7178,NA,NA,NA,NA,NA,NA,NA,TRUE,1,2.8301,214.37,217.3667,0,23,23,66,1,60,29,NA,NA,NA,NA,NA,1,24,"binary"
"Liam_Test_Aug1925",1,"2025-08-19_19h21.00.794",NA,NA,220.7178,220.7179,220.7179,221.0681,NA,NA,NA,NA,NA,NA,NA,TRUE,2,1.4946,217.72,220.7177,0,24,24,21,1,14,32,NA,NA,NA,NA,NA,1,25,"binary"
"Liam_Test_Aug1925",1,"2025-08-19_19h21.00.794",NA,NA,224.0683,224.0683,224.0683,224.4173,NA,NA,NA,NA,NA,NA,NA,TRUE,2,1.9395,221.0699,224.0681,0,25,25,67,1,60,33,NA,NA,NA,NA,NA,1,26,"binary"
"Liam_Test_Aug1925",1,"2025-08-19_19h21.00.794",NA,NA,227.4182,227.4182,227.4183,227.7681,NA,NA,NA,NA,NA,NA,NA,TRUE,1,1.0005,224.4191,227.418,0,26,26,54,1,45,26,NA,NA,NA,NA,NA,1,27,"binary"
"Liam_Test_Aug1925",1,"2025-08-19_19h21.00.794",NA,NA,230.7674,230.7675,230.7675,231.1178,NA,NA,NA,NA,NA,NA,NA,TRUE,2,1.0314,227.7699,230.7673,0,27,27,97,1,180,31,NA,NA,NA,NA,NA,1,28,"binary"
"Liam_Test_Aug1925",1,"2025-08-19_19h21.00.794",NA,NA,234.1181,234.1181,234.1181,234.4678,NA,NA,NA,NA,NA,NA,NA,TRUE,1,1.3933,231.12,234.1179,0,28,28,48,1,40,27,NA,NA,NA,NA,NA,1,29,"binary"
"Liam_Test_Aug1925",1,"2025-08-19_19h21.00.794",NA,NA,237.468,237.7179,237.7179,237.8177,NA,NA,NA,NA,NA,NA,NA,FALSE,NA,NA,234.4697,237.4678,0,29,29,91,1,150,33,NA,NA,NA,NA,NA,1,30,"binary"
"Liam_Test_Aug1925",1,"2025-08-19_19h21.00.794",NA,NA,240.8177,240.8178,240.8179,241.1677,NA,NA,NA,NA,NA,NA,NA,TRUE,1,1.8391,237.8196,240.8177,0,30,30,56,1,45,31,NA,NA,NA,NA,NA,1,31,"binary"
"Liam_Test_Aug1925",1,"2025-08-19_19h21.00.794",NA,NA,244.168,244.168,244.168,244.5177,NA,NA,NA,NA,NA,NA,NA,TRUE,1,2.3751,241.1691,244.1678,0,31,31,55,1,45,29,NA,NA,NA,NA,NA,1,32,"binary"
"Liam_Test_Aug1925",1,"2025-08-19_19h21.00.794",NA,NA,247.5179,247.518,247.518,247.8677,NA,NA,NA,NA,NA,NA,NA,TRUE,2,1.062,244.5195,247.5177,0,32,32,29,1,21,38,NA,NA,NA,NA,NA,1,33,"binary"
"Liam_Test_Aug1925",1,"2025-08-19_19h21.00.794",NA,NA,250.8676,250.8677,250.8677,251.2176,NA,NA,NA,NA,NA,NA,NA,TRUE,2,1.6217,247.8697,250.8675,0,33,33,76,1,90,46,NA,NA,NA,NA,NA,1,34,"binary"
"Liam_Test_Aug1925",1,"2025-08-19_19h21.00.794",NA,NA,254.2177,254.2177,254.2178,254.5676,NA,NA,NA,NA,NA,NA,NA,TRUE,1,0.9068,251.2195,254.2176,0,34,34,1,1,7,26,NA,NA,NA,NA,NA,1,35,"binary"
"Liam_Test_Aug1925",1,"2025-08-19_19h21.00.794",NA,NA,257.5668,257.5668,257.5668,257.9176,NA,NA,NA,NA,NA,NA,NA,TRUE,2,1.3226,254.5696,257.5668,0,35,35,4,1,7,32,NA,NA,NA,NA,NA,1,36,"binary"
"Liam_Test_Aug1925",1,"2025-08-19_19h21.00.794",NA,NA,260.9177,260.9177,260.9178,261.2674,NA,NA,NA,NA,NA,NA,NA,TRUE,1,2.9488,257.9192,260.9175,0,36,36,45,1,30,30,NA,NA,NA,NA,NA,1,37,"binary"
"Liam_Test_Aug1925",1,"2025-08-19_19h21.00.794",NA,NA,264.2671,264.2671,264.2671,264.6174,NA,NA,NA,NA,NA,NA,NA,TRUE,1,1.4058,261.2693,264.2669,0,37,37,0,1,7,25,NA,NA,NA,NA,NA,1,38,"binary"
"Liam_Test_Aug1925",1,"2025-08-19_19h21.00.794",NA,NA,267.6176,267.6177,267.6177,267.9672,NA,NA,NA,NA,NA,NA,NA,TRUE,2,1.3108,264.6193,267.6174,0,38,38,81,1,95,40,NA,NA,NA,NA,NA,1,39,"binary"
"Liam_Test_Aug1925",1,"2025-08-19_19h21.00.794",NA,NA,270.9676,270.9677,270.9677,271.3173,NA,NA,NA,NA,NA,NA,NA,TRUE,2,2.2715,267.969,270.9674,0,39,39,14,1,12,28,NA,NA,NA,NA,NA,1,40,"binary"
"Liam_Test_Aug1925",1,"2025-08-19_19h21.00.794",NA,NA,274.3175,274.3175,274.3175,274.6674,NA,NA,NA,NA,NA,NA,NA,TRUE,2,1.8492,271.3192,274.3173,0,40,40,58,1,45,40,NA,NA,NA,NA,NA,1,41,"binary"
"Liam_Test_Aug1925",1,"2025-08-19_19h21.00.794",NA,NA,277.6674,277.6674,277.6674,278.0173,NA,NA,NA,NA,NA,NA,NA,TRUE,2,1.581,274.6692,277.6673,0,41,41,32,1,25,31,NA,NA,NA,NA,NA,1,42,"binary"
"Liam_Test_Aug1925",1,"2025-08-19_19h21.00.794",NA,NA,281.0174,281.0174,281.0174,281.3672,NA,NA,NA,NA,NA,NA,NA,TRUE,2,1.1727,278.0192,281.0172,0,42,42,27,1,21,30,NA,NA,NA,NA,NA,1,43,"binary"
"Liam_Test_Aug1925",1,"2025-08-19_19h21.00.794",NA,NA,284.3673,284.3673,284.3673,284.7172,NA,NA,NA,NA,NA,NA,NA,TRUE,2,1.3333,281.369,284.3672,0,43,43,17,1,12,35,NA,NA,NA,NA,NA,1,44,"binary"
"Liam_Test_Aug1925",1,"2025-08-19_19h21.00.794",NA,NA,287.7169,287.7169,287.7169,288.0671,NA,NA,NA,NA,NA,NA,NA,TRUE,2,0.9818,284.719,287.7167,0,44,44,16,1,12,33,NA,NA,NA,NA,NA,1,45,"binary"
"Liam_Test_Aug1925",1,"2025-08-19_19h21.00.794",NA,NA,291.0673,291.0673,291.0674,291.417,NA,NA,NA,NA,NA,NA,NA,TRUE,1,1.2152,288.069,291.0671,0,45,45,43,1,30,27,NA,NA,NA,NA,NA,1,46,"binary"
"Liam_Test_Aug1925",1,"2025-08-19_19h21.00.794",NA,NA,294.4173,294.4173,294.4173,294.7664,NA,NA,NA,NA,NA,NA,NA,TRUE,2,1.0551,291.419,294.4172,0,46,46,77,1,90,54,NA,NA,NA,NA,NA,1,47,"binary"
"Liam_Test_Aug1925",1,"2025-08-19_19h21.00.794",NA,NA,297.7666,297.7666,297.7667,298.1164,NA,NA,NA,NA,NA,NA,NA,TRUE,2,1.5393,294.7686,297.7664,0,47,47,9,1,10,29,NA,NA,NA,NA,NA,1,48,"binary"
"Liam_Test_Aug1925",1,"2025-08-19_19h21.00.794",NA,NA,301.1172,301.1172,301.1172,301.4661,NA,NA,NA,NA,NA,NA,NA,TRUE,2,1.5697,298.1183,301.117,0,48,48,11,1,10,32,NA,NA,NA,NA,NA,1,49,"binary"
"Liam_Test_Aug1925",1,"2025-08-19_19h21.00.794",NA,NA,304.4673,304.4673,304.4673,304.8169,NA,NA,NA,NA,NA,NA,NA,TRUE,2,1.1227,301.468,304.467,0,49,49,70,1,60,47,NA,NA,NA,NA,NA,1,50,"binary"
"Liam_Test_Aug1925",1,"2025-08-19_19h21.00.794",NA,NA,307.817,307.817,307.8171,308.1657,NA,NA,NA,NA,NA,NA,NA,TRUE,2,2.3022,304.8187,307.8169,0,50,50,26,1,21,29,NA,NA,NA,NA,NA,1,51,"binary"
"Liam_Test_Aug1925",1,"2025-08-19_19h21.00.794",NA,NA,311.1659,311.1659,311.1659,311.5165,NA,NA,NA,NA,NA,NA,NA,TRUE,2,1.9101,308.167,311.1658,0,51,51,61,1,50,30,NA,NA,NA,NA,NA,1,52,"binary"
"Liam_Test_Aug1925",1,"2025-08-19_19h21.00.794",NA,NA,314.5169,314.5169,314.517,314.8666,NA,NA,NA,NA,NA,NA,NA,TRUE,2,2.6433,311.5175,314.5168,0,52,52,88,1,100,46,NA,NA,NA,NA,NA,1,53,"binary"
"Liam_Test_Aug1925",1,"2025-08-19_19h21.00.794",NA,NA,317.8669,317.8669,317.8669,318.2167,NA,NA,NA,NA,NA,NA,NA,TRUE,2,1.4014,314.8681,317.8667,0,53,53,85,1,100,31,NA,NA,NA,NA,NA,1,54,"binary"
"Liam_Test_Aug1925",1,"2025-08-19_19h21.00.794",NA,NA,321.2169,321.2169,321.217,321.5667,NA,NA,NA,NA,NA,NA,NA,TRUE,2,1.956,318.2186,321.2167,0,54,54,73,1,90,30,NA,NA,NA,NA,NA,1,55,"binary"
"Liam_Test_Aug1925",1,"2025-08-19_19h21.00.794",NA,NA,324.5668,324.5668,324.5668,324.9158,NA,NA,NA,NA,NA,NA,NA,TRUE,2,2.886,321.5686,324.5667,0,55,55,15,1,12,31,NA,NA,NA,NA,NA,1,56,"binary"
"Liam_Test_Aug1925",1,"2025-08-19_19h21.00.794",NA,NA,327.9167,327.9167,327.9167,328.2658,NA,NA,NA,NA,NA,NA,NA,TRUE,2,0.8988,324.9177,327.9166,0,56,56,92,1,150,35,NA,NA,NA,NA,NA,1,57,"binary"
"Liam_Test_Aug1925",1,"2025-08-19_19h21.00.794",NA,NA,331.2668,331.2668,331.2669,331.6166,NA,NA,NA,NA,NA,NA,NA,TRUE,1,1.1689,328.2677,331.2666,0,57,57,19,1,14,26,NA,NA,NA,NA,NA,1,58,"binary"
"Liam_Test_Aug1925",1,"2025-08-19_19h21.00.794",NA,NA,334.6165,334.6166,334.6166,334.9659,NA,NA,NA,NA,NA,NA,NA,TRUE,2,2.43,331.6185,334.6164,0,58,58,37,1,28,28,NA,NA,NA,NA,NA,1,59,"binary"
"Liam_Test_Aug1925",1,"2025-08-19_19h21.00.794",NA,NA,337.9666,337.9666,337.9666,338.3164,NA,NA,NA,NA,NA,NA,NA,TRUE,2,1.5974,334.9678,337.9664,0,59,59,75,1,90,40,NA,NA,NA,NA,NA,1,60,"binary"
"Liam_Test_Aug1925",1,"2025-08-19_19h21.00.794",NA,NA,341.3163,341.3163,341.3163,341.6664,NA,NA,NA,NA,NA,NA,NA,TRUE,2,2.1312,338.3182,341.3161,0,60,60,90,1,150,31,NA,NA,NA,NA,NA,1,61,"binary"
"Liam_Test_Aug1925",1,"2025-08-19_19h21.00.794",NA,NA,344.666,344.666,344.666,345.0163,NA,NA,NA,NA,NA,NA,NA,TRUE,1,1.5471,341.6682,344.6659,0,61,61,13,1,12,26,NA,NA,NA,NA,NA,1,62,"binary"
"Liam_Test_Aug1925",1,"2025-08-19_19h21.00.794",NA,NA,348.0164,348.0165,348.0165,348.3664,NA,NA,NA,NA,NA,NA,NA,TRUE,2,1.1524,345.0181,348.0164,0,62,62,59,1,45,46,NA,NA,NA,NA,NA,1,63,"binary"
"Liam_Test_Aug1925",1,"2025-08-19_19h21.00.794",NA,NA,351.3665,351.3665,351.3665,351.7163,NA,NA,NA,NA,NA,NA,NA,TRUE,2,1.3963,348.3681,351.3664,0,63,63,10,1,10,30,NA,NA,NA,NA,NA,1,64,"binary"
"Liam_Test_Aug1925",1,"2025-08-19_19h21.00.794",NA,NA,354.7164,354.7165,354.7165,355.0658,NA,NA,NA,NA,NA,NA,NA,TRUE,1,0.8977,351.7181,354.7163,0,64,64,24,1,21,26,NA,NA,NA,NA,NA,1,65,"binary"
"Liam_Test_Aug1925",1,"2025-08-19_19h21.00.794",NA,NA,358.0663,358.0664,358.0664,358.4151,NA,NA,NA,NA,NA,NA,NA,TRUE,1,1.2818,355.0678,358.0662,0,65,65,42,1,30,26,NA,NA,NA,NA,NA,1,66,"binary"
"Liam_Test_Aug1925",1,"2025-08-19_19h21.00.794",NA,NA,361.4162,361.4162,361.4163,361.7653,NA,NA,NA,NA,NA,NA,NA,TRUE,2,1.3669,358.4165,361.4161,0,66,66,41,1,28,46,NA,NA,NA,NA,NA,1,67,"binary"
"Liam_Test_Aug1925",1,"2025-08-19_19h21.00.794",NA,NA,364.7662,364.7662,364.7662,365.1161,NA,NA,NA,NA,NA,NA,NA,TRUE,2,1.5984,361.767,364.7661,0,67,67,71,1,60,54,NA,NA,NA,NA,NA,1,68,"binary"
"Liam_Test_Aug1925",1,"2025-08-19_19h21.00.794",NA,NA,368.1162,368.1163,368.1163,368.4661,NA,NA,NA,NA,NA,NA,NA,TRUE,2,0.906,365.1179,368.116,0,68,68,23,1,14,39,NA,NA,NA,NA,NA,1,69,"binary"
"Liam_Test_Aug1925",1,"2025-08-19_19h21.00.794",NA,NA,371.4662,371.4663,371.4664,371.816,NA,NA,NA,NA,NA,NA,NA,TRUE,2,1.1027,368.4679,371.4661,0,69,69,94,1,150,47,NA,NA,NA,NA,NA,1,70,"binary"
"Liam_Test_Aug1925",1,"2025-08-19_19h21.00.794",NA,NA,374.8157,374.8157,374.8158,375.1659,NA,NA,NA,NA,NA,NA,NA,TRUE,1,1.0809,371.8182,374.8156,0,70,70,60,1,50,27,NA,NA,NA,NA,NA,1,71,"binary"
"Liam_Test_Aug1925",1,"2025-08-19_19h21.00.794",NA,NA,378.1661,378.1661,378.1662,378.5159,NA,NA,NA,NA,NA,NA,NA,TRUE,2,2.2046,375.1679,378.166,0,71,71,80,1,95,35,NA,NA,NA,NA,NA,1,72,"binary"
"Liam_Test_Aug1925",1,"2025-08-19_19h21.00.794",NA,NA,381.516,381.516,381.5161,381.8657,NA,NA,NA,NA,NA,NA,NA,TRUE,2,1.4661,378.5178,381.5159,0,72,72,106,1,200,47,NA,NA,NA,NA,NA,1,73,"binary"
"Liam_Test_Aug1925",1,"2025-08-19_19h21.00.794",NA,NA,384.866,384.866,384.8661,385.2155,NA,NA,NA,NA,NA,NA,NA,TRUE,2,1.3887,381.8675,384.8659,0,73,73,5,1,7,35,NA,NA,NA,NA,NA,1,74,"binary"
"Liam_Test_Aug1925",1,"2025-08-19_19h21.00.794",NA,NA,388.216,388.216,388.216,388.5658,NA,NA,NA,NA,NA,NA,NA,TRUE,2,1.0164,385.2173,388.2158,0,74,74,33,1,25,33,NA,NA,NA,NA,NA,1,75,"binary"
"Liam_Test_Aug1925",1,"2025-08-19_19h21.00.794",NA,NA,391.5659,391.5659,391.566,391.9157,NA,NA,NA,NA,NA,NA,NA,TRUE,1,1.1191,388.5677,391.5658,0,75,75,102,1,200,26,NA,NA,NA,NA,NA,1,76,"binary"
"Liam_Test_Aug1925",1,"2025-08-19_19h21.00.794",NA,NA,394.9157,394.9158,394.9158,395.2656,NA,NA,NA,NA,NA,NA,NA,TRUE,2,1.2391,391.9172,394.9156,0,76,76,47,1,30,38,NA,NA,NA,NA,NA,1,77,"binary"
"Liam_Test_Aug1925",1,"2025-08-19_19h21.00.794",NA,NA,398.2658,398.2659,398.2659,398.6156,NA,NA,NA,NA,NA,NA,NA,TRUE,2,2.3844,395.2671,398.2657,0,77,77,93,1,150,40,NA,NA,NA,NA,NA,1,78,"binary"
"Liam_Test_Aug1925",1,"2025-08-19_19h21.00.794",NA,NA,401.6155,401.6155,401.6156,401.9646,NA,NA,NA,NA,NA,NA,NA,TRUE,2,1.9168,398.6177,401.6153,0,78,78,38,1,28,32,NA,NA,NA,NA,NA,1,79,"binary"
"Liam_Test_Aug1925",1,"2025-08-19_19h21.00.794",NA,NA,404.9656,404.9656,404.9656,405.3156,NA,NA,NA,NA,NA,NA,NA,TRUE,1,0.9068,401.9663,404.9655,0,79,79,36,1,28,26,NA,NA,NA,NA,NA,1,80,"binary"
"Liam_Test_Aug1925",1,"2025-08-19_19h21.00.794",NA,NA,408.3157,408.3158,408.3158,408.6655,NA,NA,NA,NA,NA,NA,NA,TRUE,2,0.9361,405.3174,408.3155,0,80,80,53,1,40,54,NA,NA,NA,NA,NA,1,81,"binary"
"Liam_Test_Aug1925",1,"2025-08-19_19h21.00.794",NA,NA,411.6657,411.6657,411.6658,412.0151,NA,NA,NA,NA,NA,NA,NA,TRUE,2,0.7644,408.6677,411.6655,0,81,81,40,1,28,39,NA,NA,NA,NA,NA,1,82,"binary"
"Liam_Test_Aug1925",1,"2025-08-19_19h21.00.794",NA,NA,415.0156,415.0157,415.0157,415.3645,NA,NA,NA,NA,NA,NA,NA,TRUE,2,0.7579,412.0169,415.0155,0,82,82,83,1,95,54,NA,NA,NA,NA,NA,1,83,"binary"
"Liam_Test_Aug1925",1,"2025-08-19_19h21.00.794",NA,NA,418.3656,418.3656,418.3656,418.7163,NA,NA,NA,NA,NA,NA,NA,TRUE,1,0.8835,415.3662,418.3654,0,83,83,7,1,10,26,NA,NA,NA,NA,NA,1,84,"binary"
"Liam_Test_Aug1925",1,"2025-08-19_19h21.00.794",NA,NA,421.7154,421.7155,421.7156,422.0644,NA,NA,NA,NA,NA,NA,NA,TRUE,2,1.1033,418.718,421.7154,0,84,84,87,1,100,39,NA,NA,NA,NA,NA,1,85,"binary"
"Liam_Test_Aug1925",1,"2025-08-19_19h21.00.794",NA,NA,425.0654,425.0654,425.0655,425.4154,NA,NA,NA,NA,NA,NA,NA,TRUE,2,0.8719,422.0663,425.0653,0,85,85,62,1,50,35,NA,NA,NA,NA,NA,1,86,"binary"
"Liam_Test_Aug1925",1,"2025-08-19_19h21.00.794",NA,NA,428.4153,428.4153,428.4154,428.7652,NA,NA,NA,NA,NA,NA,NA,TRUE,2,1.1353,425.4172,428.4152,0,86,86,52,1,40,47,NA,NA,NA,NA,NA,1,87,"binary"
"Liam_Test_Aug1925",1,"2025-08-19_19h21.00.794",NA,NA,431.7653,431.7654,431.7654,432.1152,NA,NA,NA,NA,NA,NA,NA,TRUE,2,0.7718,428.7671,431.7652,0,87,87,22,1,14,35,NA,NA,NA,NA,NA,1,88,"binary"
"Liam_Test_Aug1925",1,"2025-08-19_19h21.00.794",NA,NA,435.1154,435.1154,435.1154,435.4652,NA,NA,NA,NA,NA,NA,NA,TRUE,2,0.7879,432.117,435.1152,0,88,88,86,1,100,38,NA,NA,NA,NA,NA,1,89,"binary"
"Liam_Test_Aug1925",1,"2025-08-19_19h21.00.794",NA,NA,438.4653,438.4654,438.4654,438.815,NA,NA,NA,NA,NA,NA,NA,TRUE,2,0.7027,435.467,438.4651,0,89,89,35,1,25,46,NA,NA,NA,NA,NA,1,90,"binary"
"Liam_Test_Aug1925",1,"2025-08-19_19h21.00.794",NA,NA,441.8152,441.8153,441.8153,442.1647,NA,NA,NA,NA,NA,NA,NA,TRUE,2,0.7961,438.817,441.815,0,90,90,51,1,40,40,NA,NA,NA,NA,NA,1,91,"binary"
"Liam_Test_Aug1925",1,"2025-08-19_19h21.00.794",NA,NA,445.1651,445.1653,445.1653,445.514,NA,NA,NA,NA,NA,NA,NA,TRUE,2,1.2643,442.1665,445.1651,0,91,91,105,1,200,39,NA,NA,NA,NA,NA,1,92,"binary"
"Liam_Test_Aug1925",1,"2025-08-19_19h21.00.794",NA,NA,448.5152,448.5152,448.5153,448.864,NA,NA,NA,NA,NA,NA,NA,TRUE,1,1.8727,445.516,448.515,0,92,92,20,1,14,28,NA,NA,NA,NA,NA,1,93,"binary"
"Liam_Test_Aug1925",1,"2025-08-19_19h21.00.794",NA,NA,451.8638,451.8638,451.8638,452.2141,NA,NA,NA,NA,NA,NA,NA,TRUE,2,2.6053,448.8658,451.8637,0,93,93,2,1,7,28,NA,NA,NA,NA,NA,1,94,"binary"
"Liam_Test_Aug1925",1,"2025-08-19_19h21.00.794",NA,NA,455.215,455.2151,455.2151,455.5649,NA,NA,NA,NA,NA,NA,NA,TRUE,1,1.92,452.2154,455.2149,0,94,94,8,1,10,27,NA,NA,NA,NA,NA,1,95,"binary"
"Liam_Test_Aug1925",1,"2025-08-19_19h21.00.794",NA,NA,458.5649,458.5649,458.5649,458.9137,NA,NA,NA,NA,NA,NA,NA,TRUE,2,1.8638,455.5667,458.5647,0,95,95,44,1,30,29,NA,NA,NA,NA,NA,1,96,"binary"
"Liam_Test_Aug1925",1,"2025-08-19_19h21.00.794",NA,NA,461.9143,461.9143,461.9144,462.2648,NA,NA,NA,NA,NA,NA,NA,TRUE,2,0.8499,458.915,461.9142,0,96,96,98,1,180,35,NA,NA,NA,NA,NA,1,97,"binary"
"Liam_Test_Aug1925",1,"2025-08-19_19h21.00.794",NA,NA,465.2651,465.2651,465.2651,465.6148,NA,NA,NA,NA,NA,NA,NA,TRUE,1,2.5384,462.2666,465.2649,0,97,97,103,1,200,28,NA,NA,NA,NA,NA,1,98,"binary"
"Liam_Test_Aug1925",1,"2025-08-19_19h21.00.794",NA,NA,468.6149,468.615,468.615,468.9647,NA,NA,NA,NA,NA,NA,NA,TRUE,2,1.3477,465.6168,468.6148,0,98,98,95,1,150,54,NA,NA,NA,NA,NA,1,99,"binary"
"Liam_Test_Aug1925",1,"2025-08-19_19h21.00.794",NA,NA,471.9649,471.9649,471.9649,472.3147,NA,NA,NA,NA,NA,NA,NA,TRUE,2,1.4863,468.9666,471.9647,0,99,99,65,1,50,54,NA,NA,NA,NA,NA,1,100,"binary"
"Liam_Test_Aug1925",1,"2025-08-19_19h21.00.794",NA,NA,475.3147,475.3148,475.3148,475.6647,NA,NA,NA,NA,NA,NA,NA,TRUE,2,1.838,472.3166,475.3146,0,100,100,31,1,25,29,NA,NA,NA,NA,NA,1,101,"binary"
"Liam_Test_Aug1925",1,"2025-08-19_19h21.00.794",NA,NA,478.6636,478.6636,478.6637,479.0146,NA,NA,NA,NA,NA,NA,NA,TRUE,2,0.8522,475.6665,478.6634,0,101,101,79,1,95,33,NA,NA,NA,NA,NA,1,102,"binary"
"Liam_Test_Aug1925",1,"2025-08-19_19h21.00.794",NA,NA,482.0138,482.0138,482.0138,482.3645,NA,NA,NA,NA,NA,NA,NA,TRUE,2,0.8964,479.0164,482.0137,0,102,102,69,1,60,40,NA,NA,NA,NA,NA,1,103,"binary"
"Liam_Test_Aug1925",1,"2025-08-19_19h21.00.794",NA,NA,485.3646,485.3647,485.3647,485.7144,NA,NA,NA,NA,NA,NA,NA,TRUE,2,1.3721,482.3663,485.3645,0,103,103,28,1,21,32,NA,NA,NA,NA,NA,1,104,"binary"
"Liam_Test_Aug1925",1,"2025-08-19_19h21.00.794",NA,NA,488.714,488.7141,488.7141,489.0645,NA,NA,NA,NA,NA,NA,NA,TRUE,1,1.4036,485.7163,488.7139,0,104,104,18,1,14,25,NA,NA,NA,NA,NA,1,105,"binary"
"Liam_Test_Aug1925",1,"2025-08-19_19h21.00.794",NA,NA,492.0646,492.0647,492.0647,492.4144,NA,NA,NA,NA,NA,NA,NA,TRUE,2,1.098,489.0664,492.0644,0,105,105,104,1,200,35,NA,NA,NA,NA,NA,1,106,"binary"
"Liam_Test_Aug1925",1,"2025-08-19_19h21.00.794",NA,NA,495.4144,495.4144,495.4145,495.7644,NA,NA,NA,NA,NA,NA,NA,TRUE,2,0.7823,492.4162,495.4143,0,106,106,39,1,28,35,NA,NA,NA,NA,NA,1,107,"binary"
"Liam_Test_Aug1925",1,"2025-08-19_19h21.00.794",NA,NA,498.7639,498.7639,498.7639,499.1138,NA,NA,NA,NA,NA,NA,NA,TRUE,2,0.6661,495.7662,498.7637,0,107,107,64,1,50,46,NA,NA,NA,NA,NA,1,108,"binary"
"Liam_Test_Aug1925",1,"2025-08-19_19h21.00.794",NA,NA,506.3476,506.3477,506.3477,506.6975,NA,NA,NA,NA,NA,NA,NA,TRUE,2,1.919,503.3651,506.3475,NA,NA,NA,NA,NA,10,30,0,0,0,10,1,2,1,"binary"
"Liam_Test_Aug1925",1,"2025-08-19_19h21.00.794",NA,NA,509.6975,509.6976,509.6976,510.0466,NA,NA,NA,NA,NA,NA,NA,TRUE,2,0.8728,506.6995,509.6973,NA,NA,NA,NA,NA,28,32,0,1,1,38,1,2,2,"binary"
"Liam_Test_Aug1925",1,"2025-08-19_19h21.00.794",NA,NA,513.0467,513.0467,513.0467,513.3974,NA,NA,NA,NA,NA,NA,NA,TRUE,2,0.6993,510.0486,513.0465,NA,NA,NA,NA,NA,90,54,0,2,2,77,1,2,3,"binary"
"Liam_Test_Aug1925",1,"2025-08-19_19h21.00.794",NA,NA,516.3976,516.3976,516.3977,516.7473,NA,NA,NA,NA,NA,NA,NA,TRUE,2,1.0731,513.3993,516.3975,NA,NA,NA,NA,NA,150,35,0,3,3,92,1,2,4,"binary"
"Liam_Test_Aug1925",1,"2025-08-19_19h21.00.794",NA,NA,519.7474,519.7474,519.7474,520.0971,NA,NA,NA,NA,NA,NA,NA,TRUE,2,0.7815,516.7492,519.7472,NA,NA,NA,NA,NA,40,54,0,4,4,53,1,2,5,"binary"
"Liam_Test_Aug1925",1,"2025-08-19_19h21.00.794",NA,NA,523.097,523.097,523.0971,523.4473,NA,NA,NA,NA,NA,NA,NA,TRUE,2,2.0605,520.0983,523.0968,NA,NA,NA,NA,NA,95,47,0,5,5,82,1,2,6,"binary"
"Liam_Test_Aug1925",1,"2025-08-19_19h21.00.794",NA,NA,526.4474,526.4474,526.4474,526.7972,NA,NA,NA,NA,NA,NA,NA,TRUE,2,1.7942,523.4492,526.4473,NA,NA,NA,NA,NA,60,33,0,6,6,67,1,2,7,"binary"
"Liam_Test_Aug1925",1,"2025-08-19_19h21.00.794",NA,NA,529.7969,529.797,529.797,530.1472,NA,NA,NA,NA,NA,NA,NA,TRUE,1,2.5138,526.7991,529.7969,NA,NA,NA,NA,NA,45,29,0,7,7,55,1,2,8,"binary"
"Liam_Test_Aug1925",1,"2025-08-19_19h21.00.794",NA,NA,533.1473,533.1474,533.1474,533.4971,NA,NA,NA,NA,NA,NA,NA,TRUE,1,1.289,530.149,533.1472,NA,NA,NA,NA,NA,25,27,0,8,8,30,1,2,9,"binary"
"Liam_Test_Aug1925",1,"2025-08-19_19h21.00.794",NA,NA,536.4974,536.4974,536.4974,536.8471,NA,NA,NA,NA,NA,NA,NA,TRUE,1,1.0578,533.4991,536.4972,NA,NA,NA,NA,NA,21,26,0,9,9,24,1,2,10,"binary"
"Liam_Test_Aug1925",1,"2025-08-19_19h21.00.794",NA,NA,539.8467,539.8468,539.8468,540.1963,NA,NA,NA,NA,NA,NA,NA,TRUE,2,1.0927,536.8489,539.8467,NA,NA,NA,NA,NA,40,47,0,10,10,52,1,2,11,"binary"
"Liam_Test_Aug1925",1,"2025-08-19_19h21.00.794",NA,NA,543.1967,543.1967,543.1967,543.5457,NA,NA,NA,NA,NA,NA,NA,TRUE,2,2.6732,540.1973,543.1967,NA,NA,NA,NA,NA,50,30,0,11,11,61,1,2,12,"binary"
"Liam_Test_Aug1925",1,"2025-08-19_19h21.00.794",NA,NA,546.5468,546.5468,546.5468,546.897,NA,NA,NA,NA,NA,NA,NA,TRUE,2,1.653,543.5468,546.5466,NA,NA,NA,NA,NA,25,31,0,12,12,32,1,2,13,"binary"
"Liam_Test_Aug1925",1,"2025-08-19_19h21.00.794",NA,NA,549.897,549.8971,549.8971,550.2469,NA,NA,NA,NA,NA,NA,NA,TRUE,2,1.0276,546.8988,549.8969,NA,NA,NA,NA,NA,40,40,0,13,13,51,1,2,14,"binary"
"Liam_Test_Aug1925",1,"2025-08-19_19h21.00.794",NA,NA,553.247,553.247,553.247,553.5969,NA,NA,NA,NA,NA,NA,NA,TRUE,1,1.6627,550.2488,553.2469,NA,NA,NA,NA,NA,30,27,0,14,14,43,1,2,15,"binary"
"Liam_Test_Aug1925",1,"2025-08-19_19h21.00.794",NA,NA,556.5966,556.5966,556.5966,556.9469,NA,NA,NA,NA,NA,NA,NA,TRUE,2,2.5563,553.5989,556.5964,NA,NA,NA,NA,NA,50,40,0,15,15,63,1,2,16,"binary"
"Liam_Test_Aug1925",1,"2025-08-19_19h21.00.794",NA,NA,559.9468,559.9469,559.947,560.2967,NA,NA,NA,NA,NA,NA,NA,TRUE,2,1.4648,556.9486,559.9467,NA,NA,NA,NA,NA,25,46,0,16,16,35,1,2,17,"binary"
"Liam_Test_Aug1925",1,"2025-08-19_19h21.00.794",NA,NA,563.2959,563.2959,563.296,563.6455,NA,NA,NA,NA,NA,NA,NA,TRUE,1,1.2474,560.2986,563.2958,NA,NA,NA,NA,NA,21,27,0,17,17,25,1,2,18,"binary"
"Liam_Test_Aug1925",1,"2025-08-19_19h21.00.794",NA,NA,566.6456,566.6456,566.6456,566.9964,NA,NA,NA,NA,NA,NA,NA,TRUE,2,2.4259,563.6467,566.6455,NA,NA,NA,NA,NA,60,35,0,18,18,68,1,2,19,"binary"
"Liam_Test_Aug1925",1,"2025-08-19_19h21.00.794",NA,NA,569.9969,569.9969,569.9969,570.3467,NA,NA,NA,NA,NA,NA,NA,TRUE,2,0.8117,566.9984,569.9967,NA,NA,NA,NA,NA,21,32,0,19,19,28,1,2,20,"binary"
"Liam_Test_Aug1925",1,"2025-08-19_19h21.00.794",NA,NA,573.3468,573.3469,573.3469,573.6967,NA,NA,NA,NA,NA,NA,NA,TRUE,2,0.8394,570.3486,573.3466,NA,NA,NA,NA,NA,150,33,0,20,20,91,1,2,21,"binary"
"Liam_Test_Aug1925",1,"2025-08-19_19h21.00.794",NA,NA,576.6967,576.6968,576.6968,577.0466,NA,NA,NA,NA,NA,NA,NA,TRUE,2,1.1432,573.6986,576.6966,NA,NA,NA,NA,NA,21,38,0,21,21,29,1,2,22,"binary"
"Liam_Test_Aug1925",1,"2025-08-19_19h21.00.794",NA,NA,580.0467,580.0468,580.0468,580.3966,NA,NA,NA,NA,NA,NA,NA,TRUE,2,1.4723,577.0485,580.0466,NA,NA,NA,NA,NA,200,35,0,22,22,104,1,2,23,"binary"
"Liam_Test_Aug1925",1,"2025-08-19_19h21.00.794",NA,NA,583.3961,583.3961,583.3962,583.7459,NA,NA,NA,NA,NA,NA,NA,TRUE,2,1.4763,580.3986,583.3959,NA,NA,NA,NA,NA,95,35,0,23,23,80,1,2,24,"binary"
"Liam_Test_Aug1925",1,"2025-08-19_19h21.00.794",NA,NA,586.7464,586.7464,586.7464,587.0964,NA,NA,NA,NA,NA,NA,NA,TRUE,1,1.6822,583.7477,586.7463,NA,NA,NA,NA,NA,14,25,0,24,24,18,1,2,25,"binary"
"Liam_Test_Aug1925",1,"2025-08-19_19h21.00.794",NA,NA,590.0951,590.0952,590.0952,590.4462,NA,NA,NA,NA,NA,NA,NA,TRUE,1,2.1643,587.0982,590.095,NA,NA,NA,NA,NA,12,31,0,25,25,15,1,2,26,"binary"
"Liam_Test_Aug1925",1,"2025-08-19_19h21.00.794",NA,NA,593.4466,593.4466,593.4466,593.7963,NA,NA,NA,NA,NA,NA,NA,TRUE,2,0.9654,590.4478,593.4464,NA,NA,NA,NA,NA,95,33,0,26,26,79,1,2,27,"binary"
"Liam_Test_Aug1925",1,"2025-08-19_19h21.00.794",NA,NA,596.7964,596.7964,596.7964,597.1459,NA,NA,NA,NA,NA,NA,NA,TRUE,2,1.0066,593.7982,596.7963,NA,NA,NA,NA,NA,40,35,0,27,27,50,1,2,28,"binary"
"Liam_Test_Aug1925",1,"2025-08-19_19h21.00.794",NA,NA,600.1464,600.1465,600.1465,600.4953,NA,NA,NA,NA,NA,NA,NA,TRUE,1,1.5246,597.1477,600.1463,NA,NA,NA,NA,NA,28,26,0,28,28,36,1,2,29,"binary"
"Liam_Test_Aug1925",1,"2025-08-19_19h21.00.794",NA,NA,603.4964,603.4965,603.4965,603.8462,NA,NA,NA,NA,NA,NA,NA,TRUE,2,0.9844,600.4971,603.4962,NA,NA,NA,NA,NA,90,46,0,29,29,76,1,2,30,"binary"
"Liam_Test_Aug1925",1,"2025-08-19_19h21.00.794",NA,NA,606.8463,606.8463,606.8464,607.1962,NA,NA,NA,NA,NA,NA,NA,TRUE,2,1.5314,603.848,606.8462,NA,NA,NA,NA,NA,60,40,0,30,30,69,1,2,31,"binary"
"Liam_Test_Aug1925",1,"2025-08-19_19h21.00.794",NA,NA,610.1962,610.1962,610.1962,610.546,NA,NA,NA,NA,NA,NA,NA,TRUE,2,1.0476,607.198,610.1961,NA,NA,NA,NA,NA,12,35,0,31,31,17,1,2,32,"binary"
"Liam_Test_Aug1925",1,"2025-08-19_19h21.00.794",NA,NA,613.5454,613.5454,613.5454,613.8961,NA,NA,NA,NA,NA,NA,NA,TRUE,2,1.3974,610.5479,613.5452,NA,NA,NA,NA,NA,100,38,0,32,32,86,1,2,33,"binary"
"Liam_Test_Aug1925",1,"2025-08-19_19h21.00.794",NA,NA,616.896,616.896,616.8961,617.246,NA,NA,NA,NA,NA,NA,NA,TRUE,2,1.4883,613.8981,616.8959,NA,NA,NA,NA,NA,50,35,0,33,33,62,1,2,34,"binary"
"Liam_Test_Aug1925",1,"2025-08-19_19h21.00.794",NA,NA,620.2461,620.2462,620.2462,620.596,NA,NA,NA,NA,NA,NA,NA,TRUE,2,0.863,617.2479,620.246,NA,NA,NA,NA,NA,200,54,0,34,34,107,1,2,35,"binary"
"Liam_Test_Aug1925",1,"2025-08-19_19h21.00.794",NA,NA,623.5961,623.5961,623.5961,623.9459,NA,NA,NA,NA,NA,NA,NA,TRUE,2,1.3733,620.5978,623.596,NA,NA,NA,NA,NA,45,35,0,35,35,57,1,2,36,"binary"
"Liam_Test_Aug1925",1,"2025-08-19_19h21.00.794",NA,NA,626.946,626.946,626.946,627.2946,NA,NA,NA,NA,NA,NA,NA,TRUE,1,1.823,623.9477,626.9459,NA,NA,NA,NA,NA,200,26,0,36,36,102,1,2,37,"binary"
"Liam_Test_Aug1925",1,"2025-08-19_19h21.00.794",NA,NA,630.2958,630.2958,630.2958,630.6459,NA,NA,NA,NA,NA,NA,NA,TRUE,2,2.8415,627.2956,630.2956,NA,NA,NA,NA,NA,7,35,0,37,37,5,1,2,38,"binary"
"Liam_Test_Aug1925",1,"2025-08-19_19h21.00.794",NA,NA,633.646,633.646,633.6461,633.9958,NA,NA,NA,NA,NA,NA,NA,TRUE,2,2.2242,630.6477,633.6459,NA,NA,NA,NA,NA,28,28,0,38,38,37,1,2,39,"binary"
"Liam_Test_Aug1925",1,"2025-08-19_19h21.00.794",NA,NA,636.9958,636.9958,636.9958,637.3458,NA,NA,NA,NA,NA,NA,NA,TRUE,2,1.9613,633.9977,636.9957,NA,NA,NA,NA,NA,150,47,0,39,39,94,1,2,40,"binary"
"Liam_Test_Aug1925",1,"2025-08-19_19h21.00.794",NA,NA,640.3459,640.3459,640.3459,640.6957,NA,NA,NA,NA,NA,NA,NA,TRUE,2,2.2949,637.3477,640.3458,NA,NA,NA,NA,NA,180,35,0,40,40,98,1,2,41,"binary"
"Liam_Test_Aug1925",1,"2025-08-19_19h21.00.794",NA,NA,643.6959,643.9456,643.9456,644.0457,NA,NA,NA,NA,NA,NA,NA,FALSE,NA,NA,640.6976,643.6958,NA,NA,NA,NA,NA,14,28,0,41,41,20,1,2,42,"binary"
"Liam_Test_Aug1925",1,"2025-08-19_19h21.00.794",NA,NA,647.0457,647.0457,647.0457,647.3955,NA,NA,NA,NA,NA,NA,NA,TRUE,2,1.9456,644.0475,647.0455,NA,NA,NA,NA,NA,14,39,0,42,42,23,1,2,43,"binary"
"Liam_Test_Aug1925",1,"2025-08-19_19h21.00.794",NA,NA,650.3958,650.3958,650.3958,650.7456,NA,NA,NA,NA,NA,NA,NA,TRUE,2,1.1229,647.3973,650.3956,NA,NA,NA,NA,NA,95,40,0,43,43,81,1,2,44,"binary"
"Liam_Test_Aug1925",1,"2025-08-19_19h21.00.794",NA,NA,653.7457,653.7457,653.7457,654.0952,NA,NA,NA,NA,NA,NA,NA,TRUE,1,0.9132,650.7474,653.7456,NA,NA,NA,NA,NA,100,26,0,44,44,84,1,2,45,"binary"
"Liam_Test_Aug1925",1,"2025-08-19_19h21.00.794",NA,NA,657.0957,657.0957,657.0957,657.4455,NA,NA,NA,NA,NA,NA,NA,TRUE,2,0.9246,654.0973,657.0955,NA,NA,NA,NA,NA,14,35,0,45,45,22,1,2,46,"binary"
"Liam_Test_Aug1925",1,"2025-08-19_19h21.00.794",NA,NA,660.4455,660.4455,660.4455,660.7954,NA,NA,NA,NA,NA,NA,NA,TRUE,2,2.3148,657.4473,660.4453,NA,NA,NA,NA,NA,180,46,0,46,46,100,1,2,47,"binary"
"Liam_Test_Aug1925",1,"2025-08-19_19h21.00.794",NA,NA,663.7955,663.7956,663.7956,664.1454,NA,NA,NA,NA,NA,NA,NA,TRUE,1,1.0468,660.7973,663.7954,NA,NA,NA,NA,NA,200,28,0,47,47,103,1,2,48,"binary"
"Liam_Test_Aug1925",1,"2025-08-19_19h21.00.794",NA,NA,667.1456,667.3953,667.3954,667.4954,NA,NA,NA,NA,NA,NA,NA,FALSE,NA,NA,664.1473,667.1454,NA,NA,NA,NA,NA,7,26,0,48,48,1,1,2,49,"binary"
"Liam_Test_Aug1925",1,"2025-08-19_19h21.00.794",NA,NA,670.4952,670.4952,670.4952,670.8453,NA,NA,NA,NA,NA,NA,NA,TRUE,1,1.6551,667.4972,670.4951,NA,NA,NA,NA,NA,180,27,0,49,49,96,1,2,50,"binary"
"Liam_Test_Aug1925",1,"2025-08-19_19h21.00.794",NA,NA,673.8449,673.8449,673.845,674.1951,NA,NA,NA,NA,NA,NA,NA,TRUE,2,0.9031,670.8472,673.8447,NA,NA,NA,NA,NA,10,32,0,50,50,11,1,2,51,"binary"
"Liam_Test_Aug1925",1,"2025-08-19_19h21.00.794",NA,NA,677.1953,677.1953,677.1953,677.5452,NA,NA,NA,NA,NA,NA,NA,TRUE,2,0.7809,674.1969,677.1951,NA,NA,NA,NA,NA,100,54,0,51,51,89,1,2,52,"binary"
"Liam_Test_Aug1925",1,"2025-08-19_19h21.00.794",NA,NA,680.5454,680.5454,680.5454,680.8948,NA,NA,NA,NA,NA,NA,NA,TRUE,2,1.004,677.547,680.5452,NA,NA,NA,NA,NA,90,30,0,52,52,73,1,2,53,"binary"
"Liam_Test_Aug1925",1,"2025-08-19_19h21.00.794",NA,NA,683.8952,683.8952,683.8953,684.2449,NA,NA,NA,NA,NA,NA,NA,TRUE,2,1.1872,680.8966,683.8951,NA,NA,NA,NA,NA,60,54,0,53,53,71,1,2,54,"binary"
"Liam_Test_Aug1925",1,"2025-08-19_19h21.00.794",NA,NA,687.2452,687.2453,687.2453,687.5951,NA,NA,NA,NA,NA,NA,NA,TRUE,2,1.1317,684.2469,687.2451,NA,NA,NA,NA,NA,30,30,0,54,54,45,1,2,55,"binary"
"Liam_Test_Aug1925",1,"2025-08-19_19h21.00.794",NA,NA,690.5943,690.5943,690.5943,690.945,NA,NA,NA,NA,NA,NA,NA,TRUE,1,0.9033,687.5969,690.5941,NA,NA,NA,NA,NA,45,26,0,55,55,54,1,2,56,"binary"
"Liam_Test_Aug1925",1,"2025-08-19_19h21.00.794",NA,NA,693.9451,693.9451,693.9451,694.295,NA,NA,NA,NA,NA,NA,NA,TRUE,2,0.9984,690.9469,693.945,NA,NA,NA,NA,NA,100,39,0,56,56,87,1,2,57,"binary"
"Liam_Test_Aug1925",1,"2025-08-19_19h21.00.794",NA,NA,697.2948,697.2948,697.2948,697.6449,NA,NA,NA,NA,NA,NA,NA,TRUE,1,0.7365,694.2969,697.2946,NA,NA,NA,NA,NA,10,26,0,57,57,7,1,2,58,"binary"
"Liam_Test_Aug1925",1,"2025-08-19_19h21.00.794",NA,NA,700.6449,700.6449,700.6449,700.9949,NA,NA,NA,NA,NA,NA,NA,TRUE,2,0.7476,697.6467,700.6447,NA,NA,NA,NA,NA,180,54,0,58,58,101,1,2,59,"binary"
"Liam_Test_Aug1925",1,"2025-08-19_19h21.00.794",NA,NA,703.9951,703.9951,703.9951,704.3445,NA,NA,NA,NA,NA,NA,NA,TRUE,2,1.7521,700.9968,703.9949,NA,NA,NA,NA,NA,10,27,0,59,59,8,1,2,60,"binary"
"Liam_Test_Aug1925",1,"2025-08-19_19h21.00.794",NA,NA,707.345,707.345,707.3451,707.6948,NA,NA,NA,NA,NA,NA,NA,TRUE,2,0.7722,704.3459,707.3449,NA,NA,NA,NA,NA,100,46,0,60,60,88,1,2,61,"binary"
"Liam_Test_Aug1925",1,"2025-08-19_19h21.00.794",NA,NA,710.6949,710.695,710.695,711.0447,NA,NA,NA,NA,NA,NA,NA,TRUE,2,1.2811,707.6967,710.6948,NA,NA,NA,NA,NA,7,30,0,61,61,3,1,2,62,"binary"
"Liam_Test_Aug1925",1,"2025-08-19_19h21.00.794",NA,NA,714.0449,714.0449,714.0449,714.3945,NA,NA,NA,NA,NA,NA,NA,TRUE,1,0.9202,711.0466,714.0447,NA,NA,NA,NA,NA,30,26,0,62,62,42,1,2,63,"binary"
"Liam_Test_Aug1925",1,"2025-08-19_19h21.00.794",NA,NA,717.3948,717.3949,717.3949,717.7446,NA,NA,NA,NA,NA,NA,NA,TRUE,2,1.4196,714.3965,717.3947,NA,NA,NA,NA,NA,180,31,0,63,63,97,1,2,64,"binary"
"Liam_Test_Aug1925",1,"2025-08-19_19h21.00.794",NA,NA,720.7446,720.7447,720.7447,721.0939,NA,NA,NA,NA,NA,NA,NA,TRUE,2,0.7548,717.7465,720.7445,NA,NA,NA,NA,NA,28,35,0,64,64,39,1,2,65,"binary"
"Liam_Test_Aug1925",1,"2025-08-19_19h21.00.794",NA,NA,724.0948,724.0948,724.0948,724.4446,NA,NA,NA,NA,NA,NA,NA,TRUE,2,1.0206,721.0957,724.0946,NA,NA,NA,NA,NA,25,29,0,65,65,31,1,2,66,"binary"
"Liam_Test_Aug1925",1,"2025-08-19_19h21.00.794",NA,NA,727.4445,727.4445,727.4445,727.7946,NA,NA,NA,NA,NA,NA,NA,TRUE,2,1.0033,724.4464,727.4444,NA,NA,NA,NA,NA,60,47,0,66,66,70,1,2,67,"binary"
"Liam_Test_Aug1925",1,"2025-08-19_19h21.00.794",NA,NA,730.7941,730.7941,730.7941,731.1445,NA,NA,NA,NA,NA,NA,NA,TRUE,2,0.7353,727.7965,730.794,NA,NA,NA,NA,NA,30,32,0,67,67,46,1,2,68,"binary"
"Liam_Test_Aug1925",1,"2025-08-19_19h21.00.794",NA,NA,734.1446,734.1446,734.1446,734.4945,NA,NA,NA,NA,NA,NA,NA,TRUE,2,2.7066,731.1464,734.1444,NA,NA,NA,NA,NA,30,29,0,68,68,44,1,2,69,"binary"
"Liam_Test_Aug1925",1,"2025-08-19_19h21.00.794",NA,NA,737.4945,737.4946,737.4946,737.8443,NA,NA,NA,NA,NA,NA,NA,TRUE,1,0.9191,734.4962,737.4944,NA,NA,NA,NA,NA,14,26,0,69,69,19,1,2,70,"binary"
"Liam_Test_Aug1925",1,"2025-08-19_19h21.00.794",NA,NA,740.8441,740.8442,740.8442,741.1939,NA,NA,NA,NA,NA,NA,NA,TRUE,2,0.8514,737.8464,740.8441,NA,NA,NA,NA,NA,200,47,0,70,70,106,1,2,71,"binary"
"Liam_Test_Aug1925",1,"2025-08-19_19h21.00.794",NA,NA,744.1945,744.1945,744.1945,744.5444,NA,NA,NA,NA,NA,NA,NA,TRUE,2,1.4355,741.1957,744.1944,NA,NA,NA,NA,NA,12,28,0,71,71,14,1,2,72,"binary"
"Liam_Test_Aug1925",1,"2025-08-19_19h21.00.794",NA,NA,747.5442,747.5443,747.5443,747.8942,NA,NA,NA,NA,NA,NA,NA,TRUE,1,1.6359,744.5462,747.5441,NA,NA,NA,NA,NA,10,25,0,72,72,6,1,2,73,"binary"
"Liam_Test_Aug1925",1,"2025-08-19_19h21.00.794",NA,NA,750.8943,750.8944,750.8944,751.2441,NA,NA,NA,NA,NA,NA,NA,TRUE,2,1.565,747.8962,750.8943,NA,NA,NA,NA,NA,7,28,0,73,73,2,1,2,74,"binary"
"Liam_Test_Aug1925",1,"2025-08-19_19h21.00.794",NA,NA,754.2443,754.2443,754.2444,754.5942,NA,NA,NA,NA,NA,NA,NA,TRUE,2,1.5167,751.2456,754.2442,NA,NA,NA,NA,NA,21,29,0,74,74,26,1,2,75,"binary"
"Liam_Test_Aug1925",1,"2025-08-19_19h21.00.794",NA,NA,757.594,757.594,757.594,757.944,NA,NA,NA,NA,NA,NA,NA,TRUE,1,2.0648,754.596,757.5939,NA,NA,NA,NA,NA,90,26,0,75,75,72,1,2,76,"binary"
"Liam_Test_Aug1925",1,"2025-08-19_19h21.00.794",NA,NA,760.9443,760.9443,760.9444,761.2941,NA,NA,NA,NA,NA,NA,NA,TRUE,2,1.9963,757.9459,760.9442,NA,NA,NA,NA,NA,25,33,0,76,76,33,1,2,77,"binary"
"Liam_Test_Aug1925",1,"2025-08-19_19h21.00.794",NA,NA,764.2941,764.2941,764.2942,764.6439,NA,NA,NA,NA,NA,NA,NA,TRUE,1,2.4556,761.2959,764.294,NA,NA,NA,NA,NA,7,25,0,77,77,0,1,2,78,"binary"
"Liam_Test_Aug1925",1,"2025-08-19_19h21.00.794",NA,NA,767.6441,767.6442,767.6442,767.9939,NA,NA,NA,NA,NA,NA,NA,TRUE,2,1.0557,764.6458,767.6441,NA,NA,NA,NA,NA,28,39,0,78,78,40,1,2,79,"binary"
"Liam_Test_Aug1925",1,"2025-08-19_19h21.00.794",NA,NA,770.9934,770.9934,770.9934,771.3435,NA,NA,NA,NA,NA,NA,NA,TRUE,2,1.8363,767.9957,770.9932,NA,NA,NA,NA,NA,7,32,0,79,79,4,1,2,80,"binary"
"Liam_Test_Aug1925",1,"2025-08-19_19h21.00.794",NA,NA,774.3441,774.3441,774.3442,774.6938,NA,NA,NA,NA,NA,NA,NA,TRUE,2,1.4144,771.3453,774.344,NA,NA,NA,NA,NA,180,39,0,80,80,99,1,2,81,"binary"
"Liam_Test_Aug1925",1,"2025-08-19_19h21.00.794",NA,NA,777.6939,777.6939,777.6939,778.0439,NA,NA,NA,NA,NA,NA,NA,TRUE,2,1.4151,774.6958,777.6938,NA,NA,NA,NA,NA,12,33,0,81,81,16,1,2,82,"binary"
"Liam_Test_Aug1925",1,"2025-08-19_19h21.00.794",NA,NA,781.044,781.044,781.0441,781.3938,NA,NA,NA,NA,NA,NA,NA,TRUE,1,2.5654,778.0457,781.0438,NA,NA,NA,NA,NA,50,27,0,82,82,60,1,2,83,"binary"
"Liam_Test_Aug1925",1,"2025-08-19_19h21.00.794",NA,NA,784.394,784.6437,784.6438,784.7438,NA,NA,NA,NA,NA,NA,NA,FALSE,NA,NA,781.3956,784.3939,NA,NA,NA,NA,NA,40,27,0,83,83,48,1,2,84,"binary"
"Liam_Test_Aug1925",1,"2025-08-19_19h21.00.794",NA,NA,787.7433,787.7433,787.7433,788.0937,NA,NA,NA,NA,NA,NA,NA,TRUE,2,0.9536,784.7457,787.7431,NA,NA,NA,NA,NA,45,31,0,84,84,56,1,2,85,"binary"
"Liam_Test_Aug1925",1,"2025-08-19_19h21.00.794",NA,NA,791.0938,791.0938,791.0938,791.4436,NA,NA,NA,NA,NA,NA,NA,TRUE,2,2.7649,788.0957,791.0936,NA,NA,NA,NA,NA,21,30,0,85,85,27,1,2,86,"binary"
"Liam_Test_Aug1925",1,"2025-08-19_19h21.00.794",NA,NA,794.4437,794.4437,794.4437,794.7936,NA,NA,NA,NA,NA,NA,NA,TRUE,2,0.904,791.4455,794.4436,NA,NA,NA,NA,NA,10,29,0,86,86,9,1,2,87,"binary"
"Liam_Test_Aug1925",1,"2025-08-19_19h21.00.794",NA,NA,797.7925,797.7925,797.7925,798.1432,NA,NA,NA,NA,NA,NA,NA,TRUE,2,0.764,794.7955,797.7924,NA,NA,NA,NA,NA,45,46,0,87,87,59,1,2,88,"binary"
"Liam_Test_Aug1925",1,"2025-08-19_19h21.00.794",NA,NA,801.1435,801.1436,801.1436,801.4926,NA,NA,NA,NA,NA,NA,NA,TRUE,2,1.0913,798.1451,801.1435,NA,NA,NA,NA,NA,90,40,0,88,88,75,1,2,89,"binary"
"Liam_Test_Aug1925",1,"2025-08-19_19h21.00.794",NA,NA,804.4936,804.4937,804.4937,804.8435,NA,NA,NA,NA,NA,NA,NA,TRUE,2,1.4369,801.4945,804.4935,NA,NA,NA,NA,NA,60,29,0,89,89,66,1,2,90,"binary"
"Liam_Test_Aug1925",1,"2025-08-19_19h21.00.794",NA,NA,807.8436,807.8437,807.8437,808.1934,NA,NA,NA,NA,NA,NA,NA,TRUE,1,1.3037,804.8454,807.8435,NA,NA,NA,NA,NA,12,26,0,90,90,13,1,2,91,"binary"
"Liam_Test_Aug1925",1,"2025-08-19_19h21.00.794",NA,NA,811.1937,811.1937,811.1937,811.5435,NA,NA,NA,NA,NA,NA,NA,TRUE,2,0.8145,808.1952,811.1936,NA,NA,NA,NA,NA,95,54,0,91,91,83,1,2,92,"binary"
"Liam_Test_Aug1925",1,"2025-08-19_19h21.00.794",NA,NA,814.5434,814.5434,814.5434,814.8928,NA,NA,NA,NA,NA,NA,NA,TRUE,2,2.5309,811.5454,814.5433,NA,NA,NA,NA,NA,40,33,0,92,92,49,1,2,93,"binary"
"Liam_Test_Aug1925",1,"2025-08-19_19h21.00.794",NA,NA,817.8935,817.8936,817.8936,818.2434,NA,NA,NA,NA,NA,NA,NA,TRUE,2,0.6803,814.8951,817.8933,NA,NA,NA,NA,NA,14,32,0,93,93,21,1,2,94,"binary"
"Liam_Test_Aug1925",1,"2025-08-19_19h21.00.794",NA,NA,821.2433,821.4928,821.4928,821.5926,NA,NA,NA,NA,NA,NA,NA,FALSE,NA,NA,818.2452,821.2432,NA,NA,NA,NA,NA,100,31,0,94,94,85,1,2,95,"binary"
"Liam_Test_Aug1925",1,"2025-08-19_19h21.00.794",NA,NA,824.5934,824.8431,824.8431,824.9432,NA,NA,NA,NA,NA,NA,NA,FALSE,NA,NA,821.5945,824.5933,NA,NA,NA,NA,NA,90,33,0,95,95,74,1,2,96,"binary"
"Liam_Test_Aug1925",1,"2025-08-19_19h21.00.794",NA,NA,827.9434,827.9434,827.9434,828.2925,NA,NA,NA,NA,NA,NA,NA,TRUE,2,0.8368,824.945,827.9432,NA,NA,NA,NA,NA,28,46,0,96,96,41,1,2,97,"binary"
"Liam_Test_Aug1925",1,"2025-08-19_19h21.00.794",NA,NA,831.2934,831.2934,831.2934,831.6432,NA,NA,NA,NA,NA,NA,NA,TRUE,2,0.9381,828.2943,831.2932,NA,NA,NA,NA,NA,50,46,0,97,97,64,1,2,98,"binary"
"Liam_Test_Aug1925",1,"2025-08-19_19h21.00.794",NA,NA,834.6433,834.6434,834.6434,834.9931,NA,NA,NA,NA,NA,NA,NA,TRUE,2,0.5566,831.6449,834.6432,NA,NA,NA,NA,NA,25,35,0,98,98,34,1,2,99,"binary"
"Liam_Test_Aug1925",1,"2025-08-19_19h21.00.794",NA,NA,837.9932,837.9933,837.9933,838.3424,NA,NA,NA,NA,NA,NA,NA,TRUE,2,1.9146,834.995,837.9931,NA,NA,NA,NA,NA,200,39,0,99,99,105,1,2,100,"binary"
"Liam_Test_Aug1925",1,"2025-08-19_19h21.00.794",NA,NA,841.3432,841.593,841.593,841.693,NA,NA,NA,NA,NA,NA,NA,FALSE,NA,NA,838.3441,841.343,NA,NA,NA,NA,NA,150,54,0,100,100,95,1,2,101,"binary"
"Liam_Test_Aug1925",1,"2025-08-19_19h21.00.794",NA,NA,844.6927,844.6927,844.6927,845.0429,NA,NA,NA,NA,NA,NA,NA,TRUE,2,1.2857,841.6949,844.6925,NA,NA,NA,NA,NA,45,40,0,101,101,58,1,2,102,"binary"
"Liam_Test_Aug1925",1,"2025-08-19_19h21.00.794",NA,NA,848.0431,848.0431,848.0431,848.3929,NA,NA,NA,NA,NA,NA,NA,TRUE,1,0.9696,845.0447,848.0429,NA,NA,NA,NA,NA,12,25,0,102,102,12,1,2,103,"binary"
"Liam_Test_Aug1925",1,"2025-08-19_19h21.00.794",NA,NA,851.3931,851.643,851.643,851.7422,NA,NA,NA,NA,NA,NA,NA,FALSE,NA,NA,848.3948,851.3929,NA,NA,NA,NA,NA,150,40,0,103,103,93,1,2,104,"binary"
"Liam_Test_Aug1925",1,"2025-08-19_19h21.00.794",NA,NA,854.7422,854.7423,854.7423,855.0925,NA,NA,NA,NA,NA,NA,NA,TRUE,2,0.8006,851.7436,854.7421,NA,NA,NA,NA,NA,50,54,0,104,104,65,1,2,105,"binary"
"Liam_Test_Aug1925",1,"2025-08-19_19h21.00.794",NA,NA,858.093,858.093,858.093,858.442,NA,NA,NA,NA,NA,NA,NA,TRUE,2,0.9152,855.0942,858.0929,NA,NA,NA,NA,NA,30,38,0,105,105,47,1,2,106,"binary"
"Liam_Test_Aug1925",1,"2025-08-19_19h21.00.794",NA,NA,861.4429,861.6928,861.6928,861.7925,NA,NA,NA,NA,NA,NA,NA,FALSE,NA,NA,858.4439,861.4428,NA,NA,NA,NA,NA,150,31,0,106,106,90,1,2,107,"binary"
"Liam_Test_Aug1925",1,"2025-08-19_19h21.00.794",NA,NA,864.7922,864.7923,864.7923,865.1425,NA,NA,NA,NA,NA,NA,NA,TRUE,2,1.4191,861.7943,864.7921,NA,NA,NA,NA,NA,95,31,0,107,107,78,1,2,108,"binary"
