"participant","session","assignmentId","projectId","date","practiceTrial.started","practiceTrial.stopped","tooLate.started","tooLate.stopped","blank.started","blank.stopped","trials_pract.thisRepN","trials_pract.thisTrialN","trials_pract.thisN","trials_pract.thisIndex","trials_pract.ran","delay_pract","amount_pract","responseMade","key","rt","trial.started","trial.stopped","trials.thisRepN","trials.thisTrialN","trials.thisN","trials.thisIndex","trials.ran","delay","amount","trials_2.thisRepN","trials_2.thisTrialN","trials_2.thisN","trials_2.thisIndex","trials_2.ran","block","trial","taskType"
"JustineFinalTest",1,"JustineFinalTest_Aug26","Test_Aug26","2025-08-26_18h27.13.422",98.4898,101.4791,101.48,101.4931,101.4932,101.8123,0,0,0,0,1,7,30,TRUE,1,1.1947,NA,NA,NA,NA,NA,NA,NA,NA,NA,NA,NA,NA,NA,NA,0,1,"likert"
"JustineFinalTest",1,"JustineFinalTest_Aug26","Test_Aug26","2025-08-26_18h27.13.422",101.8141,104.8122,104.8124,104.8124,104.8124,105.1787,0,1,1,4,1,30,40,TRUE,3,0.8962,NA,NA,NA,NA,NA,NA,NA,NA,NA,NA,NA,NA,NA,NA,0,2,"likert"
"JustineFinalTest",1,"JustineFinalTest_Aug26","Test_Aug26","2025-08-26_18h27.13.422",105.1802,108.1787,108.1789,108.179,108.1791,108.512,0,2,2,1,1,100,50,TRUE,5,0.7866,NA,NA,NA,NA,NA,NA,NA,NA,NA,NA,NA,NA,NA,NA,0,3,"likert"
"JustineFinalTest",1,"JustineFinalTest_Aug26","Test_Aug26","2025-08-26_18h27.13.422",108.5135,111.5119,111.512,111.512,111.5121,111.8786,0,3,3,3,1,3,27,TRUE,4,0.844,NA,NA,NA,NA,NA,NA,NA,NA,NA,NA,NA,NA,NA,NA,0,4,"likert"
"JustineFinalTest",1,"JustineFinalTest_Aug26","Test_Aug26","2025-08-26_18h27.13.422",111.8798,114.8787,114.8789,114.879,114.879,115.2118,0,4,4,2,1,14,45,TRUE,2,0.7692,NA,NA,NA,NA,NA,NA,NA,NA,NA,NA,NA,NA,NA,NA,0,5,"likert"
"JustineFinalTest",1,"JustineFinalTest_Aug26","Test_Aug26","2025-08-26_18h27.13.422",NA,NA,124.2788,124.2791,124.2793,124.612,NA,NA,NA,NA,NA,NA,NA,TRUE,2,1.2319,121.2936,124.2784,0,0,0,7,1,10,26,NA,NA,NA,NA,NA,1,1,"likert"
"JustineFinalTest",1,"JustineFinalTest_Aug26","Test_Aug26","2025-08-26_18h27.13.422",NA,NA,127.611,127.6111,127.6112,127.9776,NA,NA,NA,NA,NA,NA,NA,TRUE,3,0.4587,124.613,127.611,0,1,1,17,1,12,35,NA,NA,NA,NA,NA,1,2,"likert"
"JustineFinalTest",1,"JustineFinalTest_Aug26","Test_Aug26","2025-08-26_18h27.13.422",NA,NA,130.9788,130.9789,130.979,131.3113,NA,NA,NA,NA,NA,NA,NA,TRUE,3,0.8082,127.9783,130.9787,0,2,2,3,1,7,30,NA,NA,NA,NA,NA,1,3,"likert"
"JustineFinalTest",1,"JustineFinalTest_Aug26","Test_Aug26","2025-08-26_18h27.13.422",NA,NA,134.312,134.312,134.312,134.6786,NA,NA,NA,NA,NA,NA,NA,TRUE,4,1.0236,131.3126,134.3118,0,3,3,52,1,40,47,NA,NA,NA,NA,NA,1,4,"likert"
"JustineFinalTest",1,"JustineFinalTest_Aug26","Test_Aug26","2025-08-26_18h27.13.422",NA,NA,137.6788,137.679,137.679,138.0112,NA,NA,NA,NA,NA,NA,NA,TRUE,1,0.9348,134.6801,137.6786,0,4,4,99,1,180,39,NA,NA,NA,NA,NA,1,5,"likert"
"JustineFinalTest",1,"JustineFinalTest_Aug26","Test_Aug26","2025-08-26_18h27.13.422",NA,NA,141.0081,141.0081,141.0081,141.3746,NA,NA,NA,NA,NA,NA,NA,TRUE,5,0.6451,138.0126,141.0079,0,5,5,55,1,45,29,NA,NA,NA,NA,NA,1,6,"likert"
"JustineFinalTest",1,"JustineFinalTest_Aug26","Test_Aug26","2025-08-26_18h27.13.422",NA,NA,144.3749,144.6078,144.6079,144.7077,NA,NA,NA,NA,NA,NA,NA,FALSE,NA,NA,141.376,144.3747,0,6,6,16,1,12,33,NA,NA,NA,NA,NA,1,7,"likert"
"JustineFinalTest",1,"JustineFinalTest_Aug26","Test_Aug26","2025-08-26_18h27.13.422",NA,NA,147.7372,147.9703,147.9704,148.0704,NA,NA,NA,NA,NA,NA,NA,FALSE,NA,NA,144.7091,147.737,0,7,7,22,1,14,35,NA,NA,NA,NA,NA,1,8,"likert"
"JustineFinalTest",1,"JustineFinalTest_Aug26","Test_Aug26","2025-08-26_18h27.13.422",NA,NA,151.0704,151.3369,151.337,151.4371,NA,NA,NA,NA,NA,NA,NA,FALSE,NA,NA,148.0717,151.0702,0,8,8,74,1,90,33,NA,NA,NA,NA,NA,1,9,"likert"
"JustineFinalTest",1,"JustineFinalTest_Aug26","Test_Aug26","2025-08-26_18h27.13.422",NA,NA,154.4365,154.6703,154.6704,154.7705,NA,NA,NA,NA,NA,NA,NA,FALSE,NA,NA,151.4385,154.4363,0,9,9,79,1,95,33,NA,NA,NA,NA,NA,1,10,"likert"
"JustineFinalTest",1,"JustineFinalTest_Aug26","Test_Aug26","2025-08-26_18h27.13.422",NA,NA,157.7705,158.0035,158.0035,158.137,NA,NA,NA,NA,NA,NA,NA,FALSE,NA,NA,154.7717,157.7703,0,10,10,98,1,180,35,NA,NA,NA,NA,NA,1,11,"likert"
"JustineFinalTest",1,"JustineFinalTest_Aug26","Test_Aug26","2025-08-26_18h27.13.422",NA,NA,161.1374,161.3694,161.3695,161.4702,NA,NA,NA,NA,NA,NA,NA,FALSE,NA,NA,158.1384,161.1373,0,11,11,97,1,180,31,NA,NA,NA,NA,NA,1,12,"likert"
"JustineFinalTest",1,"JustineFinalTest_Aug26","Test_Aug26","2025-08-26_18h27.13.422",NA,NA,164.4702,164.737,164.737,164.836,NA,NA,NA,NA,NA,NA,NA,FALSE,NA,NA,161.4718,164.47,0,12,12,64,1,50,46,NA,NA,NA,NA,NA,1,13,"likert"
"JustineFinalTest",1,"JustineFinalTest_Aug26","Test_Aug26","2025-08-26_18h27.13.422",NA,NA,167.8372,168.0702,168.0702,168.1702,NA,NA,NA,NA,NA,NA,NA,FALSE,NA,NA,164.8374,167.837,0,13,13,43,1,30,27,NA,NA,NA,NA,NA,1,14,"likert"
"JustineFinalTest",1,"JustineFinalTest_Aug26","Test_Aug26","2025-08-26_18h27.13.422",NA,NA,171.1705,171.437,171.437,171.5368,NA,NA,NA,NA,NA,NA,NA,FALSE,NA,NA,168.1718,171.1703,0,14,14,56,1,45,31,NA,NA,NA,NA,NA,1,15,"likert"
"JustineFinalTest",1,"JustineFinalTest_Aug26","Test_Aug26","2025-08-26_18h27.13.422",NA,NA,174.5372,174.7702,174.7702,174.8701,NA,NA,NA,NA,NA,NA,NA,FALSE,NA,NA,171.5383,174.5369,0,15,15,9,1,10,29,NA,NA,NA,NA,NA,1,16,"likert"
"JustineFinalTest",1,"JustineFinalTest_Aug26","Test_Aug26","2025-08-26_18h27.13.422",NA,NA,177.8705,178.1369,178.1369,178.2368,NA,NA,NA,NA,NA,NA,NA,FALSE,NA,NA,174.8717,177.8703,0,16,16,90,1,150,31,NA,NA,NA,NA,NA,1,17,"likert"
"JustineFinalTest",1,"JustineFinalTest_Aug26","Test_Aug26","2025-08-26_18h27.13.422",NA,NA,181.2371,181.4703,181.4703,181.5702,NA,NA,NA,NA,NA,NA,NA,FALSE,NA,NA,178.2383,181.2369,0,17,17,25,1,21,27,NA,NA,NA,NA,NA,1,18,"likert"
"JustineFinalTest",1,"JustineFinalTest_Aug26","Test_Aug26","2025-08-26_18h27.13.422",NA,NA,184.5698,184.8359,184.836,184.9369,NA,NA,NA,NA,NA,NA,NA,FALSE,NA,NA,181.5715,184.5697,0,18,18,66,1,60,29,NA,NA,NA,NA,NA,1,19,"likert"
"JustineFinalTest",1,"JustineFinalTest_Aug26","Test_Aug26","2025-08-26_18h27.13.422",NA,NA,187.9365,188.1701,188.1702,188.2703,NA,NA,NA,NA,NA,NA,NA,FALSE,NA,NA,184.9383,187.9363,0,19,19,11,1,10,32,NA,NA,NA,NA,NA,1,20,"likert"
"JustineFinalTest",1,"JustineFinalTest_Aug26","Test_Aug26","2025-08-26_18h27.13.422",NA,NA,191.2702,191.537,191.537,191.6369,NA,NA,NA,NA,NA,NA,NA,FALSE,NA,NA,188.2717,191.2702,0,20,20,20,1,14,28,NA,NA,NA,NA,NA,1,21,"likert"
"JustineFinalTest",1,"JustineFinalTest_Aug26","Test_Aug26","2025-08-26_18h27.13.422",NA,NA,194.6369,194.8701,194.8702,194.9703,NA,NA,NA,NA,NA,NA,NA,FALSE,NA,NA,191.6383,194.6367,0,21,21,62,1,50,35,NA,NA,NA,NA,NA,1,22,"likert"
"JustineFinalTest",1,"JustineFinalTest_Aug26","Test_Aug26","2025-08-26_18h27.13.422",NA,NA,197.9695,198.2368,198.2369,198.3359,NA,NA,NA,NA,NA,NA,NA,FALSE,NA,NA,194.9715,197.9693,0,22,22,103,1,200,28,NA,NA,NA,NA,NA,1,23,"likert"
"JustineFinalTest",1,"JustineFinalTest_Aug26","Test_Aug26","2025-08-26_18h27.13.422",NA,NA,201.3371,201.5703,201.5703,201.6692,NA,NA,NA,NA,NA,NA,NA,FALSE,NA,NA,198.3373,201.3368,0,23,23,2,1,7,28,NA,NA,NA,NA,NA,1,24,"likert"
"JustineFinalTest",1,"JustineFinalTest_Aug26","Test_Aug26","2025-08-26_18h27.13.422",NA,NA,204.6704,204.9368,204.9368,205.0369,NA,NA,NA,NA,NA,NA,NA,FALSE,NA,NA,201.6706,204.6702,0,24,24,47,1,30,38,NA,NA,NA,NA,NA,1,25,"likert"
"JustineFinalTest",1,"JustineFinalTest_Aug26","Test_Aug26","2025-08-26_18h27.13.422",NA,NA,208.0371,208.2699,208.2699,208.3699,NA,NA,NA,NA,NA,NA,NA,FALSE,NA,NA,205.0383,208.037,0,25,25,6,1,10,25,NA,NA,NA,NA,NA,1,26,"likert"
"JustineFinalTest",1,"JustineFinalTest_Aug26","Test_Aug26","2025-08-26_18h27.13.422",NA,NA,211.3704,211.6368,211.6369,211.7369,NA,NA,NA,NA,NA,NA,NA,FALSE,NA,NA,208.3704,211.3703,0,26,26,71,1,60,54,NA,NA,NA,NA,NA,1,27,"likert"
"JustineFinalTest",1,"JustineFinalTest_Aug26","Test_Aug26","2025-08-26_18h27.13.422",NA,NA,214.7369,214.9701,214.9702,215.0701,NA,NA,NA,NA,NA,NA,NA,FALSE,NA,NA,211.7382,214.7368,0,27,27,82,1,95,47,NA,NA,NA,NA,NA,1,28,"likert"
"JustineFinalTest",1,"JustineFinalTest_Aug26","Test_Aug26","2025-08-26_18h27.13.422",NA,NA,218.0704,218.3367,218.3368,218.4367,NA,NA,NA,NA,NA,NA,NA,FALSE,NA,NA,215.0714,218.0702,0,28,28,38,1,28,32,NA,NA,NA,NA,NA,1,29,"likert"
"JustineFinalTest",1,"JustineFinalTest_Aug26","Test_Aug26","2025-08-26_18h27.13.422",NA,NA,221.437,221.6701,221.6702,221.7691,NA,NA,NA,NA,NA,NA,NA,FALSE,NA,NA,218.4381,221.4369,0,29,29,61,1,50,30,NA,NA,NA,NA,NA,1,30,"likert"
"JustineFinalTest",1,"JustineFinalTest_Aug26","Test_Aug26","2025-08-26_18h27.13.422",NA,NA,224.7703,225.0368,225.0368,225.137,NA,NA,NA,NA,NA,NA,NA,FALSE,NA,NA,221.7708,224.7702,0,30,30,68,1,60,35,NA,NA,NA,NA,NA,1,31,"likert"
"JustineFinalTest",1,"JustineFinalTest_Aug26","Test_Aug26","2025-08-26_18h27.13.422",NA,NA,228.1372,228.37,228.3701,228.4701,NA,NA,NA,NA,NA,NA,NA,FALSE,NA,NA,225.1386,228.137,0,31,31,21,1,14,32,NA,NA,NA,NA,NA,1,32,"likert"
"JustineFinalTest",1,"JustineFinalTest_Aug26","Test_Aug26","2025-08-26_18h27.13.422",NA,NA,231.4705,231.7358,231.7359,231.8034,NA,NA,NA,NA,NA,NA,NA,FALSE,NA,NA,228.4715,231.4703,0,32,32,59,1,45,46,NA,NA,NA,NA,NA,1,33,"likert"
"JustineFinalTest",1,"JustineFinalTest_Aug26","Test_Aug26","2025-08-26_18h27.13.422",NA,NA,234.8037,235.07,235.0701,235.1701,NA,NA,NA,NA,NA,NA,NA,FALSE,NA,NA,231.8048,234.8034,0,33,33,34,1,25,35,NA,NA,NA,NA,NA,1,34,"likert"
"JustineFinalTest",1,"JustineFinalTest_Aug26","Test_Aug26","2025-08-26_18h27.13.422",NA,NA,238.1703,238.4368,238.4368,238.5357,NA,NA,NA,NA,NA,NA,NA,FALSE,NA,NA,235.1716,238.1702,0,34,34,39,1,28,35,NA,NA,NA,NA,NA,1,35,"likert"
"JustineFinalTest",1,"JustineFinalTest_Aug26","Test_Aug26","2025-08-26_18h27.13.422",NA,NA,241.537,241.7702,241.7702,241.8701,NA,NA,NA,NA,NA,NA,NA,FALSE,NA,NA,238.5373,241.5368,0,35,35,44,1,30,29,NA,NA,NA,NA,NA,1,36,"likert"
"JustineFinalTest",1,"JustineFinalTest_Aug26","Test_Aug26","2025-08-26_18h27.13.422",NA,NA,244.8703,245.1368,245.1369,245.2367,NA,NA,NA,NA,NA,NA,NA,FALSE,NA,NA,241.8716,244.8702,0,36,36,27,1,21,30,NA,NA,NA,NA,NA,1,37,"likert"
"JustineFinalTest",1,"JustineFinalTest_Aug26","Test_Aug26","2025-08-26_18h27.13.422",NA,NA,248.2038,248.47,248.4701,248.57,NA,NA,NA,NA,NA,NA,NA,FALSE,NA,NA,245.2383,248.2036,0,37,37,87,1,100,39,NA,NA,NA,NA,NA,1,38,"likert"
"JustineFinalTest",1,"JustineFinalTest_Aug26","Test_Aug26","2025-08-26_18h27.13.422",NA,NA,251.5703,251.8367,251.8367,251.9367,NA,NA,NA,NA,NA,NA,NA,FALSE,NA,NA,248.5714,251.5701,0,38,38,65,1,50,54,NA,NA,NA,NA,NA,1,39,"likert"
"JustineFinalTest",1,"JustineFinalTest_Aug26","Test_Aug26","2025-08-26_18h27.13.422",NA,NA,254.9371,255.17,255.1701,255.27,NA,NA,NA,NA,NA,NA,NA,FALSE,NA,NA,251.9381,254.9368,0,39,39,50,1,40,35,NA,NA,NA,NA,NA,1,40,"likert"
"JustineFinalTest",1,"JustineFinalTest_Aug26","Test_Aug26","2025-08-26_18h27.13.422",NA,NA,258.2704,258.5363,258.5364,258.6367,NA,NA,NA,NA,NA,NA,NA,FALSE,NA,NA,255.2714,258.2702,0,40,40,4,1,7,32,NA,NA,NA,NA,NA,1,41,"likert"
"JustineFinalTest",1,"JustineFinalTest_Aug26","Test_Aug26","2025-08-26_18h27.13.422",NA,NA,261.6371,261.87,261.87,261.9701,NA,NA,NA,NA,NA,NA,NA,FALSE,NA,NA,258.638,261.6369,0,41,41,10,1,10,30,NA,NA,NA,NA,NA,1,42,"likert"
"JustineFinalTest",1,"JustineFinalTest_Aug26","Test_Aug26","2025-08-26_18h27.13.422",NA,NA,264.9704,265.2368,265.2368,265.3359,NA,NA,NA,NA,NA,NA,NA,FALSE,NA,NA,261.9716,264.9702,0,42,42,88,1,100,46,NA,NA,NA,NA,NA,1,43,"likert"
"JustineFinalTest",1,"JustineFinalTest_Aug26","Test_Aug26","2025-08-26_18h27.13.422",NA,NA,268.3365,268.5697,268.5697,268.6699,NA,NA,NA,NA,NA,NA,NA,FALSE,NA,NA,265.3373,268.3365,0,43,43,105,1,200,39,NA,NA,NA,NA,NA,1,44,"likert"
"JustineFinalTest",1,"JustineFinalTest_Aug26","Test_Aug26","2025-08-26_18h27.13.422",NA,NA,271.6704,271.6704,271.6704,272.0367,NA,NA,NA,NA,NA,NA,NA,TRUE,3,0.6324,268.6702,271.6701,0,44,44,35,1,25,46,NA,NA,NA,NA,NA,1,45,"likert"
"JustineFinalTest",1,"JustineFinalTest_Aug26","Test_Aug26","2025-08-26_18h27.13.422",NA,NA,275.0362,275.0362,275.0362,275.37,NA,NA,NA,NA,NA,NA,NA,TRUE,2,0.3712,272.0382,275.036,0,45,45,36,1,28,26,NA,NA,NA,NA,NA,1,46,"likert"
"JustineFinalTest",1,"JustineFinalTest_Aug26","Test_Aug26","2025-08-26_18h27.13.422",NA,NA,278.3694,278.3695,278.3695,278.7366,NA,NA,NA,NA,NA,NA,NA,TRUE,1,0.3588,275.3717,278.3693,0,46,46,51,1,40,40,NA,NA,NA,NA,NA,1,47,"likert"
"JustineFinalTest",1,"JustineFinalTest_Aug26","Test_Aug26","2025-08-26_18h27.13.422",NA,NA,281.7328,281.9659,281.966,282.065,NA,NA,NA,NA,NA,NA,NA,FALSE,NA,NA,278.7382,281.7326,0,47,47,15,1,12,31,NA,NA,NA,NA,NA,1,48,"likert"
"JustineFinalTest",1,"JustineFinalTest_Aug26","Test_Aug26","2025-08-26_18h27.13.422",NA,NA,285.0663,285.3326,285.3326,285.4317,NA,NA,NA,NA,NA,NA,NA,FALSE,NA,NA,282.0665,285.0661,0,48,48,60,1,50,27,NA,NA,NA,NA,NA,1,49,"likert"
"JustineFinalTest",1,"JustineFinalTest_Aug26","Test_Aug26","2025-08-26_18h27.13.422",NA,NA,288.4328,288.6659,288.6659,288.7659,NA,NA,NA,NA,NA,NA,NA,FALSE,NA,NA,285.4332,288.4326,0,49,49,72,1,90,26,NA,NA,NA,NA,NA,1,50,"likert"
"JustineFinalTest",1,"JustineFinalTest_Aug26","Test_Aug26","2025-08-26_18h27.13.422",NA,NA,291.7662,292.0322,292.0323,292.1325,NA,NA,NA,NA,NA,NA,NA,FALSE,NA,NA,288.7672,291.766,0,50,50,67,1,60,33,NA,NA,NA,NA,NA,1,51,"likert"
"JustineFinalTest",1,"JustineFinalTest_Aug26","Test_Aug26","2025-08-26_18h27.13.422",NA,NA,295.1286,295.1286,295.1286,295.4618,NA,NA,NA,NA,NA,NA,NA,TRUE,4,1.8825,292.1339,295.1284,0,51,51,63,1,50,40,NA,NA,NA,NA,NA,1,52,"likert"
"JustineFinalTest",1,"JustineFinalTest_Aug26","Test_Aug26","2025-08-26_18h27.13.422",NA,NA,298.4621,298.4621,298.4622,298.8284,NA,NA,NA,NA,NA,NA,NA,TRUE,3,0.2923,295.4631,298.4619,0,52,52,46,1,30,32,NA,NA,NA,NA,NA,1,53,"likert"
"JustineFinalTest",1,"JustineFinalTest_Aug26","Test_Aug26","2025-08-26_18h27.13.422",NA,NA,301.8276,301.8276,301.8276,302.1616,NA,NA,NA,NA,NA,NA,NA,TRUE,2,0.0101,298.8299,301.8274,0,53,53,45,1,30,30,NA,NA,NA,NA,NA,1,54,"likert"
"JustineFinalTest",1,"JustineFinalTest_Aug26","Test_Aug26","2025-08-26_18h27.13.422",NA,NA,305.1578,305.1578,305.1578,305.5242,NA,NA,NA,NA,NA,NA,NA,TRUE,1,0.405,302.163,305.1576,0,54,54,5,1,7,35,NA,NA,NA,NA,NA,1,55,"likert"
"JustineFinalTest",1,"JustineFinalTest_Aug26","Test_Aug26","2025-08-26_18h27.13.422",NA,NA,308.5235,308.5235,308.5236,308.8576,NA,NA,NA,NA,NA,NA,NA,TRUE,1,1.1036,305.5256,308.5233,0,55,55,41,1,28,46,NA,NA,NA,NA,NA,1,56,"likert"
"JustineFinalTest",1,"JustineFinalTest_Aug26","Test_Aug26","2025-08-26_18h27.13.422",NA,NA,311.8567,311.8568,311.8568,312.2242,NA,NA,NA,NA,NA,NA,NA,TRUE,5,0.2935,308.8592,311.8566,0,56,56,107,1,200,54,NA,NA,NA,NA,NA,1,57,"likert"
"JustineFinalTest",1,"JustineFinalTest_Aug26","Test_Aug26","2025-08-26_18h27.13.422",NA,NA,315.2245,315.4574,315.4575,315.5574,NA,NA,NA,NA,NA,NA,NA,FALSE,NA,NA,312.2256,315.2243,0,57,57,85,1,100,31,NA,NA,NA,NA,NA,1,58,"likert"
"JustineFinalTest",1,"JustineFinalTest_Aug26","Test_Aug26","2025-08-26_18h27.13.422",NA,NA,318.5579,318.8241,318.8241,318.9241,NA,NA,NA,NA,NA,NA,NA,FALSE,NA,NA,315.5589,318.5576,0,58,58,58,1,45,40,NA,NA,NA,NA,NA,1,59,"likert"
"JustineFinalTest",1,"JustineFinalTest_Aug26","Test_Aug26","2025-08-26_18h27.13.422",NA,NA,321.9234,322.1574,322.1574,322.2575,NA,NA,NA,NA,NA,NA,NA,FALSE,NA,NA,318.9255,321.9232,0,59,59,104,1,200,35,NA,NA,NA,NA,NA,1,60,"likert"
"JustineFinalTest",1,"JustineFinalTest_Aug26","Test_Aug26","2025-08-26_18h27.13.422",NA,NA,325.2578,325.5241,325.5242,325.6242,NA,NA,NA,NA,NA,NA,NA,FALSE,NA,NA,322.2589,325.2577,0,60,60,93,1,150,40,NA,NA,NA,NA,NA,1,61,"likert"
"JustineFinalTest",1,"JustineFinalTest_Aug26","Test_Aug26","2025-08-26_18h27.13.422",NA,NA,328.6243,328.8572,328.8572,328.9575,NA,NA,NA,NA,NA,NA,NA,FALSE,NA,NA,325.6256,328.6242,0,61,61,30,1,25,27,NA,NA,NA,NA,NA,1,62,"likert"
"JustineFinalTest",1,"JustineFinalTest_Aug26","Test_Aug26","2025-08-26_18h27.13.422",NA,NA,331.9577,332.2242,332.2242,332.3233,NA,NA,NA,NA,NA,NA,NA,FALSE,NA,NA,328.9587,331.9575,0,62,62,24,1,21,26,NA,NA,NA,NA,NA,1,63,"likert"
"JustineFinalTest",1,"JustineFinalTest_Aug26","Test_Aug26","2025-08-26_18h27.13.422",NA,NA,335.3244,335.5574,335.5575,335.6574,NA,NA,NA,NA,NA,NA,NA,FALSE,NA,NA,332.3246,335.3243,0,63,63,33,1,25,33,NA,NA,NA,NA,NA,1,64,"likert"
"JustineFinalTest",1,"JustineFinalTest_Aug26","Test_Aug26","2025-08-26_18h27.13.422",NA,NA,338.6576,338.9241,338.9241,339.0241,NA,NA,NA,NA,NA,NA,NA,FALSE,NA,NA,335.6588,338.6575,0,64,64,28,1,21,32,NA,NA,NA,NA,NA,1,65,"likert"
"JustineFinalTest",1,"JustineFinalTest_Aug26","Test_Aug26","2025-08-26_18h27.13.422",NA,NA,342.0243,342.2574,342.2575,342.3575,NA,NA,NA,NA,NA,NA,NA,FALSE,NA,NA,339.0255,342.0242,0,65,65,81,1,95,40,NA,NA,NA,NA,NA,1,66,"likert"
"JustineFinalTest",1,"JustineFinalTest_Aug26","Test_Aug26","2025-08-26_18h27.13.422",NA,NA,345.3577,345.6241,345.6242,345.724,NA,NA,NA,NA,NA,NA,NA,FALSE,NA,NA,342.3589,345.3574,0,66,66,13,1,12,26,NA,NA,NA,NA,NA,1,67,"likert"
"JustineFinalTest",1,"JustineFinalTest_Aug26","Test_Aug26","2025-08-26_18h27.13.422",NA,NA,348.7243,348.9574,348.9575,349.0576,NA,NA,NA,NA,NA,NA,NA,FALSE,NA,NA,345.7255,348.7242,0,67,67,106,1,200,47,NA,NA,NA,NA,NA,1,68,"likert"
"JustineFinalTest",1,"JustineFinalTest_Aug26","Test_Aug26","2025-08-26_18h27.13.422",NA,NA,352.0577,352.3242,352.3242,352.4242,NA,NA,NA,NA,NA,NA,NA,FALSE,NA,NA,349.0589,352.0575,0,68,68,8,1,10,27,NA,NA,NA,NA,NA,1,69,"likert"
"JustineFinalTest",1,"JustineFinalTest_Aug26","Test_Aug26","2025-08-26_18h27.13.422",NA,NA,355.4244,355.6575,355.6575,355.7569,NA,NA,NA,NA,NA,NA,NA,FALSE,NA,NA,352.4256,355.4242,0,69,69,70,1,60,47,NA,NA,NA,NA,NA,1,70,"likert"
"JustineFinalTest",1,"JustineFinalTest_Aug26","Test_Aug26","2025-08-26_18h27.13.422",NA,NA,358.7578,359.0234,359.0235,359.1234,NA,NA,NA,NA,NA,NA,NA,FALSE,NA,NA,355.7584,358.7576,0,70,70,73,1,90,30,NA,NA,NA,NA,NA,1,71,"likert"
"JustineFinalTest",1,"JustineFinalTest_Aug26","Test_Aug26","2025-08-26_18h27.13.422",NA,NA,362.1243,362.3575,362.3576,362.4568,NA,NA,NA,NA,NA,NA,NA,FALSE,NA,NA,359.1249,362.1242,0,71,71,75,1,90,40,NA,NA,NA,NA,NA,1,72,"likert"
"JustineFinalTest",1,"JustineFinalTest_Aug26","Test_Aug26","2025-08-26_18h27.13.422",NA,NA,365.4576,365.724,365.724,365.824,NA,NA,NA,NA,NA,NA,NA,FALSE,NA,NA,362.4581,365.4574,0,72,72,49,1,40,33,NA,NA,NA,NA,NA,1,73,"likert"
"JustineFinalTest",1,"JustineFinalTest_Aug26","Test_Aug26","2025-08-26_18h27.13.422",NA,NA,368.824,369.0573,369.0574,369.1573,NA,NA,NA,NA,NA,NA,NA,FALSE,NA,NA,365.8255,368.8237,0,73,73,32,1,25,31,NA,NA,NA,NA,NA,1,74,"likert"
"JustineFinalTest",1,"JustineFinalTest_Aug26","Test_Aug26","2025-08-26_18h27.13.422",NA,NA,372.1578,372.4241,372.4242,372.524,NA,NA,NA,NA,NA,NA,NA,FALSE,NA,NA,369.1587,372.1575,0,74,74,26,1,21,29,NA,NA,NA,NA,NA,1,75,"likert"
"JustineFinalTest",1,"JustineFinalTest_Aug26","Test_Aug26","2025-08-26_18h27.13.422",NA,NA,375.5243,375.7573,375.7573,375.8564,NA,NA,NA,NA,NA,NA,NA,FALSE,NA,NA,372.5254,375.524,0,75,75,57,1,45,35,NA,NA,NA,NA,NA,1,76,"likert"
"JustineFinalTest",1,"JustineFinalTest_Aug26","Test_Aug26","2025-08-26_18h27.13.422",NA,NA,378.8576,379.124,379.124,379.224,NA,NA,NA,NA,NA,NA,NA,FALSE,NA,NA,375.8578,378.8574,0,76,76,86,1,100,38,NA,NA,NA,NA,NA,1,77,"likert"
"JustineFinalTest",1,"JustineFinalTest_Aug26","Test_Aug26","2025-08-26_18h27.13.422",NA,NA,382.2234,382.4575,382.4575,382.5574,NA,NA,NA,NA,NA,NA,NA,FALSE,NA,NA,379.2254,382.2232,0,77,77,23,1,14,39,NA,NA,NA,NA,NA,1,78,"likert"
"JustineFinalTest",1,"JustineFinalTest_Aug26","Test_Aug26","2025-08-26_18h27.13.422",NA,NA,385.5575,385.824,385.824,385.924,NA,NA,NA,NA,NA,NA,NA,FALSE,NA,NA,382.559,385.5573,0,78,78,83,1,95,54,NA,NA,NA,NA,NA,1,79,"likert"
"JustineFinalTest",1,"JustineFinalTest_Aug26","Test_Aug26","2025-08-26_18h27.13.422",NA,NA,388.9243,389.1573,389.1574,389.2575,NA,NA,NA,NA,NA,NA,NA,FALSE,NA,NA,385.9254,388.9241,0,79,79,100,1,180,46,NA,NA,NA,NA,NA,1,80,"likert"
"JustineFinalTest",1,"JustineFinalTest_Aug26","Test_Aug26","2025-08-26_18h27.13.422",NA,NA,392.2577,392.5239,392.524,392.6231,NA,NA,NA,NA,NA,NA,NA,FALSE,NA,NA,389.2589,392.2575,0,80,80,37,1,28,28,NA,NA,NA,NA,NA,1,81,"likert"
"JustineFinalTest",1,"JustineFinalTest_Aug26","Test_Aug26","2025-08-26_18h27.13.422",NA,NA,395.6242,395.8573,395.8574,395.9573,NA,NA,NA,NA,NA,NA,NA,FALSE,NA,NA,392.6245,395.6241,0,81,81,78,1,95,31,NA,NA,NA,NA,NA,1,82,"likert"
"JustineFinalTest",1,"JustineFinalTest_Aug26","Test_Aug26","2025-08-26_18h27.13.422",NA,NA,398.9577,399.2239,399.224,399.3241,NA,NA,NA,NA,NA,NA,NA,FALSE,NA,NA,395.9588,398.9575,0,82,82,12,1,12,25,NA,NA,NA,NA,NA,1,83,"likert"
"JustineFinalTest",1,"JustineFinalTest_Aug26","Test_Aug26","2025-08-26_18h27.13.422",NA,NA,402.3236,402.5573,402.5573,402.6572,NA,NA,NA,NA,NA,NA,NA,FALSE,NA,NA,399.3254,402.3234,0,83,83,69,1,60,40,NA,NA,NA,NA,NA,1,84,"likert"
"JustineFinalTest",1,"JustineFinalTest_Aug26","Test_Aug26","2025-08-26_18h27.13.422",NA,NA,405.6575,405.9239,405.924,406.0239,NA,NA,NA,NA,NA,NA,NA,FALSE,NA,NA,402.6587,405.6574,0,84,84,91,1,150,33,NA,NA,NA,NA,NA,1,85,"likert"
"JustineFinalTest",1,"JustineFinalTest_Aug26","Test_Aug26","2025-08-26_18h27.13.422",NA,NA,409.0245,409.2574,409.2574,409.3573,NA,NA,NA,NA,NA,NA,NA,FALSE,NA,NA,406.0255,409.0243,0,85,85,94,1,150,47,NA,NA,NA,NA,NA,1,86,"likert"
"JustineFinalTest",1,"JustineFinalTest_Aug26","Test_Aug26","2025-08-26_18h27.13.422",NA,NA,412.3576,412.6241,412.6242,412.7231,NA,NA,NA,NA,NA,NA,NA,FALSE,NA,NA,409.3587,412.3574,0,86,86,84,1,100,26,NA,NA,NA,NA,NA,1,87,"likert"
"JustineFinalTest",1,"JustineFinalTest_Aug26","Test_Aug26","2025-08-26_18h27.13.422",NA,NA,415.7243,415.9574,415.9575,416.0573,NA,NA,NA,NA,NA,NA,NA,FALSE,NA,NA,412.7245,415.7241,0,87,87,92,1,150,35,NA,NA,NA,NA,NA,1,88,"likert"
"JustineFinalTest",1,"JustineFinalTest_Aug26","Test_Aug26","2025-08-26_18h27.13.422",NA,NA,419.0577,419.324,419.324,419.4239,NA,NA,NA,NA,NA,NA,NA,FALSE,NA,NA,416.0587,419.0573,0,88,88,31,1,25,29,NA,NA,NA,NA,NA,1,89,"likert"
"JustineFinalTest",1,"JustineFinalTest_Aug26","Test_Aug26","2025-08-26_18h27.13.422",NA,NA,422.424,422.6573,422.6574,422.7571,NA,NA,NA,NA,NA,NA,NA,FALSE,NA,NA,419.4255,422.4239,0,89,89,42,1,30,26,NA,NA,NA,NA,NA,1,90,"likert"
"JustineFinalTest",1,"JustineFinalTest_Aug26","Test_Aug26","2025-08-26_18h27.13.422",NA,NA,425.7576,426.0238,426.0239,426.1239,NA,NA,NA,NA,NA,NA,NA,FALSE,NA,NA,422.7585,425.7575,0,90,90,80,1,95,35,NA,NA,NA,NA,NA,1,91,"likert"
"JustineFinalTest",1,"JustineFinalTest_Aug26","Test_Aug26","2025-08-26_18h27.13.422",NA,NA,429.1241,429.3573,429.3574,429.4573,NA,NA,NA,NA,NA,NA,NA,FALSE,NA,NA,426.1254,429.1239,0,91,91,54,1,45,26,NA,NA,NA,NA,NA,1,92,"likert"
"JustineFinalTest",1,"JustineFinalTest_Aug26","Test_Aug26","2025-08-26_18h27.13.422",NA,NA,432.4576,432.723,432.723,432.8239,NA,NA,NA,NA,NA,NA,NA,FALSE,NA,NA,429.4589,432.4574,0,92,92,29,1,21,38,NA,NA,NA,NA,NA,1,93,"likert"
"JustineFinalTest",1,"JustineFinalTest_Aug26","Test_Aug26","2025-08-26_18h27.13.422",NA,NA,435.8243,436.0573,436.0573,436.1572,NA,NA,NA,NA,NA,NA,NA,FALSE,NA,NA,432.8254,435.8241,0,93,93,14,1,12,28,NA,NA,NA,NA,NA,1,94,"likert"
"JustineFinalTest",1,"JustineFinalTest_Aug26","Test_Aug26","2025-08-26_18h27.13.422",NA,NA,439.1566,439.4241,439.4242,439.5239,NA,NA,NA,NA,NA,NA,NA,FALSE,NA,NA,436.1587,439.1564,0,94,94,48,1,40,27,NA,NA,NA,NA,NA,1,95,"likert"
"JustineFinalTest",1,"JustineFinalTest_Aug26","Test_Aug26","2025-08-26_18h27.13.422",NA,NA,448.3892,448.3893,448.3893,448.3893,NA,NA,NA,NA,NA,NA,NA,FALSE,NA,NA,439.5253,448.3892,0,95,95,18,1,14,25,NA,NA,NA,NA,NA,1,96,"likert"
"JustineFinalTest",1,"JustineFinalTest_Aug26","Test_Aug26","2025-08-26_18h27.13.422",NA,NA,448.3897,448.3897,448.3898,448.3898,NA,NA,NA,NA,NA,NA,NA,FALSE,NA,NA,448.3895,448.3897,0,96,96,53,1,40,54,NA,NA,NA,NA,NA,1,97,"likert"
"JustineFinalTest",1,"JustineFinalTest_Aug26","Test_Aug26","2025-08-26_18h27.13.422",NA,NA,448.4175,449.4835,449.4836,449.5846,NA,NA,NA,NA,NA,NA,NA,FALSE,NA,NA,448.3899,448.4174,0,97,97,1,1,7,26,NA,NA,NA,NA,NA,1,98,"likert"
"JustineFinalTest",1,"JustineFinalTest_Aug26","Test_Aug26","2025-08-26_18h27.13.422",NA,NA,452.5847,452.5848,452.5848,452.9178,NA,NA,NA,NA,NA,NA,NA,TRUE,4,0.8495,449.586,452.5845,0,98,98,102,1,200,26,NA,NA,NA,NA,NA,1,99,"likert"
"JustineFinalTest",1,"JustineFinalTest_Aug26","Test_Aug26","2025-08-26_18h27.13.422",NA,NA,455.9175,455.9175,455.9175,456.284,NA,NA,NA,NA,NA,NA,NA,TRUE,3,0.3224,452.9192,455.9174,0,99,99,96,1,180,27,NA,NA,NA,NA,NA,1,100,"likert"
"JustineFinalTest",1,"JustineFinalTest_Aug26","Test_Aug26","2025-08-26_18h27.13.422",NA,NA,459.2847,459.2847,459.2847,459.6177,NA,NA,NA,NA,NA,NA,NA,TRUE,5,0.3338,456.2845,459.2845,0,100,100,0,1,7,25,NA,NA,NA,NA,NA,1,101,"likert"
"JustineFinalTest",1,"JustineFinalTest_Aug26","Test_Aug26","2025-08-26_18h27.13.422",NA,NA,462.6178,462.618,462.618,462.9843,NA,NA,NA,NA,NA,NA,NA,TRUE,2,0.2161,459.6191,462.6178,0,101,101,95,1,150,54,NA,NA,NA,NA,NA,1,102,"likert"
"JustineFinalTest",1,"JustineFinalTest_Aug26","Test_Aug26","2025-08-26_18h27.13.422",NA,NA,465.9802,465.9803,465.9803,466.3135,NA,NA,NA,NA,NA,NA,NA,TRUE,1,0.2975,462.9857,465.9801,0,102,102,19,1,14,26,NA,NA,NA,NA,NA,1,103,"likert"
"JustineFinalTest",1,"JustineFinalTest_Aug26","Test_Aug26","2025-08-26_18h27.13.422",NA,NA,469.3138,469.3139,469.3139,469.6802,NA,NA,NA,NA,NA,NA,NA,TRUE,1,0.4245,466.3147,469.3136,0,103,103,89,1,100,54,NA,NA,NA,NA,NA,1,104,"likert"
"JustineFinalTest",1,"JustineFinalTest_Aug26","Test_Aug26","2025-08-26_18h27.13.422",NA,NA,472.6804,472.6804,472.6804,473.0126,NA,NA,NA,NA,NA,NA,NA,TRUE,1,0.4862,469.6817,472.6802,0,104,104,77,1,90,54,NA,NA,NA,NA,NA,1,105,"likert"
"JustineFinalTest",1,"JustineFinalTest_Aug26","Test_Aug26","2025-08-26_18h27.13.422",NA,NA,476.0129,476.2793,476.2793,476.3802,NA,NA,NA,NA,NA,NA,NA,FALSE,NA,NA,473.0138,476.0127,0,105,105,101,1,180,54,NA,NA,NA,NA,NA,1,106,"likert"
"JustineFinalTest",1,"JustineFinalTest_Aug26","Test_Aug26","2025-08-26_18h27.13.422",NA,NA,479.3805,479.6135,479.6135,479.7134,NA,NA,NA,NA,NA,NA,NA,FALSE,NA,NA,476.3815,479.3803,0,106,106,76,1,90,46,NA,NA,NA,NA,NA,1,107,"likert"
"JustineFinalTest",1,"JustineFinalTest_Aug26","Test_Aug26","2025-08-26_18h27.13.422",NA,NA,482.7139,482.9794,482.9794,483.0802,NA,NA,NA,NA,NA,NA,NA,FALSE,NA,NA,479.7148,482.7137,0,107,107,40,1,28,39,NA,NA,NA,NA,NA,1,108,"likert"
"JustineFinalTest",1,"JustineFinalTest_Aug26","Test_Aug26","2025-08-26_18h27.13.422",NA,NA,496.313,496.313,496.3131,496.6468,NA,NA,NA,NA,NA,NA,NA,TRUE,1,0.9778,493.3253,496.3128,NA,NA,NA,NA,NA,90,54,0,0,0,77,1,2,1,"likert"
"JustineFinalTest",1,"JustineFinalTest_Aug26","Test_Aug26","2025-08-26_18h27.13.422",NA,NA,499.6429,499.6431,499.6431,500.0095,NA,NA,NA,NA,NA,NA,NA,TRUE,1,0.6676,496.6484,499.6429,NA,NA,NA,NA,NA,150,33,0,1,1,91,1,2,2,"likert"
"JustineFinalTest",1,"JustineFinalTest_Aug26","Test_Aug26","2025-08-26_18h27.13.422",NA,NA,503.0097,503.0098,503.0098,503.3426,NA,NA,NA,NA,NA,NA,NA,TRUE,1,2.1981,500.0109,503.0096,NA,NA,NA,NA,NA,90,26,0,2,2,72,1,2,3,"likert"
"JustineFinalTest",1,"JustineFinalTest_Aug26","Test_Aug26","2025-08-26_18h27.13.422",NA,NA,506.347,506.347,506.347,506.7134,NA,NA,NA,NA,NA,NA,NA,TRUE,1,1.5427,503.344,506.3468,NA,NA,NA,NA,NA,180,54,0,3,3,101,1,2,4,"likert"
"JustineFinalTest",1,"JustineFinalTest_Aug26","Test_Aug26","2025-08-26_18h27.13.422",NA,NA,509.7096,509.7096,509.7096,510.0427,NA,NA,NA,NA,NA,NA,NA,TRUE,1,0.7764,506.7148,509.7094,NA,NA,NA,NA,NA,7,30,0,4,4,3,1,2,5,"likert"
"JustineFinalTest",1,"JustineFinalTest_Aug26","Test_Aug26","2025-08-26_18h27.13.422",NA,NA,513.043,513.3093,513.3093,513.4093,NA,NA,NA,NA,NA,NA,NA,FALSE,NA,NA,510.0442,513.0428,NA,NA,NA,NA,NA,25,27,0,5,5,30,1,2,6,"likert"
"JustineFinalTest",1,"JustineFinalTest_Aug26","Test_Aug26","2025-08-26_18h27.13.422",NA,NA,516.4094,516.4095,516.4095,516.7428,NA,NA,NA,NA,NA,NA,NA,TRUE,1,0.6256,513.4108,516.4093,NA,NA,NA,NA,NA,14,26,0,6,6,19,1,2,7,"likert"
"JustineFinalTest",1,"JustineFinalTest_Aug26","Test_Aug26","2025-08-26_18h27.13.422",NA,NA,519.7428,520.0093,520.0093,520.1092,NA,NA,NA,NA,NA,NA,NA,FALSE,NA,NA,516.744,519.7426,NA,NA,NA,NA,NA,150,54,0,7,7,95,1,2,8,"likert"
"JustineFinalTest",1,"JustineFinalTest_Aug26","Test_Aug26","2025-08-26_18h27.13.422",NA,NA,523.1085,523.3426,523.3427,523.4425,NA,NA,NA,NA,NA,NA,NA,FALSE,NA,NA,520.1106,523.1084,NA,NA,NA,NA,NA,28,46,0,8,8,41,1,2,9,"likert"
"JustineFinalTest",1,"JustineFinalTest_Aug26","Test_Aug26","2025-08-26_18h27.13.422",NA,NA,526.4418,526.7083,526.7084,526.8084,NA,NA,NA,NA,NA,NA,NA,FALSE,NA,NA,523.444,526.4417,NA,NA,NA,NA,NA,180,35,0,9,9,98,1,2,10,"likert"
"JustineFinalTest",1,"JustineFinalTest_Aug26","Test_Aug26","2025-08-26_18h27.13.422",NA,NA,529.8095,530.042,530.042,530.1426,NA,NA,NA,NA,NA,NA,NA,FALSE,NA,NA,526.8097,529.8094,NA,NA,NA,NA,NA,45,29,0,10,10,55,1,2,11,"likert"
"JustineFinalTest",1,"JustineFinalTest_Aug26","Test_Aug26","2025-08-26_18h27.13.422",NA,NA,533.1428,533.4093,533.4093,533.5092,NA,NA,NA,NA,NA,NA,NA,FALSE,NA,NA,530.1441,533.1427,NA,NA,NA,NA,NA,28,35,0,11,11,39,1,2,12,"likert"
"JustineFinalTest",1,"JustineFinalTest_Aug26","Test_Aug26","2025-08-26_18h27.13.422",NA,NA,536.5091,536.7426,536.7427,536.8425,NA,NA,NA,NA,NA,NA,NA,FALSE,NA,NA,533.5106,536.509,NA,NA,NA,NA,NA,14,35,0,12,12,22,1,2,13,"likert"
"JustineFinalTest",1,"JustineFinalTest_Aug26","Test_Aug26","2025-08-26_18h27.13.422",NA,NA,539.8429,540.1092,540.1092,540.2093,NA,NA,NA,NA,NA,NA,NA,FALSE,NA,NA,536.8439,539.8426,NA,NA,NA,NA,NA,90,46,0,13,13,76,1,2,14,"likert"
"JustineFinalTest",1,"JustineFinalTest_Aug26","Test_Aug26","2025-08-26_18h27.13.422",NA,NA,543.2095,543.4425,543.4425,543.5425,NA,NA,NA,NA,NA,NA,NA,FALSE,NA,NA,540.2107,543.2094,NA,NA,NA,NA,NA,60,40,0,14,14,69,1,2,15,"likert"
"JustineFinalTest",1,"JustineFinalTest_Aug26","Test_Aug26","2025-08-26_18h27.13.422",NA,NA,546.5418,546.8083,546.8083,546.9092,NA,NA,NA,NA,NA,NA,NA,FALSE,NA,NA,543.5439,546.5417,NA,NA,NA,NA,NA,95,40,0,15,15,81,1,2,16,"likert"
"JustineFinalTest",1,"JustineFinalTest_Aug26","Test_Aug26","2025-08-26_18h27.13.422",NA,NA,549.9095,550.1425,550.1426,550.2424,NA,NA,NA,NA,NA,NA,NA,FALSE,NA,NA,546.9104,549.9093,NA,NA,NA,NA,NA,21,29,0,16,16,26,1,2,17,"likert"
"JustineFinalTest",1,"JustineFinalTest_Aug26","Test_Aug26","2025-08-26_18h27.13.422",NA,NA,553.2426,553.5092,553.5092,553.6091,NA,NA,NA,NA,NA,NA,NA,FALSE,NA,NA,550.2436,553.2426,NA,NA,NA,NA,NA,40,27,0,17,17,48,1,2,18,"likert"
"JustineFinalTest",1,"JustineFinalTest_Aug26","Test_Aug26","2025-08-26_18h27.13.422",NA,NA,556.6095,556.8426,556.8426,556.9417,NA,NA,NA,NA,NA,NA,NA,FALSE,NA,NA,553.6103,556.6093,NA,NA,NA,NA,NA,12,28,0,18,18,14,1,2,19,"likert"
"JustineFinalTest",1,"JustineFinalTest_Aug26","Test_Aug26","2025-08-26_18h27.13.422",NA,NA,559.9427,560.2093,560.2094,560.3092,NA,NA,NA,NA,NA,NA,NA,FALSE,NA,NA,556.9431,559.9426,NA,NA,NA,NA,NA,25,46,0,19,19,35,1,2,20,"likert"
"JustineFinalTest",1,"JustineFinalTest_Aug26","Test_Aug26","2025-08-26_18h27.13.422",NA,NA,563.3095,563.5425,563.5426,563.6425,NA,NA,NA,NA,NA,NA,NA,FALSE,NA,NA,560.3106,563.3094,NA,NA,NA,NA,NA,12,35,0,20,20,17,1,2,21,"likert"
"JustineFinalTest",1,"JustineFinalTest_Aug26","Test_Aug26","2025-08-26_18h27.13.422",NA,NA,566.6417,566.9093,566.9093,567.0091,NA,NA,NA,NA,NA,NA,NA,FALSE,NA,NA,563.6439,566.6416,NA,NA,NA,NA,NA,180,31,0,21,21,97,1,2,22,"likert"
"JustineFinalTest",1,"JustineFinalTest_Aug26","Test_Aug26","2025-08-26_18h27.13.422",NA,NA,570.0094,570.2426,570.2426,570.3425,NA,NA,NA,NA,NA,NA,NA,FALSE,NA,NA,567.0106,570.0092,NA,NA,NA,NA,NA,60,54,0,22,22,71,1,2,23,"likert"
"JustineFinalTest",1,"JustineFinalTest_Aug26","Test_Aug26","2025-08-26_18h27.13.422",NA,NA,573.3428,573.6091,573.6091,573.7092,NA,NA,NA,NA,NA,NA,NA,FALSE,NA,NA,570.3438,573.3426,NA,NA,NA,NA,NA,30,27,0,23,23,43,1,2,24,"likert"
"JustineFinalTest",1,"JustineFinalTest_Aug26","Test_Aug26","2025-08-26_18h27.13.422",NA,NA,576.7094,576.9424,576.9425,577.0426,NA,NA,NA,NA,NA,NA,NA,FALSE,NA,NA,573.7105,576.7092,NA,NA,NA,NA,NA,25,35,0,24,24,34,1,2,25,"likert"
"JustineFinalTest",1,"JustineFinalTest_Aug26","Test_Aug26","2025-08-26_18h27.13.422",NA,NA,580.0427,580.3093,580.3094,580.4091,NA,NA,NA,NA,NA,NA,NA,FALSE,NA,NA,577.044,580.0426,NA,NA,NA,NA,NA,28,39,0,25,25,40,1,2,26,"likert"
"JustineFinalTest",1,"JustineFinalTest_Aug26","Test_Aug26","2025-08-26_18h27.13.422",NA,NA,583.4096,583.6415,583.6416,583.7425,NA,NA,NA,NA,NA,NA,NA,FALSE,NA,NA,580.4107,583.4094,NA,NA,NA,NA,NA,100,38,0,26,26,86,1,2,27,"likert"
"JustineFinalTest",1,"JustineFinalTest_Aug26","Test_Aug26","2025-08-26_18h27.13.422",NA,NA,586.7426,587.0091,587.0092,587.1091,NA,NA,NA,NA,NA,NA,NA,FALSE,NA,NA,583.7438,586.7424,NA,NA,NA,NA,NA,14,32,0,27,27,21,1,2,28,"likert"
"JustineFinalTest",1,"JustineFinalTest_Aug26","Test_Aug26","2025-08-26_18h27.13.422",NA,NA,590.1094,590.3425,590.3425,590.4419,NA,NA,NA,NA,NA,NA,NA,FALSE,NA,NA,587.1107,590.1092,NA,NA,NA,NA,NA,21,38,0,28,28,29,1,2,29,"likert"
"JustineFinalTest",1,"JustineFinalTest_Aug26","Test_Aug26","2025-08-26_18h27.13.422",NA,NA,593.4427,593.7091,593.7091,593.8092,NA,NA,NA,NA,NA,NA,NA,FALSE,NA,NA,590.4434,593.4426,NA,NA,NA,NA,NA,14,25,0,29,29,18,1,2,30,"likert"
"JustineFinalTest",1,"JustineFinalTest_Aug26","Test_Aug26","2025-08-26_18h27.13.422",NA,NA,596.8094,597.0425,597.0426,597.1425,NA,NA,NA,NA,NA,NA,NA,FALSE,NA,NA,593.8106,596.8092,NA,NA,NA,NA,NA,100,46,0,30,30,88,1,2,31,"likert"
"JustineFinalTest",1,"JustineFinalTest_Aug26","Test_Aug26","2025-08-26_18h27.13.422",NA,NA,600.1428,600.4092,600.4092,600.5092,NA,NA,NA,NA,NA,NA,NA,FALSE,NA,NA,597.1437,600.1426,NA,NA,NA,NA,NA,45,31,0,31,31,56,1,2,32,"likert"
"JustineFinalTest",1,"JustineFinalTest_Aug26","Test_Aug26","2025-08-26_18h27.13.422",NA,NA,603.5051,603.7716,603.7716,603.8706,NA,NA,NA,NA,NA,NA,NA,FALSE,NA,NA,600.5106,603.5049,NA,NA,NA,NA,NA,95,47,0,32,32,82,1,2,33,"likert"
"JustineFinalTest",1,"JustineFinalTest_Aug26","Test_Aug26","2025-08-26_18h27.13.422",NA,NA,606.871,607.1048,607.1049,607.2049,NA,NA,NA,NA,NA,NA,NA,FALSE,NA,NA,603.8721,606.8708,NA,NA,NA,NA,NA,90,40,0,33,33,75,1,2,34,"likert"
"JustineFinalTest",1,"JustineFinalTest_Aug26","Test_Aug26","2025-08-26_18h27.13.422",NA,NA,610.2049,610.4716,610.4716,610.5716,NA,NA,NA,NA,NA,NA,NA,FALSE,NA,NA,607.2062,610.2047,NA,NA,NA,NA,NA,28,28,0,34,34,37,1,2,35,"likert"
"JustineFinalTest",1,"JustineFinalTest_Aug26","Test_Aug26","2025-08-26_18h27.13.422",NA,NA,613.5718,613.8048,613.8048,613.9049,NA,NA,NA,NA,NA,NA,NA,FALSE,NA,NA,610.573,613.5717,NA,NA,NA,NA,NA,7,26,0,35,35,1,1,2,36,"likert"
"JustineFinalTest",1,"JustineFinalTest_Aug26","Test_Aug26","2025-08-26_18h27.13.422",NA,NA,616.9051,617.1716,617.1717,617.2716,NA,NA,NA,NA,NA,NA,NA,FALSE,NA,NA,613.9063,616.905,NA,NA,NA,NA,NA,30,26,0,36,36,42,1,2,37,"likert"
"JustineFinalTest",1,"JustineFinalTest_Aug26","Test_Aug26","2025-08-26_18h27.13.422",NA,NA,620.2718,620.505,620.505,620.605,NA,NA,NA,NA,NA,NA,NA,FALSE,NA,NA,617.2728,620.2717,NA,NA,NA,NA,NA,60,35,0,37,37,68,1,2,38,"likert"
"JustineFinalTest",1,"JustineFinalTest_Aug26","Test_Aug26","2025-08-26_18h27.13.422",NA,NA,623.6053,623.8716,623.8716,623.9715,NA,NA,NA,NA,NA,NA,NA,FALSE,NA,NA,620.6064,623.6051,NA,NA,NA,NA,NA,50,54,0,38,38,65,1,2,39,"likert"
"JustineFinalTest",1,"JustineFinalTest_Aug26","Test_Aug26","2025-08-26_18h27.13.422",NA,NA,626.9709,627.2049,627.2049,627.3049,NA,NA,NA,NA,NA,NA,NA,FALSE,NA,NA,623.9729,626.9708,NA,NA,NA,NA,NA,10,29,0,39,39,9,1,2,40,"likert"
"JustineFinalTest",1,"JustineFinalTest_Aug26","Test_Aug26","2025-08-26_18h27.13.422",NA,NA,630.3043,630.5716,630.5716,630.6716,NA,NA,NA,NA,NA,NA,NA,FALSE,NA,NA,627.3063,630.3042,NA,NA,NA,NA,NA,40,40,0,40,40,51,1,2,41,"likert"
"JustineFinalTest",1,"JustineFinalTest_Aug26","Test_Aug26","2025-08-26_18h27.13.422",NA,NA,633.6719,633.9049,633.905,634.0042,NA,NA,NA,NA,NA,NA,NA,FALSE,NA,NA,630.6729,633.6718,NA,NA,NA,NA,NA,30,32,0,41,41,46,1,2,42,"likert"
"JustineFinalTest",1,"JustineFinalTest_Aug26","Test_Aug26","2025-08-26_18h27.13.422",NA,NA,637.0052,637.2716,637.2717,637.3715,NA,NA,NA,NA,NA,NA,NA,FALSE,NA,NA,634.0058,637.005,NA,NA,NA,NA,NA,150,31,0,42,42,90,1,2,43,"likert"
"JustineFinalTest",1,"JustineFinalTest_Aug26","Test_Aug26","2025-08-26_18h27.13.422",NA,NA,640.3719,640.6049,640.6049,640.7049,NA,NA,NA,NA,NA,NA,NA,FALSE,NA,NA,637.373,640.3717,NA,NA,NA,NA,NA,7,35,0,43,43,5,1,2,44,"likert"
"JustineFinalTest",1,"JustineFinalTest_Aug26","Test_Aug26","2025-08-26_18h27.13.422",NA,NA,643.7051,643.9716,643.9716,644.0712,NA,NA,NA,NA,NA,NA,NA,FALSE,NA,NA,640.7063,643.705,NA,NA,NA,NA,NA,180,27,0,44,44,96,1,2,45,"likert"
"JustineFinalTest",1,"JustineFinalTest_Aug26","Test_Aug26","2025-08-26_18h27.13.422",NA,NA,698.5507,698.5507,698.5507,698.5507,NA,NA,NA,NA,NA,NA,NA,FALSE,NA,NA,644.0726,698.5506,NA,NA,NA,NA,NA,30,38,0,45,45,47,1,2,46,"likert"
"JustineFinalTest",1,"JustineFinalTest_Aug26","Test_Aug26","2025-08-26_18h27.13.422",NA,NA,698.5515,698.5515,698.5515,698.5515,NA,NA,NA,NA,NA,NA,NA,FALSE,NA,NA,698.5511,698.5515,NA,NA,NA,NA,NA,12,33,0,46,46,16,1,2,47,"likert"
"JustineFinalTest",1,"JustineFinalTest_Aug26","Test_Aug26","2025-08-26_18h27.13.422",NA,NA,698.5518,698.5518,698.5518,698.5518,NA,NA,NA,NA,NA,NA,NA,FALSE,NA,NA,698.5516,698.5517,NA,NA,NA,NA,NA,180,46,0,47,47,100,1,2,48,"likert"
"JustineFinalTest",1,"JustineFinalTest_Aug26","Test_Aug26","2025-08-26_18h27.13.422",NA,NA,698.5519,698.5519,698.5519,698.5519,NA,NA,NA,NA,NA,NA,NA,FALSE,NA,NA,698.5518,698.5519,NA,NA,NA,NA,NA,150,40,0,48,48,93,1,2,49,"likert"
"JustineFinalTest",1,"JustineFinalTest_Aug26","Test_Aug26","2025-08-26_18h27.13.422",NA,NA,698.5521,698.5521,698.5521,698.5521,NA,NA,NA,NA,NA,NA,NA,FALSE,NA,NA,698.552,698.5521,NA,NA,NA,NA,NA,7,28,0,49,49,2,1,2,50,"likert"
"JustineFinalTest",1,"JustineFinalTest_Aug26","Test_Aug26","2025-08-26_18h27.13.422",NA,NA,698.5522,698.5522,698.5522,698.5522,NA,NA,NA,NA,NA,NA,NA,FALSE,NA,NA,698.5522,698.5522,NA,NA,NA,NA,NA,95,31,0,50,50,78,1,2,51,"likert"
"JustineFinalTest",1,"JustineFinalTest_Aug26","Test_Aug26","2025-08-26_18h27.13.422",NA,NA,698.5524,698.5524,698.5524,698.5524,NA,NA,NA,NA,NA,NA,NA,FALSE,NA,NA,698.5524,698.5524,NA,NA,NA,NA,NA,50,40,0,51,51,63,1,2,52,"likert"
"JustineFinalTest",1,"JustineFinalTest_Aug26","Test_Aug26","2025-08-26_18h27.13.422",NA,NA,698.5525,698.5525,698.5526,698.5526,NA,NA,NA,NA,NA,NA,NA,FALSE,NA,NA,698.5525,698.5525,NA,NA,NA,NA,NA,10,27,0,52,52,8,1,2,53,"likert"
"JustineFinalTest",1,"JustineFinalTest_Aug26","Test_Aug26","2025-08-26_18h27.13.422",NA,NA,698.5527,698.5527,698.5527,698.5527,NA,NA,NA,NA,NA,NA,NA,FALSE,NA,NA,698.5527,698.5527,NA,NA,NA,NA,NA,21,32,0,53,53,28,1,2,54,"likert"
"JustineFinalTest",1,"JustineFinalTest_Aug26","Test_Aug26","2025-08-26_18h27.13.422",NA,NA,698.5529,698.5529,698.5529,698.5529,NA,NA,NA,NA,NA,NA,NA,FALSE,NA,NA,698.5528,698.5529,NA,NA,NA,NA,NA,95,33,0,54,54,79,1,2,55,"likert"
"JustineFinalTest",1,"JustineFinalTest_Aug26","Test_Aug26","2025-08-26_18h27.13.422",NA,NA,698.5529,698.5529,698.553,698.553,NA,NA,NA,NA,NA,NA,NA,FALSE,NA,NA,698.5529,698.5529,NA,NA,NA,NA,NA,45,40,0,55,55,58,1,2,56,"likert"
"JustineFinalTest",1,"JustineFinalTest_Aug26","Test_Aug26","2025-08-26_18h27.13.422",NA,NA,698.5536,698.5536,698.5536,698.5536,NA,NA,NA,NA,NA,NA,NA,FALSE,NA,NA,698.5531,698.5534,NA,NA,NA,NA,NA,200,35,0,56,56,104,1,2,57,"likert"
"JustineFinalTest",1,"JustineFinalTest_Aug26","Test_Aug26","2025-08-26_18h27.13.422",NA,NA,698.5541,698.5541,698.5541,698.5541,NA,NA,NA,NA,NA,NA,NA,FALSE,NA,NA,698.5538,698.554,NA,NA,NA,NA,NA,50,35,0,57,57,62,1,2,58,"likert"
"JustineFinalTest",1,"JustineFinalTest_Aug26","Test_Aug26","2025-08-26_18h27.13.422",NA,NA,698.5543,698.5543,698.5543,698.5543,NA,NA,NA,NA,NA,NA,NA,FALSE,NA,NA,698.5541,698.5542,NA,NA,NA,NA,NA,95,35,0,58,58,80,1,2,59,"likert"
"JustineFinalTest",1,"JustineFinalTest_Aug26","Test_Aug26","2025-08-26_18h27.13.422",NA,NA,698.5545,698.5545,698.5545,698.5545,NA,NA,NA,NA,NA,NA,NA,FALSE,NA,NA,698.5544,698.5545,NA,NA,NA,NA,NA,200,54,0,59,59,107,1,2,60,"likert"
"JustineFinalTest",1,"JustineFinalTest_Aug26","Test_Aug26","2025-08-26_18h27.13.422",NA,NA,698.5546,698.5546,698.5546,698.5546,NA,NA,NA,NA,NA,NA,NA,FALSE,NA,NA,698.5545,698.5546,NA,NA,NA,NA,NA,60,29,0,60,60,66,1,2,61,"likert"
"JustineFinalTest",1,"JustineFinalTest_Aug26","Test_Aug26","2025-08-26_18h27.13.422",NA,NA,698.5795,700.9158,700.9158,701.0162,NA,NA,NA,NA,NA,NA,NA,FALSE,NA,NA,698.5547,698.5794,NA,NA,NA,NA,NA,25,33,0,61,61,33,1,2,62,"likert"
"JustineFinalTest",1,"JustineFinalTest_Aug26","Test_Aug26","2025-08-26_18h27.13.422",NA,NA,704.0166,704.0167,704.0167,704.3496,NA,NA,NA,NA,NA,NA,NA,TRUE,4,1.1051,701.0174,704.0164,NA,NA,NA,NA,NA,7,32,0,62,62,4,1,2,63,"likert"
"JustineFinalTest",1,"JustineFinalTest_Aug26","Test_Aug26","2025-08-26_18h27.13.422",NA,NA,707.3454,707.3455,707.3455,707.711,NA,NA,NA,NA,NA,NA,NA,TRUE,3,0.3147,704.351,707.3453,NA,NA,NA,NA,NA,50,46,0,63,63,64,1,2,64,"likert"
"JustineFinalTest",1,"JustineFinalTest_Aug26","Test_Aug26","2025-08-26_18h27.13.422",NA,NA,710.7164,710.7164,710.7165,711.0495,NA,NA,NA,NA,NA,NA,NA,TRUE,1,0.2546,707.7126,710.7163,NA,NA,NA,NA,NA,150,47,0,64,64,94,1,2,65,"likert"
"JustineFinalTest",1,"JustineFinalTest_Aug26","Test_Aug26","2025-08-26_18h27.13.422",NA,NA,714.0497,714.0497,714.0497,714.4161,NA,NA,NA,NA,NA,NA,NA,TRUE,1,0.3154,711.0508,714.0496,NA,NA,NA,NA,NA,40,35,0,65,65,50,1,2,66,"likert"
"JustineFinalTest",1,"JustineFinalTest_Aug26","Test_Aug26","2025-08-26_18h27.13.422",NA,NA,717.4164,717.4164,717.4164,717.7496,NA,NA,NA,NA,NA,NA,NA,TRUE,1,0.3307,714.4175,717.4163,NA,NA,NA,NA,NA,90,30,0,66,66,73,1,2,67,"likert"
"JustineFinalTest",1,"JustineFinalTest_Aug26","Test_Aug26","2025-08-26_18h27.13.422",NA,NA,720.7497,720.7497,720.7497,721.1162,NA,NA,NA,NA,NA,NA,NA,TRUE,2,1.2778,717.7508,720.7496,NA,NA,NA,NA,NA,30,30,0,67,67,45,1,2,68,"likert"
"JustineFinalTest",1,"JustineFinalTest_Aug26","Test_Aug26","2025-08-26_18h27.13.422",NA,NA,724.1164,724.3495,724.3496,724.4486,NA,NA,NA,NA,NA,NA,NA,FALSE,NA,NA,721.1176,724.1163,NA,NA,NA,NA,NA,21,26,0,68,68,24,1,2,69,"likert"
"JustineFinalTest",1,"JustineFinalTest_Aug26","Test_Aug26","2025-08-26_18h27.13.422",NA,NA,727.4496,727.7152,727.7152,727.8152,NA,NA,NA,NA,NA,NA,NA,FALSE,NA,NA,724.45,727.4495,NA,NA,NA,NA,NA,200,47,0,69,69,106,1,2,70,"likert"
"JustineFinalTest",1,"JustineFinalTest_Aug26","Test_Aug26","2025-08-26_18h27.13.422",NA,NA,730.8164,731.0494,731.0495,731.1495,NA,NA,NA,NA,NA,NA,NA,FALSE,NA,NA,727.8165,730.8162,NA,NA,NA,NA,NA,21,27,0,70,70,25,1,2,71,"likert"
"JustineFinalTest",1,"JustineFinalTest_Aug26","Test_Aug26","2025-08-26_18h27.13.422",NA,NA,734.1496,734.4164,734.4164,734.516,NA,NA,NA,NA,NA,NA,NA,FALSE,NA,NA,731.1508,734.1495,NA,NA,NA,NA,NA,45,26,0,71,71,54,1,2,72,"likert"
"JustineFinalTest",1,"JustineFinalTest_Aug26","Test_Aug26","2025-08-26_18h27.13.422",NA,NA,737.5163,737.7485,737.7485,737.8494,NA,NA,NA,NA,NA,NA,NA,FALSE,NA,NA,734.5174,737.5162,NA,NA,NA,NA,NA,100,39,0,72,72,87,1,2,73,"likert"
"JustineFinalTest",1,"JustineFinalTest_Aug26","Test_Aug26","2025-08-26_18h27.13.422",NA,NA,740.8495,741.116,741.1162,741.2162,NA,NA,NA,NA,NA,NA,NA,FALSE,NA,NA,737.8507,740.8494,NA,NA,NA,NA,NA,200,26,0,73,73,102,1,2,74,"likert"
"JustineFinalTest",1,"JustineFinalTest_Aug26","Test_Aug26","2025-08-26_18h27.13.422",NA,NA,744.2163,744.4494,744.4494,744.5485,NA,NA,NA,NA,NA,NA,NA,FALSE,NA,NA,741.2176,744.2162,NA,NA,NA,NA,NA,100,26,0,74,74,84,1,2,75,"likert"
"JustineFinalTest",1,"JustineFinalTest_Aug26","Test_Aug26","2025-08-26_18h27.13.422",NA,NA,747.5497,747.816,747.816,747.916,NA,NA,NA,NA,NA,NA,NA,FALSE,NA,NA,744.5498,747.5494,NA,NA,NA,NA,NA,40,54,0,75,75,53,1,2,76,"likert"
"JustineFinalTest",1,"JustineFinalTest_Aug26","Test_Aug26","2025-08-26_18h27.13.422",NA,NA,750.9164,751.1494,751.1495,751.2496,NA,NA,NA,NA,NA,NA,NA,FALSE,NA,NA,747.9174,750.9162,NA,NA,NA,NA,NA,40,47,0,76,76,52,1,2,77,"likert"
"JustineFinalTest",1,"JustineFinalTest_Aug26","Test_Aug26","2025-08-26_18h27.13.422",NA,NA,754.2497,754.5162,754.5162,754.6161,NA,NA,NA,NA,NA,NA,NA,FALSE,NA,NA,751.2508,754.2496,NA,NA,NA,NA,NA,10,30,0,77,77,10,1,2,78,"likert"
"JustineFinalTest",1,"JustineFinalTest_Aug26","Test_Aug26","2025-08-26_18h27.13.422",NA,NA,757.6155,757.6155,757.6155,757.9494,NA,NA,NA,NA,NA,NA,NA,TRUE,4,1.3741,754.6175,757.6154,NA,NA,NA,NA,NA,10,25,0,78,78,6,1,2,79,"likert"
"JustineFinalTest",1,"JustineFinalTest_Aug26","Test_Aug26","2025-08-26_18h27.13.422",NA,NA,760.9497,760.9497,760.9497,761.3161,NA,NA,NA,NA,NA,NA,NA,TRUE,2,2.4708,757.9509,760.9494,NA,NA,NA,NA,NA,28,32,0,79,79,38,1,2,80,"likert"
"JustineFinalTest",1,"JustineFinalTest_Aug26","Test_Aug26","2025-08-26_18h27.13.422",NA,NA,764.3155,764.3157,764.3157,764.6496,NA,NA,NA,NA,NA,NA,NA,TRUE,1,1.7029,761.3175,764.3154,NA,NA,NA,NA,NA,28,26,0,80,80,36,1,2,81,"likert"
"JustineFinalTest",1,"JustineFinalTest_Aug26","Test_Aug26","2025-08-26_18h27.13.422",NA,NA,767.6454,767.6454,767.6454,768.011,NA,NA,NA,NA,NA,NA,NA,TRUE,1,1.4215,764.6509,767.6452,NA,NA,NA,NA,NA,50,30,0,81,81,61,1,2,82,"likert"
"JustineFinalTest",1,"JustineFinalTest_Aug26","Test_Aug26","2025-08-26_18h27.13.422",NA,NA,771.0121,771.0121,771.0121,771.3451,NA,NA,NA,NA,NA,NA,NA,TRUE,1,2.0846,768.0125,771.0119,NA,NA,NA,NA,NA,40,33,0,82,82,49,1,2,83,"likert"
"JustineFinalTest",1,"JustineFinalTest_Aug26","Test_Aug26","2025-08-26_18h27.13.422",NA,NA,774.3454,774.3454,774.3454,774.7118,NA,NA,NA,NA,NA,NA,NA,TRUE,1,1.4171,771.3465,774.3452,NA,NA,NA,NA,NA,50,27,0,83,83,60,1,2,84,"likert"
"JustineFinalTest",1,"JustineFinalTest_Aug26","Test_Aug26","2025-08-26_18h27.13.422",NA,NA,777.7121,777.9453,777.9453,778.0452,NA,NA,NA,NA,NA,NA,NA,FALSE,NA,NA,774.7132,777.7119,NA,NA,NA,NA,NA,10,26,0,84,84,7,1,2,85,"likert"
"JustineFinalTest",1,"JustineFinalTest_Aug26","Test_Aug26","2025-08-26_18h27.13.422",NA,NA,781.0456,781.3116,781.3116,781.4118,NA,NA,NA,NA,NA,NA,NA,FALSE,NA,NA,778.0466,781.0454,NA,NA,NA,NA,NA,100,31,0,85,85,85,1,2,86,"likert"
"JustineFinalTest",1,"JustineFinalTest_Aug26","Test_Aug26","2025-08-26_18h27.13.422",NA,NA,784.4122,784.4122,784.4122,784.7452,NA,NA,NA,NA,NA,NA,NA,TRUE,1,1.6297,781.4132,784.412,NA,NA,NA,NA,NA,25,31,0,86,86,32,1,2,87,"likert"
"JustineFinalTest",1,"JustineFinalTest_Aug26","Test_Aug26","2025-08-26_18h27.13.422",NA,NA,787.7412,787.7413,787.7413,788.1078,NA,NA,NA,NA,NA,NA,NA,TRUE,2,0.3533,784.7466,787.7411,NA,NA,NA,NA,NA,45,35,0,87,87,57,1,2,88,"likert"
"JustineFinalTest",1,"JustineFinalTest_Aug26","Test_Aug26","2025-08-26_18h27.13.422",NA,NA,791.108,791.108,791.1081,791.4412,NA,NA,NA,NA,NA,NA,NA,TRUE,3,0.4434,788.1092,791.1079,NA,NA,NA,NA,NA,21,30,0,88,88,27,1,2,89,"likert"
"JustineFinalTest",1,"JustineFinalTest_Aug26","Test_Aug26","2025-08-26_18h27.13.422",NA,NA,794.4704,794.4704,794.4705,794.8034,NA,NA,NA,NA,NA,NA,NA,TRUE,4,1.4898,791.4425,794.4702,NA,NA,NA,NA,NA,14,28,0,89,89,20,1,2,90,"likert"
"JustineFinalTest",1,"JustineFinalTest_Aug26","Test_Aug26","2025-08-26_18h27.13.422",NA,NA,797.8038,797.8038,797.8038,798.1701,NA,NA,NA,NA,NA,NA,NA,TRUE,2,1.2058,794.8048,797.8036,NA,NA,NA,NA,NA,7,25,0,90,90,0,1,2,91,"likert"
"JustineFinalTest",1,"JustineFinalTest_Aug26","Test_Aug26","2025-08-26_18h27.13.422",NA,NA,801.1705,801.1705,801.1705,801.5035,NA,NA,NA,NA,NA,NA,NA,TRUE,1,1.2702,798.1716,801.1703,NA,NA,NA,NA,NA,60,47,0,91,91,70,1,2,92,"likert"
"JustineFinalTest",1,"JustineFinalTest_Aug26","Test_Aug26","2025-08-26_18h27.13.422",NA,NA,804.4995,804.4995,804.4995,804.865,NA,NA,NA,NA,NA,NA,NA,TRUE,1,1.1849,801.5051,804.4993,NA,NA,NA,NA,NA,150,35,0,92,92,92,1,2,93,"likert"
"JustineFinalTest",1,"JustineFinalTest_Aug26","Test_Aug26","2025-08-26_18h27.13.422",NA,NA,807.8662,807.8662,807.8662,808.1998,NA,NA,NA,NA,NA,NA,NA,TRUE,1,0.8447,804.8665,807.866,NA,NA,NA,NA,NA,30,29,0,93,93,44,1,2,94,"likert"
"JustineFinalTest",1,"JustineFinalTest_Aug26","Test_Aug26","2025-08-26_18h27.13.422",NA,NA,811.1997,811.1998,811.1998,811.5661,NA,NA,NA,NA,NA,NA,NA,TRUE,1,0.7484,808.2012,811.1994,NA,NA,NA,NA,NA,14,39,0,94,94,23,1,2,95,"likert"
"JustineFinalTest",1,"JustineFinalTest_Aug26","Test_Aug26","2025-08-26_18h27.13.422",NA,NA,814.5652,814.5652,814.5652,814.8993,NA,NA,NA,NA,NA,NA,NA,TRUE,1,0.8501,811.5674,814.5651,NA,NA,NA,NA,NA,10,32,0,95,95,11,1,2,96,"likert"
"JustineFinalTest",1,"JustineFinalTest_Aug26","Test_Aug26","2025-08-26_18h27.13.422",NA,NA,817.899,817.899,817.8991,818.2651,NA,NA,NA,NA,NA,NA,NA,TRUE,1,1.5872,814.9007,817.8988,NA,NA,NA,NA,NA,95,54,0,96,96,83,1,2,97,"likert"
"JustineFinalTest",1,"JustineFinalTest_Aug26","Test_Aug26","2025-08-26_18h27.13.422",NA,NA,821.2662,821.4983,821.4984,821.5992,NA,NA,NA,NA,NA,NA,NA,FALSE,NA,NA,818.2664,821.266,NA,NA,NA,NA,NA,12,25,0,97,97,12,1,2,98,"likert"
"JustineFinalTest",1,"JustineFinalTest_Aug26","Test_Aug26","2025-08-26_18h27.13.422",NA,NA,824.5986,824.5986,824.5986,824.9659,NA,NA,NA,NA,NA,NA,NA,TRUE,1,1.613,821.6006,824.5984,NA,NA,NA,NA,NA,45,46,0,98,98,59,1,2,99,"likert"
"JustineFinalTest",1,"JustineFinalTest_Aug26","Test_Aug26","2025-08-26_18h27.13.422",NA,NA,827.9661,828.1995,828.1995,828.2983,NA,NA,NA,NA,NA,NA,NA,FALSE,NA,NA,824.9672,827.966,NA,NA,NA,NA,NA,180,39,0,99,99,99,1,2,100,"likert"
"JustineFinalTest",1,"JustineFinalTest_Aug26","Test_Aug26","2025-08-26_18h27.13.422",NA,NA,831.3027,831.3028,831.3028,831.6701,NA,NA,NA,NA,NA,NA,NA,TRUE,1,0.693,828.2996,831.3027,NA,NA,NA,NA,NA,12,26,0,100,100,13,1,2,101,"likert"
"JustineFinalTest",1,"JustineFinalTest_Aug26","Test_Aug26","2025-08-26_18h27.13.422",NA,NA,834.6408,834.9078,834.9079,835.0078,NA,NA,NA,NA,NA,NA,NA,FALSE,NA,NA,831.6716,834.6406,NA,NA,NA,NA,NA,12,31,0,101,101,15,1,2,102,"likert"
"JustineFinalTest",1,"JustineFinalTest_Aug26","Test_Aug26","2025-08-26_18h27.13.422",NA,NA,838.0079,838.2408,838.2408,838.341,NA,NA,NA,NA,NA,NA,NA,FALSE,NA,NA,835.0092,838.0077,NA,NA,NA,NA,NA,60,33,0,102,102,67,1,2,103,"likert"
"JustineFinalTest",1,"JustineFinalTest_Aug26","Test_Aug26","2025-08-26_18h27.13.422",NA,NA,841.3412,841.6076,841.6076,841.7071,NA,NA,NA,NA,NA,NA,NA,FALSE,NA,NA,838.3423,841.3411,NA,NA,NA,NA,NA,100,54,0,103,103,89,1,2,104,"likert"
"JustineFinalTest",1,"JustineFinalTest_Aug26","Test_Aug26","2025-08-26_18h27.13.422",NA,NA,844.7079,844.9408,844.9408,845.0409,NA,NA,NA,NA,NA,NA,NA,FALSE,NA,NA,841.7085,844.7077,NA,NA,NA,NA,NA,90,33,0,104,104,74,1,2,105,"likert"
"JustineFinalTest",1,"JustineFinalTest_Aug26","Test_Aug26","2025-08-26_18h27.13.422",NA,NA,848.0412,848.0412,848.0412,848.4077,NA,NA,NA,NA,NA,NA,NA,TRUE,1,1.2615,845.0425,848.041,NA,NA,NA,NA,NA,25,29,0,105,105,31,1,2,106,"likert"
"JustineFinalTest",1,"JustineFinalTest_Aug26","Test_Aug26","2025-08-26_18h27.13.422",NA,NA,851.4037,851.4037,851.4038,851.7701,NA,NA,NA,NA,NA,NA,NA,TRUE,2,0.3287,848.409,851.4036,NA,NA,NA,NA,NA,200,39,0,106,106,105,1,2,107,"likert"
"JustineFinalTest",1,"JustineFinalTest_Aug26","Test_Aug26","2025-08-26_18h27.13.422",NA,NA,854.766,854.7661,854.7661,855.0985,NA,NA,NA,NA,NA,NA,NA,TRUE,1,0.3408,851.7717,854.7659,NA,NA,NA,NA,NA,200,28,0,107,107,103,1,2,108,"likert"
