"subject","session","date","practiceTrial.started","practiceTrial.stopped","tooLate.started","tooLate.stopped","blank.started","blank.stopped","trials_pract.thisRepN","trials_pract.thisTrialN","trials_pract.thisN","trials_pract.thisIndex","trials_pract.ran","delay_pract","amount_pract","responseMade","key","rt","trial.started","trial.stopped","trials.thisRepN","trials.thisTrialN","trials.thisN","trials.thisIndex","trials.ran","delay","amount","trials_2.thisRepN","trials_2.thisTrialN","trials_2.thisN","trials_2.thisIndex","trials_2.ran","block","trial","taskType"
"test",1,"2025-08-19_19h21.16.437",13.5691,16.554,16.5547,16.5665,16.5665,16.9046,0,0,0,4,1,30,40,TRUE,1,1.1875,NA,NA,NA,NA,NA,NA,NA,NA,NA,NA,NA,NA,NA,NA,0,1,"likert"
"test",1,"2025-08-19_19h21.16.437",16.9066,19.9045,19.9048,19.9048,19.9049,20.2535,0,1,1,2,1,14,45,TRUE,4,1.3016,NA,NA,NA,NA,NA,NA,NA,NA,NA,NA,NA,NA,NA,NA,0,2,"likert"
"test",1,"2025-08-19_19h21.16.437",20.2548,23.2546,23.2548,23.2549,23.2549,23.6033,0,2,2,1,1,100,50,TRUE,5,1.0147,NA,NA,NA,NA,NA,NA,NA,NA,NA,NA,NA,NA,NA,NA,0,3,"likert"
"test",1,"2025-08-19_19h21.16.437",23.6043,26.6044,26.6047,26.6047,26.6047,26.9543,0,3,3,3,1,3,27,TRUE,2,2.0556,NA,NA,NA,NA,NA,NA,NA,NA,NA,NA,NA,NA,NA,NA,0,4,"likert"
"test",1,"2025-08-19_19h21.16.437",26.9556,29.9544,29.9546,29.9547,29.9548,30.3036,0,4,4,0,1,7,30,TRUE,3,1.3887,NA,NA,NA,NA,NA,NA,NA,NA,NA,NA,NA,NA,NA,NA,0,5,"likert"
"test",1,"2025-08-19_19h21.16.437",NA,NA,79.6301,79.6304,79.6305,79.979,NA,NA,NA,NA,NA,NA,NA,TRUE,1,1.5804,76.6452,79.6297,0,0,0,78,1,95,31,NA,NA,NA,NA,NA,1,1,"likert"
"test",1,"2025-08-19_19h21.16.437",NA,NA,82.9796,83.2286,83.2288,83.3292,NA,NA,NA,NA,NA,NA,NA,FALSE,NA,NA,79.9806,82.9794,0,1,1,31,1,25,29,NA,NA,NA,NA,NA,1,2,"likert"
"test",1,"2025-08-19_19h21.16.437",NA,NA,86.3291,86.3292,86.3292,86.6793,NA,NA,NA,NA,NA,NA,NA,TRUE,3,2.0213,83.3307,86.3288,0,2,2,37,1,28,28,NA,NA,NA,NA,NA,1,3,"likert"
"test",1,"2025-08-19_19h21.16.437",NA,NA,89.6786,89.6786,89.6786,90.0287,NA,NA,NA,NA,NA,NA,NA,TRUE,2,2.4531,86.6809,89.6784,0,3,3,88,1,100,46,NA,NA,NA,NA,NA,1,4,"likert"
"test",1,"2025-08-19_19h21.16.437",NA,NA,93.0295,93.0295,93.0295,93.3782,NA,NA,NA,NA,NA,NA,NA,TRUE,2,1.6824,90.0301,93.0294,0,4,4,47,1,30,38,NA,NA,NA,NA,NA,1,5,"likert"
"test",1,"2025-08-19_19h21.16.437",NA,NA,96.379,96.379,96.379,96.7291,NA,NA,NA,NA,NA,NA,NA,TRUE,1,1.604,93.3796,96.3787,0,5,5,24,1,21,26,NA,NA,NA,NA,NA,1,6,"likert"
"test",1,"2025-08-19_19h21.16.437",NA,NA,99.7288,99.7288,99.7289,100.0791,NA,NA,NA,NA,NA,NA,NA,TRUE,1,2.8542,96.7306,99.7286,0,6,6,107,1,200,54,NA,NA,NA,NA,NA,1,7,"likert"
"test",1,"2025-08-19_19h21.16.437",NA,NA,103.0795,103.0797,103.0798,103.4286,NA,NA,NA,NA,NA,NA,NA,TRUE,2,2.0141,100.0804,103.0794,0,7,7,59,1,45,46,NA,NA,NA,NA,NA,1,8,"likert"
"test",1,"2025-08-19_19h21.16.437",NA,NA,106.4289,106.4289,106.429,106.7794,NA,NA,NA,NA,NA,NA,NA,TRUE,1,2.2213,103.4299,106.4286,0,8,8,50,1,40,35,NA,NA,NA,NA,NA,1,9,"likert"
"test",1,"2025-08-19_19h21.16.437",NA,NA,109.7794,109.7794,109.7795,110.1291,NA,NA,NA,NA,NA,NA,NA,TRUE,2,1.7948,106.7807,109.7792,0,9,9,85,1,100,31,NA,NA,NA,NA,NA,1,10,"likert"
"test",1,"2025-08-19_19h21.16.437",NA,NA,113.1285,113.1285,113.1285,113.479,NA,NA,NA,NA,NA,NA,NA,TRUE,2,1.7132,110.1306,113.1283,0,10,10,87,1,100,39,NA,NA,NA,NA,NA,1,11,"likert"
"test",1,"2025-08-19_19h21.16.437",NA,NA,116.4794,116.4795,116.4795,116.8294,NA,NA,NA,NA,NA,NA,NA,TRUE,3,2.1673,113.4801,116.4792,0,11,11,28,1,21,32,NA,NA,NA,NA,NA,1,12,"likert"
"test",1,"2025-08-19_19h21.16.437",NA,NA,119.8284,119.8284,119.8284,120.1792,NA,NA,NA,NA,NA,NA,NA,TRUE,2,2.6292,116.8308,119.8282,0,12,12,74,1,90,33,NA,NA,NA,NA,NA,1,13,"likert"
"test",1,"2025-08-19_19h21.16.437",NA,NA,123.1789,123.1789,123.1791,123.5292,NA,NA,NA,NA,NA,NA,NA,TRUE,2,2.8663,120.1805,123.1787,0,13,13,76,1,90,46,NA,NA,NA,NA,NA,1,14,"likert"
"test",1,"2025-08-19_19h21.16.437",NA,NA,126.5288,126.5289,126.5289,126.8789,NA,NA,NA,NA,NA,NA,NA,TRUE,1,1.6885,123.5307,126.5286,0,14,14,104,1,200,35,NA,NA,NA,NA,NA,1,15,"likert"
"test",1,"2025-08-19_19h21.16.437",NA,NA,129.8786,129.8786,129.8786,130.2292,NA,NA,NA,NA,NA,NA,NA,TRUE,2,2.507,126.8804,129.8784,0,15,15,100,1,180,46,NA,NA,NA,NA,NA,1,16,"likert"
"test",1,"2025-08-19_19h21.16.437",NA,NA,133.2291,133.2292,133.2292,133.5787,NA,NA,NA,NA,NA,NA,NA,TRUE,4,2.8923,130.2304,133.229,0,16,16,10,1,10,30,NA,NA,NA,NA,NA,1,17,"likert"
"test",1,"2025-08-19_19h21.16.437",NA,NA,136.5793,136.5793,136.5794,136.9287,NA,NA,NA,NA,NA,NA,NA,TRUE,1,1.855,133.5801,136.5791,0,17,17,93,1,150,40,NA,NA,NA,NA,NA,1,18,"likert"
"test",1,"2025-08-19_19h21.16.437",NA,NA,139.9295,139.9295,139.9295,140.2793,NA,NA,NA,NA,NA,NA,NA,TRUE,2,2.6668,136.93,139.9292,0,18,18,39,1,28,35,NA,NA,NA,NA,NA,1,19,"likert"
"test",1,"2025-08-19_19h21.16.437",NA,NA,143.2754,143.2755,143.2755,143.6248,NA,NA,NA,NA,NA,NA,NA,TRUE,3,2.7115,140.281,143.2753,0,19,19,35,1,25,46,NA,NA,NA,NA,NA,1,20,"likert"
"test",1,"2025-08-19_19h21.16.437",NA,NA,146.6254,146.6255,146.6255,146.9752,NA,NA,NA,NA,NA,NA,NA,TRUE,4,2.3467,143.6261,146.6252,0,20,20,73,1,90,30,NA,NA,NA,NA,NA,1,21,"likert"
"test",1,"2025-08-19_19h21.16.437",NA,NA,149.9748,149.9748,149.9749,150.3243,NA,NA,NA,NA,NA,NA,NA,TRUE,2,2.267,146.9765,149.9746,0,21,21,91,1,150,33,NA,NA,NA,NA,NA,1,22,"likert"
"test",1,"2025-08-19_19h21.16.437",NA,NA,153.325,153.325,153.325,153.674,NA,NA,NA,NA,NA,NA,NA,TRUE,2,1.6887,150.3256,153.3249,0,22,22,43,1,30,27,NA,NA,NA,NA,NA,1,23,"likert"
"test",1,"2025-08-19_19h21.16.437",NA,NA,156.6745,156.925,156.9251,157.025,NA,NA,NA,NA,NA,NA,NA,FALSE,NA,NA,153.6754,156.6743,0,23,23,51,1,40,40,NA,NA,NA,NA,NA,1,24,"likert"
"test",1,"2025-08-19_19h21.16.437",NA,NA,160.0252,160.0252,160.0252,160.3791,NA,NA,NA,NA,NA,NA,NA,TRUE,4,2.3438,157.0264,160.0249,0,24,24,17,1,12,35,NA,NA,NA,NA,NA,1,25,"likert"
"test",1,"2025-08-19_19h21.16.437",NA,NA,163.3793,163.3793,163.3793,163.728,NA,NA,NA,NA,NA,NA,NA,TRUE,4,1.4633,160.3805,163.3791,0,25,25,22,1,14,35,NA,NA,NA,NA,NA,1,26,"likert"
"test",1,"2025-08-19_19h21.16.437",NA,NA,166.7294,166.7294,166.7294,167.0791,NA,NA,NA,NA,NA,NA,NA,TRUE,2,1.6272,163.7288,166.7292,0,26,26,99,1,180,39,NA,NA,NA,NA,NA,1,27,"likert"
"test",1,"2025-08-19_19h21.16.437",NA,NA,170.0786,170.0787,170.0787,170.4292,NA,NA,NA,NA,NA,NA,NA,TRUE,4,2.0443,167.0806,170.0784,0,27,27,8,1,10,27,NA,NA,NA,NA,NA,1,28,"likert"
"test",1,"2025-08-19_19h21.16.437",NA,NA,173.429,173.429,173.429,173.7786,NA,NA,NA,NA,NA,NA,NA,TRUE,3,1.6135,170.4308,173.4286,0,28,28,48,1,40,27,NA,NA,NA,NA,NA,1,29,"likert"
"test",1,"2025-08-19_19h21.16.437",NA,NA,176.7785,176.7785,176.7785,177.1282,NA,NA,NA,NA,NA,NA,NA,TRUE,4,2.3063,173.7799,176.7783,0,29,29,46,1,30,32,NA,NA,NA,NA,NA,1,30,"likert"
"test",1,"2025-08-19_19h21.16.437",NA,NA,180.1293,180.1293,180.1293,180.4782,NA,NA,NA,NA,NA,NA,NA,TRUE,3,2.7334,177.1295,180.1291,0,30,30,67,1,60,33,NA,NA,NA,NA,NA,1,31,"likert"
"test",1,"2025-08-19_19h21.16.437",NA,NA,183.4788,183.4788,183.4788,183.8285,NA,NA,NA,NA,NA,NA,NA,TRUE,2,2.7877,180.4797,183.4786,0,31,31,32,1,25,31,NA,NA,NA,NA,NA,1,32,"likert"
"test",1,"2025-08-19_19h21.16.437",NA,NA,186.8294,186.8294,186.8295,187.1793,NA,NA,NA,NA,NA,NA,NA,TRUE,3,1.9289,183.8298,186.8292,0,32,32,20,1,14,28,NA,NA,NA,NA,NA,1,33,"likert"
"test",1,"2025-08-19_19h21.16.437",NA,NA,190.1787,190.1787,190.1787,190.5291,NA,NA,NA,NA,NA,NA,NA,TRUE,2,1.4755,187.1809,190.1782,0,33,33,21,1,14,32,NA,NA,NA,NA,NA,1,34,"likert"
"test",1,"2025-08-19_19h21.16.437",NA,NA,193.5295,193.5296,193.5296,193.8792,NA,NA,NA,NA,NA,NA,NA,TRUE,4,1.6293,190.5303,193.5293,0,34,34,38,1,28,32,NA,NA,NA,NA,NA,1,35,"likert"
"test",1,"2025-08-19_19h21.16.437",NA,NA,196.8794,196.8794,196.8795,197.2291,NA,NA,NA,NA,NA,NA,NA,TRUE,2,2.623,193.8805,196.8791,0,35,35,14,1,12,28,NA,NA,NA,NA,NA,1,36,"likert"
"test",1,"2025-08-19_19h21.16.437",NA,NA,200.2295,200.2295,200.2295,200.5791,NA,NA,NA,NA,NA,NA,NA,TRUE,4,2.0967,197.2304,200.2294,0,36,36,71,1,60,54,NA,NA,NA,NA,NA,1,37,"likert"
"test",1,"2025-08-19_19h21.16.437",NA,NA,203.5791,203.5792,203.5792,203.9282,NA,NA,NA,NA,NA,NA,NA,TRUE,2,2.9099,200.5803,203.579,0,37,37,98,1,180,35,NA,NA,NA,NA,NA,1,38,"likert"
"test",1,"2025-08-19_19h21.16.437",NA,NA,206.9283,206.9283,206.9283,207.279,NA,NA,NA,NA,NA,NA,NA,TRUE,2,2.2666,203.9294,206.9281,0,38,38,41,1,28,46,NA,NA,NA,NA,NA,1,39,"likert"
"test",1,"2025-08-19_19h21.16.437",NA,NA,210.2795,210.2798,210.2798,210.6284,NA,NA,NA,NA,NA,NA,NA,TRUE,4,2.1058,207.2804,210.2791,0,39,39,62,1,50,35,NA,NA,NA,NA,NA,1,40,"likert"
"test",1,"2025-08-19_19h21.16.437",NA,NA,213.6294,213.6294,213.6294,213.9791,NA,NA,NA,NA,NA,NA,NA,TRUE,4,1.4143,210.6297,213.6291,0,40,40,83,1,95,54,NA,NA,NA,NA,NA,1,41,"likert"
"test",1,"2025-08-19_19h21.16.437",NA,NA,216.9793,216.9793,216.9793,217.328,NA,NA,NA,NA,NA,NA,NA,TRUE,3,2.3983,213.9806,216.979,0,41,41,4,1,7,32,NA,NA,NA,NA,NA,1,42,"likert"
"test",1,"2025-08-19_19h21.16.437",NA,NA,220.3293,220.3294,220.3294,220.6791,NA,NA,NA,NA,NA,NA,NA,TRUE,2,2.0481,217.3295,220.3292,0,42,42,89,1,100,54,NA,NA,NA,NA,NA,1,43,"likert"
"test",1,"2025-08-19_19h21.16.437",NA,NA,223.6792,223.6794,223.6794,224.029,NA,NA,NA,NA,NA,NA,NA,TRUE,4,2.0324,220.6805,223.6791,0,43,43,15,1,12,31,NA,NA,NA,NA,NA,1,44,"likert"
"test",1,"2025-08-19_19h21.16.437",NA,NA,227.0293,227.0293,227.0293,227.3793,NA,NA,NA,NA,NA,NA,NA,TRUE,4,2.4789,224.0303,227.0291,0,44,44,44,1,30,29,NA,NA,NA,NA,NA,1,45,"likert"
"test",1,"2025-08-19_19h21.16.437",NA,NA,230.3791,230.3793,230.3793,230.7292,NA,NA,NA,NA,NA,NA,NA,TRUE,4,1.8371,227.3806,230.3789,0,45,45,1,1,7,26,NA,NA,NA,NA,NA,1,46,"likert"
"test",1,"2025-08-19_19h21.16.437",NA,NA,233.7292,233.7292,233.7292,234.0789,NA,NA,NA,NA,NA,NA,NA,TRUE,4,2.5418,230.7306,233.729,0,46,46,34,1,25,35,NA,NA,NA,NA,NA,1,47,"likert"
"test",1,"2025-08-19_19h21.16.437",NA,NA,237.0792,237.0792,237.0792,237.4289,NA,NA,NA,NA,NA,NA,NA,TRUE,5,2.3627,234.0803,237.079,0,47,47,3,1,7,30,NA,NA,NA,NA,NA,1,48,"likert"
"test",1,"2025-08-19_19h21.16.437",NA,NA,240.4286,240.4287,240.4287,240.7789,NA,NA,NA,NA,NA,NA,NA,TRUE,3,2.415,237.4305,240.4286,0,48,48,25,1,21,27,NA,NA,NA,NA,NA,1,49,"likert"
"test",1,"2025-08-19_19h21.16.437",NA,NA,243.7791,243.7791,243.7792,244.1287,NA,NA,NA,NA,NA,NA,NA,TRUE,3,2.3796,240.78,243.7789,0,49,49,54,1,45,26,NA,NA,NA,NA,NA,1,50,"likert"
"test",1,"2025-08-19_19h21.16.437",NA,NA,247.1289,247.1289,247.1289,247.4781,NA,NA,NA,NA,NA,NA,NA,TRUE,2,2.3134,244.1301,247.1288,0,50,50,60,1,50,27,NA,NA,NA,NA,NA,1,51,"likert"
"test",1,"2025-08-19_19h21.16.437",NA,NA,250.479,250.729,250.7291,250.8288,NA,NA,NA,NA,NA,NA,NA,FALSE,NA,NA,247.4793,250.479,0,51,51,57,1,45,35,NA,NA,NA,NA,NA,1,52,"likert"
"test",1,"2025-08-19_19h21.16.437",NA,NA,253.8283,253.8283,253.8284,254.1785,NA,NA,NA,NA,NA,NA,NA,TRUE,4,1.6337,250.829,253.8281,0,52,52,5,1,7,35,NA,NA,NA,NA,NA,1,53,"likert"
"test",1,"2025-08-19_19h21.16.437",NA,NA,257.1787,257.1787,257.1787,257.529,NA,NA,NA,NA,NA,NA,NA,TRUE,4,1.9077,254.1799,257.1785,0,53,53,29,1,21,38,NA,NA,NA,NA,NA,1,54,"likert"
"test",1,"2025-08-19_19h21.16.437",NA,NA,260.5291,260.5292,260.5292,260.8792,NA,NA,NA,NA,NA,NA,NA,TRUE,3,1.7557,257.5305,260.529,0,54,54,56,1,45,31,NA,NA,NA,NA,NA,1,55,"likert"
"test",1,"2025-08-19_19h21.16.437",NA,NA,263.8787,263.8788,263.8788,264.2289,NA,NA,NA,NA,NA,NA,NA,TRUE,4,2.554,260.8804,263.8784,0,55,55,2,1,7,28,NA,NA,NA,NA,NA,1,56,"likert"
"test",1,"2025-08-19_19h21.16.437",NA,NA,267.2292,267.2293,267.2293,267.5784,NA,NA,NA,NA,NA,NA,NA,TRUE,2,1.3987,264.2303,267.229,0,56,56,105,1,200,39,NA,NA,NA,NA,NA,1,57,"likert"
"test",1,"2025-08-19_19h21.16.437",NA,NA,270.578,270.5781,270.5781,270.929,NA,NA,NA,NA,NA,NA,NA,TRUE,3,2.8122,267.5799,270.5779,0,57,57,81,1,95,40,NA,NA,NA,NA,NA,1,58,"likert"
"test",1,"2025-08-19_19h21.16.437",NA,NA,273.9285,273.9286,273.9286,274.279,NA,NA,NA,NA,NA,NA,NA,TRUE,2,2.556,270.9302,273.9284,0,58,58,27,1,21,30,NA,NA,NA,NA,NA,1,59,"likert"
"test",1,"2025-08-19_19h21.16.437",NA,NA,277.2791,277.2791,277.2792,277.6289,NA,NA,NA,NA,NA,NA,NA,TRUE,2,2.1202,274.2802,277.2789,0,59,59,55,1,45,29,NA,NA,NA,NA,NA,1,60,"likert"
"test",1,"2025-08-19_19h21.16.437",NA,NA,280.6291,280.6291,280.6291,280.979,NA,NA,NA,NA,NA,NA,NA,TRUE,2,1.2718,277.6304,280.629,0,60,60,86,1,100,38,NA,NA,NA,NA,NA,1,61,"likert"
"test",1,"2025-08-19_19h21.16.437",NA,NA,283.9792,283.9792,283.9792,284.3288,NA,NA,NA,NA,NA,NA,NA,TRUE,2,2.124,280.9802,283.979,0,61,61,77,1,90,54,NA,NA,NA,NA,NA,1,62,"likert"
"test",1,"2025-08-19_19h21.16.437",NA,NA,287.3292,287.3293,287.3293,287.679,NA,NA,NA,NA,NA,NA,NA,TRUE,4,1.8699,284.3299,287.329,0,62,62,36,1,28,26,NA,NA,NA,NA,NA,1,63,"likert"
"test",1,"2025-08-19_19h21.16.437",NA,NA,290.6789,290.6789,290.6789,291.0286,NA,NA,NA,NA,NA,NA,NA,TRUE,2,2.7386,287.6805,290.6788,0,63,63,79,1,95,33,NA,NA,NA,NA,NA,1,64,"likert"
"test",1,"2025-08-19_19h21.16.437",NA,NA,294.0291,294.0291,294.0291,294.3783,NA,NA,NA,NA,NA,NA,NA,TRUE,4,2.9704,291.0299,294.0289,0,64,64,33,1,25,33,NA,NA,NA,NA,NA,1,65,"likert"
"test",1,"2025-08-19_19h21.16.437",NA,NA,297.3792,297.3793,297.3793,297.7292,NA,NA,NA,NA,NA,NA,NA,TRUE,2,2.0209,294.3795,297.3791,0,65,65,72,1,90,26,NA,NA,NA,NA,NA,1,66,"likert"
"test",1,"2025-08-19_19h21.16.437",NA,NA,300.7295,300.7295,300.7296,301.0783,NA,NA,NA,NA,NA,NA,NA,TRUE,2,2.9057,297.7305,300.7294,0,66,66,40,1,28,39,NA,NA,NA,NA,NA,1,67,"likert"
"test",1,"2025-08-19_19h21.16.437",NA,NA,304.0792,304.0792,304.0792,304.429,NA,NA,NA,NA,NA,NA,NA,TRUE,4,2.3374,301.0799,304.079,0,67,67,19,1,14,26,NA,NA,NA,NA,NA,1,68,"likert"
"test",1,"2025-08-19_19h21.16.437",NA,NA,307.4291,307.4292,307.4292,307.7791,NA,NA,NA,NA,NA,NA,NA,TRUE,2,1.9625,304.4304,307.429,0,68,68,80,1,95,35,NA,NA,NA,NA,NA,1,69,"likert"
"test",1,"2025-08-19_19h21.16.437",NA,NA,310.7786,310.7786,310.7786,311.1289,NA,NA,NA,NA,NA,NA,NA,TRUE,2,1.3972,307.7804,310.7786,0,69,69,66,1,60,29,NA,NA,NA,NA,NA,1,70,"likert"
"test",1,"2025-08-19_19h21.16.437",NA,NA,314.1289,314.129,314.129,314.4788,NA,NA,NA,NA,NA,NA,NA,TRUE,1,1.4867,311.1305,314.1288,0,70,70,90,1,150,31,NA,NA,NA,NA,NA,1,71,"likert"
"test",1,"2025-08-19_19h21.16.437",NA,NA,317.479,317.4791,317.4791,317.8288,NA,NA,NA,NA,NA,NA,NA,TRUE,1,1.9709,314.4804,317.4789,0,71,71,102,1,200,26,NA,NA,NA,NA,NA,1,72,"likert"
"test",1,"2025-08-19_19h21.16.437",NA,NA,320.8293,320.8294,320.8294,321.1788,NA,NA,NA,NA,NA,NA,NA,TRUE,2,2.5812,317.8303,320.8291,0,72,72,61,1,50,30,NA,NA,NA,NA,NA,1,73,"likert"
"test",1,"2025-08-19_19h21.16.437",NA,NA,324.1792,324.1794,324.1794,324.5283,NA,NA,NA,NA,NA,NA,NA,TRUE,3,1.6221,321.1802,324.1789,0,73,73,12,1,12,25,NA,NA,NA,NA,NA,1,74,"likert"
"test",1,"2025-08-19_19h21.16.437",NA,NA,327.529,327.5291,327.5291,327.8788,NA,NA,NA,NA,NA,NA,NA,TRUE,2,2.2299,324.5297,327.5289,0,74,74,96,1,180,27,NA,NA,NA,NA,NA,1,75,"likert"
"test",1,"2025-08-19_19h21.16.437",NA,NA,330.8789,330.8789,330.879,331.228,NA,NA,NA,NA,NA,NA,NA,TRUE,5,2.3939,327.8803,330.8788,0,75,75,9,1,10,29,NA,NA,NA,NA,NA,1,76,"likert"
"test",1,"2025-08-19_19h21.16.437",NA,NA,334.2293,334.2293,334.2293,334.5788,NA,NA,NA,NA,NA,NA,NA,TRUE,3,2.74,331.2294,334.2291,0,76,76,95,1,150,54,NA,NA,NA,NA,NA,1,77,"likert"
"test",1,"2025-08-19_19h21.16.437",NA,NA,337.5786,337.5787,337.5787,337.9287,NA,NA,NA,NA,NA,NA,NA,TRUE,3,1.8392,334.5804,337.5784,0,77,77,6,1,10,25,NA,NA,NA,NA,NA,1,78,"likert"
"test",1,"2025-08-19_19h21.16.437",NA,NA,340.9281,341.1787,341.1788,341.2787,NA,NA,NA,NA,NA,NA,NA,FALSE,NA,NA,337.93,340.9279,0,78,78,94,1,150,47,NA,NA,NA,NA,NA,1,79,"likert"
"test",1,"2025-08-19_19h21.16.437",NA,NA,344.2782,344.2782,344.2783,344.6279,NA,NA,NA,NA,NA,NA,NA,TRUE,2,1.9524,341.2796,344.278,0,79,79,58,1,45,40,NA,NA,NA,NA,NA,1,80,"likert"
"test",1,"2025-08-19_19h21.16.437",NA,NA,347.629,347.6291,347.6291,347.9788,NA,NA,NA,NA,NA,NA,NA,TRUE,2,2.3403,344.6292,347.6288,0,80,80,82,1,95,47,NA,NA,NA,NA,NA,1,81,"likert"
"test",1,"2025-08-19_19h21.16.437",NA,NA,350.979,350.979,350.979,351.3289,NA,NA,NA,NA,NA,NA,NA,TRUE,2,2.7104,347.9802,350.9788,0,81,81,49,1,40,33,NA,NA,NA,NA,NA,1,82,"likert"
"test",1,"2025-08-19_19h21.16.437",NA,NA,354.3289,354.3289,354.3289,354.6788,NA,NA,NA,NA,NA,NA,NA,TRUE,5,1.9633,351.3303,354.3288,0,82,82,23,1,14,39,NA,NA,NA,NA,NA,1,83,"likert"
"test",1,"2025-08-19_19h21.16.437",NA,NA,357.6788,357.6789,357.6789,358.0288,NA,NA,NA,NA,NA,NA,NA,TRUE,4,1.8836,354.6798,357.6786,0,83,83,7,1,10,26,NA,NA,NA,NA,NA,1,84,"likert"
"test",1,"2025-08-19_19h21.16.437",NA,NA,361.0284,361.0284,361.0284,361.3784,NA,NA,NA,NA,NA,NA,NA,TRUE,5,1.67,358.0301,361.0281,0,84,84,45,1,30,30,NA,NA,NA,NA,NA,1,85,"likert"
"test",1,"2025-08-19_19h21.16.437",NA,NA,364.3786,364.3786,364.3787,364.7287,NA,NA,NA,NA,NA,NA,NA,TRUE,2,1.4378,361.3797,364.3786,0,85,85,92,1,150,35,NA,NA,NA,NA,NA,1,86,"likert"
"test",1,"2025-08-19_19h21.16.437",NA,NA,367.729,367.729,367.729,368.0788,NA,NA,NA,NA,NA,NA,NA,TRUE,4,2.8699,364.7301,367.7288,0,86,86,30,1,25,27,NA,NA,NA,NA,NA,1,87,"likert"
"test",1,"2025-08-19_19h21.16.437",NA,NA,371.0777,371.0777,371.0777,371.4279,NA,NA,NA,NA,NA,NA,NA,TRUE,3,2.1854,368.0801,371.0776,0,87,87,70,1,60,47,NA,NA,NA,NA,NA,1,88,"likert"
"test",1,"2025-08-19_19h21.16.437",NA,NA,374.4293,374.4293,374.4293,374.7786,NA,NA,NA,NA,NA,NA,NA,TRUE,4,2.9495,371.4292,374.429,0,88,88,53,1,40,54,NA,NA,NA,NA,NA,1,89,"likert"
"test",1,"2025-08-19_19h21.16.437",NA,NA,377.7791,377.7792,377.7793,378.1288,NA,NA,NA,NA,NA,NA,NA,TRUE,4,2.1786,374.78,377.7789,0,89,89,13,1,12,26,NA,NA,NA,NA,NA,1,90,"likert"
"test",1,"2025-08-19_19h21.16.437",NA,NA,381.1285,381.1285,381.1285,381.4782,NA,NA,NA,NA,NA,NA,NA,TRUE,1,1.9281,378.1303,381.1283,0,90,90,0,1,7,25,NA,NA,NA,NA,NA,1,91,"likert"
"test",1,"2025-08-19_19h21.16.437",NA,NA,384.479,384.479,384.479,384.8265,NA,NA,NA,NA,NA,NA,NA,TRUE,2,2.8287,381.4798,384.4788,0,91,91,64,1,50,46,NA,NA,NA,NA,NA,1,92,"likert"
"test",1,"2025-08-19_19h21.16.437",NA,NA,387.8244,387.8244,387.8246,388.1745,NA,NA,NA,NA,NA,NA,NA,TRUE,4,2.3528,384.8279,387.8242,0,92,92,63,1,50,40,NA,NA,NA,NA,NA,1,93,"likert"
"test",1,"2025-08-19_19h21.16.437",NA,NA,391.175,391.175,391.175,391.5246,NA,NA,NA,NA,NA,NA,NA,TRUE,3,2.6661,388.1759,391.1748,0,93,93,68,1,60,35,NA,NA,NA,NA,NA,1,94,"likert"
"test",1,"2025-08-19_19h21.16.437",NA,NA,394.5239,394.5239,394.5239,394.8746,NA,NA,NA,NA,NA,NA,NA,TRUE,2,2.5832,391.5261,394.5236,0,94,94,42,1,30,26,NA,NA,NA,NA,NA,1,95,"likert"
"test",1,"2025-08-19_19h21.16.437",NA,NA,397.8748,397.875,397.875,398.232,NA,NA,NA,NA,NA,NA,NA,TRUE,4,1.8405,394.8759,397.8746,0,95,95,26,1,21,29,NA,NA,NA,NA,NA,1,96,"likert"
"test",1,"2025-08-19_19h21.16.437",NA,NA,401.224,401.224,401.2241,401.5745,NA,NA,NA,NA,NA,NA,NA,TRUE,2,2.1977,398.2334,401.2239,0,96,96,65,1,50,54,NA,NA,NA,NA,NA,1,97,"likert"
"test",1,"2025-08-19_19h21.16.437",NA,NA,404.5747,404.5747,404.5747,404.9245,NA,NA,NA,NA,NA,NA,NA,TRUE,4,1.5998,401.5758,404.5744,0,97,97,16,1,12,33,NA,NA,NA,NA,NA,1,98,"likert"
"test",1,"2025-08-19_19h21.16.437",NA,NA,407.9248,407.9249,407.925,408.2739,NA,NA,NA,NA,NA,NA,NA,TRUE,4,2.69,404.926,407.9246,0,98,98,75,1,90,40,NA,NA,NA,NA,NA,1,99,"likert"
"test",1,"2025-08-19_19h21.16.437",NA,NA,411.2749,411.2749,411.2749,411.6246,NA,NA,NA,NA,NA,NA,NA,TRUE,3,2.4918,408.2753,411.2746,0,99,99,101,1,180,54,NA,NA,NA,NA,NA,1,100,"likert"
"test",1,"2025-08-19_19h21.16.437",NA,NA,414.6248,414.6248,414.6248,414.9745,NA,NA,NA,NA,NA,NA,NA,TRUE,4,1.3204,411.6258,414.6246,0,100,100,11,1,10,32,NA,NA,NA,NA,NA,1,101,"likert"
"test",1,"2025-08-19_19h21.16.437",NA,NA,417.9747,417.9747,417.9748,418.3249,NA,NA,NA,NA,NA,NA,NA,TRUE,2,2.2149,414.976,417.9745,0,101,101,97,1,180,31,NA,NA,NA,NA,NA,1,102,"likert"
"test",1,"2025-08-19_19h21.16.437",NA,NA,421.3247,421.3247,421.3247,421.6745,NA,NA,NA,NA,NA,NA,NA,TRUE,1,1.4993,418.3262,421.3245,0,102,102,103,1,200,28,NA,NA,NA,NA,NA,1,103,"likert"
"test",1,"2025-08-19_19h21.16.437",NA,NA,424.6748,424.6749,424.6749,425.0247,NA,NA,NA,NA,NA,NA,NA,TRUE,4,2.5781,421.6759,424.6746,0,103,103,69,1,60,40,NA,NA,NA,NA,NA,1,104,"likert"
"test",1,"2025-08-19_19h21.16.437",NA,NA,428.0248,428.0248,428.0248,428.3748,NA,NA,NA,NA,NA,NA,NA,TRUE,1,2.0875,425.026,428.0246,0,104,104,18,1,14,25,NA,NA,NA,NA,NA,1,105,"likert"
"test",1,"2025-08-19_19h21.16.437",NA,NA,431.3747,431.3748,431.3748,431.7245,NA,NA,NA,NA,NA,NA,NA,TRUE,1,2.1567,428.3764,431.3745,0,105,105,84,1,100,26,NA,NA,NA,NA,NA,1,106,"likert"
"test",1,"2025-08-19_19h21.16.437",NA,NA,434.7241,434.9744,434.9745,435.0745,NA,NA,NA,NA,NA,NA,NA,FALSE,NA,NA,431.7257,434.7239,0,106,106,106,1,200,47,NA,NA,NA,NA,NA,1,107,"likert"
"test",1,"2025-08-19_19h21.16.437",NA,NA,438.0743,438.0744,438.0744,438.433,NA,NA,NA,NA,NA,NA,NA,TRUE,5,2.1875,435.0757,438.074,0,107,107,52,1,40,47,NA,NA,NA,NA,NA,1,108,"likert"
"test",1,"2025-08-19_19h21.16.437",NA,NA,446.0081,446.0082,446.0082,446.3578,NA,NA,NA,NA,NA,NA,NA,TRUE,4,2.0188,443.0188,446.0079,NA,NA,NA,NA,NA,10,27,0,0,0,8,1,2,1,"likert"
"test",1,"2025-08-19_19h21.16.437",NA,NA,449.3581,449.3581,449.3581,449.7068,NA,NA,NA,NA,NA,NA,NA,TRUE,4,1.5948,446.3592,449.3579,NA,NA,NA,NA,NA,30,32,0,1,1,46,1,2,2,"likert"
"test",1,"2025-08-19_19h21.16.437",NA,NA,452.708,452.708,452.708,453.0572,NA,NA,NA,NA,NA,NA,NA,TRUE,2,1.7567,449.7083,452.7077,NA,NA,NA,NA,NA,90,26,0,2,2,72,1,2,3,"likert"
"test",1,"2025-08-19_19h21.16.437",NA,NA,456.0579,456.0579,456.0579,456.4079,NA,NA,NA,NA,NA,NA,NA,TRUE,4,1.9009,453.0584,456.0576,NA,NA,NA,NA,NA,60,54,0,3,3,71,1,2,4,"likert"
"test",1,"2025-08-19_19h21.16.437",NA,NA,459.408,459.4081,459.4081,459.7578,NA,NA,NA,NA,NA,NA,NA,TRUE,4,1.7476,456.4094,459.4078,NA,NA,NA,NA,NA,21,27,0,4,4,25,1,2,5,"likert"
"test",1,"2025-08-19_19h21.16.437",NA,NA,462.758,462.7582,462.7582,463.1069,NA,NA,NA,NA,NA,NA,NA,TRUE,4,2.5462,459.7593,462.7579,NA,NA,NA,NA,NA,12,28,0,5,5,14,1,2,6,"likert"
"test",1,"2025-08-19_19h21.16.437",NA,NA,466.108,466.1081,466.1082,466.4571,NA,NA,NA,NA,NA,NA,NA,TRUE,3,2.5898,463.1083,466.1078,NA,NA,NA,NA,NA,90,54,0,6,6,77,1,2,7,"likert"
"test",1,"2025-08-19_19h21.16.437",NA,NA,469.458,469.4582,469.4582,469.8077,NA,NA,NA,NA,NA,NA,NA,TRUE,1,1.8394,466.4585,469.4578,NA,NA,NA,NA,NA,150,47,0,7,7,94,1,2,8,"likert"
"test",1,"2025-08-19_19h21.16.437",NA,NA,472.808,472.8081,472.8081,473.1579,NA,NA,NA,NA,NA,NA,NA,TRUE,1,1.0627,469.809,472.8078,NA,NA,NA,NA,NA,180,46,0,8,8,100,1,2,9,"likert"
"test",1,"2025-08-19_19h21.16.437",NA,NA,476.1581,476.1582,476.1582,476.5077,NA,NA,NA,NA,NA,NA,NA,TRUE,2,2.8296,473.1595,476.1579,NA,NA,NA,NA,NA,25,27,0,9,9,30,1,2,10,"likert"
"test",1,"2025-08-19_19h21.16.437",NA,NA,479.5079,479.5079,479.5079,479.8569,NA,NA,NA,NA,NA,NA,NA,TRUE,4,1.514,476.5092,479.5078,NA,NA,NA,NA,NA,7,28,0,10,10,2,1,2,11,"likert"
"test",1,"2025-08-19_19h21.16.437",NA,NA,482.8575,482.8575,482.8575,483.2078,NA,NA,NA,NA,NA,NA,NA,TRUE,3,1.9401,479.8582,482.8573,NA,NA,NA,NA,NA,14,26,0,11,11,19,1,2,12,"likert"
"test",1,"2025-08-19_19h21.16.437",NA,NA,486.208,486.208,486.208,486.5571,NA,NA,NA,NA,NA,NA,NA,TRUE,4,2.2006,483.2084,486.2077,NA,NA,NA,NA,NA,7,26,0,12,12,1,1,2,13,"likert"
"test",1,"2025-08-19_19h21.16.437",NA,NA,489.5578,489.5579,489.5579,489.9068,NA,NA,NA,NA,NA,NA,NA,TRUE,2,2.3102,486.5585,489.5576,NA,NA,NA,NA,NA,21,29,0,13,13,26,1,2,14,"likert"
"test",1,"2025-08-19_19h21.16.437",NA,NA,492.908,492.9081,492.9082,493.257,NA,NA,NA,NA,NA,NA,NA,TRUE,3,2.1647,489.9082,492.9079,NA,NA,NA,NA,NA,12,31,0,14,14,15,1,2,15,"likert"
"test",1,"2025-08-19_19h21.16.437",NA,NA,496.258,496.2581,496.2581,496.6077,NA,NA,NA,NA,NA,NA,NA,TRUE,4,2.481,493.2583,496.2578,NA,NA,NA,NA,NA,12,35,0,15,15,17,1,2,16,"likert"
"test",1,"2025-08-19_19h21.16.437",NA,NA,499.608,499.6082,499.6082,499.9571,NA,NA,NA,NA,NA,NA,NA,TRUE,1,1.222,496.6093,499.6077,NA,NA,NA,NA,NA,180,35,0,16,16,98,1,2,17,"likert"
"test",1,"2025-08-19_19h21.16.437",NA,NA,502.9579,502.9579,502.9579,503.3077,NA,NA,NA,NA,NA,NA,NA,TRUE,2,1.9749,499.9579,502.9577,NA,NA,NA,NA,NA,25,31,0,17,17,32,1,2,18,"likert"
"test",1,"2025-08-19_19h21.16.437",NA,NA,506.3082,506.5577,506.5579,506.6577,NA,NA,NA,NA,NA,NA,NA,FALSE,NA,NA,503.3092,506.3081,NA,NA,NA,NA,NA,12,25,0,18,18,12,1,2,19,"likert"
"test",1,"2025-08-19_19h21.16.437",NA,NA,509.6579,509.6579,509.6579,510.0069,NA,NA,NA,NA,NA,NA,NA,TRUE,4,1.3278,506.6592,509.6577,NA,NA,NA,NA,NA,25,29,0,19,19,31,1,2,20,"likert"
"test",1,"2025-08-19_19h21.16.437",NA,NA,513.0077,513.0078,513.0079,513.3577,NA,NA,NA,NA,NA,NA,NA,TRUE,3,1.8545,510.0083,513.0075,NA,NA,NA,NA,NA,50,27,0,20,20,60,1,2,21,"likert"
"test",1,"2025-08-19_19h21.16.437",NA,NA,516.3571,516.3572,516.3573,516.7068,NA,NA,NA,NA,NA,NA,NA,TRUE,4,1.5299,513.359,516.357,NA,NA,NA,NA,NA,14,35,0,21,21,22,1,2,22,"likert"
"test",1,"2025-08-19_19h21.16.437",NA,NA,519.7081,519.7082,519.7082,520.0573,NA,NA,NA,NA,NA,NA,NA,TRUE,4,1.6715,516.7078,519.7078,NA,NA,NA,NA,NA,25,35,0,22,22,34,1,2,23,"likert"
"test",1,"2025-08-19_19h21.16.437",NA,NA,523.0581,523.0581,523.0581,523.4078,NA,NA,NA,NA,NA,NA,NA,TRUE,4,2.6636,520.0585,523.058,NA,NA,NA,NA,NA,50,54,0,23,23,65,1,2,24,"likert"
"test",1,"2025-08-19_19h21.16.437",NA,NA,526.4079,526.4079,526.4079,526.7577,NA,NA,NA,NA,NA,NA,NA,TRUE,2,1.3008,523.409,526.4078,NA,NA,NA,NA,NA,150,54,0,24,24,95,1,2,25,"likert"
"test",1,"2025-08-19_19h21.16.437",NA,NA,529.758,529.7581,529.7581,530.1077,NA,NA,NA,NA,NA,NA,NA,TRUE,4,1.3668,526.7587,529.7579,NA,NA,NA,NA,NA,40,54,0,25,25,53,1,2,26,"likert"
"test",1,"2025-08-19_19h21.16.437",NA,NA,533.108,533.108,533.108,533.4579,NA,NA,NA,NA,NA,NA,NA,TRUE,3,2.4637,530.109,533.1078,NA,NA,NA,NA,NA,30,27,0,26,26,43,1,2,27,"likert"
"test",1,"2025-08-19_19h21.16.437",NA,NA,536.4581,536.4581,536.4581,536.807,NA,NA,NA,NA,NA,NA,NA,TRUE,4,1.3045,533.4594,536.4579,NA,NA,NA,NA,NA,200,28,0,27,27,103,1,2,28,"likert"
"test",1,"2025-08-19_19h21.16.437",NA,NA,539.807,539.8071,539.8071,540.1578,NA,NA,NA,NA,NA,NA,NA,TRUE,4,2.6636,536.8083,539.807,NA,NA,NA,NA,NA,10,29,0,28,28,9,1,2,29,"likert"
"test",1,"2025-08-19_19h21.16.437",NA,NA,543.158,543.1581,543.1581,543.5077,NA,NA,NA,NA,NA,NA,NA,TRUE,1,1.4027,540.1591,543.1577,NA,NA,NA,NA,NA,150,31,0,29,29,90,1,2,30,"likert"
"test",1,"2025-08-19_19h21.16.437",NA,NA,546.5079,546.508,546.508,546.8579,NA,NA,NA,NA,NA,NA,NA,TRUE,4,2.0388,543.5092,546.5078,NA,NA,NA,NA,NA,40,35,0,30,30,50,1,2,31,"likert"
"test",1,"2025-08-19_19h21.16.437",NA,NA,549.8582,549.8582,549.8582,550.2069,NA,NA,NA,NA,NA,NA,NA,TRUE,4,1.6306,546.8589,549.858,NA,NA,NA,NA,NA,50,40,0,31,31,63,1,2,32,"likert"
"test",1,"2025-08-19_19h21.16.437",NA,NA,553.2072,553.2074,553.2074,553.557,NA,NA,NA,NA,NA,NA,NA,TRUE,3,2.439,550.2083,553.207,NA,NA,NA,NA,NA,12,26,0,32,32,13,1,2,33,"likert"
"test",1,"2025-08-19_19h21.16.437",NA,NA,556.5579,556.5579,556.558,556.9078,NA,NA,NA,NA,NA,NA,NA,TRUE,1,1.1635,553.5585,556.5578,NA,NA,NA,NA,NA,200,26,0,33,33,102,1,2,34,"likert"
"test",1,"2025-08-19_19h21.16.437",NA,NA,559.9072,559.9073,559.9073,560.2572,NA,NA,NA,NA,NA,NA,NA,TRUE,1,2.2959,556.9091,559.907,NA,NA,NA,NA,NA,95,47,0,34,34,82,1,2,35,"likert"
"test",1,"2025-08-19_19h21.16.437",NA,NA,563.2535,563.2536,563.2536,563.6028,NA,NA,NA,NA,NA,NA,NA,TRUE,3,2.81,560.2586,563.2534,NA,NA,NA,NA,NA,60,29,0,35,35,66,1,2,36,"likert"
"test",1,"2025-08-19_19h21.16.437",NA,NA,566.6036,566.6036,566.6037,566.9535,NA,NA,NA,NA,NA,NA,NA,TRUE,2,2.6269,563.6041,566.6035,NA,NA,NA,NA,NA,90,33,0,36,36,74,1,2,37,"likert"
"test",1,"2025-08-19_19h21.16.437",NA,NA,569.9537,569.9537,569.9538,570.3034,NA,NA,NA,NA,NA,NA,NA,TRUE,5,2.4574,566.9547,569.9535,NA,NA,NA,NA,NA,14,39,0,37,37,23,1,2,38,"likert"
"test",1,"2025-08-19_19h21.16.437",NA,NA,573.3036,573.3037,573.3037,573.6534,NA,NA,NA,NA,NA,NA,NA,TRUE,4,2.5973,570.3049,573.3035,NA,NA,NA,NA,NA,28,28,0,38,38,37,1,2,39,"likert"
"test",1,"2025-08-19_19h21.16.437",NA,NA,576.6536,576.6536,576.6536,577.0034,NA,NA,NA,NA,NA,NA,NA,TRUE,4,1.7614,573.6549,576.6534,NA,NA,NA,NA,NA,10,26,0,39,39,7,1,2,40,"likert"
"test",1,"2025-08-19_19h21.16.437",NA,NA,580.0027,580.0028,580.0028,580.3526,NA,NA,NA,NA,NA,NA,NA,TRUE,5,2.0306,577.0047,580.0026,NA,NA,NA,NA,NA,7,35,0,40,40,5,1,2,41,"likert"
"test",1,"2025-08-19_19h21.16.437",NA,NA,583.3536,583.3536,583.3536,583.7034,NA,NA,NA,NA,NA,NA,NA,TRUE,2,1.6701,580.3539,583.3534,NA,NA,NA,NA,NA,100,46,0,41,41,88,1,2,42,"likert"
"test",1,"2025-08-19_19h21.16.437",NA,NA,586.7027,586.7027,586.7027,587.0533,NA,NA,NA,NA,NA,NA,NA,TRUE,2,2.1816,583.7046,586.7027,NA,NA,NA,NA,NA,180,54,0,42,42,101,1,2,43,"likert"
"test",1,"2025-08-19_19h21.16.437",NA,NA,590.0528,590.0528,590.0528,590.4025,NA,NA,NA,NA,NA,NA,NA,TRUE,3,2.316,587.0545,590.0527,NA,NA,NA,NA,NA,21,26,0,43,43,24,1,2,44,"likert"
"test",1,"2025-08-19_19h21.16.437",NA,NA,593.4035,593.4035,593.4035,593.7534,NA,NA,NA,NA,NA,NA,NA,TRUE,5,1.838,590.4038,593.4033,NA,NA,NA,NA,NA,7,30,0,44,44,3,1,2,45,"likert"
"test",1,"2025-08-19_19h21.16.437",NA,NA,596.7525,596.7525,596.7525,597.1034,NA,NA,NA,NA,NA,NA,NA,TRUE,4,2.9662,593.7547,596.7524,NA,NA,NA,NA,NA,14,32,0,45,45,21,1,2,46,"likert"
"test",1,"2025-08-19_19h21.16.437",NA,NA,600.103,600.1031,600.1031,600.4535,NA,NA,NA,NA,NA,NA,NA,TRUE,5,1.9408,597.1049,600.1028,NA,NA,NA,NA,NA,10,32,0,46,46,11,1,2,47,"likert"
"test",1,"2025-08-19_19h21.16.437",NA,NA,603.4531,603.4531,603.4531,603.8033,NA,NA,NA,NA,NA,NA,NA,TRUE,2,1.3555,600.4547,603.4527,NA,NA,NA,NA,NA,60,33,0,47,47,67,1,2,48,"likert"
"test",1,"2025-08-19_19h21.16.437",NA,NA,606.803,606.8031,606.8031,607.1536,NA,NA,NA,NA,NA,NA,NA,TRUE,5,1.5586,603.8046,606.8029,NA,NA,NA,NA,NA,12,33,0,48,48,16,1,2,49,"likert"
"test",1,"2025-08-19_19h21.16.437",NA,NA,610.1536,610.1536,610.1536,610.5033,NA,NA,NA,NA,NA,NA,NA,TRUE,4,2.3519,607.1546,610.1535,NA,NA,NA,NA,NA,95,33,0,49,49,79,1,2,50,"likert"
"test",1,"2025-08-19_19h21.16.437",NA,NA,613.5029,613.503,613.5031,613.8534,NA,NA,NA,NA,NA,NA,NA,TRUE,2,1.8436,610.5048,613.5027,NA,NA,NA,NA,NA,150,40,0,50,50,93,1,2,51,"likert"
"test",1,"2025-08-19_19h21.16.437",NA,NA,616.853,617.1034,617.1034,617.2032,NA,NA,NA,NA,NA,NA,NA,FALSE,NA,NA,613.855,616.8528,NA,NA,NA,NA,NA,30,26,0,51,51,42,1,2,52,"likert"
"test",1,"2025-08-19_19h21.16.437",NA,NA,620.2026,620.2027,620.2027,620.5534,NA,NA,NA,NA,NA,NA,NA,TRUE,4,2.6479,617.204,620.2025,NA,NA,NA,NA,NA,30,38,0,52,52,47,1,2,53,"likert"
"test",1,"2025-08-19_19h21.16.437",NA,NA,623.5528,623.5528,623.5529,623.9033,NA,NA,NA,NA,NA,NA,NA,TRUE,5,1.6694,620.5549,623.5526,NA,NA,NA,NA,NA,25,46,0,53,53,35,1,2,54,"likert"
"test",1,"2025-08-19_19h21.16.437",NA,NA,626.9029,626.903,626.9031,627.2534,NA,NA,NA,NA,NA,NA,NA,TRUE,4,1.3896,623.9045,626.9028,NA,NA,NA,NA,NA,95,54,0,54,54,83,1,2,55,"likert"
"test",1,"2025-08-19_19h21.16.437",NA,NA,630.2535,630.2536,630.2536,630.603,NA,NA,NA,NA,NA,NA,NA,TRUE,5,1.3486,627.2549,630.2533,NA,NA,NA,NA,NA,45,46,0,55,55,59,1,2,56,"likert"
"test",1,"2025-08-19_19h21.16.437",NA,NA,633.6036,633.8531,633.8531,633.9527,NA,NA,NA,NA,NA,NA,NA,FALSE,NA,NA,630.6043,633.6035,NA,NA,NA,NA,NA,50,30,0,56,56,61,1,2,57,"likert"
"test",1,"2025-08-19_19h21.16.437",NA,NA,636.9535,636.9535,636.9536,637.3033,NA,NA,NA,NA,NA,NA,NA,TRUE,4,2.1162,633.9541,636.9532,NA,NA,NA,NA,NA,60,47,0,57,57,70,1,2,58,"likert"
"test",1,"2025-08-19_19h21.16.437",NA,NA,640.3036,640.3036,640.3037,640.6533,NA,NA,NA,NA,NA,NA,NA,TRUE,2,1.307,637.3047,640.3034,NA,NA,NA,NA,NA,150,33,0,58,58,91,1,2,59,"likert"
"test",1,"2025-08-19_19h21.16.437",NA,NA,643.6537,643.6537,643.6538,644.0033,NA,NA,NA,NA,NA,NA,NA,TRUE,1,2.5559,640.6548,643.6535,NA,NA,NA,NA,NA,14,25,0,59,59,18,1,2,60,"likert"
"test",1,"2025-08-19_19h21.16.437",NA,NA,647.0034,647.0035,647.0035,647.3534,NA,NA,NA,NA,NA,NA,NA,TRUE,4,2.0402,644.0047,647.0032,NA,NA,NA,NA,NA,14,28,0,60,60,20,1,2,61,"likert"
"test",1,"2025-08-19_19h21.16.437",NA,NA,650.353,650.353,650.353,650.7034,NA,NA,NA,NA,NA,NA,NA,TRUE,2,2.3405,647.3549,650.3528,NA,NA,NA,NA,NA,180,31,0,61,61,97,1,2,62,"likert"
"test",1,"2025-08-19_19h21.16.437",NA,NA,653.7035,653.9526,653.9527,654.053,NA,NA,NA,NA,NA,NA,NA,FALSE,NA,NA,650.7045,653.7033,NA,NA,NA,NA,NA,45,26,0,62,62,54,1,2,63,"likert"
"test",1,"2025-08-19_19h21.16.437",NA,NA,657.0535,657.0536,657.0537,657.4029,NA,NA,NA,NA,NA,NA,NA,TRUE,3,2.4232,654.0542,657.0534,NA,NA,NA,NA,NA,90,40,0,63,63,75,1,2,64,"likert"
"test",1,"2025-08-19_19h21.16.437",NA,NA,660.4027,660.4027,660.4027,660.7524,NA,NA,NA,NA,NA,NA,NA,TRUE,2,1.6183,657.4046,660.4026,NA,NA,NA,NA,NA,100,31,0,64,64,85,1,2,65,"likert"
"test",1,"2025-08-19_19h21.16.437",NA,NA,663.7525,663.7525,663.7525,664.1032,NA,NA,NA,NA,NA,NA,NA,TRUE,2,2.1736,660.7542,663.7524,NA,NA,NA,NA,NA,200,47,0,65,65,106,1,2,66,"likert"
"test",1,"2025-08-19_19h21.16.437",NA,NA,667.1033,667.1035,667.1035,667.4523,NA,NA,NA,NA,NA,NA,NA,TRUE,1,1.6488,664.1046,667.1032,NA,NA,NA,NA,NA,7,25,0,66,66,0,1,2,67,"likert"
"test",1,"2025-08-19_19h21.16.437",NA,NA,670.4533,670.7033,670.7033,670.8031,NA,NA,NA,NA,NA,NA,NA,FALSE,NA,NA,667.4542,670.4533,NA,NA,NA,NA,NA,90,46,0,67,67,76,1,2,68,"likert"
"test",1,"2025-08-19_19h21.16.437",NA,NA,673.8035,673.8036,673.8036,674.1533,NA,NA,NA,NA,NA,NA,NA,TRUE,4,1.9406,670.8034,673.8033,NA,NA,NA,NA,NA,50,35,0,68,68,62,1,2,69,"likert"
"test",1,"2025-08-19_19h21.16.437",NA,NA,677.1525,677.1525,677.1525,677.5026,NA,NA,NA,NA,NA,NA,NA,TRUE,1,1.6926,674.1544,677.1523,NA,NA,NA,NA,NA,10,25,0,69,69,6,1,2,70,"likert"
"test",1,"2025-08-19_19h21.16.437",NA,NA,680.5027,680.5028,680.5028,680.853,NA,NA,NA,NA,NA,NA,NA,TRUE,3,2.188,677.5039,680.5026,NA,NA,NA,NA,NA,60,35,0,70,70,68,1,2,71,"likert"
"test",1,"2025-08-19_19h21.16.437",NA,NA,683.8534,683.8534,683.8534,684.2023,NA,NA,NA,NA,NA,NA,NA,TRUE,1,1.6095,680.8537,683.8532,NA,NA,NA,NA,NA,200,35,0,71,71,104,1,2,72,"likert"
"test",1,"2025-08-19_19h21.16.437",NA,NA,687.2026,687.2026,687.2026,687.5616,NA,NA,NA,NA,NA,NA,NA,TRUE,2,1.792,684.2039,687.2025,NA,NA,NA,NA,NA,100,38,0,72,72,86,1,2,73,"likert"
"test",1,"2025-08-19_19h21.16.437",NA,NA,690.5535,690.5536,690.5536,690.9074,NA,NA,NA,NA,NA,NA,NA,TRUE,2,1.1677,687.5628,690.5534,NA,NA,NA,NA,NA,200,39,0,73,73,105,1,2,74,"likert"
"test",1,"2025-08-19_19h21.16.437",NA,NA,693.9076,693.9076,693.9076,694.2575,NA,NA,NA,NA,NA,NA,NA,TRUE,1,2.3469,690.9087,693.9075,NA,NA,NA,NA,NA,10,30,0,74,74,10,1,2,75,"likert"
"test",1,"2025-08-19_19h21.16.437",NA,NA,697.2577,697.5068,697.5068,697.6063,NA,NA,NA,NA,NA,NA,NA,FALSE,NA,NA,694.2588,697.2575,NA,NA,NA,NA,NA,180,27,0,75,75,96,1,2,76,"likert"
"test",1,"2025-08-19_19h21.16.437",NA,NA,700.6077,700.6078,700.6079,700.9573,NA,NA,NA,NA,NA,NA,NA,TRUE,3,2.2894,697.6073,700.6075,NA,NA,NA,NA,NA,30,29,0,76,76,44,1,2,77,"likert"
"test",1,"2025-08-19_19h21.16.437",NA,NA,703.9572,703.9573,703.9573,704.3071,NA,NA,NA,NA,NA,NA,NA,TRUE,1,1.7194,700.9586,703.957,NA,NA,NA,NA,NA,100,26,0,77,77,84,1,2,78,"likert"
"test",1,"2025-08-19_19h21.16.437",NA,NA,707.3067,707.3067,707.3067,707.6575,NA,NA,NA,NA,NA,NA,NA,TRUE,1,1.7542,704.3084,707.3066,NA,NA,NA,NA,NA,180,39,0,78,78,99,1,2,79,"likert"
"test",1,"2025-08-19_19h21.16.437",NA,NA,710.6577,710.6577,710.6577,711.0071,NA,NA,NA,NA,NA,NA,NA,TRUE,2,1.8768,707.6588,710.6575,NA,NA,NA,NA,NA,40,27,0,79,79,48,1,2,80,"likert"
"test",1,"2025-08-19_19h21.16.437",NA,NA,714.0075,714.0075,714.0076,714.3572,NA,NA,NA,NA,NA,NA,NA,TRUE,4,2.7824,711.0084,714.0073,NA,NA,NA,NA,NA,95,40,0,80,80,81,1,2,81,"likert"
"test",1,"2025-08-19_19h21.16.437",NA,NA,717.3578,717.3579,717.3579,717.7074,NA,NA,NA,NA,NA,NA,NA,TRUE,5,1.7819,714.3585,717.3575,NA,NA,NA,NA,NA,28,46,0,81,81,41,1,2,82,"likert"
"test",1,"2025-08-19_19h21.16.437",NA,NA,720.7076,720.7076,720.7076,721.0568,NA,NA,NA,NA,NA,NA,NA,TRUE,4,2.8366,717.7087,720.7074,NA,NA,NA,NA,NA,60,40,0,82,82,69,1,2,83,"likert"
"test",1,"2025-08-19_19h21.16.437",NA,NA,724.0567,724.0567,724.0567,724.4066,NA,NA,NA,NA,NA,NA,NA,TRUE,4,2.856,721.058,724.0565,NA,NA,NA,NA,NA,45,40,0,83,83,58,1,2,84,"likert"
"test",1,"2025-08-19_19h21.16.437",NA,NA,727.4075,727.4076,727.4076,727.7565,NA,NA,NA,NA,NA,NA,NA,TRUE,5,1.2415,724.4079,727.4073,NA,NA,NA,NA,NA,30,30,0,84,84,45,1,2,85,"likert"
"test",1,"2025-08-19_19h21.16.437",NA,NA,730.7572,730.7572,730.7572,731.1073,NA,NA,NA,NA,NA,NA,NA,TRUE,3,2.0021,727.7574,730.7571,NA,NA,NA,NA,NA,45,29,0,85,85,55,1,2,86,"likert"
"test",1,"2025-08-19_19h21.16.437",NA,NA,734.1032,734.1032,734.1032,734.4533,NA,NA,NA,NA,NA,NA,NA,TRUE,5,1.5529,731.1088,734.103,NA,NA,NA,NA,NA,40,47,0,86,86,52,1,2,87,"likert"
"test",1,"2025-08-19_19h21.16.437",NA,NA,737.4534,737.4535,737.4535,737.8026,NA,NA,NA,NA,NA,NA,NA,TRUE,4,2.3987,734.4546,737.4532,NA,NA,NA,NA,NA,25,33,0,87,87,33,1,2,88,"likert"
"test",1,"2025-08-19_19h21.16.437",NA,NA,740.8034,740.8034,740.8034,741.1532,NA,NA,NA,NA,NA,NA,NA,TRUE,5,1.6593,737.8038,740.8032,NA,NA,NA,NA,NA,40,40,0,88,88,51,1,2,89,"likert"
"test",1,"2025-08-19_19h21.16.437",NA,NA,744.1535,744.1535,744.1535,744.5032,NA,NA,NA,NA,NA,NA,NA,TRUE,5,2.1839,741.1547,744.1533,NA,NA,NA,NA,NA,21,38,0,89,89,29,1,2,90,"likert"
"test",1,"2025-08-19_19h21.16.437",NA,NA,747.5028,747.5028,747.5029,747.8528,NA,NA,NA,NA,NA,NA,NA,TRUE,3,1.7239,744.5049,747.5026,NA,NA,NA,NA,NA,95,35,0,90,90,80,1,2,91,"likert"
"test",1,"2025-08-19_19h21.16.437",NA,NA,750.8534,750.8534,750.8535,751.2028,NA,NA,NA,NA,NA,NA,NA,TRUE,4,1.823,747.8541,750.8533,NA,NA,NA,NA,NA,45,35,0,91,91,57,1,2,92,"likert"
"test",1,"2025-08-19_19h21.16.437",NA,NA,754.2031,754.2031,754.2031,754.5529,NA,NA,NA,NA,NA,NA,NA,TRUE,5,1.1988,751.2041,754.203,NA,NA,NA,NA,NA,21,30,0,92,92,27,1,2,93,"likert"
"test",1,"2025-08-19_19h21.16.437",NA,NA,757.5531,757.5531,757.5531,757.9073,NA,NA,NA,NA,NA,NA,NA,TRUE,5,1.6477,754.5543,757.5529,NA,NA,NA,NA,NA,28,35,0,93,93,39,1,2,94,"likert"
"test",1,"2025-08-19_19h21.16.437",NA,NA,760.9074,760.9075,760.9075,761.2574,NA,NA,NA,NA,NA,NA,NA,TRUE,5,1.7636,757.9087,760.9073,NA,NA,NA,NA,NA,28,32,0,94,94,38,1,2,95,"likert"
"test",1,"2025-08-19_19h21.16.437",NA,NA,764.2568,764.2569,764.2569,764.6066,NA,NA,NA,NA,NA,NA,NA,TRUE,5,1.0135,761.2587,764.2566,NA,NA,NA,NA,NA,7,32,0,95,95,4,1,2,96,"likert"
"test",1,"2025-08-19_19h21.16.437",NA,NA,767.6032,767.6032,767.6032,767.9524,NA,NA,NA,NA,NA,NA,NA,TRUE,4,2.1949,764.608,767.6029,NA,NA,NA,NA,NA,50,46,0,96,96,64,1,2,97,"likert"
"test",1,"2025-08-19_19h21.16.437",NA,NA,770.9532,770.9533,770.9533,771.303,NA,NA,NA,NA,NA,NA,NA,TRUE,3,2.2207,767.9539,770.9531,NA,NA,NA,NA,NA,150,35,0,97,97,92,1,2,98,"likert"
"test",1,"2025-08-19_19h21.16.437",NA,NA,774.3032,774.3033,774.3033,774.6531,NA,NA,NA,NA,NA,NA,NA,TRUE,4,2.4264,771.3042,774.3031,NA,NA,NA,NA,NA,100,39,0,98,98,87,1,2,99,"likert"
"test",1,"2025-08-19_19h21.16.437",NA,NA,777.6531,777.6531,777.6531,778.0031,NA,NA,NA,NA,NA,NA,NA,TRUE,3,2.3463,774.6544,777.6531,NA,NA,NA,NA,NA,28,26,0,99,99,36,1,2,100,"likert"
"test",1,"2025-08-19_19h21.16.437",NA,NA,781.0034,781.0034,781.0034,781.3532,NA,NA,NA,NA,NA,NA,NA,TRUE,2,1.895,778.0043,781.0032,NA,NA,NA,NA,NA,95,31,0,100,100,78,1,2,101,"likert"
"test",1,"2025-08-19_19h21.16.437",NA,NA,784.3533,784.3533,784.3533,784.7028,NA,NA,NA,NA,NA,NA,NA,TRUE,2,2.3068,781.3548,784.3531,NA,NA,NA,NA,NA,21,32,0,101,101,28,1,2,102,"likert"
"test",1,"2025-08-19_19h21.16.437",NA,NA,787.7034,787.7034,787.7035,788.0531,NA,NA,NA,NA,NA,NA,NA,TRUE,2,2.816,784.7041,787.7032,NA,NA,NA,NA,NA,40,33,0,102,102,49,1,2,103,"likert"
"test",1,"2025-08-19_19h21.16.437",NA,NA,791.0577,791.0577,791.0578,791.4072,NA,NA,NA,NA,NA,NA,NA,TRUE,1,1.2286,788.0545,791.0573,NA,NA,NA,NA,NA,100,54,0,103,103,89,1,2,104,"likert"
"test",1,"2025-08-19_19h21.16.437",NA,NA,794.4074,794.4074,794.4075,794.7572,NA,NA,NA,NA,NA,NA,NA,TRUE,1,1.2057,791.4087,794.4072,NA,NA,NA,NA,NA,200,54,0,104,104,107,1,2,105,"likert"
"test",1,"2025-08-19_19h21.16.437",NA,NA,797.7569,797.7571,797.7571,798.1072,NA,NA,NA,NA,NA,NA,NA,TRUE,2,2.2386,794.7584,797.7567,NA,NA,NA,NA,NA,90,30,0,105,105,73,1,2,106,"likert"
"test",1,"2025-08-19_19h21.16.437",NA,NA,801.1076,801.1077,801.1077,801.4573,NA,NA,NA,NA,NA,NA,NA,TRUE,2,2.6731,798.1085,801.1074,NA,NA,NA,NA,NA,45,31,0,106,106,56,1,2,107,"likert"
"test",1,"2025-08-19_19h21.16.437",NA,NA,804.4574,804.4575,804.4575,804.8072,NA,NA,NA,NA,NA,NA,NA,TRUE,4,1.7801,801.4584,804.4573,NA,NA,NA,NA,NA,28,39,0,107,107,40,1,2,108,"likert"
