"participant","session","assignmentId","projectId","date","practiceTrial.started","practiceTrial.stopped","tooLate.started","tooLate.stopped","blank.started","blank.stopped","trials_pract.thisRepN","trials_pract.thisTrialN","trials_pract.thisN","trials_pract.thisIndex","trials_pract.ran","delay_pract","amount_pract","responseMade","key","rt","trial.started","trial.stopped","trials.thisRepN","trials.thisTrialN","trials.thisN","trials.thisIndex","trials.ran","delay","amount","trials_2.thisRepN","trials_2.thisTrialN","trials_2.thisN","trials_2.thisIndex","trials_2.ran","block","trial","taskType"
"026B393D91B54690840BE16795BF9EC4",1,"01990a98-5d9b-7704-b4ab-e7b48c8dc764","01990a84-c4ee-73c2-a87b-ff46a7d3dde5","2025-09-02_14h44.34.729",37.1389,40.0172,40.0192,40.2669,40.2675,40.371,0,0,0,3,1,3,27,FALSE,NA,NA,NA,NA,NA,NA,NA,NA,NA,NA,NA,NA,NA,NA,NA,NA,0,1,"likert"
"026B393D91B54690840BE16795BF9EC4",1,"01990a98-5d9b-7704-b4ab-e7b48c8dc764","01990a84-c4ee-73c2-a87b-ff46a7d3dde5","2025-09-02_14h44.34.729",40.3741,43.371,43.3713,43.3713,43.3714,43.7243,0,1,1,0,1,7,30,TRUE,2,1.1668,NA,NA,NA,NA,NA,NA,NA,NA,NA,NA,NA,NA,NA,NA,0,2,"likert"
"026B393D91B54690840BE16795BF9EC4",1,"01990a98-5d9b-7704-b4ab-e7b48c8dc764","01990a84-c4ee-73c2-a87b-ff46a7d3dde5","2025-09-02_14h44.34.729",43.7274,46.7239,46.7243,46.7244,46.7245,47.0779,0,2,2,4,1,30,40,TRUE,4,0.0905,NA,NA,NA,NA,NA,NA,NA,NA,NA,NA,NA,NA,NA,NA,0,3,"likert"
"026B393D91B54690840BE16795BF9EC4",1,"01990a98-5d9b-7704-b4ab-e7b48c8dc764","01990a84-c4ee-73c2-a87b-ff46a7d3dde5","2025-09-02_14h44.34.729",47.0811,50.0781,50.0784,50.0785,50.0785,50.4113,0,3,3,2,1,14,45,TRUE,4,0.634,NA,NA,NA,NA,NA,NA,NA,NA,NA,NA,NA,NA,NA,NA,0,4,"likert"
"026B393D91B54690840BE16795BF9EC4",1,"01990a98-5d9b-7704-b4ab-e7b48c8dc764","01990a84-c4ee-73c2-a87b-ff46a7d3dde5","2025-09-02_14h44.34.729",50.4141,53.4308,53.431,53.431,53.4311,53.765,0,4,4,1,1,100,50,TRUE,5,1.4698,NA,NA,NA,NA,NA,NA,NA,NA,NA,NA,NA,NA,NA,NA,0,5,"likert"
"026B393D91B54690840BE16795BF9EC4",1,"01990a98-5d9b-7704-b4ab-e7b48c8dc764","01990a84-c4ee-73c2-a87b-ff46a7d3dde5","2025-09-02_14h44.34.729",NA,NA,81.8932,81.8933,81.8935,82.2404,NA,NA,NA,NA,NA,NA,NA,TRUE,4,1.0838,78.9592,81.8928,0,0,0,52,1,40,47,NA,NA,NA,NA,NA,1,1,"likert"
"026B393D91B54690840BE16795BF9EC4",1,"01990a98-5d9b-7704-b4ab-e7b48c8dc764","01990a84-c4ee-73c2-a87b-ff46a7d3dde5","2025-09-02_14h44.34.729",NA,NA,85.2417,85.242,85.2422,85.5735,NA,NA,NA,NA,NA,NA,NA,TRUE,2,1.5017,82.2435,85.2409,0,1,1,94,1,150,47,NA,NA,NA,NA,NA,1,2,"likert"
"026B393D91B54690840BE16795BF9EC4",1,"01990a98-5d9b-7704-b4ab-e7b48c8dc764","01990a84-c4ee-73c2-a87b-ff46a7d3dde5","2025-09-02_14h44.34.729",NA,NA,88.5727,88.5727,88.5727,88.9272,NA,NA,NA,NA,NA,NA,NA,TRUE,2,1.1314,85.5789,88.5726,0,2,2,20,1,14,28,NA,NA,NA,NA,NA,1,3,"likert"
"026B393D91B54690840BE16795BF9EC4",1,"01990a98-5d9b-7704-b4ab-e7b48c8dc764","01990a84-c4ee-73c2-a87b-ff46a7d3dde5","2025-09-02_14h44.34.729",NA,NA,91.9334,91.9334,91.9335,92.2818,NA,NA,NA,NA,NA,NA,NA,TRUE,2,1.078,88.9313,91.9331,0,3,3,27,1,21,30,NA,NA,NA,NA,NA,1,4,"likert"
"026B393D91B54690840BE16795BF9EC4",1,"01990a98-5d9b-7704-b4ab-e7b48c8dc764","01990a84-c4ee-73c2-a87b-ff46a7d3dde5","2025-09-02_14h44.34.729",NA,NA,95.2829,95.2835,95.2836,95.6356,NA,NA,NA,NA,NA,NA,NA,TRUE,2,2.959,92.2866,95.2816,0,4,4,36,1,28,26,NA,NA,NA,NA,NA,1,5,"likert"
"026B393D91B54690840BE16795BF9EC4",1,"01990a98-5d9b-7704-b4ab-e7b48c8dc764","01990a84-c4ee-73c2-a87b-ff46a7d3dde5","2025-09-02_14h44.34.729",NA,NA,98.6367,98.637,98.637,98.9893,NA,NA,NA,NA,NA,NA,NA,TRUE,2,0.0446,95.6399,98.6363,0,5,5,2,1,7,28,NA,NA,NA,NA,NA,1,6,"likert"
"026B393D91B54690840BE16795BF9EC4",1,"01990a98-5d9b-7704-b4ab-e7b48c8dc764","01990a84-c4ee-73c2-a87b-ff46a7d3dde5","2025-09-02_14h44.34.729",NA,NA,101.9765,101.9767,101.9767,102.343,NA,NA,NA,NA,NA,NA,NA,TRUE,2,0.0332,98.9928,101.9762,0,6,6,32,1,25,31,NA,NA,NA,NA,NA,1,7,"likert"
"026B393D91B54690840BE16795BF9EC4",1,"01990a98-5d9b-7704-b4ab-e7b48c8dc764","01990a84-c4ee-73c2-a87b-ff46a7d3dde5","2025-09-02_14h44.34.729",NA,NA,105.3231,105.324,105.3241,105.6762,NA,NA,NA,NA,NA,NA,NA,TRUE,2,0.0904,102.3474,105.3224,0,7,7,71,1,60,54,NA,NA,NA,NA,NA,1,8,"likert"
"026B393D91B54690840BE16795BF9EC4",1,"01990a98-5d9b-7704-b4ab-e7b48c8dc764","01990a84-c4ee-73c2-a87b-ff46a7d3dde5","2025-09-02_14h44.34.729",NA,NA,108.6769,108.6772,108.6773,109.0301,NA,NA,NA,NA,NA,NA,NA,TRUE,4,0.0442,105.681,108.6761,0,8,8,37,1,28,28,NA,NA,NA,NA,NA,1,9,"likert"
"026B393D91B54690840BE16795BF9EC4",1,"01990a98-5d9b-7704-b4ab-e7b48c8dc764","01990a84-c4ee-73c2-a87b-ff46a7d3dde5","2025-09-02_14h44.34.729",NA,NA,112.0309,112.0313,112.0314,112.3835,NA,NA,NA,NA,NA,NA,NA,TRUE,2,0.0087,109.0332,112.0301,0,9,9,51,1,40,40,NA,NA,NA,NA,NA,1,10,"likert"
"026B393D91B54690840BE16795BF9EC4",1,"01990a98-5d9b-7704-b4ab-e7b48c8dc764","01990a84-c4ee-73c2-a87b-ff46a7d3dde5","2025-09-02_14h44.34.729",NA,NA,115.3849,115.385,115.3852,115.7369,NA,NA,NA,NA,NA,NA,NA,TRUE,4,0.0017,112.3877,115.3841,0,10,10,13,1,12,26,NA,NA,NA,NA,NA,1,11,"likert"
"026B393D91B54690840BE16795BF9EC4",1,"01990a98-5d9b-7704-b4ab-e7b48c8dc764","01990a84-c4ee-73c2-a87b-ff46a7d3dde5","2025-09-02_14h44.34.729",NA,NA,118.7386,118.7389,118.7391,119.0919,NA,NA,NA,NA,NA,NA,NA,TRUE,4,0.1069,115.7413,118.7376,0,11,11,102,1,200,26,NA,NA,NA,NA,NA,1,12,"likert"
"026B393D91B54690840BE16795BF9EC4",1,"01990a98-5d9b-7704-b4ab-e7b48c8dc764","01990a84-c4ee-73c2-a87b-ff46a7d3dde5","2025-09-02_14h44.34.729",NA,NA,122.0916,122.092,122.0922,122.4249,NA,NA,NA,NA,NA,NA,NA,TRUE,4,0.0144,119.0967,122.0909,0,12,12,86,1,100,38,NA,NA,NA,NA,NA,1,13,"likert"
"026B393D91B54690840BE16795BF9EC4",1,"01990a98-5d9b-7704-b4ab-e7b48c8dc764","01990a84-c4ee-73c2-a87b-ff46a7d3dde5","2025-09-02_14h44.34.729",NA,NA,125.4248,125.4249,125.425,125.7784,NA,NA,NA,NA,NA,NA,NA,TRUE,2,1.2571,122.4303,125.4241,0,13,13,9,1,10,29,NA,NA,NA,NA,NA,1,14,"likert"
"026B393D91B54690840BE16795BF9EC4",1,"01990a98-5d9b-7704-b4ab-e7b48c8dc764","01990a84-c4ee-73c2-a87b-ff46a7d3dde5","2025-09-02_14h44.34.729",NA,NA,128.7787,128.7789,128.779,129.1312,NA,NA,NA,NA,NA,NA,NA,TRUE,2,1.337,125.7829,128.778,0,14,14,97,1,180,31,NA,NA,NA,NA,NA,1,15,"likert"
"026B393D91B54690840BE16795BF9EC4",1,"01990a98-5d9b-7704-b4ab-e7b48c8dc764","01990a84-c4ee-73c2-a87b-ff46a7d3dde5","2025-09-02_14h44.34.729",NA,NA,132.1311,132.1313,132.1314,132.4857,NA,NA,NA,NA,NA,NA,NA,TRUE,2,1.5311,129.1342,132.1306,0,15,15,22,1,14,35,NA,NA,NA,NA,NA,1,16,"likert"
"026B393D91B54690840BE16795BF9EC4",1,"01990a98-5d9b-7704-b4ab-e7b48c8dc764","01990a84-c4ee-73c2-a87b-ff46a7d3dde5","2025-09-02_14h44.34.729",NA,NA,135.4858,135.4859,135.486,135.839,NA,NA,NA,NA,NA,NA,NA,TRUE,4,0.876,132.4888,135.4853,0,16,16,106,1,200,47,NA,NA,NA,NA,NA,1,17,"likert"
"026B393D91B54690840BE16795BF9EC4",1,"01990a98-5d9b-7704-b4ab-e7b48c8dc764","01990a84-c4ee-73c2-a87b-ff46a7d3dde5","2025-09-02_14h44.34.729",NA,NA,138.8402,138.8404,138.8405,139.1938,NA,NA,NA,NA,NA,NA,NA,TRUE,2,0.7937,135.8427,138.8391,0,17,17,104,1,200,35,NA,NA,NA,NA,NA,1,18,"likert"
"026B393D91B54690840BE16795BF9EC4",1,"01990a98-5d9b-7704-b4ab-e7b48c8dc764","01990a84-c4ee-73c2-a87b-ff46a7d3dde5","2025-09-02_14h44.34.729",NA,NA,142.1936,142.1943,142.1944,142.526,NA,NA,NA,NA,NA,NA,NA,TRUE,4,1.0733,139.1973,142.1928,0,18,18,73,1,90,30,NA,NA,NA,NA,NA,1,19,"likert"
"026B393D91B54690840BE16795BF9EC4",1,"01990a98-5d9b-7704-b4ab-e7b48c8dc764","01990a84-c4ee-73c2-a87b-ff46a7d3dde5","2025-09-02_14h44.34.729",NA,NA,145.5261,145.5262,145.5263,145.8801,NA,NA,NA,NA,NA,NA,NA,TRUE,2,0.0099,142.5296,145.5256,0,19,19,10,1,10,30,NA,NA,NA,NA,NA,1,20,"likert"
"026B393D91B54690840BE16795BF9EC4",1,"01990a98-5d9b-7704-b4ab-e7b48c8dc764","01990a84-c4ee-73c2-a87b-ff46a7d3dde5","2025-09-02_14h44.34.729",NA,NA,148.881,148.8811,148.8812,149.2341,NA,NA,NA,NA,NA,NA,NA,TRUE,2,0.0464,145.8838,148.8806,0,20,20,44,1,30,29,NA,NA,NA,NA,NA,1,21,"likert"
"026B393D91B54690840BE16795BF9EC4",1,"01990a98-5d9b-7704-b4ab-e7b48c8dc764","01990a84-c4ee-73c2-a87b-ff46a7d3dde5","2025-09-02_14h44.34.729",NA,NA,152.2344,152.2345,152.2345,152.5877,NA,NA,NA,NA,NA,NA,NA,TRUE,4,0.0909,149.239,152.234,0,21,21,60,1,50,27,NA,NA,NA,NA,NA,1,22,"likert"
"026B393D91B54690840BE16795BF9EC4",1,"01990a98-5d9b-7704-b4ab-e7b48c8dc764","01990a84-c4ee-73c2-a87b-ff46a7d3dde5","2025-09-02_14h44.34.729",NA,NA,155.5889,155.5894,155.5895,155.9424,NA,NA,NA,NA,NA,NA,NA,TRUE,2,2.3979,152.5906,155.5879,0,22,22,93,1,150,40,NA,NA,NA,NA,NA,1,23,"likert"
"026B393D91B54690840BE16795BF9EC4",1,"01990a98-5d9b-7704-b4ab-e7b48c8dc764","01990a84-c4ee-73c2-a87b-ff46a7d3dde5","2025-09-02_14h44.34.729",NA,NA,158.9418,158.9422,158.9422,159.275,NA,NA,NA,NA,NA,NA,NA,TRUE,2,1.1281,155.948,158.9414,0,23,23,81,1,95,40,NA,NA,NA,NA,NA,1,24,"likert"
"026B393D91B54690840BE16795BF9EC4",1,"01990a98-5d9b-7704-b4ab-e7b48c8dc764","01990a84-c4ee-73c2-a87b-ff46a7d3dde5","2025-09-02_14h44.34.729",NA,NA,162.2747,162.2748,162.2751,162.628,NA,NA,NA,NA,NA,NA,NA,TRUE,2,1.6913,159.2788,162.2741,0,24,24,88,1,100,46,NA,NA,NA,NA,NA,1,25,"likert"
"026B393D91B54690840BE16795BF9EC4",1,"01990a98-5d9b-7704-b4ab-e7b48c8dc764","01990a84-c4ee-73c2-a87b-ff46a7d3dde5","2025-09-02_14h44.34.729",NA,NA,165.6286,165.6288,165.6288,165.9821,NA,NA,NA,NA,NA,NA,NA,TRUE,1,1.7391,162.632,165.6281,0,25,25,69,1,60,40,NA,NA,NA,NA,NA,1,26,"likert"
"026B393D91B54690840BE16795BF9EC4",1,"01990a98-5d9b-7704-b4ab-e7b48c8dc764","01990a84-c4ee-73c2-a87b-ff46a7d3dde5","2025-09-02_14h44.34.729",NA,NA,168.9819,168.9819,168.982,169.3354,NA,NA,NA,NA,NA,NA,NA,TRUE,1,1.386,165.9855,168.9814,0,26,26,74,1,90,33,NA,NA,NA,NA,NA,1,27,"likert"
"026B393D91B54690840BE16795BF9EC4",1,"01990a98-5d9b-7704-b4ab-e7b48c8dc764","01990a84-c4ee-73c2-a87b-ff46a7d3dde5","2025-09-02_14h44.34.729",NA,NA,172.3356,172.3358,172.3358,172.6894,NA,NA,NA,NA,NA,NA,NA,TRUE,2,1.4032,169.3393,172.3352,0,27,27,89,1,100,54,NA,NA,NA,NA,NA,1,28,"likert"
"026B393D91B54690840BE16795BF9EC4",1,"01990a98-5d9b-7704-b4ab-e7b48c8dc764","01990a84-c4ee-73c2-a87b-ff46a7d3dde5","2025-09-02_14h44.34.729",NA,NA,175.6894,175.6899,175.6902,176.0427,NA,NA,NA,NA,NA,NA,NA,TRUE,1,1.2564,172.6923,175.6885,0,28,28,92,1,150,35,NA,NA,NA,NA,NA,1,29,"likert"
"026B393D91B54690840BE16795BF9EC4",1,"01990a98-5d9b-7704-b4ab-e7b48c8dc764","01990a84-c4ee-73c2-a87b-ff46a7d3dde5","2025-09-02_14h44.34.729",NA,NA,179.0226,179.0226,179.0226,179.3762,NA,NA,NA,NA,NA,NA,NA,TRUE,2,1.649,176.048,179.0221,0,29,29,56,1,45,31,NA,NA,NA,NA,NA,1,30,"likert"
"026B393D91B54690840BE16795BF9EC4",1,"01990a98-5d9b-7704-b4ab-e7b48c8dc764","01990a84-c4ee-73c2-a87b-ff46a7d3dde5","2025-09-02_14h44.34.729",NA,NA,182.3764,182.3764,182.3765,182.7299,NA,NA,NA,NA,NA,NA,NA,TRUE,2,1.3349,179.3793,182.3759,0,30,30,83,1,95,54,NA,NA,NA,NA,NA,1,31,"likert"
"026B393D91B54690840BE16795BF9EC4",1,"01990a98-5d9b-7704-b4ab-e7b48c8dc764","01990a84-c4ee-73c2-a87b-ff46a7d3dde5","2025-09-02_14h44.34.729",NA,NA,185.7302,185.7303,185.7304,186.0838,NA,NA,NA,NA,NA,NA,NA,TRUE,2,1.2943,182.7336,185.7299,0,31,31,84,1,100,26,NA,NA,NA,NA,NA,1,32,"likert"
"026B393D91B54690840BE16795BF9EC4",1,"01990a98-5d9b-7704-b4ab-e7b48c8dc764","01990a84-c4ee-73c2-a87b-ff46a7d3dde5","2025-09-02_14h44.34.729",NA,NA,189.0848,189.0852,189.0853,189.4379,NA,NA,NA,NA,NA,NA,NA,TRUE,4,0.881,186.0874,189.0836,0,32,32,65,1,50,54,NA,NA,NA,NA,NA,1,33,"likert"
"026B393D91B54690840BE16795BF9EC4",1,"01990a98-5d9b-7704-b4ab-e7b48c8dc764","01990a84-c4ee-73c2-a87b-ff46a7d3dde5","2025-09-02_14h44.34.729",NA,NA,192.437,192.4372,192.4375,192.7913,NA,NA,NA,NA,NA,NA,NA,TRUE,2,0.8643,189.4418,192.4366,0,33,33,34,1,25,35,NA,NA,NA,NA,NA,1,34,"likert"
"026B393D91B54690840BE16795BF9EC4",1,"01990a98-5d9b-7704-b4ab-e7b48c8dc764","01990a84-c4ee-73c2-a87b-ff46a7d3dde5","2025-09-02_14h44.34.729",NA,NA,195.7909,195.7911,195.7913,196.1241,NA,NA,NA,NA,NA,NA,NA,TRUE,2,1.0119,192.7947,195.7902,0,34,34,59,1,45,46,NA,NA,NA,NA,NA,1,35,"likert"
"026B393D91B54690840BE16795BF9EC4",1,"01990a98-5d9b-7704-b4ab-e7b48c8dc764","01990a84-c4ee-73c2-a87b-ff46a7d3dde5","2025-09-02_14h44.34.729",NA,NA,199.125,199.1252,199.1252,199.477,NA,NA,NA,NA,NA,NA,NA,TRUE,2,0.6678,196.1274,199.1241,0,35,35,31,1,25,29,NA,NA,NA,NA,NA,1,36,"likert"
"026B393D91B54690840BE16795BF9EC4",1,"01990a98-5d9b-7704-b4ab-e7b48c8dc764","01990a84-c4ee-73c2-a87b-ff46a7d3dde5","2025-09-02_14h44.34.729",NA,NA,202.4779,202.478,202.478,202.832,NA,NA,NA,NA,NA,NA,NA,TRUE,2,1.1403,199.4813,202.4774,0,36,36,67,1,60,33,NA,NA,NA,NA,NA,1,37,"likert"
"026B393D91B54690840BE16795BF9EC4",1,"01990a98-5d9b-7704-b4ab-e7b48c8dc764","01990a84-c4ee-73c2-a87b-ff46a7d3dde5","2025-09-02_14h44.34.729",NA,NA,205.8327,205.8329,205.8329,206.1859,NA,NA,NA,NA,NA,NA,NA,TRUE,2,1.6762,202.8353,205.832,0,37,37,23,1,14,39,NA,NA,NA,NA,NA,1,38,"likert"
"026B393D91B54690840BE16795BF9EC4",1,"01990a98-5d9b-7704-b4ab-e7b48c8dc764","01990a84-c4ee-73c2-a87b-ff46a7d3dde5","2025-09-02_14h44.34.729",NA,NA,209.1864,209.1865,209.1866,209.5398,NA,NA,NA,NA,NA,NA,NA,TRUE,4,2.0733,206.1893,209.1858,0,38,38,53,1,40,54,NA,NA,NA,NA,NA,1,39,"likert"
"026B393D91B54690840BE16795BF9EC4",1,"01990a98-5d9b-7704-b4ab-e7b48c8dc764","01990a84-c4ee-73c2-a87b-ff46a7d3dde5","2025-09-02_14h44.34.729",NA,NA,212.5399,212.5401,212.5402,212.873,NA,NA,NA,NA,NA,NA,NA,TRUE,2,1.7519,209.5441,212.5394,0,39,39,100,1,180,46,NA,NA,NA,NA,NA,1,40,"likert"
"026B393D91B54690840BE16795BF9EC4",1,"01990a98-5d9b-7704-b4ab-e7b48c8dc764","01990a84-c4ee-73c2-a87b-ff46a7d3dde5","2025-09-02_14h44.34.729",NA,NA,215.8727,215.8728,215.8728,216.2257,NA,NA,NA,NA,NA,NA,NA,TRUE,2,1.2368,212.877,215.8722,0,40,40,26,1,21,29,NA,NA,NA,NA,NA,1,41,"likert"
"026B393D91B54690840BE16795BF9EC4",1,"01990a98-5d9b-7704-b4ab-e7b48c8dc764","01990a84-c4ee-73c2-a87b-ff46a7d3dde5","2025-09-02_14h44.34.729",NA,NA,219.2265,219.2266,219.2266,219.5793,NA,NA,NA,NA,NA,NA,NA,TRUE,4,1.392,216.2298,219.2261,0,41,41,87,1,100,39,NA,NA,NA,NA,NA,1,42,"likert"
"026B393D91B54690840BE16795BF9EC4",1,"01990a98-5d9b-7704-b4ab-e7b48c8dc764","01990a84-c4ee-73c2-a87b-ff46a7d3dde5","2025-09-02_14h44.34.729",NA,NA,222.5809,222.5809,222.5811,222.934,NA,NA,NA,NA,NA,NA,NA,TRUE,4,1.2115,219.583,222.5804,0,42,42,5,1,7,35,NA,NA,NA,NA,NA,1,43,"likert"
"026B393D91B54690840BE16795BF9EC4",1,"01990a98-5d9b-7704-b4ab-e7b48c8dc764","01990a84-c4ee-73c2-a87b-ff46a7d3dde5","2025-09-02_14h44.34.729",NA,NA,225.9333,225.9334,225.9335,226.2879,NA,NA,NA,NA,NA,NA,NA,TRUE,2,1.1689,222.9375,225.9328,0,43,43,72,1,90,26,NA,NA,NA,NA,NA,1,44,"likert"
"026B393D91B54690840BE16795BF9EC4",1,"01990a98-5d9b-7704-b4ab-e7b48c8dc764","01990a84-c4ee-73c2-a87b-ff46a7d3dde5","2025-09-02_14h44.34.729",NA,NA,229.2951,229.2951,229.2953,229.6404,NA,NA,NA,NA,NA,NA,NA,TRUE,2,1.3765,226.2914,229.2947,0,44,44,1,1,7,26,NA,NA,NA,NA,NA,1,45,"likert"
"026B393D91B54690840BE16795BF9EC4",1,"01990a98-5d9b-7704-b4ab-e7b48c8dc764","01990a84-c4ee-73c2-a87b-ff46a7d3dde5","2025-09-02_14h44.34.729",NA,NA,232.641,232.6412,232.6412,232.9743,NA,NA,NA,NA,NA,NA,NA,TRUE,2,1.5512,229.6445,232.6405,0,45,45,75,1,90,40,NA,NA,NA,NA,NA,1,46,"likert"
"026B393D91B54690840BE16795BF9EC4",1,"01990a98-5d9b-7704-b4ab-e7b48c8dc764","01990a84-c4ee-73c2-a87b-ff46a7d3dde5","2025-09-02_14h44.34.729",NA,NA,235.9751,235.9752,235.9753,236.3283,NA,NA,NA,NA,NA,NA,NA,TRUE,2,1.3777,232.9781,235.9746,0,46,46,30,1,25,27,NA,NA,NA,NA,NA,1,47,"likert"
"026B393D91B54690840BE16795BF9EC4",1,"01990a98-5d9b-7704-b4ab-e7b48c8dc764","01990a84-c4ee-73c2-a87b-ff46a7d3dde5","2025-09-02_14h44.34.729",NA,NA,239.3278,239.3278,239.328,239.6819,NA,NA,NA,NA,NA,NA,NA,TRUE,2,1.0282,236.3321,239.3271,0,47,47,46,1,30,32,NA,NA,NA,NA,NA,1,48,"likert"
"026B393D91B54690840BE16795BF9EC4",1,"01990a98-5d9b-7704-b4ab-e7b48c8dc764","01990a84-c4ee-73c2-a87b-ff46a7d3dde5","2025-09-02_14h44.34.729",NA,NA,242.683,242.6832,242.6833,243.0358,NA,NA,NA,NA,NA,NA,NA,TRUE,2,1.3146,239.6859,242.6825,0,48,48,54,1,45,26,NA,NA,NA,NA,NA,1,49,"likert"
"026B393D91B54690840BE16795BF9EC4",1,"01990a98-5d9b-7704-b4ab-e7b48c8dc764","01990a84-c4ee-73c2-a87b-ff46a7d3dde5","2025-09-02_14h44.34.729",NA,NA,246.0366,246.0368,246.0368,246.3899,NA,NA,NA,NA,NA,NA,NA,TRUE,1,1.1476,243.0394,246.0359,0,49,49,43,1,30,27,NA,NA,NA,NA,NA,1,50,"likert"
"026B393D91B54690840BE16795BF9EC4",1,"01990a98-5d9b-7704-b4ab-e7b48c8dc764","01990a84-c4ee-73c2-a87b-ff46a7d3dde5","2025-09-02_14h44.34.729",NA,NA,249.3894,249.3896,249.3897,249.7221,NA,NA,NA,NA,NA,NA,NA,TRUE,2,2.2689,246.3939,249.3889,0,50,50,58,1,45,40,NA,NA,NA,NA,NA,1,51,"likert"
"026B393D91B54690840BE16795BF9EC4",1,"01990a98-5d9b-7704-b4ab-e7b48c8dc764","01990a84-c4ee-73c2-a87b-ff46a7d3dde5","2025-09-02_14h44.34.729",NA,NA,252.7229,252.7231,252.7231,253.0763,NA,NA,NA,NA,NA,NA,NA,TRUE,4,1.6532,249.7263,252.7225,0,51,51,41,1,28,46,NA,NA,NA,NA,NA,1,52,"likert"
"026B393D91B54690840BE16795BF9EC4",1,"01990a98-5d9b-7704-b4ab-e7b48c8dc764","01990a84-c4ee-73c2-a87b-ff46a7d3dde5","2025-09-02_14h44.34.729",NA,NA,256.0765,256.0766,256.0766,256.4302,NA,NA,NA,NA,NA,NA,NA,TRUE,2,1.3454,253.08,256.0756,0,52,52,91,1,150,33,NA,NA,NA,NA,NA,1,53,"likert"
"026B393D91B54690840BE16795BF9EC4",1,"01990a98-5d9b-7704-b4ab-e7b48c8dc764","01990a84-c4ee-73c2-a87b-ff46a7d3dde5","2025-09-02_14h44.34.729",NA,NA,259.4303,259.4303,259.4304,259.7837,NA,NA,NA,NA,NA,NA,NA,TRUE,2,1.2389,256.4339,259.4298,0,53,53,14,1,12,28,NA,NA,NA,NA,NA,1,54,"likert"
"026B393D91B54690840BE16795BF9EC4",1,"01990a98-5d9b-7704-b4ab-e7b48c8dc764","01990a84-c4ee-73c2-a87b-ff46a7d3dde5","2025-09-02_14h44.34.729",NA,NA,262.7845,262.7847,262.7849,263.1372,NA,NA,NA,NA,NA,NA,NA,TRUE,4,1.0845,259.7878,262.7839,0,54,54,76,1,90,46,NA,NA,NA,NA,NA,1,55,"likert"
"026B393D91B54690840BE16795BF9EC4",1,"01990a98-5d9b-7704-b4ab-e7b48c8dc764","01990a84-c4ee-73c2-a87b-ff46a7d3dde5","2025-09-02_14h44.34.729",NA,NA,266.1378,266.1384,266.1386,266.4911,NA,NA,NA,NA,NA,NA,NA,TRUE,2,1.2943,263.1414,266.1372,0,55,55,47,1,30,38,NA,NA,NA,NA,NA,1,56,"likert"
"026B393D91B54690840BE16795BF9EC4",1,"01990a98-5d9b-7704-b4ab-e7b48c8dc764","01990a84-c4ee-73c2-a87b-ff46a7d3dde5","2025-09-02_14h44.34.729",NA,NA,269.492,269.4924,269.4925,269.8238,NA,NA,NA,NA,NA,NA,NA,TRUE,4,1.2962,266.4954,269.4911,0,56,56,107,1,200,54,NA,NA,NA,NA,NA,1,57,"likert"
"026B393D91B54690840BE16795BF9EC4",1,"01990a98-5d9b-7704-b4ab-e7b48c8dc764","01990a84-c4ee-73c2-a87b-ff46a7d3dde5","2025-09-02_14h44.34.729",NA,NA,272.8241,272.8241,272.8242,273.1777,NA,NA,NA,NA,NA,NA,NA,TRUE,4,1.6715,269.8282,272.8236,0,57,57,57,1,45,35,NA,NA,NA,NA,NA,1,58,"likert"
"026B393D91B54690840BE16795BF9EC4",1,"01990a98-5d9b-7704-b4ab-e7b48c8dc764","01990a84-c4ee-73c2-a87b-ff46a7d3dde5","2025-09-02_14h44.34.729",NA,NA,276.1791,276.1793,276.1794,276.5323,NA,NA,NA,NA,NA,NA,NA,TRUE,2,1.2943,273.1819,276.1782,0,58,58,4,1,7,32,NA,NA,NA,NA,NA,1,59,"likert"
"026B393D91B54690840BE16795BF9EC4",1,"01990a98-5d9b-7704-b4ab-e7b48c8dc764","01990a84-c4ee-73c2-a87b-ff46a7d3dde5","2025-09-02_14h44.34.729",NA,NA,279.5327,279.533,279.5331,279.8857,NA,NA,NA,NA,NA,NA,NA,TRUE,2,1.0314,276.5353,279.5315,0,59,59,68,1,60,35,NA,NA,NA,NA,NA,1,60,"likert"
"026B393D91B54690840BE16795BF9EC4",1,"01990a98-5d9b-7704-b4ab-e7b48c8dc764","01990a84-c4ee-73c2-a87b-ff46a7d3dde5","2025-09-02_14h44.34.729",NA,NA,282.8861,282.8863,282.8865,283.2397,NA,NA,NA,NA,NA,NA,NA,TRUE,4,1.6763,279.8893,282.8856,0,60,60,15,1,12,31,NA,NA,NA,NA,NA,1,61,"likert"
"026B393D91B54690840BE16795BF9EC4",1,"01990a98-5d9b-7704-b4ab-e7b48c8dc764","01990a84-c4ee-73c2-a87b-ff46a7d3dde5","2025-09-02_14h44.34.729",NA,NA,286.2397,286.2401,286.2403,286.5728,NA,NA,NA,NA,NA,NA,NA,TRUE,2,1.5484,283.2439,286.2388,0,61,61,105,1,200,39,NA,NA,NA,NA,NA,1,62,"likert"
"026B393D91B54690840BE16795BF9EC4",1,"01990a98-5d9b-7704-b4ab-e7b48c8dc764","01990a84-c4ee-73c2-a87b-ff46a7d3dde5","2025-09-02_14h44.34.729",NA,NA,289.593,289.5934,289.5937,289.9257,NA,NA,NA,NA,NA,NA,NA,TRUE,2,1.5017,286.5763,289.5921,0,62,62,55,1,45,29,NA,NA,NA,NA,NA,1,63,"likert"
"026B393D91B54690840BE16795BF9EC4",1,"01990a98-5d9b-7704-b4ab-e7b48c8dc764","01990a84-c4ee-73c2-a87b-ff46a7d3dde5","2025-09-02_14h44.34.729",NA,NA,292.9259,292.9262,292.9263,293.279,NA,NA,NA,NA,NA,NA,NA,TRUE,2,1.7014,289.9295,292.9251,0,63,63,45,1,30,30,NA,NA,NA,NA,NA,1,64,"likert"
"026B393D91B54690840BE16795BF9EC4",1,"01990a98-5d9b-7704-b4ab-e7b48c8dc764","01990a84-c4ee-73c2-a87b-ff46a7d3dde5","2025-09-02_14h44.34.729",NA,NA,296.2805,296.2807,296.2808,296.635,NA,NA,NA,NA,NA,NA,NA,TRUE,2,1.9279,293.2828,296.2798,0,64,64,38,1,28,32,NA,NA,NA,NA,NA,1,65,"likert"
"026B393D91B54690840BE16795BF9EC4",1,"01990a98-5d9b-7704-b4ab-e7b48c8dc764","01990a84-c4ee-73c2-a87b-ff46a7d3dde5","2025-09-02_14h44.34.729",NA,NA,299.6329,299.6329,299.633,299.9867,NA,NA,NA,NA,NA,NA,NA,TRUE,5,2.0015,296.638,299.6324,0,65,65,64,1,50,46,NA,NA,NA,NA,NA,1,66,"likert"
"026B393D91B54690840BE16795BF9EC4",1,"01990a98-5d9b-7704-b4ab-e7b48c8dc764","01990a84-c4ee-73c2-a87b-ff46a7d3dde5","2025-09-02_14h44.34.729",NA,NA,302.9864,302.9866,302.9867,303.3401,NA,NA,NA,NA,NA,NA,NA,TRUE,1,2.6174,299.9904,302.9861,0,66,66,42,1,30,26,NA,NA,NA,NA,NA,1,67,"likert"
"026B393D91B54690840BE16795BF9EC4",1,"01990a98-5d9b-7704-b4ab-e7b48c8dc764","01990a84-c4ee-73c2-a87b-ff46a7d3dde5","2025-09-02_14h44.34.729",NA,NA,306.3406,306.3407,306.3409,306.6732,NA,NA,NA,NA,NA,NA,NA,TRUE,1,1.3545,303.3439,306.3401,0,67,67,7,1,10,26,NA,NA,NA,NA,NA,1,68,"likert"
"026B393D91B54690840BE16795BF9EC4",1,"01990a98-5d9b-7704-b4ab-e7b48c8dc764","01990a84-c4ee-73c2-a87b-ff46a7d3dde5","2025-09-02_14h44.34.729",NA,NA,309.6735,309.6736,309.6737,310.027,NA,NA,NA,NA,NA,NA,NA,TRUE,1,0.9467,306.6765,309.6729,0,68,68,85,1,100,31,NA,NA,NA,NA,NA,1,69,"likert"
"026B393D91B54690840BE16795BF9EC4",1,"01990a98-5d9b-7704-b4ab-e7b48c8dc764","01990a84-c4ee-73c2-a87b-ff46a7d3dde5","2025-09-02_14h44.34.729",NA,NA,313.0282,313.0284,313.0285,313.381,NA,NA,NA,NA,NA,NA,NA,TRUE,1,1.1073,310.0307,313.0273,0,69,69,49,1,40,33,NA,NA,NA,NA,NA,1,70,"likert"
"026B393D91B54690840BE16795BF9EC4",1,"01990a98-5d9b-7704-b4ab-e7b48c8dc764","01990a84-c4ee-73c2-a87b-ff46a7d3dde5","2025-09-02_14h44.34.729",NA,NA,316.3829,316.383,316.3831,316.7352,NA,NA,NA,NA,NA,NA,NA,TRUE,3,2.1486,313.3849,316.3813,0,70,70,29,1,21,38,NA,NA,NA,NA,NA,1,71,"likert"
"026B393D91B54690840BE16795BF9EC4",1,"01990a98-5d9b-7704-b4ab-e7b48c8dc764","01990a84-c4ee-73c2-a87b-ff46a7d3dde5","2025-09-02_14h44.34.729",NA,NA,319.7368,319.737,319.737,320.0886,NA,NA,NA,NA,NA,NA,NA,TRUE,5,2.2825,316.74,319.7362,0,71,71,82,1,95,47,NA,NA,NA,NA,NA,1,72,"likert"
"026B393D91B54690840BE16795BF9EC4",1,"01990a98-5d9b-7704-b4ab-e7b48c8dc764","01990a84-c4ee-73c2-a87b-ff46a7d3dde5","2025-09-02_14h44.34.729",NA,NA,323.0734,323.0735,323.0735,323.4271,NA,NA,NA,NA,NA,NA,NA,TRUE,2,1.4401,320.0934,323.0733,0,72,72,66,1,60,29,NA,NA,NA,NA,NA,1,73,"likert"
"026B393D91B54690840BE16795BF9EC4",1,"01990a98-5d9b-7704-b4ab-e7b48c8dc764","01990a84-c4ee-73c2-a87b-ff46a7d3dde5","2025-09-02_14h44.34.729",NA,NA,326.4284,326.4284,326.4284,326.7821,NA,NA,NA,NA,NA,NA,NA,TRUE,1,1.0003,323.4281,326.4282,0,73,73,90,1,150,31,NA,NA,NA,NA,NA,1,74,"likert"
"026B393D91B54690840BE16795BF9EC4",1,"01990a98-5d9b-7704-b4ab-e7b48c8dc764","01990a84-c4ee-73c2-a87b-ff46a7d3dde5","2025-09-02_14h44.34.729",NA,NA,329.7825,329.7825,329.7826,330.1369,NA,NA,NA,NA,NA,NA,NA,TRUE,1,1.1471,326.7831,329.7822,0,74,74,79,1,95,33,NA,NA,NA,NA,NA,1,75,"likert"
"026B393D91B54690840BE16795BF9EC4",1,"01990a98-5d9b-7704-b4ab-e7b48c8dc764","01990a84-c4ee-73c2-a87b-ff46a7d3dde5","2025-09-02_14h44.34.729",NA,NA,333.137,333.137,333.137,333.4899,NA,NA,NA,NA,NA,NA,NA,TRUE,1,2.0218,330.1387,333.1368,0,75,75,70,1,60,47,NA,NA,NA,NA,NA,1,76,"likert"
"026B393D91B54690840BE16795BF9EC4",1,"01990a98-5d9b-7704-b4ab-e7b48c8dc764","01990a84-c4ee-73c2-a87b-ff46a7d3dde5","2025-09-02_14h44.34.729",NA,NA,336.4894,336.7395,336.7395,336.8221,NA,NA,NA,NA,NA,NA,NA,FALSE,NA,NA,333.4918,336.4893,0,76,76,40,1,28,39,NA,NA,NA,NA,NA,1,77,"likert"
"026B393D91B54690840BE16795BF9EC4",1,"01990a98-5d9b-7704-b4ab-e7b48c8dc764","01990a84-c4ee-73c2-a87b-ff46a7d3dde5","2025-09-02_14h44.34.729",NA,NA,339.8227,339.8228,339.8228,340.1765,NA,NA,NA,NA,NA,NA,NA,TRUE,1,1.6887,336.8233,339.8225,0,77,77,8,1,10,27,NA,NA,NA,NA,NA,1,78,"likert"
"026B393D91B54690840BE16795BF9EC4",1,"01990a98-5d9b-7704-b4ab-e7b48c8dc764","01990a84-c4ee-73c2-a87b-ff46a7d3dde5","2025-09-02_14h44.34.729",NA,NA,343.176,343.1761,343.1761,343.5303,NA,NA,NA,NA,NA,NA,NA,TRUE,3,1.9384,340.1775,343.1759,0,78,78,63,1,50,40,NA,NA,NA,NA,NA,1,79,"likert"
"026B393D91B54690840BE16795BF9EC4",1,"01990a98-5d9b-7704-b4ab-e7b48c8dc764","01990a84-c4ee-73c2-a87b-ff46a7d3dde5","2025-09-02_14h44.34.729",NA,NA,346.5316,346.5317,346.5317,346.8845,NA,NA,NA,NA,NA,NA,NA,TRUE,4,2.2709,343.5315,346.5313,0,79,79,50,1,40,35,NA,NA,NA,NA,NA,1,80,"likert"
"026B393D91B54690840BE16795BF9EC4",1,"01990a98-5d9b-7704-b4ab-e7b48c8dc764","01990a84-c4ee-73c2-a87b-ff46a7d3dde5","2025-09-02_14h44.34.729",NA,NA,349.8848,349.8848,349.8849,350.2384,NA,NA,NA,NA,NA,NA,NA,TRUE,2,2.542,346.8862,349.8845,0,80,80,96,1,180,27,NA,NA,NA,NA,NA,1,81,"likert"
"026B393D91B54690840BE16795BF9EC4",1,"01990a98-5d9b-7704-b4ab-e7b48c8dc764","01990a84-c4ee-73c2-a87b-ff46a7d3dde5","2025-09-02_14h44.34.729",NA,NA,353.2392,353.2394,353.2395,353.5724,NA,NA,NA,NA,NA,NA,NA,TRUE,2,1.3137,350.2402,353.2391,0,81,81,11,1,10,32,NA,NA,NA,NA,NA,1,82,"likert"
"026B393D91B54690840BE16795BF9EC4",1,"01990a98-5d9b-7704-b4ab-e7b48c8dc764","01990a84-c4ee-73c2-a87b-ff46a7d3dde5","2025-09-02_14h44.34.729",NA,NA,356.572,356.5721,356.5721,356.925,NA,NA,NA,NA,NA,NA,NA,TRUE,3,0.3137,353.574,356.5717,0,82,82,80,1,95,35,NA,NA,NA,NA,NA,1,83,"likert"
"026B393D91B54690840BE16795BF9EC4",1,"01990a98-5d9b-7704-b4ab-e7b48c8dc764","01990a84-c4ee-73c2-a87b-ff46a7d3dde5","2025-09-02_14h44.34.729",NA,NA,359.9242,359.9243,359.9243,360.2783,NA,NA,NA,NA,NA,NA,NA,TRUE,2,0.272,356.926,359.924,0,83,83,12,1,12,25,NA,NA,NA,NA,NA,1,84,"likert"
"026B393D91B54690840BE16795BF9EC4",1,"01990a98-5d9b-7704-b4ab-e7b48c8dc764","01990a84-c4ee-73c2-a87b-ff46a7d3dde5","2025-09-02_14h44.34.729",NA,NA,363.2786,363.2786,363.2787,363.6327,NA,NA,NA,NA,NA,NA,NA,TRUE,2,0.9176,360.2796,363.2785,0,84,84,61,1,50,30,NA,NA,NA,NA,NA,1,85,"likert"
"026B393D91B54690840BE16795BF9EC4",1,"01990a98-5d9b-7704-b4ab-e7b48c8dc764","01990a84-c4ee-73c2-a87b-ff46a7d3dde5","2025-09-02_14h44.34.729",NA,NA,366.6334,366.6334,366.6335,366.9863,NA,NA,NA,NA,NA,NA,NA,TRUE,2,0.3767,363.634,366.6332,0,85,85,77,1,90,54,NA,NA,NA,NA,NA,1,86,"likert"
"026B393D91B54690840BE16795BF9EC4",1,"01990a98-5d9b-7704-b4ab-e7b48c8dc764","01990a84-c4ee-73c2-a87b-ff46a7d3dde5","2025-09-02_14h44.34.729",NA,NA,369.9875,369.9877,369.9878,370.3408,NA,NA,NA,NA,NA,NA,NA,TRUE,2,0.1466,366.9873,369.9872,0,86,86,0,1,7,25,NA,NA,NA,NA,NA,1,87,"likert"
"026B393D91B54690840BE16795BF9EC4",1,"01990a98-5d9b-7704-b4ab-e7b48c8dc764","01990a84-c4ee-73c2-a87b-ff46a7d3dde5","2025-09-02_14h44.34.729",NA,NA,373.3408,373.3409,373.341,373.674,NA,NA,NA,NA,NA,NA,NA,TRUE,4,0.1882,370.3429,373.3405,0,87,87,3,1,7,30,NA,NA,NA,NA,NA,1,88,"likert"
"026B393D91B54690840BE16795BF9EC4",1,"01990a98-5d9b-7704-b4ab-e7b48c8dc764","01990a84-c4ee-73c2-a87b-ff46a7d3dde5","2025-09-02_14h44.34.729",NA,NA,376.687,376.6871,376.6871,377.0415,NA,NA,NA,NA,NA,NA,NA,TRUE,4,0.0632,373.676,376.6867,0,88,88,62,1,50,35,NA,NA,NA,NA,NA,1,89,"likert"
"026B393D91B54690840BE16795BF9EC4",1,"01990a98-5d9b-7704-b4ab-e7b48c8dc764","01990a84-c4ee-73c2-a87b-ff46a7d3dde5","2025-09-02_14h44.34.729",NA,NA,380.0413,380.0415,380.0415,380.3744,NA,NA,NA,NA,NA,NA,NA,TRUE,4,0.087,377.0445,380.0406,0,89,89,25,1,21,27,NA,NA,NA,NA,NA,1,90,"likert"
"026B393D91B54690840BE16795BF9EC4",1,"01990a98-5d9b-7704-b4ab-e7b48c8dc764","01990a84-c4ee-73c2-a87b-ff46a7d3dde5","2025-09-02_14h44.34.729",NA,NA,383.3747,383.3747,383.3748,383.7277,NA,NA,NA,NA,NA,NA,NA,TRUE,2,1.4628,380.3781,383.3742,0,90,90,48,1,40,27,NA,NA,NA,NA,NA,1,91,"likert"
"026B393D91B54690840BE16795BF9EC4",1,"01990a98-5d9b-7704-b4ab-e7b48c8dc764","01990a84-c4ee-73c2-a87b-ff46a7d3dde5","2025-09-02_14h44.34.729",NA,NA,386.7286,386.7287,386.7287,387.0826,NA,NA,NA,NA,NA,NA,NA,TRUE,2,1.1909,383.7316,386.7282,0,91,91,99,1,180,39,NA,NA,NA,NA,NA,1,92,"likert"
"026B393D91B54690840BE16795BF9EC4",1,"01990a98-5d9b-7704-b4ab-e7b48c8dc764","01990a84-c4ee-73c2-a87b-ff46a7d3dde5","2025-09-02_14h44.34.729",NA,NA,390.0893,390.0894,390.0895,390.4359,NA,NA,NA,NA,NA,NA,NA,TRUE,2,0.0335,387.0873,390.0891,0,92,92,78,1,95,31,NA,NA,NA,NA,NA,1,93,"likert"
"026B393D91B54690840BE16795BF9EC4",1,"01990a98-5d9b-7704-b4ab-e7b48c8dc764","01990a84-c4ee-73c2-a87b-ff46a7d3dde5","2025-09-02_14h44.34.729",NA,NA,393.437,393.4372,393.4372,393.7895,NA,NA,NA,NA,NA,NA,NA,TRUE,4,1.0462,390.4399,393.4361,0,93,93,33,1,25,33,NA,NA,NA,NA,NA,1,94,"likert"
"026B393D91B54690840BE16795BF9EC4",1,"01990a98-5d9b-7704-b4ab-e7b48c8dc764","01990a84-c4ee-73c2-a87b-ff46a7d3dde5","2025-09-02_14h44.34.729",NA,NA,396.7907,397.0394,397.0397,397.122,NA,NA,NA,NA,NA,NA,NA,FALSE,NA,NA,393.793,396.79,0,94,94,21,1,14,32,NA,NA,NA,NA,NA,1,95,"likert"
"026B393D91B54690840BE16795BF9EC4",1,"01990a98-5d9b-7704-b4ab-e7b48c8dc764","01990a84-c4ee-73c2-a87b-ff46a7d3dde5","2025-09-02_14h44.34.729",NA,NA,400.1309,400.1309,400.1309,400.4761,NA,NA,NA,NA,NA,NA,NA,TRUE,2,1.0353,397.1262,400.1306,0,95,95,6,1,10,25,NA,NA,NA,NA,NA,1,96,"likert"
"026B393D91B54690840BE16795BF9EC4",1,"01990a98-5d9b-7704-b4ab-e7b48c8dc764","01990a84-c4ee-73c2-a87b-ff46a7d3dde5","2025-09-02_14h44.34.729",NA,NA,403.4764,403.4766,403.4766,403.8307,NA,NA,NA,NA,NA,NA,NA,TRUE,3,2.027,400.4798,403.476,0,96,96,28,1,21,32,NA,NA,NA,NA,NA,1,97,"likert"
"026B393D91B54690840BE16795BF9EC4",1,"01990a98-5d9b-7704-b4ab-e7b48c8dc764","01990a84-c4ee-73c2-a87b-ff46a7d3dde5","2025-09-02_14h44.34.729",NA,NA,406.8309,406.8312,406.8313,407.1841,NA,NA,NA,NA,NA,NA,NA,TRUE,2,0.7104,403.8341,406.8302,0,97,97,39,1,28,35,NA,NA,NA,NA,NA,1,98,"likert"
"026B393D91B54690840BE16795BF9EC4",1,"01990a98-5d9b-7704-b4ab-e7b48c8dc764","01990a84-c4ee-73c2-a87b-ff46a7d3dde5","2025-09-02_14h44.34.729",NA,NA,410.1837,410.1838,410.1839,410.5382,NA,NA,NA,NA,NA,NA,NA,TRUE,2,2.5648,407.1878,410.1832,0,98,98,103,1,200,28,NA,NA,NA,NA,NA,1,99,"likert"
"026B393D91B54690840BE16795BF9EC4",1,"01990a98-5d9b-7704-b4ab-e7b48c8dc764","01990a84-c4ee-73c2-a87b-ff46a7d3dde5","2025-09-02_14h44.34.729",NA,NA,413.5381,413.5383,413.5383,413.8916,NA,NA,NA,NA,NA,NA,NA,TRUE,4,2.7539,410.5427,413.5377,0,99,99,35,1,25,46,NA,NA,NA,NA,NA,1,100,"likert"
"026B393D91B54690840BE16795BF9EC4",1,"01990a98-5d9b-7704-b4ab-e7b48c8dc764","01990a84-c4ee-73c2-a87b-ff46a7d3dde5","2025-09-02_14h44.34.729",NA,NA,416.8914,417.1403,417.1404,417.2235,NA,NA,NA,NA,NA,NA,NA,FALSE,NA,NA,413.8946,416.8907,0,100,100,18,1,14,25,NA,NA,NA,NA,NA,1,101,"likert"
"026B393D91B54690840BE16795BF9EC4",1,"01990a98-5d9b-7704-b4ab-e7b48c8dc764","01990a84-c4ee-73c2-a87b-ff46a7d3dde5","2025-09-02_14h44.34.729",NA,NA,420.2248,420.2248,420.2249,420.5786,NA,NA,NA,NA,NA,NA,NA,TRUE,2,1.5131,417.2277,420.2243,0,101,101,101,1,180,54,NA,NA,NA,NA,NA,1,102,"likert"
"026B393D91B54690840BE16795BF9EC4",1,"01990a98-5d9b-7704-b4ab-e7b48c8dc764","01990a84-c4ee-73c2-a87b-ff46a7d3dde5","2025-09-02_14h44.34.729",NA,NA,423.5781,423.5784,423.5784,423.9315,NA,NA,NA,NA,NA,NA,NA,TRUE,4,9e-04,420.5817,423.5778,0,102,102,19,1,14,26,NA,NA,NA,NA,NA,1,103,"likert"
"026B393D91B54690840BE16795BF9EC4",1,"01990a98-5d9b-7704-b4ab-e7b48c8dc764","01990a84-c4ee-73c2-a87b-ff46a7d3dde5","2025-09-02_14h44.34.729",NA,NA,426.9322,426.9323,426.9324,427.2859,NA,NA,NA,NA,NA,NA,NA,TRUE,4,0.001,423.9355,426.9317,0,103,103,17,1,12,35,NA,NA,NA,NA,NA,1,104,"likert"
"026B393D91B54690840BE16795BF9EC4",1,"01990a98-5d9b-7704-b4ab-e7b48c8dc764","01990a84-c4ee-73c2-a87b-ff46a7d3dde5","2025-09-02_14h44.34.729",NA,NA,430.286,430.2861,430.2863,430.6396,NA,NA,NA,NA,NA,NA,NA,TRUE,2,0.0951,427.2893,430.2855,0,104,104,24,1,21,26,NA,NA,NA,NA,NA,1,105,"likert"
"026B393D91B54690840BE16795BF9EC4",1,"01990a98-5d9b-7704-b4ab-e7b48c8dc764","01990a84-c4ee-73c2-a87b-ff46a7d3dde5","2025-09-02_14h44.34.729",NA,NA,433.6398,433.6401,433.6402,433.9727,NA,NA,NA,NA,NA,NA,NA,TRUE,4,0.0018,430.6427,433.6394,0,105,105,98,1,180,35,NA,NA,NA,NA,NA,1,106,"likert"
"026B393D91B54690840BE16795BF9EC4",1,"01990a98-5d9b-7704-b4ab-e7b48c8dc764","01990a84-c4ee-73c2-a87b-ff46a7d3dde5","2025-09-02_14h44.34.729",NA,NA,436.9731,437.2237,437.2238,437.3267,NA,NA,NA,NA,NA,NA,NA,FALSE,NA,NA,433.9773,436.9725,0,106,106,95,1,150,54,NA,NA,NA,NA,NA,1,107,"likert"
"026B393D91B54690840BE16795BF9EC4",1,"01990a98-5d9b-7704-b4ab-e7b48c8dc764","01990a84-c4ee-73c2-a87b-ff46a7d3dde5","2025-09-02_14h44.34.729",NA,NA,440.3274,440.5759,440.5759,440.6802,NA,NA,NA,NA,NA,NA,NA,FALSE,NA,NA,437.3302,440.3267,0,107,107,16,1,12,33,NA,NA,NA,NA,NA,1,108,"likert"
"026B393D91B54690840BE16795BF9EC4",1,"01990a98-5d9b-7704-b4ab-e7b48c8dc764","01990a84-c4ee-73c2-a87b-ff46a7d3dde5","2025-09-02_14h44.34.729",NA,NA,611.7457,611.7459,611.746,612.0987,NA,NA,NA,NA,NA,NA,NA,TRUE,4,1.3585,608.7963,611.745,NA,NA,NA,NA,NA,95,35,0,0,0,80,1,2,1,"likert"
"026B393D91B54690840BE16795BF9EC4",1,"01990a98-5d9b-7704-b4ab-e7b48c8dc764","01990a84-c4ee-73c2-a87b-ff46a7d3dde5","2025-09-02_14h44.34.729",NA,NA,615.0985,615.0987,615.0987,615.4522,NA,NA,NA,NA,NA,NA,NA,TRUE,2,0.8773,612.1025,615.098,NA,NA,NA,NA,NA,200,28,0,1,1,103,1,2,2,"likert"
"026B393D91B54690840BE16795BF9EC4",1,"01990a98-5d9b-7704-b4ab-e7b48c8dc764","01990a84-c4ee-73c2-a87b-ff46a7d3dde5","2025-09-02_14h44.34.729",NA,NA,618.4524,618.4527,618.4528,618.8062,NA,NA,NA,NA,NA,NA,NA,TRUE,4,1.1898,615.4566,618.4519,NA,NA,NA,NA,NA,180,46,0,2,2,100,1,2,3,"likert"
"026B393D91B54690840BE16795BF9EC4",1,"01990a98-5d9b-7704-b4ab-e7b48c8dc764","01990a84-c4ee-73c2-a87b-ff46a7d3dde5","2025-09-02_14h44.34.729",NA,NA,621.8065,621.8066,621.8067,622.1392,NA,NA,NA,NA,NA,NA,NA,TRUE,2,1.085,618.8102,621.8059,NA,NA,NA,NA,NA,21,29,0,3,3,26,1,2,4,"likert"
"026B393D91B54690840BE16795BF9EC4",1,"01990a98-5d9b-7704-b4ab-e7b48c8dc764","01990a84-c4ee-73c2-a87b-ff46a7d3dde5","2025-09-02_14h44.34.729",NA,NA,625.1394,625.1395,625.1395,625.4927,NA,NA,NA,NA,NA,NA,NA,TRUE,2,0.8775,622.1426,625.1387,NA,NA,NA,NA,NA,60,54,0,4,4,71,1,2,5,"likert"
"026B393D91B54690840BE16795BF9EC4",1,"01990a98-5d9b-7704-b4ab-e7b48c8dc764","01990a84-c4ee-73c2-a87b-ff46a7d3dde5","2025-09-02_14h44.34.729",NA,NA,628.493,628.4934,628.4935,628.8466,NA,NA,NA,NA,NA,NA,NA,TRUE,2,0.0012,625.4964,628.4926,NA,NA,NA,NA,NA,40,27,0,5,5,48,1,2,6,"likert"
"026B393D91B54690840BE16795BF9EC4",1,"01990a98-5d9b-7704-b4ab-e7b48c8dc764","01990a84-c4ee-73c2-a87b-ff46a7d3dde5","2025-09-02_14h44.34.729",NA,NA,631.8472,631.8474,631.8475,632.1997,NA,NA,NA,NA,NA,NA,NA,TRUE,2,9e-04,628.85,631.8466,NA,NA,NA,NA,NA,45,40,0,6,6,58,1,2,7,"likert"
"026B393D91B54690840BE16795BF9EC4",1,"01990a98-5d9b-7704-b4ab-e7b48c8dc764","01990a84-c4ee-73c2-a87b-ff46a7d3dde5","2025-09-02_14h44.34.729",NA,NA,635.2004,635.2004,635.2004,635.5542,NA,NA,NA,NA,NA,NA,NA,TRUE,4,0.0693,632.2039,635.1998,NA,NA,NA,NA,NA,25,31,0,7,7,32,1,2,8,"likert"
"026B393D91B54690840BE16795BF9EC4",1,"01990a98-5d9b-7704-b4ab-e7b48c8dc764","01990a84-c4ee-73c2-a87b-ff46a7d3dde5","2025-09-02_14h44.34.729",NA,NA,638.5539,638.5541,638.5542,638.9083,NA,NA,NA,NA,NA,NA,NA,TRUE,2,0.066,635.558,638.5534,NA,NA,NA,NA,NA,30,26,0,8,8,42,1,2,9,"likert"
"026B393D91B54690840BE16795BF9EC4",1,"01990a98-5d9b-7704-b4ab-e7b48c8dc764","01990a84-c4ee-73c2-a87b-ff46a7d3dde5","2025-09-02_14h44.34.729",NA,NA,641.8887,641.8889,641.8889,642.2414,NA,NA,NA,NA,NA,NA,NA,TRUE,4,0.0015,638.9115,641.8879,NA,NA,NA,NA,NA,150,35,0,9,9,92,1,2,10,"likert"
"026B393D91B54690840BE16795BF9EC4",1,"01990a98-5d9b-7704-b4ab-e7b48c8dc764","01990a84-c4ee-73c2-a87b-ff46a7d3dde5","2025-09-02_14h44.34.729",NA,NA,645.2409,645.2411,645.2412,645.5936,NA,NA,NA,NA,NA,NA,NA,TRUE,2,2.9413,642.2459,645.2404,NA,NA,NA,NA,NA,95,47,0,10,10,82,1,2,11,"likert"
"026B393D91B54690840BE16795BF9EC4",1,"01990a98-5d9b-7704-b4ab-e7b48c8dc764","01990a84-c4ee-73c2-a87b-ff46a7d3dde5","2025-09-02_14h44.34.729",NA,NA,648.5949,648.5951,648.5953,648.948,NA,NA,NA,NA,NA,NA,NA,TRUE,2,8e-04,645.5976,648.5941,NA,NA,NA,NA,NA,40,54,0,11,11,53,1,2,12,"likert"
"026B393D91B54690840BE16795BF9EC4",1,"01990a98-5d9b-7704-b4ab-e7b48c8dc764","01990a84-c4ee-73c2-a87b-ff46a7d3dde5","2025-09-02_14h44.34.729",NA,NA,651.9494,651.9495,651.9496,652.3017,NA,NA,NA,NA,NA,NA,NA,TRUE,2,2.9415,648.9514,651.9487,NA,NA,NA,NA,NA,28,39,0,12,12,40,1,2,13,"likert"
"026B393D91B54690840BE16795BF9EC4",1,"01990a98-5d9b-7704-b4ab-e7b48c8dc764","01990a84-c4ee-73c2-a87b-ff46a7d3dde5","2025-09-02_14h44.34.729",NA,NA,655.3029,655.3032,655.3032,655.6554,NA,NA,NA,NA,NA,NA,NA,TRUE,4,0.0241,652.3066,655.3024,NA,NA,NA,NA,NA,200,26,0,13,13,102,1,2,14,"likert"
"026B393D91B54690840BE16795BF9EC4",1,"01990a98-5d9b-7704-b4ab-e7b48c8dc764","01990a84-c4ee-73c2-a87b-ff46a7d3dde5","2025-09-02_14h44.34.729",NA,NA,658.6566,658.6568,658.6569,658.9893,NA,NA,NA,NA,NA,NA,NA,TRUE,2,0.0015,655.6592,658.6562,NA,NA,NA,NA,NA,40,40,0,14,14,51,1,2,15,"likert"
"026B393D91B54690840BE16795BF9EC4",1,"01990a98-5d9b-7704-b4ab-e7b48c8dc764","01990a84-c4ee-73c2-a87b-ff46a7d3dde5","2025-09-02_14h44.34.729",NA,NA,661.9901,661.9903,661.9904,662.3426,NA,NA,NA,NA,NA,NA,NA,TRUE,4,0.1715,658.9931,661.9895,NA,NA,NA,NA,NA,14,28,0,15,15,20,1,2,16,"likert"
"026B393D91B54690840BE16795BF9EC4",1,"01990a98-5d9b-7704-b4ab-e7b48c8dc764","01990a84-c4ee-73c2-a87b-ff46a7d3dde5","2025-09-02_14h44.34.729",NA,NA,665.3431,665.3433,665.3434,665.6961,NA,NA,NA,NA,NA,NA,NA,TRUE,4,0.15,662.3464,665.3423,NA,NA,NA,NA,NA,25,46,0,16,16,35,1,2,17,"likert"
"026B393D91B54690840BE16795BF9EC4",1,"01990a98-5d9b-7704-b4ab-e7b48c8dc764","01990a84-c4ee-73c2-a87b-ff46a7d3dde5","2025-09-02_14h44.34.729",NA,NA,668.6973,668.6974,668.6974,669.0505,NA,NA,NA,NA,NA,NA,NA,TRUE,4,2.9479,665.7,668.6967,NA,NA,NA,NA,NA,95,40,0,17,17,81,1,2,18,"likert"
"026B393D91B54690840BE16795BF9EC4",1,"01990a98-5d9b-7704-b4ab-e7b48c8dc764","01990a84-c4ee-73c2-a87b-ff46a7d3dde5","2025-09-02_14h44.34.729",NA,NA,672.051,672.0511,672.0513,672.404,NA,NA,NA,NA,NA,NA,NA,TRUE,2,0.1284,669.0552,672.0506,NA,NA,NA,NA,NA,14,25,0,18,18,18,1,2,19,"likert"
"026B393D91B54690840BE16795BF9EC4",1,"01990a98-5d9b-7704-b4ab-e7b48c8dc764","01990a84-c4ee-73c2-a87b-ff46a7d3dde5","2025-09-02_14h44.34.729",NA,NA,675.4046,675.4048,675.4048,675.758,NA,NA,NA,NA,NA,NA,NA,TRUE,4,2.9613,672.4077,675.4042,NA,NA,NA,NA,NA,28,28,0,19,19,37,1,2,20,"likert"
"026B393D91B54690840BE16795BF9EC4",1,"01990a98-5d9b-7704-b4ab-e7b48c8dc764","01990a84-c4ee-73c2-a87b-ff46a7d3dde5","2025-09-02_14h44.34.729",NA,NA,678.7583,678.7587,678.7588,679.091,NA,NA,NA,NA,NA,NA,NA,TRUE,4,0.0917,675.7619,678.7578,NA,NA,NA,NA,NA,200,54,0,20,20,107,1,2,21,"likert"
"026B393D91B54690840BE16795BF9EC4",1,"01990a98-5d9b-7704-b4ab-e7b48c8dc764","01990a84-c4ee-73c2-a87b-ff46a7d3dde5","2025-09-02_14h44.34.729",NA,NA,682.0919,682.092,682.0921,682.4441,NA,NA,NA,NA,NA,NA,NA,TRUE,2,0.1079,679.0946,682.0912,NA,NA,NA,NA,NA,40,35,0,21,21,50,1,2,22,"likert"
"026B393D91B54690840BE16795BF9EC4",1,"01990a98-5d9b-7704-b4ab-e7b48c8dc764","01990a84-c4ee-73c2-a87b-ff46a7d3dde5","2025-09-02_14h44.34.729",NA,NA,685.4455,685.4456,685.4458,685.7983,NA,NA,NA,NA,NA,NA,NA,TRUE,4,0.044,682.4477,685.4449,NA,NA,NA,NA,NA,40,33,0,22,22,49,1,2,23,"likert"
"026B393D91B54690840BE16795BF9EC4",1,"01990a98-5d9b-7704-b4ab-e7b48c8dc764","01990a84-c4ee-73c2-a87b-ff46a7d3dde5","2025-09-02_14h44.34.729",NA,NA,688.7988,688.799,688.799,689.1519,NA,NA,NA,NA,NA,NA,NA,TRUE,4,0.1379,685.802,688.7984,NA,NA,NA,NA,NA,45,35,0,23,23,57,1,2,24,"likert"
"026B393D91B54690840BE16795BF9EC4",1,"01990a98-5d9b-7704-b4ab-e7b48c8dc764","01990a84-c4ee-73c2-a87b-ff46a7d3dde5","2025-09-02_14h44.34.729",NA,NA,692.1524,692.1525,692.1525,692.5063,NA,NA,NA,NA,NA,NA,NA,TRUE,4,0.0015,689.1548,692.152,NA,NA,NA,NA,NA,200,35,0,24,24,104,1,2,25,"likert"
"026B393D91B54690840BE16795BF9EC4",1,"01990a98-5d9b-7704-b4ab-e7b48c8dc764","01990a84-c4ee-73c2-a87b-ff46a7d3dde5","2025-09-02_14h44.34.729",NA,NA,695.5061,695.5063,695.5064,695.8386,NA,NA,NA,NA,NA,NA,NA,TRUE,2,2.9601,692.5107,695.5054,NA,NA,NA,NA,NA,150,33,0,25,25,91,1,2,26,"likert"
"026B393D91B54690840BE16795BF9EC4",1,"01990a98-5d9b-7704-b4ab-e7b48c8dc764","01990a84-c4ee-73c2-a87b-ff46a7d3dde5","2025-09-02_14h44.34.729",NA,NA,698.8393,698.8395,698.8395,699.1921,NA,NA,NA,NA,NA,NA,NA,TRUE,4,0.1485,695.8431,698.8387,NA,NA,NA,NA,NA,7,26,0,26,26,1,1,2,27,"likert"
"026B393D91B54690840BE16795BF9EC4",1,"01990a98-5d9b-7704-b4ab-e7b48c8dc764","01990a84-c4ee-73c2-a87b-ff46a7d3dde5","2025-09-02_14h44.34.729",NA,NA,702.1929,702.1931,702.1931,702.5469,NA,NA,NA,NA,NA,NA,NA,TRUE,4,2.9388,699.197,702.1927,NA,NA,NA,NA,NA,200,47,0,27,27,106,1,2,28,"likert"
"026B393D91B54690840BE16795BF9EC4",1,"01990a98-5d9b-7704-b4ab-e7b48c8dc764","01990a84-c4ee-73c2-a87b-ff46a7d3dde5","2025-09-02_14h44.34.729",NA,NA,705.5467,705.5469,705.5469,705.9007,NA,NA,NA,NA,NA,NA,NA,TRUE,2,0.0665,702.5513,705.5463,NA,NA,NA,NA,NA,50,27,0,28,28,60,1,2,29,"likert"
"026B393D91B54690840BE16795BF9EC4",1,"01990a98-5d9b-7704-b4ab-e7b48c8dc764","01990a84-c4ee-73c2-a87b-ff46a7d3dde5","2025-09-02_14h44.34.729",NA,NA,708.9006,708.9006,708.9007,709.2546,NA,NA,NA,NA,NA,NA,NA,TRUE,2,0.0097,705.9044,708.9002,NA,NA,NA,NA,NA,60,33,0,29,29,67,1,2,30,"likert"
"026B393D91B54690840BE16795BF9EC4",1,"01990a98-5d9b-7704-b4ab-e7b48c8dc764","01990a84-c4ee-73c2-a87b-ff46a7d3dde5","2025-09-02_14h44.34.729",NA,NA,712.2547,712.2548,712.2548,712.6079,NA,NA,NA,NA,NA,NA,NA,TRUE,2,0.0448,709.2587,712.2542,NA,NA,NA,NA,NA,10,32,0,30,30,11,1,2,31,"likert"
"026B393D91B54690840BE16795BF9EC4",1,"01990a98-5d9b-7704-b4ab-e7b48c8dc764","01990a84-c4ee-73c2-a87b-ff46a7d3dde5","2025-09-02_14h44.34.729",NA,NA,715.6078,715.608,715.608,715.9413,NA,NA,NA,NA,NA,NA,NA,TRUE,4,0.0867,712.6116,715.6074,NA,NA,NA,NA,NA,7,32,0,31,31,4,1,2,32,"likert"
"026B393D91B54690840BE16795BF9EC4",1,"01990a98-5d9b-7704-b4ab-e7b48c8dc764","01990a84-c4ee-73c2-a87b-ff46a7d3dde5","2025-09-02_14h44.34.729",NA,NA,718.9415,718.9416,718.9416,719.2945,NA,NA,NA,NA,NA,NA,NA,TRUE,4,0.0893,715.9452,718.941,NA,NA,NA,NA,NA,150,54,0,32,32,95,1,2,33,"likert"
"026B393D91B54690840BE16795BF9EC4",1,"01990a98-5d9b-7704-b4ab-e7b48c8dc764","01990a84-c4ee-73c2-a87b-ff46a7d3dde5","2025-09-02_14h44.34.729",NA,NA,722.2952,722.2953,722.2953,722.6487,NA,NA,NA,NA,NA,NA,NA,TRUE,4,0.0391,719.2993,722.2947,NA,NA,NA,NA,NA,40,47,0,33,33,52,1,2,34,"likert"
"026B393D91B54690840BE16795BF9EC4",1,"01990a98-5d9b-7704-b4ab-e7b48c8dc764","01990a84-c4ee-73c2-a87b-ff46a7d3dde5","2025-09-02_14h44.34.729",NA,NA,725.6486,725.6487,725.6487,726.0027,NA,NA,NA,NA,NA,NA,NA,TRUE,2,0.1078,722.6524,725.6479,NA,NA,NA,NA,NA,150,40,0,34,34,93,1,2,35,"likert"
"026B393D91B54690840BE16795BF9EC4",1,"01990a98-5d9b-7704-b4ab-e7b48c8dc764","01990a84-c4ee-73c2-a87b-ff46a7d3dde5","2025-09-02_14h44.34.729",NA,NA,729.0028,729.0031,729.0032,729.3552,NA,NA,NA,NA,NA,NA,NA,TRUE,2,0.0512,726.0066,729.002,NA,NA,NA,NA,NA,21,30,0,35,35,27,1,2,36,"likert"
"026B393D91B54690840BE16795BF9EC4",1,"01990a98-5d9b-7704-b4ab-e7b48c8dc764","01990a84-c4ee-73c2-a87b-ff46a7d3dde5","2025-09-02_14h44.34.729",NA,NA,732.3566,732.3568,732.3568,732.6886,NA,NA,NA,NA,NA,NA,NA,TRUE,2,0.0236,729.3591,732.3562,NA,NA,NA,NA,NA,60,29,0,36,36,66,1,2,37,"likert"
"026B393D91B54690840BE16795BF9EC4",1,"01990a98-5d9b-7704-b4ab-e7b48c8dc764","01990a84-c4ee-73c2-a87b-ff46a7d3dde5","2025-09-02_14h44.34.729",NA,NA,735.6899,735.69,735.6901,736.0437,NA,NA,NA,NA,NA,NA,NA,TRUE,2,0.0013,732.692,735.6895,NA,NA,NA,NA,NA,150,47,0,37,37,94,1,2,38,"likert"
"026B393D91B54690840BE16795BF9EC4",1,"01990a98-5d9b-7704-b4ab-e7b48c8dc764","01990a84-c4ee-73c2-a87b-ff46a7d3dde5","2025-09-02_14h44.34.729",NA,NA,739.0435,739.0437,739.0437,739.3962,NA,NA,NA,NA,NA,NA,NA,TRUE,4,0.0223,736.0477,739.0431,NA,NA,NA,NA,NA,60,47,0,38,38,70,1,2,39,"likert"
"026B393D91B54690840BE16795BF9EC4",1,"01990a98-5d9b-7704-b4ab-e7b48c8dc764","01990a84-c4ee-73c2-a87b-ff46a7d3dde5","2025-09-02_14h44.34.729",NA,NA,742.3964,742.3965,742.3966,742.7504,NA,NA,NA,NA,NA,NA,NA,TRUE,2,0.0711,739.4005,742.3959,NA,NA,NA,NA,NA,25,27,0,39,39,30,1,2,40,"likert"
"026B393D91B54690840BE16795BF9EC4",1,"01990a98-5d9b-7704-b4ab-e7b48c8dc764","01990a84-c4ee-73c2-a87b-ff46a7d3dde5","2025-09-02_14h44.34.729",NA,NA,745.7516,745.7517,745.7519,746.104,NA,NA,NA,NA,NA,NA,NA,TRUE,2,2.9496,742.7539,745.7511,NA,NA,NA,NA,NA,30,38,0,40,40,47,1,2,41,"likert"
"026B393D91B54690840BE16795BF9EC4",1,"01990a98-5d9b-7704-b4ab-e7b48c8dc764","01990a84-c4ee-73c2-a87b-ff46a7d3dde5","2025-09-02_14h44.34.729",NA,NA,749.1043,749.1044,749.1045,749.4573,NA,NA,NA,NA,NA,NA,NA,TRUE,4,2.9607,746.1077,749.1038,NA,NA,NA,NA,NA,150,31,0,41,41,90,1,2,42,"likert"
"026B393D91B54690840BE16795BF9EC4",1,"01990a98-5d9b-7704-b4ab-e7b48c8dc764","01990a84-c4ee-73c2-a87b-ff46a7d3dde5","2025-09-02_14h44.34.729",NA,NA,752.459,752.4592,752.4593,752.7909,NA,NA,NA,NA,NA,NA,NA,TRUE,4,0.1282,749.4613,752.4584,NA,NA,NA,NA,NA,28,32,0,42,42,38,1,2,43,"likert"
"026B393D91B54690840BE16795BF9EC4",1,"01990a98-5d9b-7704-b4ab-e7b48c8dc764","01990a84-c4ee-73c2-a87b-ff46a7d3dde5","2025-09-02_14h44.34.729",NA,NA,755.7907,755.7907,755.7908,756.1446,NA,NA,NA,NA,NA,NA,NA,TRUE,4,0.1167,752.7952,755.79,NA,NA,NA,NA,NA,95,31,0,43,43,78,1,2,44,"likert"
"026B393D91B54690840BE16795BF9EC4",1,"01990a98-5d9b-7704-b4ab-e7b48c8dc764","01990a84-c4ee-73c2-a87b-ff46a7d3dde5","2025-09-02_14h44.34.729",NA,NA,759.1455,759.1457,759.1458,759.499,NA,NA,NA,NA,NA,NA,NA,TRUE,2,2.9434,756.1482,759.145,NA,NA,NA,NA,NA,90,33,0,44,44,74,1,2,45,"likert"
"026B393D91B54690840BE16795BF9EC4",1,"01990a98-5d9b-7704-b4ab-e7b48c8dc764","01990a84-c4ee-73c2-a87b-ff46a7d3dde5","2025-09-02_14h44.34.729",NA,NA,762.4997,762.4998,762.4999,762.8519,NA,NA,NA,NA,NA,NA,NA,TRUE,2,0.1704,759.5022,762.499,NA,NA,NA,NA,NA,10,29,0,45,45,9,1,2,46,"likert"
"026B393D91B54690840BE16795BF9EC4",1,"01990a98-5d9b-7704-b4ab-e7b48c8dc764","01990a84-c4ee-73c2-a87b-ff46a7d3dde5","2025-09-02_14h44.34.729",NA,NA,765.8528,765.853,765.853,766.2063,NA,NA,NA,NA,NA,NA,NA,TRUE,2,0.0464,762.8552,765.8523,NA,NA,NA,NA,NA,50,35,0,46,46,62,1,2,47,"likert"
"026B393D91B54690840BE16795BF9EC4",1,"01990a98-5d9b-7704-b4ab-e7b48c8dc764","01990a84-c4ee-73c2-a87b-ff46a7d3dde5","2025-09-02_14h44.34.729",NA,NA,769.2064,769.2066,769.2067,769.539,NA,NA,NA,NA,NA,NA,NA,TRUE,4,0.0652,766.2102,769.2061,NA,NA,NA,NA,NA,7,25,0,47,47,0,1,2,48,"likert"
"026B393D91B54690840BE16795BF9EC4",1,"01990a98-5d9b-7704-b4ab-e7b48c8dc764","01990a84-c4ee-73c2-a87b-ff46a7d3dde5","2025-09-02_14h44.34.729",NA,NA,772.5407,772.5408,772.5408,772.8934,NA,NA,NA,NA,NA,NA,NA,TRUE,4,0.1267,769.5425,772.54,NA,NA,NA,NA,NA,180,54,0,48,48,101,1,2,49,"likert"
"026B393D91B54690840BE16795BF9EC4",1,"01990a98-5d9b-7704-b4ab-e7b48c8dc764","01990a84-c4ee-73c2-a87b-ff46a7d3dde5","2025-09-02_14h44.34.729",NA,NA,775.8939,775.894,775.894,776.2467,NA,NA,NA,NA,NA,NA,NA,TRUE,2,2.9503,772.8972,775.8931,NA,NA,NA,NA,NA,95,54,0,49,49,83,1,2,50,"likert"
"026B393D91B54690840BE16795BF9EC4",1,"01990a98-5d9b-7704-b4ab-e7b48c8dc764","01990a84-c4ee-73c2-a87b-ff46a7d3dde5","2025-09-02_14h44.34.729",NA,NA,779.2472,779.2475,779.2476,779.6005,NA,NA,NA,NA,NA,NA,NA,TRUE,4,0.0445,776.2499,779.2466,NA,NA,NA,NA,NA,12,35,0,50,50,17,1,2,51,"likert"
"026B393D91B54690840BE16795BF9EC4",1,"01990a98-5d9b-7704-b4ab-e7b48c8dc764","01990a84-c4ee-73c2-a87b-ff46a7d3dde5","2025-09-02_14h44.34.729",NA,NA,782.6011,782.6013,782.6013,782.9543,NA,NA,NA,NA,NA,NA,NA,TRUE,4,0.1072,779.604,782.6006,NA,NA,NA,NA,NA,25,29,0,51,51,31,1,2,52,"likert"
"026B393D91B54690840BE16795BF9EC4",1,"01990a98-5d9b-7704-b4ab-e7b48c8dc764","01990a84-c4ee-73c2-a87b-ff46a7d3dde5","2025-09-02_14h44.34.729",NA,NA,785.9547,785.955,785.9551,786.3081,NA,NA,NA,NA,NA,NA,NA,TRUE,2,0.1295,782.9585,785.9541,NA,NA,NA,NA,NA,21,38,0,52,52,29,1,2,53,"likert"
"026B393D91B54690840BE16795BF9EC4",1,"01990a98-5d9b-7704-b4ab-e7b48c8dc764","01990a84-c4ee-73c2-a87b-ff46a7d3dde5","2025-09-02_14h44.34.729",NA,NA,789.3085,789.3088,789.3088,789.6397,NA,NA,NA,NA,NA,NA,NA,TRUE,2,0.1868,786.3122,789.3074,NA,NA,NA,NA,NA,45,26,0,53,53,54,1,2,54,"likert"
"026B393D91B54690840BE16795BF9EC4",1,"01990a98-5d9b-7704-b4ab-e7b48c8dc764","01990a84-c4ee-73c2-a87b-ff46a7d3dde5","2025-09-02_14h44.34.729",NA,NA,792.6407,792.641,792.6411,792.995,NA,NA,NA,NA,NA,NA,NA,TRUE,4,0.1399,789.6435,792.6402,NA,NA,NA,NA,NA,90,26,0,54,54,72,1,2,55,"likert"
"026B393D91B54690840BE16795BF9EC4",1,"01990a98-5d9b-7704-b4ab-e7b48c8dc764","01990a84-c4ee-73c2-a87b-ff46a7d3dde5","2025-09-02_14h44.34.729",NA,NA,795.9939,795.994,795.9943,796.3473,NA,NA,NA,NA,NA,NA,NA,TRUE,2,0.0471,792.9988,795.9933,NA,NA,NA,NA,NA,12,31,0,55,55,15,1,2,56,"likert"
"026B393D91B54690840BE16795BF9EC4",1,"01990a98-5d9b-7704-b4ab-e7b48c8dc764","01990a84-c4ee-73c2-a87b-ff46a7d3dde5","2025-09-02_14h44.34.729",NA,NA,799.3485,799.3487,799.3487,799.7016,NA,NA,NA,NA,NA,NA,NA,TRUE,4,0.0231,796.3513,799.3476,NA,NA,NA,NA,NA,45,46,0,56,56,59,1,2,57,"likert"
"026B393D91B54690840BE16795BF9EC4",1,"01990a98-5d9b-7704-b4ab-e7b48c8dc764","01990a84-c4ee-73c2-a87b-ff46a7d3dde5","2025-09-02_14h44.34.729",NA,NA,802.7042,802.7048,802.7049,803.0563,NA,NA,NA,NA,NA,NA,NA,TRUE,2,0.0539,799.7055,802.7028,NA,NA,NA,NA,NA,28,46,0,57,57,41,1,2,58,"likert"
"026B393D91B54690840BE16795BF9EC4",1,"01990a98-5d9b-7704-b4ab-e7b48c8dc764","01990a84-c4ee-73c2-a87b-ff46a7d3dde5","2025-09-02_14h44.34.729",NA,NA,806.0559,806.0562,806.0562,806.3892,NA,NA,NA,NA,NA,NA,NA,TRUE,2,0.1473,803.0604,806.0553,NA,NA,NA,NA,NA,10,26,0,58,58,7,1,2,59,"likert"
"026B393D91B54690840BE16795BF9EC4",1,"01990a98-5d9b-7704-b4ab-e7b48c8dc764","01990a84-c4ee-73c2-a87b-ff46a7d3dde5","2025-09-02_14h44.34.729",NA,NA,809.3896,809.3897,809.3897,809.7424,NA,NA,NA,NA,NA,NA,NA,TRUE,4,0.0013,806.393,809.3889,NA,NA,NA,NA,NA,14,39,0,59,59,23,1,2,60,"likert"
"026B393D91B54690840BE16795BF9EC4",1,"01990a98-5d9b-7704-b4ab-e7b48c8dc764","01990a84-c4ee-73c2-a87b-ff46a7d3dde5","2025-09-02_14h44.34.729",NA,NA,812.7424,812.7428,812.7428,813.0956,NA,NA,NA,NA,NA,NA,NA,TRUE,2,0.0905,809.7467,812.7419,NA,NA,NA,NA,NA,90,46,0,60,60,76,1,2,61,"likert"
"026B393D91B54690840BE16795BF9EC4",1,"01990a98-5d9b-7704-b4ab-e7b48c8dc764","01990a84-c4ee-73c2-a87b-ff46a7d3dde5","2025-09-02_14h44.34.729",NA,NA,816.0972,816.0975,816.0975,816.449,NA,NA,NA,NA,NA,NA,NA,TRUE,4,0.0068,813.0996,816.0964,NA,NA,NA,NA,NA,90,40,0,61,61,75,1,2,62,"likert"
"026B393D91B54690840BE16795BF9EC4",1,"01990a98-5d9b-7704-b4ab-e7b48c8dc764","01990a84-c4ee-73c2-a87b-ff46a7d3dde5","2025-09-02_14h44.34.729",NA,NA,819.4495,819.4497,819.4499,819.8033,NA,NA,NA,NA,NA,NA,NA,TRUE,4,0.1931,816.4525,819.449,NA,NA,NA,NA,NA,30,27,0,62,62,43,1,2,63,"likert"
"026B393D91B54690840BE16795BF9EC4",1,"01990a98-5d9b-7704-b4ab-e7b48c8dc764","01990a84-c4ee-73c2-a87b-ff46a7d3dde5","2025-09-02_14h44.34.729",NA,NA,822.8103,822.8103,822.8103,823.1567,NA,NA,NA,NA,NA,NA,NA,TRUE,2,0.0076,819.807,822.8101,NA,NA,NA,NA,NA,7,28,0,63,63,2,1,2,64,"likert"
"026B393D91B54690840BE16795BF9EC4",1,"01990a98-5d9b-7704-b4ab-e7b48c8dc764","01990a84-c4ee-73c2-a87b-ff46a7d3dde5","2025-09-02_14h44.34.729",NA,NA,826.1566,826.1569,826.157,826.4897,NA,NA,NA,NA,NA,NA,NA,TRUE,4,0.0067,823.1608,826.1565,NA,NA,NA,NA,NA,12,25,0,64,64,12,1,2,65,"likert"
"026B393D91B54690840BE16795BF9EC4",1,"01990a98-5d9b-7704-b4ab-e7b48c8dc764","01990a84-c4ee-73c2-a87b-ff46a7d3dde5","2025-09-02_14h44.34.729",NA,NA,829.4909,829.491,829.4911,829.8439,NA,NA,NA,NA,NA,NA,NA,TRUE,4,8e-04,826.4933,829.4901,NA,NA,NA,NA,NA,50,54,0,65,65,65,1,2,66,"likert"
"026B393D91B54690840BE16795BF9EC4",1,"01990a98-5d9b-7704-b4ab-e7b48c8dc764","01990a84-c4ee-73c2-a87b-ff46a7d3dde5","2025-09-02_14h44.34.729",NA,NA,832.8456,832.8457,832.8457,833.1985,NA,NA,NA,NA,NA,NA,NA,TRUE,4,9e-04,829.8487,832.845,NA,NA,NA,NA,NA,180,35,0,66,66,98,1,2,67,"likert"
"026B393D91B54690840BE16795BF9EC4",1,"01990a98-5d9b-7704-b4ab-e7b48c8dc764","01990a84-c4ee-73c2-a87b-ff46a7d3dde5","2025-09-02_14h44.34.729",NA,NA,836.1984,836.1986,836.1986,836.552,NA,NA,NA,NA,NA,NA,NA,TRUE,4,0.1101,833.2022,836.1979,NA,NA,NA,NA,NA,100,38,0,67,67,86,1,2,68,"likert"
"026B393D91B54690840BE16795BF9EC4",1,"01990a98-5d9b-7704-b4ab-e7b48c8dc764","01990a84-c4ee-73c2-a87b-ff46a7d3dde5","2025-09-02_14h44.34.729",NA,NA,839.552,839.5522,839.5522,839.9051,NA,NA,NA,NA,NA,NA,NA,TRUE,4,0.1062,836.5558,839.5512,NA,NA,NA,NA,NA,100,26,0,68,68,84,1,2,69,"likert"
"026B393D91B54690840BE16795BF9EC4",1,"01990a98-5d9b-7704-b4ab-e7b48c8dc764","01990a84-c4ee-73c2-a87b-ff46a7d3dde5","2025-09-02_14h44.34.729",NA,NA,842.9063,842.9065,842.9066,843.2382,NA,NA,NA,NA,NA,NA,NA,TRUE,2,0.1072,839.9095,842.9058,NA,NA,NA,NA,NA,90,30,0,69,69,73,1,2,70,"likert"
"026B393D91B54690840BE16795BF9EC4",1,"01990a98-5d9b-7704-b4ab-e7b48c8dc764","01990a84-c4ee-73c2-a87b-ff46a7d3dde5","2025-09-02_14h44.34.729",NA,NA,846.24,846.2401,846.2402,846.5927,NA,NA,NA,NA,NA,NA,NA,TRUE,4,9e-04,843.2419,846.239,NA,NA,NA,NA,NA,50,46,0,70,70,64,1,2,71,"likert"
"026B393D91B54690840BE16795BF9EC4",1,"01990a98-5d9b-7704-b4ab-e7b48c8dc764","01990a84-c4ee-73c2-a87b-ff46a7d3dde5","2025-09-02_14h44.34.729",NA,NA,849.5937,849.5939,849.5939,849.9469,NA,NA,NA,NA,NA,NA,NA,TRUE,4,0.0494,846.5971,849.593,NA,NA,NA,NA,NA,30,30,0,71,71,45,1,2,72,"likert"
"026B393D91B54690840BE16795BF9EC4",1,"01990a98-5d9b-7704-b4ab-e7b48c8dc764","01990a84-c4ee-73c2-a87b-ff46a7d3dde5","2025-09-02_14h44.34.729",NA,NA,852.9471,852.9473,852.9473,853.3006,NA,NA,NA,NA,NA,NA,NA,TRUE,2,0.0011,849.9508,852.9465,NA,NA,NA,NA,NA,12,33,0,72,72,16,1,2,73,"likert"
"026B393D91B54690840BE16795BF9EC4",1,"01990a98-5d9b-7704-b4ab-e7b48c8dc764","01990a84-c4ee-73c2-a87b-ff46a7d3dde5","2025-09-02_14h44.34.729",NA,NA,856.3008,856.3008,856.3009,856.6543,NA,NA,NA,NA,NA,NA,NA,TRUE,2,0.0109,853.3046,856.3004,NA,NA,NA,NA,NA,45,29,0,73,73,55,1,2,74,"likert"
"026B393D91B54690840BE16795BF9EC4",1,"01990a98-5d9b-7704-b4ab-e7b48c8dc764","01990a84-c4ee-73c2-a87b-ff46a7d3dde5","2025-09-02_14h44.34.729",NA,NA,859.655,859.6552,859.6553,859.987,NA,NA,NA,NA,NA,NA,NA,TRUE,4,0.0711,856.6576,859.6542,NA,NA,NA,NA,NA,60,40,0,74,74,69,1,2,75,"likert"
"026B393D91B54690840BE16795BF9EC4",1,"01990a98-5d9b-7704-b4ab-e7b48c8dc764","01990a84-c4ee-73c2-a87b-ff46a7d3dde5","2025-09-02_14h44.34.729",NA,NA,863.0081,863.0085,863.0086,863.3411,NA,NA,NA,NA,NA,NA,NA,TRUE,4,0.0537,859.9902,863.0078,NA,NA,NA,NA,NA,90,54,0,75,75,77,1,2,76,"likert"
"026B393D91B54690840BE16795BF9EC4",1,"01990a98-5d9b-7704-b4ab-e7b48c8dc764","01990a84-c4ee-73c2-a87b-ff46a7d3dde5","2025-09-02_14h44.34.729",NA,NA,866.3416,866.3417,866.3417,866.6956,NA,NA,NA,NA,NA,NA,NA,TRUE,2,0.0101,863.3444,866.3411,NA,NA,NA,NA,NA,100,54,0,76,76,89,1,2,77,"likert"
"026B393D91B54690840BE16795BF9EC4",1,"01990a98-5d9b-7704-b4ab-e7b48c8dc764","01990a84-c4ee-73c2-a87b-ff46a7d3dde5","2025-09-02_14h44.34.729",NA,NA,869.6953,869.6953,869.6954,870.0488,NA,NA,NA,NA,NA,NA,NA,TRUE,2,0.1065,866.6994,869.6946,NA,NA,NA,NA,NA,180,39,0,77,77,99,1,2,78,"likert"
"026B393D91B54690840BE16795BF9EC4",1,"01990a98-5d9b-7704-b4ab-e7b48c8dc764","01990a84-c4ee-73c2-a87b-ff46a7d3dde5","2025-09-02_14h44.34.729",NA,NA,873.0492,873.0494,873.0494,873.4023,NA,NA,NA,NA,NA,NA,NA,TRUE,4,0.2122,870.0521,873.0485,NA,NA,NA,NA,NA,7,30,0,78,78,3,1,2,79,"likert"
"026B393D91B54690840BE16795BF9EC4",1,"01990a98-5d9b-7704-b4ab-e7b48c8dc764","01990a84-c4ee-73c2-a87b-ff46a7d3dde5","2025-09-02_14h44.34.729",NA,NA,876.4022,876.4024,876.4024,876.7559,NA,NA,NA,NA,NA,NA,NA,TRUE,2,0.0234,873.406,876.4017,NA,NA,NA,NA,NA,10,27,0,79,79,8,1,2,80,"likert"
"026B393D91B54690840BE16795BF9EC4",1,"01990a98-5d9b-7704-b4ab-e7b48c8dc764","01990a84-c4ee-73c2-a87b-ff46a7d3dde5","2025-09-02_14h44.34.729",NA,NA,879.7559,879.7562,879.7562,880.089,NA,NA,NA,NA,NA,NA,NA,TRUE,4,0.0098,876.7596,879.7554,NA,NA,NA,NA,NA,28,35,0,80,80,39,1,2,81,"likert"
"026B393D91B54690840BE16795BF9EC4",1,"01990a98-5d9b-7704-b4ab-e7b48c8dc764","01990a84-c4ee-73c2-a87b-ff46a7d3dde5","2025-09-02_14h44.34.729",NA,NA,883.0891,883.0893,883.0894,883.4424,NA,NA,NA,NA,NA,NA,NA,TRUE,2,0.0094,880.0924,883.0886,NA,NA,NA,NA,NA,21,26,0,81,81,24,1,2,82,"likert"
"026B393D91B54690840BE16795BF9EC4",1,"01990a98-5d9b-7704-b4ab-e7b48c8dc764","01990a84-c4ee-73c2-a87b-ff46a7d3dde5","2025-09-02_14h44.34.729",NA,NA,886.4421,886.4422,886.4422,886.7965,NA,NA,NA,NA,NA,NA,NA,TRUE,4,0.001,883.4466,886.4417,NA,NA,NA,NA,NA,25,33,0,82,82,33,1,2,83,"likert"
"026B393D91B54690840BE16795BF9EC4",1,"01990a98-5d9b-7704-b4ab-e7b48c8dc764","01990a84-c4ee-73c2-a87b-ff46a7d3dde5","2025-09-02_14h44.34.729",NA,NA,889.7951,889.7952,889.7952,890.1499,NA,NA,NA,NA,NA,NA,NA,TRUE,1,1.2068,886.7978,889.795,NA,NA,NA,NA,NA,10,30,0,83,83,10,1,2,84,"likert"
"026B393D91B54690840BE16795BF9EC4",1,"01990a98-5d9b-7704-b4ab-e7b48c8dc764","01990a84-c4ee-73c2-a87b-ff46a7d3dde5","2025-09-02_14h44.34.729",NA,NA,893.1502,893.1504,893.1504,893.5035,NA,NA,NA,NA,NA,NA,NA,TRUE,2,1.3411,890.158,893.1495,NA,NA,NA,NA,NA,28,26,0,84,84,36,1,2,85,"likert"
"026B393D91B54690840BE16795BF9EC4",1,"01990a98-5d9b-7704-b4ab-e7b48c8dc764","01990a84-c4ee-73c2-a87b-ff46a7d3dde5","2025-09-02_14h44.34.729",NA,NA,896.511,896.5112,896.5113,896.8573,NA,NA,NA,NA,NA,NA,NA,TRUE,2,0.0366,893.5063,896.5107,NA,NA,NA,NA,NA,25,35,0,85,85,34,1,2,86,"likert"
"026B393D91B54690840BE16795BF9EC4",1,"01990a98-5d9b-7704-b4ab-e7b48c8dc764","01990a84-c4ee-73c2-a87b-ff46a7d3dde5","2025-09-02_14h44.34.729",NA,NA,899.8574,899.8576,899.8576,900.1914,NA,NA,NA,NA,NA,NA,NA,TRUE,2,0.1975,896.8619,899.8569,NA,NA,NA,NA,NA,60,35,0,86,86,68,1,2,87,"likert"
"026B393D91B54690840BE16795BF9EC4",1,"01990a98-5d9b-7704-b4ab-e7b48c8dc764","01990a84-c4ee-73c2-a87b-ff46a7d3dde5","2025-09-02_14h44.34.729",NA,NA,903.1906,903.1907,903.1907,903.544,NA,NA,NA,NA,NA,NA,NA,TRUE,4,2.9611,900.1948,903.1903,NA,NA,NA,NA,NA,50,30,0,87,87,61,1,2,88,"likert"
"026B393D91B54690840BE16795BF9EC4",1,"01990a98-5d9b-7704-b4ab-e7b48c8dc764","01990a84-c4ee-73c2-a87b-ff46a7d3dde5","2025-09-02_14h44.34.729",NA,NA,906.5454,906.5455,906.5455,906.8977,NA,NA,NA,NA,NA,NA,NA,TRUE,4,0.1247,903.5486,906.5447,NA,NA,NA,NA,NA,200,39,0,88,88,105,1,2,89,"likert"
"026B393D91B54690840BE16795BF9EC4",1,"01990a98-5d9b-7704-b4ab-e7b48c8dc764","01990a84-c4ee-73c2-a87b-ff46a7d3dde5","2025-09-02_14h44.34.729",NA,NA,909.8985,909.8985,909.8987,910.2521,NA,NA,NA,NA,NA,NA,NA,TRUE,2,0.0013,906.9026,909.8977,NA,NA,NA,NA,NA,21,32,0,89,89,28,1,2,90,"likert"
"026B393D91B54690840BE16795BF9EC4",1,"01990a98-5d9b-7704-b4ab-e7b48c8dc764","01990a84-c4ee-73c2-a87b-ff46a7d3dde5","2025-09-02_14h44.34.729",NA,NA,913.2527,913.2529,913.2529,913.6059,NA,NA,NA,NA,NA,NA,NA,TRUE,4,2.9642,910.2565,913.2522,NA,NA,NA,NA,NA,50,40,0,90,90,63,1,2,91,"likert"
"026B393D91B54690840BE16795BF9EC4",1,"01990a98-5d9b-7704-b4ab-e7b48c8dc764","01990a84-c4ee-73c2-a87b-ff46a7d3dde5","2025-09-02_14h44.34.729",NA,NA,916.5854,916.5854,916.5854,916.9401,NA,NA,NA,NA,NA,NA,NA,TRUE,2,0.2348,913.6093,916.585,NA,NA,NA,NA,NA,100,39,0,91,91,87,1,2,92,"likert"
"026B393D91B54690840BE16795BF9EC4",1,"01990a98-5d9b-7704-b4ab-e7b48c8dc764","01990a84-c4ee-73c2-a87b-ff46a7d3dde5","2025-09-02_14h44.34.729",NA,NA,919.9394,919.9396,919.9396,920.293,NA,NA,NA,NA,NA,NA,NA,TRUE,2,0.0645,916.9416,919.9392,NA,NA,NA,NA,NA,12,26,0,92,92,13,1,2,93,"likert"
"026B393D91B54690840BE16795BF9EC4",1,"01990a98-5d9b-7704-b4ab-e7b48c8dc764","01990a84-c4ee-73c2-a87b-ff46a7d3dde5","2025-09-02_14h44.34.729",NA,NA,923.2931,923.2931,923.2932,923.6465,NA,NA,NA,NA,NA,NA,NA,TRUE,2,0.1521,920.2959,923.2926,NA,NA,NA,NA,NA,180,27,0,93,93,96,1,2,94,"likert"
"026B393D91B54690840BE16795BF9EC4",1,"01990a98-5d9b-7704-b4ab-e7b48c8dc764","01990a84-c4ee-73c2-a87b-ff46a7d3dde5","2025-09-02_14h44.34.729",NA,NA,926.6467,926.6468,926.6468,927.0002,NA,NA,NA,NA,NA,NA,NA,TRUE,4,0.0891,923.65,926.6463,NA,NA,NA,NA,NA,14,32,0,94,94,21,1,2,95,"likert"
"026B393D91B54690840BE16795BF9EC4",1,"01990a98-5d9b-7704-b4ab-e7b48c8dc764","01990a84-c4ee-73c2-a87b-ff46a7d3dde5","2025-09-02_14h44.34.729",NA,NA,930.0005,930.0007,930.0008,930.3536,NA,NA,NA,NA,NA,NA,NA,TRUE,2,0.0016,927.0037,929.9997,NA,NA,NA,NA,NA,21,27,0,95,95,25,1,2,96,"likert"
"026B393D91B54690840BE16795BF9EC4",1,"01990a98-5d9b-7704-b4ab-e7b48c8dc764","01990a84-c4ee-73c2-a87b-ff46a7d3dde5","2025-09-02_14h44.34.729",NA,NA,933.3549,933.3551,933.3552,933.6874,NA,NA,NA,NA,NA,NA,NA,TRUE,4,0.0291,930.3566,933.3545,NA,NA,NA,NA,NA,95,33,0,96,96,79,1,2,97,"likert"
"026B393D91B54690840BE16795BF9EC4",1,"01990a98-5d9b-7704-b4ab-e7b48c8dc764","01990a84-c4ee-73c2-a87b-ff46a7d3dde5","2025-09-02_14h44.34.729",NA,NA,936.7083,936.7085,936.7085,937.0406,NA,NA,NA,NA,NA,NA,NA,TRUE,2,9e-04,933.6907,936.7079,NA,NA,NA,NA,NA,10,25,0,97,97,6,1,2,98,"likert"
"026B393D91B54690840BE16795BF9EC4",1,"01990a98-5d9b-7704-b4ab-e7b48c8dc764","01990a84-c4ee-73c2-a87b-ff46a7d3dde5","2025-09-02_14h44.34.729",NA,NA,940.0417,940.0417,940.0417,940.3949,NA,NA,NA,NA,NA,NA,NA,TRUE,4,0.0873,937.0442,940.0413,NA,NA,NA,NA,NA,45,31,0,98,98,56,1,2,99,"likert"
"026B393D91B54690840BE16795BF9EC4",1,"01990a98-5d9b-7704-b4ab-e7b48c8dc764","01990a84-c4ee-73c2-a87b-ff46a7d3dde5","2025-09-02_14h44.34.729",NA,NA,943.3948,943.3949,943.395,943.7487,NA,NA,NA,NA,NA,NA,NA,TRUE,2,0.1118,940.3981,943.3943,NA,NA,NA,NA,NA,14,26,0,99,99,19,1,2,100,"likert"
"026B393D91B54690840BE16795BF9EC4",1,"01990a98-5d9b-7704-b4ab-e7b48c8dc764","01990a84-c4ee-73c2-a87b-ff46a7d3dde5","2025-09-02_14h44.34.729",NA,NA,946.7498,946.7499,946.7501,947.1019,NA,NA,NA,NA,NA,NA,NA,TRUE,4,0.0237,943.7518,946.7483,NA,NA,NA,NA,NA,30,32,0,100,100,46,1,2,101,"likert"
"026B393D91B54690840BE16795BF9EC4",1,"01990a98-5d9b-7704-b4ab-e7b48c8dc764","01990a84-c4ee-73c2-a87b-ff46a7d3dde5","2025-09-02_14h44.34.729",NA,NA,950.1018,950.1018,950.1019,950.4563,NA,NA,NA,NA,NA,NA,NA,TRUE,4,0.2185,947.1065,950.1013,NA,NA,NA,NA,NA,30,29,0,101,101,44,1,2,102,"likert"
"026B393D91B54690840BE16795BF9EC4",1,"01990a98-5d9b-7704-b4ab-e7b48c8dc764","01990a84-c4ee-73c2-a87b-ff46a7d3dde5","2025-09-02_14h44.34.729",NA,NA,953.4431,953.4431,953.4431,953.7894,NA,NA,NA,NA,NA,NA,NA,TRUE,4,0.0019,950.4608,953.4428,NA,NA,NA,NA,NA,100,46,0,102,102,88,1,2,103,"likert"
"026B393D91B54690840BE16795BF9EC4",1,"01990a98-5d9b-7704-b4ab-e7b48c8dc764","01990a84-c4ee-73c2-a87b-ff46a7d3dde5","2025-09-02_14h44.34.729",NA,NA,956.789,956.7891,956.7892,957.1431,NA,NA,NA,NA,NA,NA,NA,TRUE,2,0.0756,953.7929,956.7886,NA,NA,NA,NA,NA,14,35,0,103,103,22,1,2,104,"likert"
"026B393D91B54690840BE16795BF9EC4",1,"01990a98-5d9b-7704-b4ab-e7b48c8dc764","01990a84-c4ee-73c2-a87b-ff46a7d3dde5","2025-09-02_14h44.34.729",NA,NA,960.1427,960.1428,960.1429,960.4965,NA,NA,NA,NA,NA,NA,NA,TRUE,4,0.045,957.1464,960.1422,NA,NA,NA,NA,NA,180,31,0,104,104,97,1,2,105,"likert"
"026B393D91B54690840BE16795BF9EC4",1,"01990a98-5d9b-7704-b4ab-e7b48c8dc764","01990a84-c4ee-73c2-a87b-ff46a7d3dde5","2025-09-02_14h44.34.729",NA,NA,963.5044,963.5045,963.5045,963.8508,NA,NA,NA,NA,NA,NA,NA,TRUE,4,2.9413,960.5,963.5042,NA,NA,NA,NA,NA,12,28,0,105,105,14,1,2,106,"likert"
"026B393D91B54690840BE16795BF9EC4",1,"01990a98-5d9b-7704-b4ab-e7b48c8dc764","01990a84-c4ee-73c2-a87b-ff46a7d3dde5","2025-09-02_14h44.34.729",NA,NA,966.8516,966.8517,966.8518,967.2039,NA,NA,NA,NA,NA,NA,NA,TRUE,4,0.031,963.8547,966.8508,NA,NA,NA,NA,NA,7,35,0,106,106,5,1,2,107,"likert"
"026B393D91B54690840BE16795BF9EC4",1,"01990a98-5d9b-7704-b4ab-e7b48c8dc764","01990a84-c4ee-73c2-a87b-ff46a7d3dde5","2025-09-02_14h44.34.729",NA,NA,970.2044,970.2046,970.2047,970.5372,NA,NA,NA,NA,NA,NA,NA,TRUE,4,0.0925,967.2075,970.2039,NA,NA,NA,NA,NA,100,31,0,107,107,85,1,2,108,"likert"
