"participant","session","assignmentId","projectId","date","practiceTrial.started","practiceTrial.stopped","tooLate.started","tooLate.stopped","blank.started","blank.stopped","trials_pract.thisRepN","trials_pract.thisTrialN","trials_pract.thisN","trials_pract.thisIndex","trials_pract.ran","delay_pract","amount_pract","responseMade","key","rt","trial.started","trial.stopped","trials.thisRepN","trials.thisTrialN","trials.thisN","trials.thisIndex","trials.ran","delay","amount","trials_2.thisRepN","trials_2.thisTrialN","trials_2.thisN","trials_2.thisIndex","trials_2.ran","block","trial","taskType"
"0DBC3464746741DAB3C986C1917EE3BA",1,"0198f77e-ace9-7e9c-b88f-f7a115ebd675","0198f768-e4d2-711c-944b-6f03c09216de","2025-08-29_16h22.37.297",35.8577,38.8328,38.8342,39.0826,39.0829,39.1828,0,0,0,0,1,7,30,FALSE,NA,NA,NA,NA,NA,NA,NA,NA,NA,NA,NA,NA,NA,NA,NA,NA,0,1,"likert"
"0DBC3464746741DAB3C986C1917EE3BA",1,"0198f77e-ace9-7e9c-b88f-f7a115ebd675","0198f768-e4d2-711c-944b-6f03c09216de","2025-08-29_16h22.37.297",39.1849,42.1825,42.1828,42.1828,42.1828,42.5324,0,1,1,4,1,30,40,TRUE,5,0.0715,NA,NA,NA,NA,NA,NA,NA,NA,NA,NA,NA,NA,NA,NA,0,2,"likert"
"0DBC3464746741DAB3C986C1917EE3BA",1,"0198f77e-ace9-7e9c-b88f-f7a115ebd675","0198f768-e4d2-711c-944b-6f03c09216de","2025-08-29_16h22.37.297",42.5341,45.5327,45.533,45.533,45.5331,45.8824,0,2,2,3,1,3,27,TRUE,5,1.9609,NA,NA,NA,NA,NA,NA,NA,NA,NA,NA,NA,NA,NA,NA,0,3,"likert"
"0DBC3464746741DAB3C986C1917EE3BA",1,"0198f77e-ace9-7e9c-b88f-f7a115ebd675","0198f768-e4d2-711c-944b-6f03c09216de","2025-08-29_16h22.37.297",45.8842,48.8826,48.8828,48.8828,48.8829,49.2324,0,3,3,2,1,14,45,TRUE,5,1.4783,NA,NA,NA,NA,NA,NA,NA,NA,NA,NA,NA,NA,NA,NA,0,4,"likert"
"0DBC3464746741DAB3C986C1917EE3BA",1,"0198f77e-ace9-7e9c-b88f-f7a115ebd675","0198f768-e4d2-711c-944b-6f03c09216de","2025-08-29_16h22.37.297",49.2343,52.2325,52.2328,52.2328,52.2328,52.5815,0,4,4,1,1,100,50,TRUE,4,1.5744,NA,NA,NA,NA,NA,NA,NA,NA,NA,NA,NA,NA,NA,NA,0,5,"likert"
"0DBC3464746741DAB3C986C1917EE3BA",1,"0198f77e-ace9-7e9c-b88f-f7a115ebd675","0198f768-e4d2-711c-944b-6f03c09216de","2025-08-29_16h22.37.297",NA,NA,71.6168,71.617,71.6171,71.966,NA,NA,NA,NA,NA,NA,NA,TRUE,5,1.335,68.6337,71.6162,0,0,0,68,1,60,35,NA,NA,NA,NA,NA,1,1,"likert"
"0DBC3464746741DAB3C986C1917EE3BA",1,"0198f77e-ace9-7e9c-b88f-f7a115ebd675","0198f768-e4d2-711c-944b-6f03c09216de","2025-08-29_16h22.37.297",NA,NA,74.966,74.9661,74.9662,75.3159,NA,NA,NA,NA,NA,NA,NA,TRUE,3,1.3071,71.9681,74.9659,0,1,1,104,1,200,35,NA,NA,NA,NA,NA,1,2,"likert"
"0DBC3464746741DAB3C986C1917EE3BA",1,"0198f77e-ace9-7e9c-b88f-f7a115ebd675","0198f768-e4d2-711c-944b-6f03c09216de","2025-08-29_16h22.37.297",NA,NA,78.3163,78.3163,78.3164,78.666,NA,NA,NA,NA,NA,NA,NA,TRUE,5,1.216,75.3176,78.316,0,2,2,35,1,25,46,NA,NA,NA,NA,NA,1,3,"likert"
"0DBC3464746741DAB3C986C1917EE3BA",1,"0198f77e-ace9-7e9c-b88f-f7a115ebd675","0198f768-e4d2-711c-944b-6f03c09216de","2025-08-29_16h22.37.297",NA,NA,81.6662,81.6663,81.6663,82.0159,NA,NA,NA,NA,NA,NA,NA,TRUE,5,0.9064,78.6678,81.6659,0,3,3,39,1,28,35,NA,NA,NA,NA,NA,1,4,"likert"
"0DBC3464746741DAB3C986C1917EE3BA",1,"0198f77e-ace9-7e9c-b88f-f7a115ebd675","0198f768-e4d2-711c-944b-6f03c09216de","2025-08-29_16h22.37.297",NA,NA,85.0161,85.0163,85.0163,85.3659,NA,NA,NA,NA,NA,NA,NA,TRUE,5,1.0401,82.0175,85.016,0,4,4,43,1,30,27,NA,NA,NA,NA,NA,1,5,"likert"
"0DBC3464746741DAB3C986C1917EE3BA",1,"0198f77e-ace9-7e9c-b88f-f7a115ebd675","0198f768-e4d2-711c-944b-6f03c09216de","2025-08-29_16h22.37.297",NA,NA,88.3664,88.3664,88.3665,88.7156,NA,NA,NA,NA,NA,NA,NA,TRUE,4,0.7917,85.3675,88.3661,0,5,5,7,1,10,26,NA,NA,NA,NA,NA,1,6,"likert"
"0DBC3464746741DAB3C986C1917EE3BA",1,"0198f77e-ace9-7e9c-b88f-f7a115ebd675","0198f768-e4d2-711c-944b-6f03c09216de","2025-08-29_16h22.37.297",NA,NA,91.7162,91.7162,91.7162,92.0659,NA,NA,NA,NA,NA,NA,NA,TRUE,4,0.9756,88.7163,91.7159,0,6,6,87,1,100,39,NA,NA,NA,NA,NA,1,7,"likert"
"0DBC3464746741DAB3C986C1917EE3BA",1,"0198f77e-ace9-7e9c-b88f-f7a115ebd675","0198f768-e4d2-711c-944b-6f03c09216de","2025-08-29_16h22.37.297",NA,NA,95.0663,95.0665,95.0665,95.4159,NA,NA,NA,NA,NA,NA,NA,TRUE,5,1.2087,92.0676,95.066,0,7,7,31,1,25,29,NA,NA,NA,NA,NA,1,8,"likert"
"0DBC3464746741DAB3C986C1917EE3BA",1,"0198f77e-ace9-7e9c-b88f-f7a115ebd675","0198f768-e4d2-711c-944b-6f03c09216de","2025-08-29_16h22.37.297",NA,NA,98.4163,98.4164,98.4164,98.7659,NA,NA,NA,NA,NA,NA,NA,TRUE,4,0.9928,95.4176,98.4161,0,8,8,66,1,60,29,NA,NA,NA,NA,NA,1,9,"likert"
"0DBC3464746741DAB3C986C1917EE3BA",1,"0198f77e-ace9-7e9c-b88f-f7a115ebd675","0198f768-e4d2-711c-944b-6f03c09216de","2025-08-29_16h22.37.297",NA,NA,101.7662,101.7663,101.7663,102.116,NA,NA,NA,NA,NA,NA,NA,TRUE,5,0.6628,98.7676,101.766,0,9,9,57,1,45,35,NA,NA,NA,NA,NA,1,10,"likert"
"0DBC3464746741DAB3C986C1917EE3BA",1,"0198f77e-ace9-7e9c-b88f-f7a115ebd675","0198f768-e4d2-711c-944b-6f03c09216de","2025-08-29_16h22.37.297",NA,NA,105.1162,105.1162,105.1163,105.466,NA,NA,NA,NA,NA,NA,NA,TRUE,5,1.1074,102.1177,105.116,0,10,10,78,1,95,31,NA,NA,NA,NA,NA,1,11,"likert"
"0DBC3464746741DAB3C986C1917EE3BA",1,"0198f77e-ace9-7e9c-b88f-f7a115ebd675","0198f768-e4d2-711c-944b-6f03c09216de","2025-08-29_16h22.37.297",NA,NA,108.4662,108.4663,108.4663,108.8161,NA,NA,NA,NA,NA,NA,NA,TRUE,4,0.7114,105.4676,108.466,0,11,11,26,1,21,29,NA,NA,NA,NA,NA,1,12,"likert"
"0DBC3464746741DAB3C986C1917EE3BA",1,"0198f77e-ace9-7e9c-b88f-f7a115ebd675","0198f768-e4d2-711c-944b-6f03c09216de","2025-08-29_16h22.37.297",NA,NA,111.8163,111.8164,111.8165,112.166,NA,NA,NA,NA,NA,NA,NA,TRUE,4,1.0073,108.8178,111.8162,0,12,12,4,1,7,32,NA,NA,NA,NA,NA,1,13,"likert"
"0DBC3464746741DAB3C986C1917EE3BA",1,"0198f77e-ace9-7e9c-b88f-f7a115ebd675","0198f768-e4d2-711c-944b-6f03c09216de","2025-08-29_16h22.37.297",NA,NA,115.1662,115.1664,115.1664,115.516,NA,NA,NA,NA,NA,NA,NA,TRUE,4,0.8908,112.1677,115.166,0,13,13,54,1,45,26,NA,NA,NA,NA,NA,1,14,"likert"
"0DBC3464746741DAB3C986C1917EE3BA",1,"0198f77e-ace9-7e9c-b88f-f7a115ebd675","0198f768-e4d2-711c-944b-6f03c09216de","2025-08-29_16h22.37.297",NA,NA,118.5162,118.5163,118.5163,118.866,NA,NA,NA,NA,NA,NA,NA,TRUE,4,0.8086,115.5177,118.516,0,14,14,80,1,95,35,NA,NA,NA,NA,NA,1,15,"likert"
"0DBC3464746741DAB3C986C1917EE3BA",1,"0198f77e-ace9-7e9c-b88f-f7a115ebd675","0198f768-e4d2-711c-944b-6f03c09216de","2025-08-29_16h22.37.297",NA,NA,121.8663,121.8664,121.8665,122.2161,NA,NA,NA,NA,NA,NA,NA,TRUE,5,0.8407,118.8678,121.8661,0,15,15,12,1,12,25,NA,NA,NA,NA,NA,1,16,"likert"
"0DBC3464746741DAB3C986C1917EE3BA",1,"0198f77e-ace9-7e9c-b88f-f7a115ebd675","0198f768-e4d2-711c-944b-6f03c09216de","2025-08-29_16h22.37.297",NA,NA,125.2163,125.2164,125.2164,125.566,NA,NA,NA,NA,NA,NA,NA,TRUE,5,1.2433,122.2176,125.2161,0,16,16,5,1,7,35,NA,NA,NA,NA,NA,1,17,"likert"
"0DBC3464746741DAB3C986C1917EE3BA",1,"0198f77e-ace9-7e9c-b88f-f7a115ebd675","0198f768-e4d2-711c-944b-6f03c09216de","2025-08-29_16h22.37.297",NA,NA,128.5654,128.5654,128.5654,128.916,NA,NA,NA,NA,NA,NA,NA,TRUE,4,1.0772,125.5678,128.5652,0,17,17,52,1,40,47,NA,NA,NA,NA,NA,1,18,"likert"
"0DBC3464746741DAB3C986C1917EE3BA",1,"0198f77e-ace9-7e9c-b88f-f7a115ebd675","0198f768-e4d2-711c-944b-6f03c09216de","2025-08-29_16h22.37.297",NA,NA,131.9164,131.9165,131.9165,132.2661,NA,NA,NA,NA,NA,NA,NA,TRUE,4,0.9762,128.9178,131.9162,0,18,18,44,1,30,29,NA,NA,NA,NA,NA,1,19,"likert"
"0DBC3464746741DAB3C986C1917EE3BA",1,"0198f77e-ace9-7e9c-b88f-f7a115ebd675","0198f768-e4d2-711c-944b-6f03c09216de","2025-08-29_16h22.37.297",NA,NA,135.2662,135.2665,135.2665,135.616,NA,NA,NA,NA,NA,NA,NA,TRUE,5,1.1758,132.2679,135.2661,0,19,19,63,1,50,40,NA,NA,NA,NA,NA,1,20,"likert"
"0DBC3464746741DAB3C986C1917EE3BA",1,"0198f77e-ace9-7e9c-b88f-f7a115ebd675","0198f768-e4d2-711c-944b-6f03c09216de","2025-08-29_16h22.37.297",NA,NA,138.6163,138.6163,138.6164,138.966,NA,NA,NA,NA,NA,NA,NA,TRUE,4,1.1171,135.6176,138.616,0,20,20,61,1,50,30,NA,NA,NA,NA,NA,1,21,"likert"
"0DBC3464746741DAB3C986C1917EE3BA",1,"0198f77e-ace9-7e9c-b88f-f7a115ebd675","0198f768-e4d2-711c-944b-6f03c09216de","2025-08-29_16h22.37.297",NA,NA,141.9664,141.9665,141.9665,142.315,NA,NA,NA,NA,NA,NA,NA,TRUE,5,1.2938,138.9677,141.9662,0,21,21,106,1,200,47,NA,NA,NA,NA,NA,1,22,"likert"
"0DBC3464746741DAB3C986C1917EE3BA",1,"0198f77e-ace9-7e9c-b88f-f7a115ebd675","0198f768-e4d2-711c-944b-6f03c09216de","2025-08-29_16h22.37.297",NA,NA,145.3163,145.3164,145.3164,145.665,NA,NA,NA,NA,NA,NA,NA,TRUE,4,0.6923,142.3165,145.316,0,22,22,27,1,21,30,NA,NA,NA,NA,NA,1,23,"likert"
"0DBC3464746741DAB3C986C1917EE3BA",1,"0198f77e-ace9-7e9c-b88f-f7a115ebd675","0198f768-e4d2-711c-944b-6f03c09216de","2025-08-29_16h22.37.297",NA,NA,148.6653,148.6653,148.6653,149.016,NA,NA,NA,NA,NA,NA,NA,TRUE,1,1.0031,145.6664,148.6652,0,23,23,6,1,10,25,NA,NA,NA,NA,NA,1,24,"likert"
"0DBC3464746741DAB3C986C1917EE3BA",1,"0198f77e-ace9-7e9c-b88f-f7a115ebd675","0198f768-e4d2-711c-944b-6f03c09216de","2025-08-29_16h22.37.297",NA,NA,152.0163,152.0165,152.0165,152.3661,NA,NA,NA,NA,NA,NA,NA,TRUE,4,1.2894,149.0179,152.0161,0,24,24,2,1,7,28,NA,NA,NA,NA,NA,1,25,"likert"
"0DBC3464746741DAB3C986C1917EE3BA",1,"0198f77e-ace9-7e9c-b88f-f7a115ebd675","0198f768-e4d2-711c-944b-6f03c09216de","2025-08-29_16h22.37.297",NA,NA,155.3655,155.3655,155.3655,155.716,NA,NA,NA,NA,NA,NA,NA,TRUE,5,1.2573,152.3677,155.3653,0,25,25,59,1,45,46,NA,NA,NA,NA,NA,1,26,"likert"
"0DBC3464746741DAB3C986C1917EE3BA",1,"0198f77e-ace9-7e9c-b88f-f7a115ebd675","0198f768-e4d2-711c-944b-6f03c09216de","2025-08-29_16h22.37.297",NA,NA,158.7163,158.7164,158.7164,159.066,NA,NA,NA,NA,NA,NA,NA,TRUE,4,0.891,155.7179,158.7161,0,26,26,15,1,12,31,NA,NA,NA,NA,NA,1,27,"likert"
"0DBC3464746741DAB3C986C1917EE3BA",1,"0198f77e-ace9-7e9c-b88f-f7a115ebd675","0198f768-e4d2-711c-944b-6f03c09216de","2025-08-29_16h22.37.297",NA,NA,162.0663,162.0664,162.0664,162.4162,NA,NA,NA,NA,NA,NA,NA,TRUE,1,0.9728,159.0677,162.0661,0,27,27,103,1,200,28,NA,NA,NA,NA,NA,1,28,"likert"
"0DBC3464746741DAB3C986C1917EE3BA",1,"0198f77e-ace9-7e9c-b88f-f7a115ebd675","0198f768-e4d2-711c-944b-6f03c09216de","2025-08-29_16h22.37.297",NA,NA,165.4163,165.4164,165.4165,165.766,NA,NA,NA,NA,NA,NA,NA,TRUE,4,1.1914,162.4179,165.4161,0,28,28,16,1,12,33,NA,NA,NA,NA,NA,1,29,"likert"
"0DBC3464746741DAB3C986C1917EE3BA",1,"0198f77e-ace9-7e9c-b88f-f7a115ebd675","0198f768-e4d2-711c-944b-6f03c09216de","2025-08-29_16h22.37.297",NA,NA,168.7663,168.7664,168.7664,169.1162,NA,NA,NA,NA,NA,NA,NA,TRUE,1,0.8529,165.7677,168.7661,0,29,29,84,1,100,26,NA,NA,NA,NA,NA,1,30,"likert"
"0DBC3464746741DAB3C986C1917EE3BA",1,"0198f77e-ace9-7e9c-b88f-f7a115ebd675","0198f768-e4d2-711c-944b-6f03c09216de","2025-08-29_16h22.37.297",NA,NA,172.1163,172.1164,172.1164,172.4661,NA,NA,NA,NA,NA,NA,NA,TRUE,1,0.8936,169.1175,172.1161,0,30,30,1,1,7,26,NA,NA,NA,NA,NA,1,31,"likert"
"0DBC3464746741DAB3C986C1917EE3BA",1,"0198f77e-ace9-7e9c-b88f-f7a115ebd675","0198f768-e4d2-711c-944b-6f03c09216de","2025-08-29_16h22.37.297",NA,NA,175.4664,175.4665,175.4665,175.8161,NA,NA,NA,NA,NA,NA,NA,TRUE,5,1.0191,172.4678,175.4661,0,31,31,47,1,30,38,NA,NA,NA,NA,NA,1,32,"likert"
"0DBC3464746741DAB3C986C1917EE3BA",1,"0198f77e-ace9-7e9c-b88f-f7a115ebd675","0198f768-e4d2-711c-944b-6f03c09216de","2025-08-29_16h22.37.297",NA,NA,178.8166,178.8167,178.8167,179.1651,NA,NA,NA,NA,NA,NA,NA,TRUE,1,0.7339,175.8178,178.8163,0,32,32,13,1,12,26,NA,NA,NA,NA,NA,1,33,"likert"
"0DBC3464746741DAB3C986C1917EE3BA",1,"0198f77e-ace9-7e9c-b88f-f7a115ebd675","0198f768-e4d2-711c-944b-6f03c09216de","2025-08-29_16h22.37.297",NA,NA,182.1659,182.166,182.1661,182.5163,NA,NA,NA,NA,NA,NA,NA,TRUE,1,1.0587,179.1666,182.1658,0,33,33,48,1,40,27,NA,NA,NA,NA,NA,1,34,"likert"
"0DBC3464746741DAB3C986C1917EE3BA",1,"0198f77e-ace9-7e9c-b88f-f7a115ebd675","0198f768-e4d2-711c-944b-6f03c09216de","2025-08-29_16h22.37.297",NA,NA,185.5164,185.5165,185.5166,185.8663,NA,NA,NA,NA,NA,NA,NA,TRUE,1,0.9738,182.5179,185.5163,0,34,34,25,1,21,27,NA,NA,NA,NA,NA,1,35,"likert"
"0DBC3464746741DAB3C986C1917EE3BA",1,"0198f77e-ace9-7e9c-b88f-f7a115ebd675","0198f768-e4d2-711c-944b-6f03c09216de","2025-08-29_16h22.37.297",NA,NA,188.8659,188.8659,188.8661,189.2152,NA,NA,NA,NA,NA,NA,NA,TRUE,1,0.8015,185.8679,188.8657,0,35,35,19,1,14,26,NA,NA,NA,NA,NA,1,36,"likert"
"0DBC3464746741DAB3C986C1917EE3BA",1,"0198f77e-ace9-7e9c-b88f-f7a115ebd675","0198f768-e4d2-711c-944b-6f03c09216de","2025-08-29_16h22.37.297",NA,NA,192.2164,192.2165,192.2165,192.5661,NA,NA,NA,NA,NA,NA,NA,TRUE,5,1.0575,189.2166,192.2162,0,36,36,58,1,45,40,NA,NA,NA,NA,NA,1,37,"likert"
"0DBC3464746741DAB3C986C1917EE3BA",1,"0198f77e-ace9-7e9c-b88f-f7a115ebd675","0198f768-e4d2-711c-944b-6f03c09216de","2025-08-29_16h22.37.297",NA,NA,195.5665,195.5666,195.5666,195.9161,NA,NA,NA,NA,NA,NA,NA,TRUE,4,1.3784,192.5674,195.5663,0,37,37,107,1,200,54,NA,NA,NA,NA,NA,1,38,"likert"
"0DBC3464746741DAB3C986C1917EE3BA",1,"0198f77e-ace9-7e9c-b88f-f7a115ebd675","0198f768-e4d2-711c-944b-6f03c09216de","2025-08-29_16h22.37.297",NA,NA,198.9165,198.9166,198.9166,199.2662,NA,NA,NA,NA,NA,NA,NA,TRUE,1,1.34,195.9174,198.9162,0,38,38,36,1,28,26,NA,NA,NA,NA,NA,1,39,"likert"
"0DBC3464746741DAB3C986C1917EE3BA",1,"0198f77e-ace9-7e9c-b88f-f7a115ebd675","0198f768-e4d2-711c-944b-6f03c09216de","2025-08-29_16h22.37.297",NA,NA,202.2664,202.2665,202.2666,202.6151,NA,NA,NA,NA,NA,NA,NA,TRUE,1,1.2018,199.268,202.2663,0,39,39,9,1,10,29,NA,NA,NA,NA,NA,1,40,"likert"
"0DBC3464746741DAB3C986C1917EE3BA",1,"0198f77e-ace9-7e9c-b88f-f7a115ebd675","0198f768-e4d2-711c-944b-6f03c09216de","2025-08-29_16h22.37.297",NA,NA,205.6154,205.6154,205.6155,205.9662,NA,NA,NA,NA,NA,NA,NA,TRUE,4,1.1821,202.6167,205.6152,0,40,40,14,1,12,28,NA,NA,NA,NA,NA,1,41,"likert"
"0DBC3464746741DAB3C986C1917EE3BA",1,"0198f77e-ace9-7e9c-b88f-f7a115ebd675","0198f768-e4d2-711c-944b-6f03c09216de","2025-08-29_16h22.37.297",NA,NA,208.9665,208.9666,208.9666,209.3152,NA,NA,NA,NA,NA,NA,NA,TRUE,4,1.4077,205.9678,208.9663,0,41,41,82,1,95,47,NA,NA,NA,NA,NA,1,42,"likert"
"0DBC3464746741DAB3C986C1917EE3BA",1,"0198f77e-ace9-7e9c-b88f-f7a115ebd675","0198f768-e4d2-711c-944b-6f03c09216de","2025-08-29_16h22.37.297",NA,NA,212.3165,212.3165,212.3165,212.6663,NA,NA,NA,NA,NA,NA,NA,TRUE,5,1.4436,209.3169,212.3162,0,42,42,71,1,60,54,NA,NA,NA,NA,NA,1,43,"likert"
"0DBC3464746741DAB3C986C1917EE3BA",1,"0198f77e-ace9-7e9c-b88f-f7a115ebd675","0198f768-e4d2-711c-944b-6f03c09216de","2025-08-29_16h22.37.297",NA,NA,215.666,215.666,215.666,216.0163,NA,NA,NA,NA,NA,NA,NA,TRUE,4,1.0414,212.6678,215.6659,0,43,43,46,1,30,32,NA,NA,NA,NA,NA,1,44,"likert"
"0DBC3464746741DAB3C986C1917EE3BA",1,"0198f77e-ace9-7e9c-b88f-f7a115ebd675","0198f768-e4d2-711c-944b-6f03c09216de","2025-08-29_16h22.37.297",NA,NA,219.0167,219.0168,219.0168,219.3663,NA,NA,NA,NA,NA,NA,NA,TRUE,5,1.5267,216.0179,219.0164,0,44,44,45,1,30,30,NA,NA,NA,NA,NA,1,45,"likert"
"0DBC3464746741DAB3C986C1917EE3BA",1,"0198f77e-ace9-7e9c-b88f-f7a115ebd675","0198f768-e4d2-711c-944b-6f03c09216de","2025-08-29_16h22.37.297",NA,NA,222.3655,222.3655,222.3655,222.7161,NA,NA,NA,NA,NA,NA,NA,TRUE,5,0.9573,219.3677,222.3654,0,45,45,21,1,14,32,NA,NA,NA,NA,NA,1,46,"likert"
"0DBC3464746741DAB3C986C1917EE3BA",1,"0198f77e-ace9-7e9c-b88f-f7a115ebd675","0198f768-e4d2-711c-944b-6f03c09216de","2025-08-29_16h22.37.297",NA,NA,225.7165,225.7166,225.7167,226.0652,NA,NA,NA,NA,NA,NA,NA,TRUE,5,1.1782,222.7174,225.7163,0,46,46,33,1,25,33,NA,NA,NA,NA,NA,1,47,"likert"
"0DBC3464746741DAB3C986C1917EE3BA",1,"0198f77e-ace9-7e9c-b88f-f7a115ebd675","0198f768-e4d2-711c-944b-6f03c09216de","2025-08-29_16h22.37.297",NA,NA,229.0665,229.0666,229.0666,229.4152,NA,NA,NA,NA,NA,NA,NA,TRUE,4,1.0105,226.0668,229.0663,0,47,47,73,1,90,30,NA,NA,NA,NA,NA,1,48,"likert"
"0DBC3464746741DAB3C986C1917EE3BA",1,"0198f77e-ace9-7e9c-b88f-f7a115ebd675","0198f768-e4d2-711c-944b-6f03c09216de","2025-08-29_16h22.37.297",NA,NA,232.4166,232.4167,232.4167,232.7662,NA,NA,NA,NA,NA,NA,NA,TRUE,5,1.2116,229.4168,232.4164,0,48,48,86,1,100,38,NA,NA,NA,NA,NA,1,49,"likert"
"0DBC3464746741DAB3C986C1917EE3BA",1,"0198f77e-ace9-7e9c-b88f-f7a115ebd675","0198f768-e4d2-711c-944b-6f03c09216de","2025-08-29_16h22.37.297",NA,NA,235.766,235.766,235.766,236.1163,NA,NA,NA,NA,NA,NA,NA,TRUE,4,1.1796,232.7678,235.7659,0,49,49,95,1,150,54,NA,NA,NA,NA,NA,1,50,"likert"
"0DBC3464746741DAB3C986C1917EE3BA",1,"0198f77e-ace9-7e9c-b88f-f7a115ebd675","0198f768-e4d2-711c-944b-6f03c09216de","2025-08-29_16h22.37.297",NA,NA,239.1167,239.1167,239.1168,239.4662,NA,NA,NA,NA,NA,NA,NA,TRUE,1,1.3428,236.1178,239.1164,0,50,50,102,1,200,26,NA,NA,NA,NA,NA,1,51,"likert"
"0DBC3464746741DAB3C986C1917EE3BA",1,"0198f77e-ace9-7e9c-b88f-f7a115ebd675","0198f768-e4d2-711c-944b-6f03c09216de","2025-08-29_16h22.37.297",NA,NA,242.4665,242.4666,242.4666,242.8152,NA,NA,NA,NA,NA,NA,NA,TRUE,5,0.9573,239.4677,242.4664,0,51,51,62,1,50,35,NA,NA,NA,NA,NA,1,52,"likert"
"0DBC3464746741DAB3C986C1917EE3BA",1,"0198f77e-ace9-7e9c-b88f-f7a115ebd675","0198f768-e4d2-711c-944b-6f03c09216de","2025-08-29_16h22.37.297",NA,NA,245.8166,245.8167,245.8167,246.1663,NA,NA,NA,NA,NA,NA,NA,TRUE,5,0.9011,242.8171,245.8164,0,52,52,40,1,28,39,NA,NA,NA,NA,NA,1,53,"likert"
"0DBC3464746741DAB3C986C1917EE3BA",1,"0198f77e-ace9-7e9c-b88f-f7a115ebd675","0198f768-e4d2-711c-944b-6f03c09216de","2025-08-29_16h22.37.297",NA,NA,249.1666,249.1667,249.1667,249.5162,NA,NA,NA,NA,NA,NA,NA,TRUE,5,0.9281,246.168,249.1664,0,53,53,3,1,7,30,NA,NA,NA,NA,NA,1,54,"likert"
"0DBC3464746741DAB3C986C1917EE3BA",1,"0198f77e-ace9-7e9c-b88f-f7a115ebd675","0198f768-e4d2-711c-944b-6f03c09216de","2025-08-29_16h22.37.297",NA,NA,252.5166,252.5167,252.5167,252.8664,NA,NA,NA,NA,NA,NA,NA,TRUE,4,0.9073,249.5176,252.5164,0,54,54,67,1,60,33,NA,NA,NA,NA,NA,1,55,"likert"
"0DBC3464746741DAB3C986C1917EE3BA",1,"0198f77e-ace9-7e9c-b88f-f7a115ebd675","0198f768-e4d2-711c-944b-6f03c09216de","2025-08-29_16h22.37.297",NA,NA,255.8667,255.8667,255.8667,256.2164,NA,NA,NA,NA,NA,NA,NA,TRUE,4,1.458,252.8681,255.8664,0,55,55,55,1,45,29,NA,NA,NA,NA,NA,1,56,"likert"
"0DBC3464746741DAB3C986C1917EE3BA",1,"0198f77e-ace9-7e9c-b88f-f7a115ebd675","0198f768-e4d2-711c-944b-6f03c09216de","2025-08-29_16h22.37.297",NA,NA,259.2166,259.2168,259.2168,259.5664,NA,NA,NA,NA,NA,NA,NA,TRUE,5,1.5528,256.218,259.2164,0,56,56,20,1,14,28,NA,NA,NA,NA,NA,1,57,"likert"
"0DBC3464746741DAB3C986C1917EE3BA",1,"0198f77e-ace9-7e9c-b88f-f7a115ebd675","0198f768-e4d2-711c-944b-6f03c09216de","2025-08-29_16h22.37.297",NA,NA,262.5655,262.5656,262.5656,262.9163,NA,NA,NA,NA,NA,NA,NA,TRUE,4,1.0792,259.5681,262.5654,0,57,57,75,1,90,40,NA,NA,NA,NA,NA,1,58,"likert"
"0DBC3464746741DAB3C986C1917EE3BA",1,"0198f77e-ace9-7e9c-b88f-f7a115ebd675","0198f768-e4d2-711c-944b-6f03c09216de","2025-08-29_16h22.37.297",NA,NA,265.9166,265.9167,265.9168,266.2664,NA,NA,NA,NA,NA,NA,NA,TRUE,5,1.3577,262.9181,265.9165,0,58,58,53,1,40,54,NA,NA,NA,NA,NA,1,59,"likert"
"0DBC3464746741DAB3C986C1917EE3BA",1,"0198f77e-ace9-7e9c-b88f-f7a115ebd675","0198f768-e4d2-711c-944b-6f03c09216de","2025-08-29_16h22.37.297",NA,NA,269.2666,269.2666,269.2667,269.6164,NA,NA,NA,NA,NA,NA,NA,TRUE,4,1.745,266.2681,269.2663,0,59,59,51,1,40,40,NA,NA,NA,NA,NA,1,60,"likert"
"0DBC3464746741DAB3C986C1917EE3BA",1,"0198f77e-ace9-7e9c-b88f-f7a115ebd675","0198f768-e4d2-711c-944b-6f03c09216de","2025-08-29_16h22.37.297",NA,NA,272.6167,272.6167,272.6168,272.9665,NA,NA,NA,NA,NA,NA,NA,TRUE,5,1.7089,269.6181,272.6165,0,60,60,89,1,100,54,NA,NA,NA,NA,NA,1,61,"likert"
"0DBC3464746741DAB3C986C1917EE3BA",1,"0198f77e-ace9-7e9c-b88f-f7a115ebd675","0198f768-e4d2-711c-944b-6f03c09216de","2025-08-29_16h22.37.297",NA,NA,275.9657,275.9657,275.9658,276.3164,NA,NA,NA,NA,NA,NA,NA,TRUE,4,1.4078,272.9683,275.9655,0,61,61,97,1,180,31,NA,NA,NA,NA,NA,1,62,"likert"
"0DBC3464746741DAB3C986C1917EE3BA",1,"0198f77e-ace9-7e9c-b88f-f7a115ebd675","0198f768-e4d2-711c-944b-6f03c09216de","2025-08-29_16h22.37.297",NA,NA,279.3167,279.3168,279.3168,279.6665,NA,NA,NA,NA,NA,NA,NA,TRUE,4,1.541,276.318,279.3165,0,62,62,60,1,50,27,NA,NA,NA,NA,NA,1,63,"likert"
"0DBC3464746741DAB3C986C1917EE3BA",1,"0198f77e-ace9-7e9c-b88f-f7a115ebd675","0198f768-e4d2-711c-944b-6f03c09216de","2025-08-29_16h22.37.297",NA,NA,282.6665,282.6665,282.6665,283.0164,NA,NA,NA,NA,NA,NA,NA,TRUE,5,1.9075,279.6681,282.6663,0,63,63,17,1,12,35,NA,NA,NA,NA,NA,1,64,"likert"
"0DBC3464746741DAB3C986C1917EE3BA",1,"0198f77e-ace9-7e9c-b88f-f7a115ebd675","0198f768-e4d2-711c-944b-6f03c09216de","2025-08-29_16h22.37.297",NA,NA,286.0167,286.0168,286.0168,286.3664,NA,NA,NA,NA,NA,NA,NA,TRUE,5,1.4505,283.018,286.0165,0,64,64,99,1,180,39,NA,NA,NA,NA,NA,1,65,"likert"
"0DBC3464746741DAB3C986C1917EE3BA",1,"0198f77e-ace9-7e9c-b88f-f7a115ebd675","0198f768-e4d2-711c-944b-6f03c09216de","2025-08-29_16h22.37.297",NA,NA,289.3667,289.3667,289.3668,289.7164,NA,NA,NA,NA,NA,NA,NA,TRUE,1,1.72,286.3682,289.3665,0,65,65,18,1,14,25,NA,NA,NA,NA,NA,1,66,"likert"
"0DBC3464746741DAB3C986C1917EE3BA",1,"0198f77e-ace9-7e9c-b88f-f7a115ebd675","0198f768-e4d2-711c-944b-6f03c09216de","2025-08-29_16h22.37.297",NA,NA,292.7166,292.7167,292.7167,293.0665,NA,NA,NA,NA,NA,NA,NA,TRUE,5,1.3114,289.7175,292.7164,0,66,66,65,1,50,54,NA,NA,NA,NA,NA,1,67,"likert"
"0DBC3464746741DAB3C986C1917EE3BA",1,"0198f77e-ace9-7e9c-b88f-f7a115ebd675","0198f768-e4d2-711c-944b-6f03c09216de","2025-08-29_16h22.37.297",NA,NA,296.0667,296.0668,296.0669,296.4164,NA,NA,NA,NA,NA,NA,NA,TRUE,4,1.4757,293.0681,296.0665,0,67,67,42,1,30,26,NA,NA,NA,NA,NA,1,68,"likert"
"0DBC3464746741DAB3C986C1917EE3BA",1,"0198f77e-ace9-7e9c-b88f-f7a115ebd675","0198f768-e4d2-711c-944b-6f03c09216de","2025-08-29_16h22.37.297",NA,NA,299.4166,299.4166,299.4166,299.7664,NA,NA,NA,NA,NA,NA,NA,TRUE,5,1.7574,296.4181,299.4164,0,68,68,23,1,14,39,NA,NA,NA,NA,NA,1,69,"likert"
"0DBC3464746741DAB3C986C1917EE3BA",1,"0198f77e-ace9-7e9c-b88f-f7a115ebd675","0198f768-e4d2-711c-944b-6f03c09216de","2025-08-29_16h22.37.297",NA,NA,302.7667,302.7668,302.7668,303.1165,NA,NA,NA,NA,NA,NA,NA,TRUE,4,1.595,299.7681,302.7665,0,69,69,37,1,28,28,NA,NA,NA,NA,NA,1,70,"likert"
"0DBC3464746741DAB3C986C1917EE3BA",1,"0198f77e-ace9-7e9c-b88f-f7a115ebd675","0198f768-e4d2-711c-944b-6f03c09216de","2025-08-29_16h22.37.297",NA,NA,306.1167,306.1169,306.1169,306.4664,NA,NA,NA,NA,NA,NA,NA,TRUE,5,1.2935,303.1182,306.1166,0,70,70,8,1,10,27,NA,NA,NA,NA,NA,1,71,"likert"
"0DBC3464746741DAB3C986C1917EE3BA",1,"0198f77e-ace9-7e9c-b88f-f7a115ebd675","0198f768-e4d2-711c-944b-6f03c09216de","2025-08-29_16h22.37.297",NA,NA,309.4667,309.4668,309.4668,309.8166,NA,NA,NA,NA,NA,NA,NA,TRUE,5,1.1625,306.4681,309.4665,0,71,71,83,1,95,54,NA,NA,NA,NA,NA,1,72,"likert"
"0DBC3464746741DAB3C986C1917EE3BA",1,"0198f77e-ace9-7e9c-b88f-f7a115ebd675","0198f768-e4d2-711c-944b-6f03c09216de","2025-08-29_16h22.37.297",NA,NA,312.8168,312.8168,312.8168,313.1666,NA,NA,NA,NA,NA,NA,NA,TRUE,5,1.0285,309.8182,312.8166,0,72,72,88,1,100,46,NA,NA,NA,NA,NA,1,73,"likert"
"0DBC3464746741DAB3C986C1917EE3BA",1,"0198f77e-ace9-7e9c-b88f-f7a115ebd675","0198f768-e4d2-711c-944b-6f03c09216de","2025-08-29_16h22.37.297",NA,NA,316.1668,316.1669,316.1669,316.5165,NA,NA,NA,NA,NA,NA,NA,TRUE,1,0.7244,313.1682,316.1665,0,73,73,0,1,7,25,NA,NA,NA,NA,NA,1,74,"likert"
"0DBC3464746741DAB3C986C1917EE3BA",1,"0198f77e-ace9-7e9c-b88f-f7a115ebd675","0198f768-e4d2-711c-944b-6f03c09216de","2025-08-29_16h22.37.297",NA,NA,319.5169,319.517,319.517,319.8664,NA,NA,NA,NA,NA,NA,NA,TRUE,5,1.4771,316.5182,319.5166,0,74,74,32,1,25,31,NA,NA,NA,NA,NA,1,75,"likert"
"0DBC3464746741DAB3C986C1917EE3BA",1,"0198f77e-ace9-7e9c-b88f-f7a115ebd675","0198f768-e4d2-711c-944b-6f03c09216de","2025-08-29_16h22.37.297",NA,NA,322.8668,322.8669,322.8669,323.2166,NA,NA,NA,NA,NA,NA,NA,TRUE,4,1.1745,319.8681,322.8665,0,75,75,10,1,10,30,NA,NA,NA,NA,NA,1,76,"likert"
"0DBC3464746741DAB3C986C1917EE3BA",1,"0198f77e-ace9-7e9c-b88f-f7a115ebd675","0198f768-e4d2-711c-944b-6f03c09216de","2025-08-29_16h22.37.297",NA,NA,326.2168,326.2169,326.217,326.5665,NA,NA,NA,NA,NA,NA,NA,TRUE,1,0.9965,323.2183,326.2166,0,76,76,24,1,21,26,NA,NA,NA,NA,NA,1,77,"likert"
"0DBC3464746741DAB3C986C1917EE3BA",1,"0198f77e-ace9-7e9c-b88f-f7a115ebd675","0198f768-e4d2-711c-944b-6f03c09216de","2025-08-29_16h22.37.297",NA,NA,329.5668,329.5669,329.5669,329.9165,NA,NA,NA,NA,NA,NA,NA,TRUE,5,0.8574,326.5685,329.5666,0,77,77,69,1,60,40,NA,NA,NA,NA,NA,1,78,"likert"
"0DBC3464746741DAB3C986C1917EE3BA",1,"0198f77e-ace9-7e9c-b88f-f7a115ebd675","0198f768-e4d2-711c-944b-6f03c09216de","2025-08-29_16h22.37.297",NA,NA,332.9168,332.9169,332.9169,333.2665,NA,NA,NA,NA,NA,NA,NA,TRUE,5,1.1906,329.9182,332.9166,0,78,78,11,1,10,32,NA,NA,NA,NA,NA,1,79,"likert"
"0DBC3464746741DAB3C986C1917EE3BA",1,"0198f77e-ace9-7e9c-b88f-f7a115ebd675","0198f768-e4d2-711c-944b-6f03c09216de","2025-08-29_16h22.37.297",NA,NA,336.2668,336.2669,336.2669,336.6164,NA,NA,NA,NA,NA,NA,NA,TRUE,1,1.7242,333.2681,336.2666,0,79,79,30,1,25,27,NA,NA,NA,NA,NA,1,80,"likert"
"0DBC3464746741DAB3C986C1917EE3BA",1,"0198f77e-ace9-7e9c-b88f-f7a115ebd675","0198f768-e4d2-711c-944b-6f03c09216de","2025-08-29_16h22.37.297",NA,NA,339.6169,339.6169,339.6169,339.9666,NA,NA,NA,NA,NA,NA,NA,TRUE,5,1.6774,336.618,339.6166,0,80,80,41,1,28,46,NA,NA,NA,NA,NA,1,81,"likert"
"0DBC3464746741DAB3C986C1917EE3BA",1,"0198f77e-ace9-7e9c-b88f-f7a115ebd675","0198f768-e4d2-711c-944b-6f03c09216de","2025-08-29_16h22.37.297",NA,NA,342.9668,342.9668,342.9669,343.3165,NA,NA,NA,NA,NA,NA,NA,TRUE,4,1.3269,339.9682,342.9666,0,81,81,92,1,150,35,NA,NA,NA,NA,NA,1,82,"likert"
"0DBC3464746741DAB3C986C1917EE3BA",1,"0198f77e-ace9-7e9c-b88f-f7a115ebd675","0198f768-e4d2-711c-944b-6f03c09216de","2025-08-29_16h22.37.297",NA,NA,346.3167,346.3169,346.3169,346.6665,NA,NA,NA,NA,NA,NA,NA,TRUE,5,1.3803,343.3177,346.3165,0,82,82,28,1,21,32,NA,NA,NA,NA,NA,1,83,"likert"
"0DBC3464746741DAB3C986C1917EE3BA",1,"0198f77e-ace9-7e9c-b88f-f7a115ebd675","0198f768-e4d2-711c-944b-6f03c09216de","2025-08-29_16h22.37.297",NA,NA,349.6669,349.667,349.667,350.0166,NA,NA,NA,NA,NA,NA,NA,TRUE,4,0.9768,346.6682,349.6667,0,83,83,50,1,40,35,NA,NA,NA,NA,NA,1,84,"likert"
"0DBC3464746741DAB3C986C1917EE3BA",1,"0198f77e-ace9-7e9c-b88f-f7a115ebd675","0198f768-e4d2-711c-944b-6f03c09216de","2025-08-29_16h22.37.297",NA,NA,353.0168,353.0169,353.0169,353.3664,NA,NA,NA,NA,NA,NA,NA,TRUE,2,2.2405,350.0183,353.0166,0,84,84,94,1,150,47,NA,NA,NA,NA,NA,1,85,"likert"
"0DBC3464746741DAB3C986C1917EE3BA",1,"0198f77e-ace9-7e9c-b88f-f7a115ebd675","0198f768-e4d2-711c-944b-6f03c09216de","2025-08-29_16h22.37.297",NA,NA,356.3668,356.3669,356.367,356.7155,NA,NA,NA,NA,NA,NA,NA,TRUE,4,2.4587,353.3676,356.3667,0,85,85,96,1,180,27,NA,NA,NA,NA,NA,1,86,"likert"
"0DBC3464746741DAB3C986C1917EE3BA",1,"0198f77e-ace9-7e9c-b88f-f7a115ebd675","0198f768-e4d2-711c-944b-6f03c09216de","2025-08-29_16h22.37.297",NA,NA,359.7167,359.7167,359.7167,360.0666,NA,NA,NA,NA,NA,NA,NA,TRUE,5,1.1598,356.7171,359.7165,0,86,86,100,1,180,46,NA,NA,NA,NA,NA,1,87,"likert"
"0DBC3464746741DAB3C986C1917EE3BA",1,"0198f77e-ace9-7e9c-b88f-f7a115ebd675","0198f768-e4d2-711c-944b-6f03c09216de","2025-08-29_16h22.37.297",NA,NA,363.0669,363.0669,363.0669,363.4166,NA,NA,NA,NA,NA,NA,NA,TRUE,2,1.2936,360.0683,363.0667,0,87,87,105,1,200,39,NA,NA,NA,NA,NA,1,88,"likert"
"0DBC3464746741DAB3C986C1917EE3BA",1,"0198f77e-ace9-7e9c-b88f-f7a115ebd675","0198f768-e4d2-711c-944b-6f03c09216de","2025-08-29_16h22.37.297",NA,NA,366.4169,366.417,366.417,366.7666,NA,NA,NA,NA,NA,NA,NA,TRUE,5,1.2091,363.4183,366.4166,0,88,88,22,1,14,35,NA,NA,NA,NA,NA,1,89,"likert"
"0DBC3464746741DAB3C986C1917EE3BA",1,"0198f77e-ace9-7e9c-b88f-f7a115ebd675","0198f768-e4d2-711c-944b-6f03c09216de","2025-08-29_16h22.37.297",NA,NA,369.767,369.7671,369.7671,370.1167,NA,NA,NA,NA,NA,NA,NA,TRUE,2,1.5095,366.7683,369.7668,0,89,89,101,1,180,54,NA,NA,NA,NA,NA,1,90,"likert"
"0DBC3464746741DAB3C986C1917EE3BA",1,"0198f77e-ace9-7e9c-b88f-f7a115ebd675","0198f768-e4d2-711c-944b-6f03c09216de","2025-08-29_16h22.37.297",NA,NA,373.1169,373.1169,373.1169,373.4666,NA,NA,NA,NA,NA,NA,NA,TRUE,4,1.6753,370.1184,373.1168,0,90,90,70,1,60,47,NA,NA,NA,NA,NA,1,91,"likert"
"0DBC3464746741DAB3C986C1917EE3BA",1,"0198f77e-ace9-7e9c-b88f-f7a115ebd675","0198f768-e4d2-711c-944b-6f03c09216de","2025-08-29_16h22.37.297",NA,NA,376.467,376.467,376.4671,376.8167,NA,NA,NA,NA,NA,NA,NA,TRUE,4,1.9077,373.4683,376.4667,0,91,91,38,1,28,32,NA,NA,NA,NA,NA,1,92,"likert"
"0DBC3464746741DAB3C986C1917EE3BA",1,"0198f77e-ace9-7e9c-b88f-f7a115ebd675","0198f768-e4d2-711c-944b-6f03c09216de","2025-08-29_16h22.37.297",NA,NA,379.817,379.8171,379.8172,380.1667,NA,NA,NA,NA,NA,NA,NA,TRUE,5,2.2911,376.8183,379.8167,0,92,92,49,1,40,33,NA,NA,NA,NA,NA,1,93,"likert"
"0DBC3464746741DAB3C986C1917EE3BA",1,"0198f77e-ace9-7e9c-b88f-f7a115ebd675","0198f768-e4d2-711c-944b-6f03c09216de","2025-08-29_16h22.37.297",NA,NA,383.1669,383.1669,383.167,383.5167,NA,NA,NA,NA,NA,NA,NA,TRUE,2,1.8246,380.1684,383.1666,0,93,93,98,1,180,35,NA,NA,NA,NA,NA,1,94,"likert"
"0DBC3464746741DAB3C986C1917EE3BA",1,"0198f77e-ace9-7e9c-b88f-f7a115ebd675","0198f768-e4d2-711c-944b-6f03c09216de","2025-08-29_16h22.37.297",NA,NA,386.5169,386.517,386.5171,386.8667,NA,NA,NA,NA,NA,NA,NA,TRUE,4,1.6619,383.5183,386.5168,0,94,94,56,1,45,31,NA,NA,NA,NA,NA,1,95,"likert"
"0DBC3464746741DAB3C986C1917EE3BA",1,"0198f77e-ace9-7e9c-b88f-f7a115ebd675","0198f768-e4d2-711c-944b-6f03c09216de","2025-08-29_16h22.37.297",NA,NA,389.8667,389.8669,389.8669,390.2167,NA,NA,NA,NA,NA,NA,NA,TRUE,5,2.0911,386.8685,389.8667,0,95,95,91,1,150,33,NA,NA,NA,NA,NA,1,96,"likert"
"0DBC3464746741DAB3C986C1917EE3BA",1,"0198f77e-ace9-7e9c-b88f-f7a115ebd675","0198f768-e4d2-711c-944b-6f03c09216de","2025-08-29_16h22.37.297",NA,NA,393.217,393.2171,393.2171,393.5666,NA,NA,NA,NA,NA,NA,NA,TRUE,4,1.3575,390.2184,393.2167,0,96,96,64,1,50,46,NA,NA,NA,NA,NA,1,97,"likert"
"0DBC3464746741DAB3C986C1917EE3BA",1,"0198f77e-ace9-7e9c-b88f-f7a115ebd675","0198f768-e4d2-711c-944b-6f03c09216de","2025-08-29_16h22.37.297",NA,NA,396.5669,396.567,396.567,396.9167,NA,NA,NA,NA,NA,NA,NA,TRUE,2,2.0416,393.5684,396.5668,0,97,97,74,1,90,33,NA,NA,NA,NA,NA,1,98,"likert"
"0DBC3464746741DAB3C986C1917EE3BA",1,"0198f77e-ace9-7e9c-b88f-f7a115ebd675","0198f768-e4d2-711c-944b-6f03c09216de","2025-08-29_16h22.37.297",NA,NA,399.917,399.9171,399.9172,400.2667,NA,NA,NA,NA,NA,NA,NA,TRUE,5,1.5406,396.9185,399.9168,0,98,98,81,1,95,40,NA,NA,NA,NA,NA,1,99,"likert"
"0DBC3464746741DAB3C986C1917EE3BA",1,"0198f77e-ace9-7e9c-b88f-f7a115ebd675","0198f768-e4d2-711c-944b-6f03c09216de","2025-08-29_16h22.37.297",NA,NA,403.267,403.2671,403.2672,403.6167,NA,NA,NA,NA,NA,NA,NA,TRUE,4,1.9909,400.2683,403.2668,0,99,99,79,1,95,33,NA,NA,NA,NA,NA,1,100,"likert"
"0DBC3464746741DAB3C986C1917EE3BA",1,"0198f77e-ace9-7e9c-b88f-f7a115ebd675","0198f768-e4d2-711c-944b-6f03c09216de","2025-08-29_16h22.37.297",NA,NA,406.6169,406.617,406.617,406.9667,NA,NA,NA,NA,NA,NA,NA,TRUE,2,1.5584,403.6184,406.6168,0,100,100,76,1,90,46,NA,NA,NA,NA,NA,1,101,"likert"
"0DBC3464746741DAB3C986C1917EE3BA",1,"0198f77e-ace9-7e9c-b88f-f7a115ebd675","0198f768-e4d2-711c-944b-6f03c09216de","2025-08-29_16h22.37.297",NA,NA,409.9672,409.9672,409.9672,410.3168,NA,NA,NA,NA,NA,NA,NA,TRUE,4,1.3744,406.9684,409.9669,0,101,101,85,1,100,31,NA,NA,NA,NA,NA,1,102,"likert"
"0DBC3464746741DAB3C986C1917EE3BA",1,"0198f77e-ace9-7e9c-b88f-f7a115ebd675","0198f768-e4d2-711c-944b-6f03c09216de","2025-08-29_16h22.37.297",NA,NA,413.317,413.317,413.317,413.6667,NA,NA,NA,NA,NA,NA,NA,TRUE,5,0.841,410.3187,413.3168,0,102,102,90,1,150,31,NA,NA,NA,NA,NA,1,103,"likert"
"0DBC3464746741DAB3C986C1917EE3BA",1,"0198f77e-ace9-7e9c-b88f-f7a115ebd675","0198f768-e4d2-711c-944b-6f03c09216de","2025-08-29_16h22.37.297",NA,NA,416.6669,416.6671,416.6671,417.0167,NA,NA,NA,NA,NA,NA,NA,TRUE,5,1.5252,413.6684,416.6667,0,103,103,34,1,25,35,NA,NA,NA,NA,NA,1,104,"likert"
"0DBC3464746741DAB3C986C1917EE3BA",1,"0198f77e-ace9-7e9c-b88f-f7a115ebd675","0198f768-e4d2-711c-944b-6f03c09216de","2025-08-29_16h22.37.297",NA,NA,420.0171,420.0172,420.0172,420.3669,NA,NA,NA,NA,NA,NA,NA,TRUE,2,0.9753,417.0184,420.0168,0,104,104,77,1,90,54,NA,NA,NA,NA,NA,1,105,"likert"
"0DBC3464746741DAB3C986C1917EE3BA",1,"0198f77e-ace9-7e9c-b88f-f7a115ebd675","0198f768-e4d2-711c-944b-6f03c09216de","2025-08-29_16h22.37.297",NA,NA,423.3671,423.3672,423.3672,423.7166,NA,NA,NA,NA,NA,NA,NA,TRUE,2,1.4571,420.3687,423.3669,0,105,105,72,1,90,26,NA,NA,NA,NA,NA,1,106,"likert"
"0DBC3464746741DAB3C986C1917EE3BA",1,"0198f77e-ace9-7e9c-b88f-f7a115ebd675","0198f768-e4d2-711c-944b-6f03c09216de","2025-08-29_16h22.37.297",NA,NA,426.717,426.717,426.7171,427.0668,NA,NA,NA,NA,NA,NA,NA,TRUE,4,1.6541,423.7178,426.7168,0,106,106,29,1,21,38,NA,NA,NA,NA,NA,1,107,"likert"
"0DBC3464746741DAB3C986C1917EE3BA",1,"0198f77e-ace9-7e9c-b88f-f7a115ebd675","0198f768-e4d2-711c-944b-6f03c09216de","2025-08-29_16h22.37.297",NA,NA,430.0671,430.0671,430.0671,430.4168,NA,NA,NA,NA,NA,NA,NA,TRUE,3,1.9409,427.0684,430.0668,0,107,107,93,1,150,40,NA,NA,NA,NA,NA,1,108,"likert"
"0DBC3464746741DAB3C986C1917EE3BA",1,"0198f77e-ace9-7e9c-b88f-f7a115ebd675","0198f768-e4d2-711c-944b-6f03c09216de","2025-08-29_16h22.37.297",NA,NA,487.0173,487.0173,487.0173,487.3669,NA,NA,NA,NA,NA,NA,NA,TRUE,5,1.8474,484.0366,487.017,NA,NA,NA,NA,NA,12,31,0,0,0,15,1,2,1,"likert"
"0DBC3464746741DAB3C986C1917EE3BA",1,"0198f77e-ace9-7e9c-b88f-f7a115ebd675","0198f768-e4d2-711c-944b-6f03c09216de","2025-08-29_16h22.37.297",NA,NA,490.3673,490.3673,490.3673,490.717,NA,NA,NA,NA,NA,NA,NA,TRUE,5,1.0015,487.3686,490.367,NA,NA,NA,NA,NA,28,39,0,1,1,40,1,2,2,"likert"
"0DBC3464746741DAB3C986C1917EE3BA",1,"0198f77e-ace9-7e9c-b88f-f7a115ebd675","0198f768-e4d2-711c-944b-6f03c09216de","2025-08-29_16h22.37.297",NA,NA,493.7171,493.7172,493.7172,494.0669,NA,NA,NA,NA,NA,NA,NA,TRUE,5,0.9358,490.7185,493.7169,NA,NA,NA,NA,NA,40,47,0,2,2,52,1,2,3,"likert"
"0DBC3464746741DAB3C986C1917EE3BA",1,"0198f77e-ace9-7e9c-b88f-f7a115ebd675","0198f768-e4d2-711c-944b-6f03c09216de","2025-08-29_16h22.37.297",NA,NA,497.0672,497.0672,497.0672,497.4169,NA,NA,NA,NA,NA,NA,NA,TRUE,4,1.4505,494.0685,497.067,NA,NA,NA,NA,NA,90,54,0,3,3,77,1,2,4,"likert"
"0DBC3464746741DAB3C986C1917EE3BA",1,"0198f77e-ace9-7e9c-b88f-f7a115ebd675","0198f768-e4d2-711c-944b-6f03c09216de","2025-08-29_16h22.37.297",NA,NA,500.4172,500.4173,500.4173,500.7659,NA,NA,NA,NA,NA,NA,NA,TRUE,5,0.9288,497.4186,500.4171,NA,NA,NA,NA,NA,7,32,0,4,4,4,1,2,5,"likert"
"0DBC3464746741DAB3C986C1917EE3BA",1,"0198f77e-ace9-7e9c-b88f-f7a115ebd675","0198f768-e4d2-711c-944b-6f03c09216de","2025-08-29_16h22.37.297",NA,NA,503.7672,503.7672,503.7672,504.1169,NA,NA,NA,NA,NA,NA,NA,TRUE,1,1.3273,500.7675,503.767,NA,NA,NA,NA,NA,45,29,0,5,5,55,1,2,6,"likert"
"0DBC3464746741DAB3C986C1917EE3BA",1,"0198f77e-ace9-7e9c-b88f-f7a115ebd675","0198f768-e4d2-711c-944b-6f03c09216de","2025-08-29_16h22.37.297",NA,NA,507.1173,507.1173,507.1173,507.467,NA,NA,NA,NA,NA,NA,NA,TRUE,1,0.8507,504.1186,507.117,NA,NA,NA,NA,NA,200,26,0,6,6,102,1,2,7,"likert"
"0DBC3464746741DAB3C986C1917EE3BA",1,"0198f77e-ace9-7e9c-b88f-f7a115ebd675","0198f768-e4d2-711c-944b-6f03c09216de","2025-08-29_16h22.37.297",NA,NA,510.4673,510.4673,510.4673,510.817,NA,NA,NA,NA,NA,NA,NA,TRUE,5,1.9407,507.4687,510.467,NA,NA,NA,NA,NA,90,33,0,7,7,74,1,2,8,"likert"
"0DBC3464746741DAB3C986C1917EE3BA",1,"0198f77e-ace9-7e9c-b88f-f7a115ebd675","0198f768-e4d2-711c-944b-6f03c09216de","2025-08-29_16h22.37.297",NA,NA,513.8173,513.8173,513.8173,514.167,NA,NA,NA,NA,NA,NA,NA,TRUE,4,1.3422,510.8186,513.8171,NA,NA,NA,NA,NA,150,54,0,8,8,95,1,2,9,"likert"
"0DBC3464746741DAB3C986C1917EE3BA",1,"0198f77e-ace9-7e9c-b88f-f7a115ebd675","0198f768-e4d2-711c-944b-6f03c09216de","2025-08-29_16h22.37.297",NA,NA,517.1673,517.1673,517.1673,517.517,NA,NA,NA,NA,NA,NA,NA,TRUE,1,0.7425,514.1686,517.1671,NA,NA,NA,NA,NA,12,26,0,9,9,13,1,2,10,"likert"
"0DBC3464746741DAB3C986C1917EE3BA",1,"0198f77e-ace9-7e9c-b88f-f7a115ebd675","0198f768-e4d2-711c-944b-6f03c09216de","2025-08-29_16h22.37.297",NA,NA,520.5173,520.5173,520.5173,520.8671,NA,NA,NA,NA,NA,NA,NA,TRUE,5,0.603,517.5187,520.517,NA,NA,NA,NA,NA,14,28,0,10,10,20,1,2,11,"likert"
"0DBC3464746741DAB3C986C1917EE3BA",1,"0198f77e-ace9-7e9c-b88f-f7a115ebd675","0198f768-e4d2-711c-944b-6f03c09216de","2025-08-29_16h22.37.297",NA,NA,523.8673,523.8674,523.8674,524.217,NA,NA,NA,NA,NA,NA,NA,TRUE,1,0.9076,520.8688,523.8671,NA,NA,NA,NA,NA,7,25,0,11,11,0,1,2,12,"likert"
"0DBC3464746741DAB3C986C1917EE3BA",1,"0198f77e-ace9-7e9c-b88f-f7a115ebd675","0198f768-e4d2-711c-944b-6f03c09216de","2025-08-29_16h22.37.297",NA,NA,527.2173,527.2174,527.2174,527.5671,NA,NA,NA,NA,NA,NA,NA,TRUE,5,1.3082,524.2187,527.2171,NA,NA,NA,NA,NA,95,35,0,12,12,80,1,2,13,"likert"
"0DBC3464746741DAB3C986C1917EE3BA",1,"0198f77e-ace9-7e9c-b88f-f7a115ebd675","0198f768-e4d2-711c-944b-6f03c09216de","2025-08-29_16h22.37.297",NA,NA,530.5673,530.5673,530.5674,530.917,NA,NA,NA,NA,NA,NA,NA,TRUE,4,0.841,527.5688,530.5671,NA,NA,NA,NA,NA,25,29,0,13,13,31,1,2,14,"likert"
"0DBC3464746741DAB3C986C1917EE3BA",1,"0198f77e-ace9-7e9c-b88f-f7a115ebd675","0198f768-e4d2-711c-944b-6f03c09216de","2025-08-29_16h22.37.297",NA,NA,533.9173,533.9175,533.9176,534.2669,NA,NA,NA,NA,NA,NA,NA,TRUE,1,1.2936,530.9188,533.9172,NA,NA,NA,NA,NA,25,27,0,14,14,30,1,2,15,"likert"
"0DBC3464746741DAB3C986C1917EE3BA",1,"0198f77e-ace9-7e9c-b88f-f7a115ebd675","0198f768-e4d2-711c-944b-6f03c09216de","2025-08-29_16h22.37.297",NA,NA,537.2673,537.2673,537.2674,537.617,NA,NA,NA,NA,NA,NA,NA,TRUE,5,0.8955,534.2686,537.2671,NA,NA,NA,NA,NA,28,35,0,15,15,39,1,2,16,"likert"
"0DBC3464746741DAB3C986C1917EE3BA",1,"0198f77e-ace9-7e9c-b88f-f7a115ebd675","0198f768-e4d2-711c-944b-6f03c09216de","2025-08-29_16h22.37.297",NA,NA,540.6173,540.6173,540.6174,540.9669,NA,NA,NA,NA,NA,NA,NA,TRUE,5,1.0073,537.6187,540.6172,NA,NA,NA,NA,NA,7,35,0,16,16,5,1,2,17,"likert"
"0DBC3464746741DAB3C986C1917EE3BA",1,"0198f77e-ace9-7e9c-b88f-f7a115ebd675","0198f768-e4d2-711c-944b-6f03c09216de","2025-08-29_16h22.37.297",NA,NA,543.9671,543.9671,543.9671,544.3171,NA,NA,NA,NA,NA,NA,NA,TRUE,5,0.6118,540.9686,543.9669,NA,NA,NA,NA,NA,14,35,0,17,17,22,1,2,18,"likert"
"0DBC3464746741DAB3C986C1917EE3BA",1,"0198f77e-ace9-7e9c-b88f-f7a115ebd675","0198f768-e4d2-711c-944b-6f03c09216de","2025-08-29_16h22.37.297",NA,NA,547.3174,547.3174,547.3174,547.6671,NA,NA,NA,NA,NA,NA,NA,TRUE,1,1.0419,544.3188,547.3172,NA,NA,NA,NA,NA,14,25,0,18,18,18,1,2,19,"likert"
"0DBC3464746741DAB3C986C1917EE3BA",1,"0198f77e-ace9-7e9c-b88f-f7a115ebd675","0198f768-e4d2-711c-944b-6f03c09216de","2025-08-29_16h22.37.297",NA,NA,550.6674,550.6674,550.6675,551.0172,NA,NA,NA,NA,NA,NA,NA,TRUE,5,0.9911,547.6687,550.6672,NA,NA,NA,NA,NA,30,32,0,19,19,46,1,2,20,"likert"
"0DBC3464746741DAB3C986C1917EE3BA",1,"0198f77e-ace9-7e9c-b88f-f7a115ebd675","0198f768-e4d2-711c-944b-6f03c09216de","2025-08-29_16h22.37.297",NA,NA,554.0173,554.0174,554.0174,554.3671,NA,NA,NA,NA,NA,NA,NA,TRUE,1,0.9255,551.0188,554.0171,NA,NA,NA,NA,NA,10,26,0,20,20,7,1,2,21,"likert"
"0DBC3464746741DAB3C986C1917EE3BA",1,"0198f77e-ace9-7e9c-b88f-f7a115ebd675","0198f768-e4d2-711c-944b-6f03c09216de","2025-08-29_16h22.37.297",NA,NA,557.3674,557.3674,557.3675,557.717,NA,NA,NA,NA,NA,NA,NA,TRUE,5,0.9044,554.3688,557.3672,NA,NA,NA,NA,NA,95,54,0,21,21,83,1,2,22,"likert"
"0DBC3464746741DAB3C986C1917EE3BA",1,"0198f77e-ace9-7e9c-b88f-f7a115ebd675","0198f768-e4d2-711c-944b-6f03c09216de","2025-08-29_16h22.37.297",NA,NA,560.7174,560.7174,560.7174,561.0671,NA,NA,NA,NA,NA,NA,NA,TRUE,1,0.8109,557.7182,560.7172,NA,NA,NA,NA,NA,7,26,0,22,22,1,1,2,23,"likert"
"0DBC3464746741DAB3C986C1917EE3BA",1,"0198f77e-ace9-7e9c-b88f-f7a115ebd675","0198f768-e4d2-711c-944b-6f03c09216de","2025-08-29_16h22.37.297",NA,NA,564.0673,564.0673,564.0674,564.4171,NA,NA,NA,NA,NA,NA,NA,TRUE,4,1.2425,561.0688,564.0671,NA,NA,NA,NA,NA,95,31,0,23,23,78,1,2,24,"likert"
"0DBC3464746741DAB3C986C1917EE3BA",1,"0198f77e-ace9-7e9c-b88f-f7a115ebd675","0198f768-e4d2-711c-944b-6f03c09216de","2025-08-29_16h22.37.297",NA,NA,567.4173,567.4175,567.4175,567.7671,NA,NA,NA,NA,NA,NA,NA,TRUE,4,1.3457,564.4187,567.4172,NA,NA,NA,NA,NA,180,46,0,24,24,100,1,2,25,"likert"
"0DBC3464746741DAB3C986C1917EE3BA",1,"0198f77e-ace9-7e9c-b88f-f7a115ebd675","0198f768-e4d2-711c-944b-6f03c09216de","2025-08-29_16h22.37.297",NA,NA,570.7674,570.7674,570.7675,571.1171,NA,NA,NA,NA,NA,NA,NA,TRUE,5,0.9571,567.7688,570.7672,NA,NA,NA,NA,NA,60,33,0,25,25,67,1,2,26,"likert"
"0DBC3464746741DAB3C986C1917EE3BA",1,"0198f77e-ace9-7e9c-b88f-f7a115ebd675","0198f768-e4d2-711c-944b-6f03c09216de","2025-08-29_16h22.37.297",NA,NA,574.1174,574.1175,574.1175,574.4671,NA,NA,NA,NA,NA,NA,NA,TRUE,5,1.0577,571.119,574.1173,NA,NA,NA,NA,NA,10,32,0,26,26,11,1,2,27,"likert"
"0DBC3464746741DAB3C986C1917EE3BA",1,"0198f77e-ace9-7e9c-b88f-f7a115ebd675","0198f768-e4d2-711c-944b-6f03c09216de","2025-08-29_16h22.37.297",NA,NA,577.4674,577.4675,577.4675,577.8171,NA,NA,NA,NA,NA,NA,NA,TRUE,5,1.1741,574.4689,577.4672,NA,NA,NA,NA,NA,28,28,0,27,27,37,1,2,28,"likert"
"0DBC3464746741DAB3C986C1917EE3BA",1,"0198f77e-ace9-7e9c-b88f-f7a115ebd675","0198f768-e4d2-711c-944b-6f03c09216de","2025-08-29_16h22.37.297",NA,NA,580.8174,580.8176,580.8176,581.1673,NA,NA,NA,NA,NA,NA,NA,TRUE,4,1.2447,577.8188,580.8172,NA,NA,NA,NA,NA,45,31,0,28,28,56,1,2,29,"likert"
"0DBC3464746741DAB3C986C1917EE3BA",1,"0198f77e-ace9-7e9c-b88f-f7a115ebd675","0198f768-e4d2-711c-944b-6f03c09216de","2025-08-29_16h22.37.297",NA,NA,584.1674,584.1674,584.1675,584.5161,NA,NA,NA,NA,NA,NA,NA,TRUE,1,1.5901,581.1689,584.1672,NA,NA,NA,NA,NA,14,26,0,29,29,19,1,2,30,"likert"
"0DBC3464746741DAB3C986C1917EE3BA",1,"0198f77e-ace9-7e9c-b88f-f7a115ebd675","0198f768-e4d2-711c-944b-6f03c09216de","2025-08-29_16h22.37.297",NA,NA,587.5175,587.5175,587.5176,587.8671,NA,NA,NA,NA,NA,NA,NA,TRUE,1,1.1318,584.5178,587.5172,NA,NA,NA,NA,NA,180,27,0,30,30,96,1,2,31,"likert"
"0DBC3464746741DAB3C986C1917EE3BA",1,"0198f77e-ace9-7e9c-b88f-f7a115ebd675","0198f768-e4d2-711c-944b-6f03c09216de","2025-08-29_16h22.37.297",NA,NA,590.8674,590.8675,590.8675,591.2172,NA,NA,NA,NA,NA,NA,NA,TRUE,5,1.0768,587.8689,590.8673,NA,NA,NA,NA,NA,12,28,0,31,31,14,1,2,32,"likert"
"0DBC3464746741DAB3C986C1917EE3BA",1,"0198f77e-ace9-7e9c-b88f-f7a115ebd675","0198f768-e4d2-711c-944b-6f03c09216de","2025-08-29_16h22.37.297",NA,NA,594.2175,594.2175,594.2175,594.5672,NA,NA,NA,NA,NA,NA,NA,TRUE,4,1.1572,591.2189,594.2173,NA,NA,NA,NA,NA,200,47,0,32,32,106,1,2,33,"likert"
"0DBC3464746741DAB3C986C1917EE3BA",1,"0198f77e-ace9-7e9c-b88f-f7a115ebd675","0198f768-e4d2-711c-944b-6f03c09216de","2025-08-29_16h22.37.297",NA,NA,597.5675,597.5675,597.5675,597.9172,NA,NA,NA,NA,NA,NA,NA,TRUE,4,1.4701,594.5689,597.5673,NA,NA,NA,NA,NA,30,38,0,33,33,47,1,2,34,"likert"
"0DBC3464746741DAB3C986C1917EE3BA",1,"0198f77e-ace9-7e9c-b88f-f7a115ebd675","0198f768-e4d2-711c-944b-6f03c09216de","2025-08-29_16h22.37.297",NA,NA,600.9165,600.9165,600.9165,601.2671,NA,NA,NA,NA,NA,NA,NA,TRUE,5,0.863,597.9188,600.9162,NA,NA,NA,NA,NA,28,32,0,34,34,38,1,2,35,"likert"
"0DBC3464746741DAB3C986C1917EE3BA",1,"0198f77e-ace9-7e9c-b88f-f7a115ebd675","0198f768-e4d2-711c-944b-6f03c09216de","2025-08-29_16h22.37.297",NA,NA,604.2675,604.2675,604.2675,604.6172,NA,NA,NA,NA,NA,NA,NA,TRUE,4,1.1414,601.2686,604.2672,NA,NA,NA,NA,NA,180,31,0,35,35,97,1,2,36,"likert"
"0DBC3464746741DAB3C986C1917EE3BA",1,"0198f77e-ace9-7e9c-b88f-f7a115ebd675","0198f768-e4d2-711c-944b-6f03c09216de","2025-08-29_16h22.37.297",NA,NA,607.6175,607.6175,607.6176,607.9672,NA,NA,NA,NA,NA,NA,NA,TRUE,5,0.8911,604.6189,607.6173,NA,NA,NA,NA,NA,25,33,0,36,36,33,1,2,37,"likert"
"0DBC3464746741DAB3C986C1917EE3BA",1,"0198f77e-ace9-7e9c-b88f-f7a115ebd675","0198f768-e4d2-711c-944b-6f03c09216de","2025-08-29_16h22.37.297",NA,NA,610.9675,610.9675,610.9676,611.3173,NA,NA,NA,NA,NA,NA,NA,TRUE,5,0.9414,607.9689,610.9673,NA,NA,NA,NA,NA,25,35,0,37,37,34,1,2,38,"likert"
"0DBC3464746741DAB3C986C1917EE3BA",1,"0198f77e-ace9-7e9c-b88f-f7a115ebd675","0198f768-e4d2-711c-944b-6f03c09216de","2025-08-29_16h22.37.297",NA,NA,614.3175,614.3176,614.3176,614.6672,NA,NA,NA,NA,NA,NA,NA,TRUE,1,1.1576,611.3189,614.3173,NA,NA,NA,NA,NA,45,26,0,38,38,54,1,2,39,"likert"
"0DBC3464746741DAB3C986C1917EE3BA",1,"0198f77e-ace9-7e9c-b88f-f7a115ebd675","0198f768-e4d2-711c-944b-6f03c09216de","2025-08-29_16h22.37.297",NA,NA,617.6674,617.6675,617.6676,618.0174,NA,NA,NA,NA,NA,NA,NA,TRUE,4,0.7411,614.669,617.6673,NA,NA,NA,NA,NA,40,27,0,39,39,48,1,2,40,"likert"
"0DBC3464746741DAB3C986C1917EE3BA",1,"0198f77e-ace9-7e9c-b88f-f7a115ebd675","0198f768-e4d2-711c-944b-6f03c09216de","2025-08-29_16h22.37.297",NA,NA,621.0176,621.0177,621.0177,621.3673,NA,NA,NA,NA,NA,NA,NA,TRUE,1,0.5268,618.019,621.0173,NA,NA,NA,NA,NA,30,27,0,40,40,43,1,2,41,"likert"
"0DBC3464746741DAB3C986C1917EE3BA",1,"0198f77e-ace9-7e9c-b88f-f7a115ebd675","0198f768-e4d2-711c-944b-6f03c09216de","2025-08-29_16h22.37.297",NA,NA,624.3675,624.3676,624.3677,624.7173,NA,NA,NA,NA,NA,NA,NA,TRUE,5,0.7736,621.3691,624.3674,NA,NA,NA,NA,NA,14,39,0,41,41,23,1,2,42,"likert"
"0DBC3464746741DAB3C986C1917EE3BA",1,"0198f77e-ace9-7e9c-b88f-f7a115ebd675","0198f768-e4d2-711c-944b-6f03c09216de","2025-08-29_16h22.37.297",NA,NA,627.7173,627.7173,627.7174,628.0672,NA,NA,NA,NA,NA,NA,NA,TRUE,4,1.129,624.7189,627.7172,NA,NA,NA,NA,NA,100,31,0,42,42,85,1,2,43,"likert"
"0DBC3464746741DAB3C986C1917EE3BA",1,"0198f77e-ace9-7e9c-b88f-f7a115ebd675","0198f768-e4d2-711c-944b-6f03c09216de","2025-08-29_16h22.37.297",NA,NA,631.0675,631.0677,631.0677,631.4172,NA,NA,NA,NA,NA,NA,NA,TRUE,5,1.5449,628.069,631.0673,NA,NA,NA,NA,NA,10,30,0,43,43,10,1,2,44,"likert"
"0DBC3464746741DAB3C986C1917EE3BA",1,"0198f77e-ace9-7e9c-b88f-f7a115ebd675","0198f768-e4d2-711c-944b-6f03c09216de","2025-08-29_16h22.37.297",NA,NA,634.4176,634.4176,634.4176,634.7673,NA,NA,NA,NA,NA,NA,NA,TRUE,5,1.4908,631.419,634.4174,NA,NA,NA,NA,NA,100,46,0,44,44,88,1,2,45,"likert"
"0DBC3464746741DAB3C986C1917EE3BA",1,"0198f77e-ace9-7e9c-b88f-f7a115ebd675","0198f768-e4d2-711c-944b-6f03c09216de","2025-08-29_16h22.37.297",NA,NA,637.7676,637.7677,637.7677,638.1172,NA,NA,NA,NA,NA,NA,NA,TRUE,4,1.1405,634.7689,637.7673,NA,NA,NA,NA,NA,150,33,0,45,45,91,1,2,46,"likert"
"0DBC3464746741DAB3C986C1917EE3BA",1,"0198f77e-ace9-7e9c-b88f-f7a115ebd675","0198f768-e4d2-711c-944b-6f03c09216de","2025-08-29_16h22.37.297",NA,NA,641.1176,641.1176,641.1177,641.4674,NA,NA,NA,NA,NA,NA,NA,TRUE,4,1.1076,638.119,641.1175,NA,NA,NA,NA,NA,100,54,0,46,46,89,1,2,47,"likert"
"0DBC3464746741DAB3C986C1917EE3BA",1,"0198f77e-ace9-7e9c-b88f-f7a115ebd675","0198f768-e4d2-711c-944b-6f03c09216de","2025-08-29_16h22.37.297",NA,NA,644.4675,644.4676,644.4676,644.8174,NA,NA,NA,NA,NA,NA,NA,TRUE,4,1.2128,641.4691,644.4673,NA,NA,NA,NA,NA,50,40,0,47,47,63,1,2,48,"likert"
"0DBC3464746741DAB3C986C1917EE3BA",1,"0198f77e-ace9-7e9c-b88f-f7a115ebd675","0198f768-e4d2-711c-944b-6f03c09216de","2025-08-29_16h22.37.297",NA,NA,647.8176,647.8176,647.8177,648.1673,NA,NA,NA,NA,NA,NA,NA,TRUE,4,1.4784,644.819,647.8174,NA,NA,NA,NA,NA,95,40,0,48,48,81,1,2,49,"likert"
"0DBC3464746741DAB3C986C1917EE3BA",1,"0198f77e-ace9-7e9c-b88f-f7a115ebd675","0198f768-e4d2-711c-944b-6f03c09216de","2025-08-29_16h22.37.297",NA,NA,651.1676,651.1677,651.1677,651.5174,NA,NA,NA,NA,NA,NA,NA,TRUE,4,1.6252,648.1689,651.1674,NA,NA,NA,NA,NA,200,54,0,49,49,107,1,2,50,"likert"
"0DBC3464746741DAB3C986C1917EE3BA",1,"0198f77e-ace9-7e9c-b88f-f7a115ebd675","0198f768-e4d2-711c-944b-6f03c09216de","2025-08-29_16h22.37.297",NA,NA,654.5176,654.5177,654.5177,654.8674,NA,NA,NA,NA,NA,NA,NA,TRUE,4,1.7076,651.5189,654.5174,NA,NA,NA,NA,NA,45,35,0,50,50,57,1,2,51,"likert"
"0DBC3464746741DAB3C986C1917EE3BA",1,"0198f77e-ace9-7e9c-b88f-f7a115ebd675","0198f768-e4d2-711c-944b-6f03c09216de","2025-08-29_16h22.37.297",NA,NA,657.8676,657.8678,657.8678,658.2164,NA,NA,NA,NA,NA,NA,NA,TRUE,5,1.0412,654.869,657.8674,NA,NA,NA,NA,NA,12,33,0,51,51,16,1,2,52,"likert"
"0DBC3464746741DAB3C986C1917EE3BA",1,"0198f77e-ace9-7e9c-b88f-f7a115ebd675","0198f768-e4d2-711c-944b-6f03c09216de","2025-08-29_16h22.37.297",NA,NA,661.2177,661.2177,661.2177,661.5674,NA,NA,NA,NA,NA,NA,NA,TRUE,4,1.0597,658.2181,661.2175,NA,NA,NA,NA,NA,180,54,0,52,52,101,1,2,53,"likert"
"0DBC3464746741DAB3C986C1917EE3BA",1,"0198f77e-ace9-7e9c-b88f-f7a115ebd675","0198f768-e4d2-711c-944b-6f03c09216de","2025-08-29_16h22.37.297",NA,NA,664.5676,664.5677,664.5677,664.9173,NA,NA,NA,NA,NA,NA,NA,TRUE,5,1.4118,661.5691,664.5675,NA,NA,NA,NA,NA,95,33,0,53,53,79,1,2,54,"likert"
"0DBC3464746741DAB3C986C1917EE3BA",1,"0198f77e-ace9-7e9c-b88f-f7a115ebd675","0198f768-e4d2-711c-944b-6f03c09216de","2025-08-29_16h22.37.297",NA,NA,667.9177,667.9178,667.9179,668.2674,NA,NA,NA,NA,NA,NA,NA,TRUE,4,1.3076,664.9191,667.9175,NA,NA,NA,NA,NA,200,39,0,54,54,105,1,2,55,"likert"
"0DBC3464746741DAB3C986C1917EE3BA",1,"0198f77e-ace9-7e9c-b88f-f7a115ebd675","0198f768-e4d2-711c-944b-6f03c09216de","2025-08-29_16h22.37.297",NA,NA,671.2676,671.2677,671.2677,671.6174,NA,NA,NA,NA,NA,NA,NA,TRUE,5,1.1909,668.2692,671.2675,NA,NA,NA,NA,NA,12,25,0,55,55,12,1,2,56,"likert"
"0DBC3464746741DAB3C986C1917EE3BA",1,"0198f77e-ace9-7e9c-b88f-f7a115ebd675","0198f768-e4d2-711c-944b-6f03c09216de","2025-08-29_16h22.37.297",NA,NA,674.6176,674.6177,674.6178,674.9674,NA,NA,NA,NA,NA,NA,NA,TRUE,5,1.2772,671.6191,674.6174,NA,NA,NA,NA,NA,40,35,0,56,56,50,1,2,57,"likert"
"0DBC3464746741DAB3C986C1917EE3BA",1,"0198f77e-ace9-7e9c-b88f-f7a115ebd675","0198f768-e4d2-711c-944b-6f03c09216de","2025-08-29_16h22.37.297",NA,NA,677.9677,677.9678,677.9678,678.3174,NA,NA,NA,NA,NA,NA,NA,TRUE,1,1.2905,674.9692,677.9674,NA,NA,NA,NA,NA,90,26,0,57,57,72,1,2,58,"likert"
"0DBC3464746741DAB3C986C1917EE3BA",1,"0198f77e-ace9-7e9c-b88f-f7a115ebd675","0198f768-e4d2-711c-944b-6f03c09216de","2025-08-29_16h22.37.297",NA,NA,681.3176,681.3178,681.3178,681.6675,NA,NA,NA,NA,NA,NA,NA,TRUE,5,1.1753,678.3191,681.3175,NA,NA,NA,NA,NA,100,38,0,58,58,86,1,2,59,"likert"
"0DBC3464746741DAB3C986C1917EE3BA",1,"0198f77e-ace9-7e9c-b88f-f7a115ebd675","0198f768-e4d2-711c-944b-6f03c09216de","2025-08-29_16h22.37.297",NA,NA,684.6677,684.6678,684.6678,685.0174,NA,NA,NA,NA,NA,NA,NA,TRUE,4,1.6412,681.6693,684.6675,NA,NA,NA,NA,NA,45,46,0,59,59,59,1,2,60,"likert"
"0DBC3464746741DAB3C986C1917EE3BA",1,"0198f77e-ace9-7e9c-b88f-f7a115ebd675","0198f768-e4d2-711c-944b-6f03c09216de","2025-08-29_16h22.37.297",NA,NA,688.0176,688.0178,688.0179,688.3674,NA,NA,NA,NA,NA,NA,NA,TRUE,4,1.7205,685.0191,688.0175,NA,NA,NA,NA,NA,50,30,0,60,60,61,1,2,61,"likert"
"0DBC3464746741DAB3C986C1917EE3BA",1,"0198f77e-ace9-7e9c-b88f-f7a115ebd675","0198f768-e4d2-711c-944b-6f03c09216de","2025-08-29_16h22.37.297",NA,NA,691.3677,691.3677,691.3677,691.7174,NA,NA,NA,NA,NA,NA,NA,TRUE,4,1.7244,688.3691,691.3675,NA,NA,NA,NA,NA,45,40,0,61,61,58,1,2,62,"likert"
"0DBC3464746741DAB3C986C1917EE3BA",1,"0198f77e-ace9-7e9c-b88f-f7a115ebd675","0198f768-e4d2-711c-944b-6f03c09216de","2025-08-29_16h22.37.297",NA,NA,694.7178,694.718,694.718,695.0675,NA,NA,NA,NA,NA,NA,NA,TRUE,4,1.2289,691.7188,694.7176,NA,NA,NA,NA,NA,25,31,0,62,62,32,1,2,63,"likert"
"0DBC3464746741DAB3C986C1917EE3BA",1,"0198f77e-ace9-7e9c-b88f-f7a115ebd675","0198f768-e4d2-711c-944b-6f03c09216de","2025-08-29_16h22.37.297",NA,NA,698.0678,698.0678,698.0679,698.4175,NA,NA,NA,NA,NA,NA,NA,TRUE,4,1.0247,695.0692,698.0675,NA,NA,NA,NA,NA,100,39,0,63,63,87,1,2,64,"likert"
"0DBC3464746741DAB3C986C1917EE3BA",1,"0198f77e-ace9-7e9c-b88f-f7a115ebd675","0198f768-e4d2-711c-944b-6f03c09216de","2025-08-29_16h22.37.297",NA,NA,701.4177,701.4177,701.4178,701.7672,NA,NA,NA,NA,NA,NA,NA,TRUE,5,1.1739,698.4192,701.4175,NA,NA,NA,NA,NA,90,46,0,64,64,76,1,2,65,"likert"
"0DBC3464746741DAB3C986C1917EE3BA",1,"0198f77e-ace9-7e9c-b88f-f7a115ebd675","0198f768-e4d2-711c-944b-6f03c09216de","2025-08-29_16h22.37.297",NA,NA,704.7678,704.7679,704.768,705.1175,NA,NA,NA,NA,NA,NA,NA,TRUE,1,0.9504,701.7675,704.7676,NA,NA,NA,NA,NA,100,26,0,65,65,84,1,2,66,"likert"
"0DBC3464746741DAB3C986C1917EE3BA",1,"0198f77e-ace9-7e9c-b88f-f7a115ebd675","0198f768-e4d2-711c-944b-6f03c09216de","2025-08-29_16h22.37.297",NA,NA,708.1177,708.1178,708.1178,708.4675,NA,NA,NA,NA,NA,NA,NA,TRUE,5,1.4245,705.1191,708.1176,NA,NA,NA,NA,NA,95,47,0,66,66,82,1,2,67,"likert"
"0DBC3464746741DAB3C986C1917EE3BA",1,"0198f77e-ace9-7e9c-b88f-f7a115ebd675","0198f768-e4d2-711c-944b-6f03c09216de","2025-08-29_16h22.37.297",NA,NA,711.4678,711.4679,711.4679,711.8175,NA,NA,NA,NA,NA,NA,NA,TRUE,5,1.6748,708.4691,711.4676,NA,NA,NA,NA,NA,25,46,0,67,67,35,1,2,68,"likert"
"0DBC3464746741DAB3C986C1917EE3BA",1,"0198f77e-ace9-7e9c-b88f-f7a115ebd675","0198f768-e4d2-711c-944b-6f03c09216de","2025-08-29_16h22.37.297",NA,NA,714.8177,714.8177,714.8178,715.1675,NA,NA,NA,NA,NA,NA,NA,TRUE,5,1.6099,711.819,714.8176,NA,NA,NA,NA,NA,180,39,0,68,68,99,1,2,69,"likert"
"0DBC3464746741DAB3C986C1917EE3BA",1,"0198f77e-ace9-7e9c-b88f-f7a115ebd675","0198f768-e4d2-711c-944b-6f03c09216de","2025-08-29_16h22.37.297",NA,NA,718.1677,718.1678,718.1678,718.5175,NA,NA,NA,NA,NA,NA,NA,TRUE,5,0.6912,715.169,718.1675,NA,NA,NA,NA,NA,60,47,0,69,69,70,1,2,70,"likert"
"0DBC3464746741DAB3C986C1917EE3BA",1,"0198f77e-ace9-7e9c-b88f-f7a115ebd675","0198f768-e4d2-711c-944b-6f03c09216de","2025-08-29_16h22.37.297",NA,NA,721.5177,721.5178,721.5178,721.8675,NA,NA,NA,NA,NA,NA,NA,TRUE,5,1.375,718.519,721.5176,NA,NA,NA,NA,NA,30,30,0,70,70,45,1,2,71,"likert"
"0DBC3464746741DAB3C986C1917EE3BA",1,"0198f77e-ace9-7e9c-b88f-f7a115ebd675","0198f768-e4d2-711c-944b-6f03c09216de","2025-08-29_16h22.37.297",NA,NA,724.8677,724.8678,724.8679,725.2175,NA,NA,NA,NA,NA,NA,NA,TRUE,5,0.8127,721.869,724.8676,NA,NA,NA,NA,NA,7,30,0,71,71,3,1,2,72,"likert"
"0DBC3464746741DAB3C986C1917EE3BA",1,"0198f77e-ace9-7e9c-b88f-f7a115ebd675","0198f768-e4d2-711c-944b-6f03c09216de","2025-08-29_16h22.37.297",NA,NA,728.2179,728.2179,728.218,728.5675,NA,NA,NA,NA,NA,NA,NA,TRUE,5,0.8163,725.2191,728.2176,NA,NA,NA,NA,NA,10,27,0,72,72,8,1,2,73,"likert"
"0DBC3464746741DAB3C986C1917EE3BA",1,"0198f77e-ace9-7e9c-b88f-f7a115ebd675","0198f768-e4d2-711c-944b-6f03c09216de","2025-08-29_16h22.37.297",NA,NA,731.5679,731.5679,731.568,731.9177,NA,NA,NA,NA,NA,NA,NA,TRUE,5,1.324,728.569,731.5677,NA,NA,NA,NA,NA,90,40,0,73,73,75,1,2,74,"likert"
"0DBC3464746741DAB3C986C1917EE3BA",1,"0198f77e-ace9-7e9c-b88f-f7a115ebd675","0198f768-e4d2-711c-944b-6f03c09216de","2025-08-29_16h22.37.297",NA,NA,734.9178,734.9178,734.9178,735.2676,NA,NA,NA,NA,NA,NA,NA,TRUE,5,0.8952,731.9192,734.9176,NA,NA,NA,NA,NA,60,54,0,74,74,71,1,2,75,"likert"
"0DBC3464746741DAB3C986C1917EE3BA",1,"0198f77e-ace9-7e9c-b88f-f7a115ebd675","0198f768-e4d2-711c-944b-6f03c09216de","2025-08-29_16h22.37.297",NA,NA,738.2678,738.2679,738.2679,738.6176,NA,NA,NA,NA,NA,NA,NA,TRUE,1,0.7272,735.2691,738.2676,NA,NA,NA,NA,NA,10,25,0,75,75,6,1,2,76,"likert"
"0DBC3464746741DAB3C986C1917EE3BA",1,"0198f77e-ace9-7e9c-b88f-f7a115ebd675","0198f768-e4d2-711c-944b-6f03c09216de","2025-08-29_16h22.37.297",NA,NA,741.6178,741.618,741.618,741.9668,NA,NA,NA,NA,NA,NA,NA,TRUE,5,1.6465,738.6192,741.6177,NA,NA,NA,NA,NA,12,35,0,76,76,17,1,2,77,"likert"
"0DBC3464746741DAB3C986C1917EE3BA",1,"0198f77e-ace9-7e9c-b88f-f7a115ebd675","0198f768-e4d2-711c-944b-6f03c09216de","2025-08-29_16h22.37.297",NA,NA,744.9679,744.9679,744.968,745.3176,NA,NA,NA,NA,NA,NA,NA,TRUE,5,1.7932,741.9679,744.9677,NA,NA,NA,NA,NA,50,46,0,77,77,64,1,2,78,"likert"
"0DBC3464746741DAB3C986C1917EE3BA",1,"0198f77e-ace9-7e9c-b88f-f7a115ebd675","0198f768-e4d2-711c-944b-6f03c09216de","2025-08-29_16h22.37.297",NA,NA,748.3178,748.3179,748.3179,748.6677,NA,NA,NA,NA,NA,NA,NA,TRUE,4,1.585,745.3194,748.3177,NA,NA,NA,NA,NA,30,29,0,78,78,44,1,2,79,"likert"
"0DBC3464746741DAB3C986C1917EE3BA",1,"0198f77e-ace9-7e9c-b88f-f7a115ebd675","0198f768-e4d2-711c-944b-6f03c09216de","2025-08-29_16h22.37.297",NA,NA,751.6679,751.6681,751.6681,752.0177,NA,NA,NA,NA,NA,NA,NA,TRUE,4,1.5341,748.6693,751.6677,NA,NA,NA,NA,NA,150,47,0,79,79,94,1,2,80,"likert"
"0DBC3464746741DAB3C986C1917EE3BA",1,"0198f77e-ace9-7e9c-b88f-f7a115ebd675","0198f768-e4d2-711c-944b-6f03c09216de","2025-08-29_16h22.37.297",NA,NA,755.0181,755.2676,755.2677,755.3676,NA,NA,NA,NA,NA,NA,NA,FALSE,NA,NA,752.0195,755.0178,NA,NA,NA,NA,NA,14,32,0,80,80,21,1,2,81,"likert"
"0DBC3464746741DAB3C986C1917EE3BA",1,"0198f77e-ace9-7e9c-b88f-f7a115ebd675","0198f768-e4d2-711c-944b-6f03c09216de","2025-08-29_16h22.37.297",NA,NA,758.3679,758.368,758.368,758.7176,NA,NA,NA,NA,NA,NA,NA,TRUE,1,1.3586,755.3692,758.3677,NA,NA,NA,NA,NA,10,29,0,81,81,9,1,2,82,"likert"
"0DBC3464746741DAB3C986C1917EE3BA",1,"0198f77e-ace9-7e9c-b88f-f7a115ebd675","0198f768-e4d2-711c-944b-6f03c09216de","2025-08-29_16h22.37.297",NA,NA,761.7178,761.7179,761.7179,762.0677,NA,NA,NA,NA,NA,NA,NA,TRUE,5,1.2255,758.7192,761.7177,NA,NA,NA,NA,NA,21,38,0,82,82,29,1,2,83,"likert"
"0DBC3464746741DAB3C986C1917EE3BA",1,"0198f77e-ace9-7e9c-b88f-f7a115ebd675","0198f768-e4d2-711c-944b-6f03c09216de","2025-08-29_16h22.37.297",NA,NA,765.0679,765.068,765.068,765.4176,NA,NA,NA,NA,NA,NA,NA,TRUE,4,1.3085,762.0694,765.0677,NA,NA,NA,NA,NA,150,35,0,83,83,92,1,2,84,"likert"
"0DBC3464746741DAB3C986C1917EE3BA",1,"0198f77e-ace9-7e9c-b88f-f7a115ebd675","0198f768-e4d2-711c-944b-6f03c09216de","2025-08-29_16h22.37.297",NA,NA,768.4179,768.418,768.4181,768.7676,NA,NA,NA,NA,NA,NA,NA,TRUE,1,1.3415,765.4192,768.4177,NA,NA,NA,NA,NA,30,26,0,84,84,42,1,2,85,"likert"
"0DBC3464746741DAB3C986C1917EE3BA",1,"0198f77e-ace9-7e9c-b88f-f7a115ebd675","0198f768-e4d2-711c-944b-6f03c09216de","2025-08-29_16h22.37.297",NA,NA,771.768,771.7681,771.7681,772.1176,NA,NA,NA,NA,NA,NA,NA,TRUE,1,1.2082,768.7692,771.7678,NA,NA,NA,NA,NA,28,26,0,85,85,36,1,2,86,"likert"
"0DBC3464746741DAB3C986C1917EE3BA",1,"0198f77e-ace9-7e9c-b88f-f7a115ebd675","0198f768-e4d2-711c-944b-6f03c09216de","2025-08-29_16h22.37.297",NA,NA,775.1178,775.118,775.118,775.4678,NA,NA,NA,NA,NA,NA,NA,TRUE,4,1.5312,772.1193,775.1177,NA,NA,NA,NA,NA,50,27,0,86,86,60,1,2,87,"likert"
"0DBC3464746741DAB3C986C1917EE3BA",1,"0198f77e-ace9-7e9c-b88f-f7a115ebd675","0198f768-e4d2-711c-944b-6f03c09216de","2025-08-29_16h22.37.297",NA,NA,778.4679,778.468,778.468,778.8177,NA,NA,NA,NA,NA,NA,NA,TRUE,4,1.1516,775.4695,778.4677,NA,NA,NA,NA,NA,200,35,0,87,87,104,1,2,88,"likert"
"0DBC3464746741DAB3C986C1917EE3BA",1,"0198f77e-ace9-7e9c-b88f-f7a115ebd675","0198f768-e4d2-711c-944b-6f03c09216de","2025-08-29_16h22.37.297",NA,NA,781.8179,781.818,781.8181,782.1677,NA,NA,NA,NA,NA,NA,NA,TRUE,4,1.74,778.8194,781.8178,NA,NA,NA,NA,NA,60,35,0,88,88,68,1,2,89,"likert"
"0DBC3464746741DAB3C986C1917EE3BA",1,"0198f77e-ace9-7e9c-b88f-f7a115ebd675","0198f768-e4d2-711c-944b-6f03c09216de","2025-08-29_16h22.37.297",NA,NA,785.1679,785.168,785.168,785.5177,NA,NA,NA,NA,NA,NA,NA,TRUE,5,0.9677,782.1693,785.1677,NA,NA,NA,NA,NA,40,54,0,89,89,53,1,2,90,"likert"
"0DBC3464746741DAB3C986C1917EE3BA",1,"0198f77e-ace9-7e9c-b88f-f7a115ebd675","0198f768-e4d2-711c-944b-6f03c09216de","2025-08-29_16h22.37.297",NA,NA,788.518,788.518,788.5181,788.8677,NA,NA,NA,NA,NA,NA,NA,TRUE,4,1.3088,785.5194,788.5178,NA,NA,NA,NA,NA,180,35,0,90,90,98,1,2,91,"likert"
"0DBC3464746741DAB3C986C1917EE3BA",1,"0198f77e-ace9-7e9c-b88f-f7a115ebd675","0198f768-e4d2-711c-944b-6f03c09216de","2025-08-29_16h22.37.297",NA,NA,791.8681,791.8681,791.8681,792.2177,NA,NA,NA,NA,NA,NA,NA,TRUE,1,0.8936,788.8694,791.8679,NA,NA,NA,NA,NA,21,27,0,91,91,25,1,2,92,"likert"
"0DBC3464746741DAB3C986C1917EE3BA",1,"0198f77e-ace9-7e9c-b88f-f7a115ebd675","0198f768-e4d2-711c-944b-6f03c09216de","2025-08-29_16h22.37.297",NA,NA,795.2169,795.2169,795.217,795.5677,NA,NA,NA,NA,NA,NA,NA,TRUE,5,1.0254,792.2195,795.2168,NA,NA,NA,NA,NA,28,46,0,92,92,41,1,2,93,"likert"
"0DBC3464746741DAB3C986C1917EE3BA",1,"0198f77e-ace9-7e9c-b88f-f7a115ebd675","0198f768-e4d2-711c-944b-6f03c09216de","2025-08-29_16h22.37.297",NA,NA,798.5679,798.568,798.568,798.9177,NA,NA,NA,NA,NA,NA,NA,TRUE,4,1.2413,795.5693,798.5678,NA,NA,NA,NA,NA,21,29,0,93,93,26,1,2,94,"likert"
"0DBC3464746741DAB3C986C1917EE3BA",1,"0198f77e-ace9-7e9c-b88f-f7a115ebd675","0198f768-e4d2-711c-944b-6f03c09216de","2025-08-29_16h22.37.297",NA,NA,801.918,801.9181,801.9181,802.2677,NA,NA,NA,NA,NA,NA,NA,TRUE,1,1.257,798.9194,801.9178,NA,NA,NA,NA,NA,7,28,0,94,94,2,1,2,95,"likert"
"0DBC3464746741DAB3C986C1917EE3BA",1,"0198f77e-ace9-7e9c-b88f-f7a115ebd675","0198f768-e4d2-711c-944b-6f03c09216de","2025-08-29_16h22.37.297",NA,NA,805.268,805.268,805.268,805.6174,NA,NA,NA,NA,NA,NA,NA,TRUE,5,0.7563,802.2693,805.2678,NA,NA,NA,NA,NA,50,35,0,95,95,62,1,2,96,"likert"
"0DBC3464746741DAB3C986C1917EE3BA",1,"0198f77e-ace9-7e9c-b88f-f7a115ebd675","0198f768-e4d2-711c-944b-6f03c09216de","2025-08-29_16h22.37.297",NA,NA,808.618,808.6182,808.6182,808.9669,NA,NA,NA,NA,NA,NA,NA,TRUE,5,1.2498,805.618,808.6178,NA,NA,NA,NA,NA,40,40,0,96,96,51,1,2,97,"likert"
"0DBC3464746741DAB3C986C1917EE3BA",1,"0198f77e-ace9-7e9c-b88f-f7a115ebd675","0198f768-e4d2-711c-944b-6f03c09216de","2025-08-29_16h22.37.297",NA,NA,811.968,811.9681,811.9681,812.3178,NA,NA,NA,NA,NA,NA,NA,TRUE,5,1.3578,808.9684,811.9678,NA,NA,NA,NA,NA,21,30,0,97,97,27,1,2,98,"likert"
"0DBC3464746741DAB3C986C1917EE3BA",1,"0198f77e-ace9-7e9c-b88f-f7a115ebd675","0198f768-e4d2-711c-944b-6f03c09216de","2025-08-29_16h22.37.297",NA,NA,815.318,815.318,815.3181,815.6677,NA,NA,NA,NA,NA,NA,NA,TRUE,4,1.0063,812.3194,815.3179,NA,NA,NA,NA,NA,150,40,0,98,98,93,1,2,99,"likert"
"0DBC3464746741DAB3C986C1917EE3BA",1,"0198f77e-ace9-7e9c-b88f-f7a115ebd675","0198f768-e4d2-711c-944b-6f03c09216de","2025-08-29_16h22.37.297",NA,NA,818.668,818.6681,818.6682,819.0177,NA,NA,NA,NA,NA,NA,NA,TRUE,4,1.2077,815.6694,818.6678,NA,NA,NA,NA,NA,60,29,0,99,99,66,1,2,100,"likert"
"0DBC3464746741DAB3C986C1917EE3BA",1,"0198f77e-ace9-7e9c-b88f-f7a115ebd675","0198f768-e4d2-711c-944b-6f03c09216de","2025-08-29_16h22.37.297",NA,NA,822.018,822.0181,822.0182,822.3678,NA,NA,NA,NA,NA,NA,NA,TRUE,5,1.5747,819.0195,822.0178,NA,NA,NA,NA,NA,21,32,0,100,100,28,1,2,101,"likert"
"0DBC3464746741DAB3C986C1917EE3BA",1,"0198f77e-ace9-7e9c-b88f-f7a115ebd675","0198f768-e4d2-711c-944b-6f03c09216de","2025-08-29_16h22.37.297",NA,NA,825.368,825.3681,825.3681,825.7178,NA,NA,NA,NA,NA,NA,NA,TRUE,4,1.3088,822.3693,825.3679,NA,NA,NA,NA,NA,150,31,0,101,101,90,1,2,102,"likert"
"0DBC3464746741DAB3C986C1917EE3BA",1,"0198f77e-ace9-7e9c-b88f-f7a115ebd675","0198f768-e4d2-711c-944b-6f03c09216de","2025-08-29_16h22.37.297",NA,NA,828.7179,828.7181,828.7182,829.0678,NA,NA,NA,NA,NA,NA,NA,TRUE,4,2.9071,825.7191,828.7177,NA,NA,NA,NA,NA,90,30,0,102,102,73,1,2,103,"likert"
"0DBC3464746741DAB3C986C1917EE3BA",1,"0198f77e-ace9-7e9c-b88f-f7a115ebd675","0198f768-e4d2-711c-944b-6f03c09216de","2025-08-29_16h22.37.297",NA,NA,832.0681,832.0681,832.0682,832.4179,NA,NA,NA,NA,NA,NA,NA,TRUE,1,0.786,829.0695,832.0679,NA,NA,NA,NA,NA,21,26,0,103,103,24,1,2,104,"likert"
"0DBC3464746741DAB3C986C1917EE3BA",1,"0198f77e-ace9-7e9c-b88f-f7a115ebd675","0198f768-e4d2-711c-944b-6f03c09216de","2025-08-29_16h22.37.297",NA,NA,835.4181,835.4182,835.4182,835.7679,NA,NA,NA,NA,NA,NA,NA,TRUE,4,1.3404,832.4195,835.4179,NA,NA,NA,NA,NA,50,54,0,104,104,65,1,2,105,"likert"
"0DBC3464746741DAB3C986C1917EE3BA",1,"0198f77e-ace9-7e9c-b88f-f7a115ebd675","0198f768-e4d2-711c-944b-6f03c09216de","2025-08-29_16h22.37.297",NA,NA,838.768,838.7682,838.7682,839.1178,NA,NA,NA,NA,NA,NA,NA,TRUE,1,1.158,835.7696,838.7679,NA,NA,NA,NA,NA,200,28,0,105,105,103,1,2,106,"likert"
"0DBC3464746741DAB3C986C1917EE3BA",1,"0198f77e-ace9-7e9c-b88f-f7a115ebd675","0198f768-e4d2-711c-944b-6f03c09216de","2025-08-29_16h22.37.297",NA,NA,842.1181,842.1182,842.1182,842.4678,NA,NA,NA,NA,NA,NA,NA,TRUE,4,1.0619,839.1195,842.1179,NA,NA,NA,NA,NA,60,40,0,106,106,69,1,2,107,"likert"
"0DBC3464746741DAB3C986C1917EE3BA",1,"0198f77e-ace9-7e9c-b88f-f7a115ebd675","0198f768-e4d2-711c-944b-6f03c09216de","2025-08-29_16h22.37.297",NA,NA,845.4682,845.4683,845.4683,845.8178,NA,NA,NA,NA,NA,NA,NA,TRUE,4,1.478,842.4695,845.4679,NA,NA,NA,NA,NA,40,33,0,107,107,49,1,2,108,"likert"
