"participant","session","assignmentId","projectId","date","practiceTrial.started","practiceTrial.stopped","tooLate.started","tooLate.stopped","blank.started","blank.stopped","trials_pract.thisRepN","trials_pract.thisTrialN","trials_pract.thisN","trials_pract.thisIndex","trials_pract.ran","delay_pract","amount_pract","responseMade","key","rt","trial.started","trial.stopped","trials.thisRepN","trials.thisTrialN","trials.thisN","trials.thisIndex","trials.ran","delay","amount","trials_2.thisRepN","trials_2.thisTrialN","trials_2.thisN","trials_2.thisIndex","trials_2.ran","block","trial","taskType"
"0DFD507CA7284410A8B1C760D7710E23",1,"0198eced-dd93-7f74-8cc9-13974deff97f","0198c493-061b-72b6-9f09-7b914e79ecc0","2025-08-27_15h08.16.319",20.7361,23.7258,23.7261,23.976,23.9761,24.0757,0,0,0,2,1,14,45,FALSE,NA,NA,NA,NA,NA,NA,NA,NA,NA,NA,NA,NA,NA,NA,NA,NA,0,1,"likert"
"0DFD507CA7284410A8B1C760D7710E23",1,"0198eced-dd93-7f74-8cc9-13974deff97f","0198c493-061b-72b6-9f09-7b914e79ecc0","2025-08-27_15h08.16.319",24.0765,27.0755,27.0756,27.0756,27.0756,27.4257,0,1,1,1,1,100,50,TRUE,5,1.5278,NA,NA,NA,NA,NA,NA,NA,NA,NA,NA,NA,NA,NA,NA,0,2,"likert"
"0DFD507CA7284410A8B1C760D7710E23",1,"0198eced-dd93-7f74-8cc9-13974deff97f","0198c493-061b-72b6-9f09-7b914e79ecc0","2025-08-27_15h08.16.319",27.4269,30.4258,30.4258,30.4258,30.4258,30.7757,0,2,2,0,1,7,30,TRUE,5,1.3938,NA,NA,NA,NA,NA,NA,NA,NA,NA,NA,NA,NA,NA,NA,0,3,"likert"
"0DFD507CA7284410A8B1C760D7710E23",1,"0198eced-dd93-7f74-8cc9-13974deff97f","0198c493-061b-72b6-9f09-7b914e79ecc0","2025-08-27_15h08.16.319",30.7767,33.7756,33.7758,33.7758,33.7758,34.1257,0,3,3,4,1,30,40,TRUE,5,1.0709,NA,NA,NA,NA,NA,NA,NA,NA,NA,NA,NA,NA,NA,NA,0,4,"likert"
"0DFD507CA7284410A8B1C760D7710E23",1,"0198eced-dd93-7f74-8cc9-13974deff97f","0198c493-061b-72b6-9f09-7b914e79ecc0","2025-08-27_15h08.16.319",34.1264,37.1258,37.1258,37.1258,37.1258,37.4756,0,4,4,3,1,3,27,TRUE,5,0.6611,NA,NA,NA,NA,NA,NA,NA,NA,NA,NA,NA,NA,NA,NA,0,5,"likert"
"0DFD507CA7284410A8B1C760D7710E23",1,"0198eced-dd93-7f74-8cc9-13974deff97f","0198c493-061b-72b6-9f09-7b914e79ecc0","2025-08-27_15h08.16.319",NA,NA,71.1092,71.1092,71.1092,71.459,NA,NA,NA,NA,NA,NA,NA,TRUE,5,1.4467,68.116,71.1091,0,0,0,42,1,30,26,NA,NA,NA,NA,NA,1,1,"likert"
"0DFD507CA7284410A8B1C760D7710E23",1,"0198eced-dd93-7f74-8cc9-13974deff97f","0198c493-061b-72b6-9f09-7b914e79ecc0","2025-08-27_15h08.16.319",NA,NA,74.459,74.459,74.459,74.8091,NA,NA,NA,NA,NA,NA,NA,TRUE,5,1.4804,71.4597,74.4589,0,1,1,98,1,180,35,NA,NA,NA,NA,NA,1,2,"likert"
"0DFD507CA7284410A8B1C760D7710E23",1,"0198eced-dd93-7f74-8cc9-13974deff97f","0198c493-061b-72b6-9f09-7b914e79ecc0","2025-08-27_15h08.16.319",NA,NA,77.8089,77.8089,77.8089,78.159,NA,NA,NA,NA,NA,NA,NA,TRUE,1,1.5878,74.8096,77.8088,0,2,2,72,1,90,26,NA,NA,NA,NA,NA,1,3,"likert"
"0DFD507CA7284410A8B1C760D7710E23",1,"0198eced-dd93-7f74-8cc9-13974deff97f","0198c493-061b-72b6-9f09-7b914e79ecc0","2025-08-27_15h08.16.319",NA,NA,81.1591,81.1591,81.1591,81.5089,NA,NA,NA,NA,NA,NA,NA,TRUE,5,1.4158,78.1595,81.159,0,3,3,50,1,40,35,NA,NA,NA,NA,NA,1,4,"likert"
"0DFD507CA7284410A8B1C760D7710E23",1,"0198eced-dd93-7f74-8cc9-13974deff97f","0198c493-061b-72b6-9f09-7b914e79ecc0","2025-08-27_15h08.16.319",NA,NA,84.5093,84.5093,84.5093,84.8588,NA,NA,NA,NA,NA,NA,NA,TRUE,1,1.0409,81.5093,84.5092,0,4,4,20,1,14,28,NA,NA,NA,NA,NA,1,5,"likert"
"0DFD507CA7284410A8B1C760D7710E23",1,"0198eced-dd93-7f74-8cc9-13974deff97f","0198c493-061b-72b6-9f09-7b914e79ecc0","2025-08-27_15h08.16.319",NA,NA,87.8592,87.8592,87.8592,88.2089,NA,NA,NA,NA,NA,NA,NA,TRUE,5,1.472,84.8592,87.8591,0,5,5,6,1,10,25,NA,NA,NA,NA,NA,1,6,"likert"
"0DFD507CA7284410A8B1C760D7710E23",1,"0198eced-dd93-7f74-8cc9-13974deff97f","0198c493-061b-72b6-9f09-7b914e79ecc0","2025-08-27_15h08.16.319",NA,NA,91.2094,91.2094,91.2094,91.559,NA,NA,NA,NA,NA,NA,NA,TRUE,1,1.0058,88.2094,91.2093,0,6,6,21,1,14,32,NA,NA,NA,NA,NA,1,7,"likert"
"0DFD507CA7284410A8B1C760D7710E23",1,"0198eced-dd93-7f74-8cc9-13974deff97f","0198c493-061b-72b6-9f09-7b914e79ecc0","2025-08-27_15h08.16.319",NA,NA,94.5592,94.5592,94.5592,94.9091,NA,NA,NA,NA,NA,NA,NA,TRUE,1,0.7394,91.5593,94.5591,0,7,7,97,1,180,31,NA,NA,NA,NA,NA,1,8,"likert"
"0DFD507CA7284410A8B1C760D7710E23",1,"0198eced-dd93-7f74-8cc9-13974deff97f","0198c493-061b-72b6-9f09-7b914e79ecc0","2025-08-27_15h08.16.319",NA,NA,97.9091,97.9091,97.9091,98.2588,NA,NA,NA,NA,NA,NA,NA,TRUE,1,1.6816,94.9094,97.909,0,8,8,24,1,21,26,NA,NA,NA,NA,NA,1,9,"likert"
"0DFD507CA7284410A8B1C760D7710E23",1,"0198eced-dd93-7f74-8cc9-13974deff97f","0198c493-061b-72b6-9f09-7b914e79ecc0","2025-08-27_15h08.16.319",NA,NA,101.259,101.259,101.259,101.609,NA,NA,NA,NA,NA,NA,NA,TRUE,1,1.1002,98.2593,101.259,0,9,9,32,1,25,31,NA,NA,NA,NA,NA,1,10,"likert"
"0DFD507CA7284410A8B1C760D7710E23",1,"0198eced-dd93-7f74-8cc9-13974deff97f","0198c493-061b-72b6-9f09-7b914e79ecc0","2025-08-27_15h08.16.319",NA,NA,104.6089,104.6089,104.6089,104.9591,NA,NA,NA,NA,NA,NA,NA,TRUE,1,0.7895,101.6094,104.6089,0,10,10,60,1,50,27,NA,NA,NA,NA,NA,1,11,"likert"
"0DFD507CA7284410A8B1C760D7710E23",1,"0198eced-dd93-7f74-8cc9-13974deff97f","0198c493-061b-72b6-9f09-7b914e79ecc0","2025-08-27_15h08.16.319",NA,NA,107.959,107.959,107.959,108.309,NA,NA,NA,NA,NA,NA,NA,TRUE,5,1.4391,104.9594,107.959,0,11,11,15,1,12,31,NA,NA,NA,NA,NA,1,12,"likert"
"0DFD507CA7284410A8B1C760D7710E23",1,"0198eced-dd93-7f74-8cc9-13974deff97f","0198c493-061b-72b6-9f09-7b914e79ecc0","2025-08-27_15h08.16.319",NA,NA,111.3091,111.3091,111.3091,111.6593,NA,NA,NA,NA,NA,NA,NA,TRUE,1,0.85,108.3094,111.309,0,12,12,47,1,30,38,NA,NA,NA,NA,NA,1,13,"likert"
"0DFD507CA7284410A8B1C760D7710E23",1,"0198eced-dd93-7f74-8cc9-13974deff97f","0198c493-061b-72b6-9f09-7b914e79ecc0","2025-08-27_15h08.16.319",NA,NA,114.659,114.659,114.659,115.0089,NA,NA,NA,NA,NA,NA,NA,TRUE,5,1.4873,111.6597,114.6589,0,13,13,28,1,21,32,NA,NA,NA,NA,NA,1,14,"likert"
"0DFD507CA7284410A8B1C760D7710E23",1,"0198eced-dd93-7f74-8cc9-13974deff97f","0198c493-061b-72b6-9f09-7b914e79ecc0","2025-08-27_15h08.16.319",NA,NA,118.009,118.009,118.0091,118.3589,NA,NA,NA,NA,NA,NA,NA,TRUE,5,1.0257,115.0093,118.0089,0,14,14,18,1,14,25,NA,NA,NA,NA,NA,1,15,"likert"
"0DFD507CA7284410A8B1C760D7710E23",1,"0198eced-dd93-7f74-8cc9-13974deff97f","0198c493-061b-72b6-9f09-7b914e79ecc0","2025-08-27_15h08.16.319",NA,NA,121.3591,121.3591,121.3591,121.709,NA,NA,NA,NA,NA,NA,NA,TRUE,1,0.764,118.3593,121.359,0,15,15,22,1,14,35,NA,NA,NA,NA,NA,1,16,"likert"
"0DFD507CA7284410A8B1C760D7710E23",1,"0198eced-dd93-7f74-8cc9-13974deff97f","0198c493-061b-72b6-9f09-7b914e79ecc0","2025-08-27_15h08.16.319",NA,NA,124.7091,124.7091,124.7091,125.059,NA,NA,NA,NA,NA,NA,NA,TRUE,1,0.6935,121.7093,124.709,0,16,16,64,1,50,46,NA,NA,NA,NA,NA,1,17,"likert"
"0DFD507CA7284410A8B1C760D7710E23",1,"0198eced-dd93-7f74-8cc9-13974deff97f","0198c493-061b-72b6-9f09-7b914e79ecc0","2025-08-27_15h08.16.319",NA,NA,128.0591,128.0591,128.0591,128.4093,NA,NA,NA,NA,NA,NA,NA,TRUE,1,0.7314,125.0594,128.059,0,17,17,58,1,45,40,NA,NA,NA,NA,NA,1,18,"likert"
"0DFD507CA7284410A8B1C760D7710E23",1,"0198eced-dd93-7f74-8cc9-13974deff97f","0198c493-061b-72b6-9f09-7b914e79ecc0","2025-08-27_15h08.16.319",NA,NA,131.409,131.409,131.409,131.759,NA,NA,NA,NA,NA,NA,NA,TRUE,1,0.9511,128.4096,131.4089,0,18,18,105,1,200,39,NA,NA,NA,NA,NA,1,19,"likert"
"0DFD507CA7284410A8B1C760D7710E23",1,"0198eced-dd93-7f74-8cc9-13974deff97f","0198c493-061b-72b6-9f09-7b914e79ecc0","2025-08-27_15h08.16.319",NA,NA,134.7591,134.7591,134.7591,135.1091,NA,NA,NA,NA,NA,NA,NA,TRUE,1,1.0001,131.7594,134.759,0,19,19,54,1,45,26,NA,NA,NA,NA,NA,1,20,"likert"
"0DFD507CA7284410A8B1C760D7710E23",1,"0198eced-dd93-7f74-8cc9-13974deff97f","0198c493-061b-72b6-9f09-7b914e79ecc0","2025-08-27_15h08.16.319",NA,NA,138.1091,138.1091,138.1091,138.459,NA,NA,NA,NA,NA,NA,NA,TRUE,1,0.7572,135.1095,138.1091,0,20,20,77,1,90,54,NA,NA,NA,NA,NA,1,21,"likert"
"0DFD507CA7284410A8B1C760D7710E23",1,"0198eced-dd93-7f74-8cc9-13974deff97f","0198c493-061b-72b6-9f09-7b914e79ecc0","2025-08-27_15h08.16.319",NA,NA,141.459,141.459,141.459,141.8089,NA,NA,NA,NA,NA,NA,NA,TRUE,1,0.6915,138.4593,141.4589,0,21,21,96,1,180,27,NA,NA,NA,NA,NA,1,22,"likert"
"0DFD507CA7284410A8B1C760D7710E23",1,"0198eced-dd93-7f74-8cc9-13974deff97f","0198c493-061b-72b6-9f09-7b914e79ecc0","2025-08-27_15h08.16.319",NA,NA,144.809,144.809,144.809,145.1591,NA,NA,NA,NA,NA,NA,NA,TRUE,1,0.7014,141.8093,144.8089,0,22,22,95,1,150,54,NA,NA,NA,NA,NA,1,23,"likert"
"0DFD507CA7284410A8B1C760D7710E23",1,"0198eced-dd93-7f74-8cc9-13974deff97f","0198c493-061b-72b6-9f09-7b914e79ecc0","2025-08-27_15h08.16.319",NA,NA,148.1591,148.1591,148.1591,148.509,NA,NA,NA,NA,NA,NA,NA,TRUE,1,0.6795,145.1595,148.159,0,23,23,14,1,12,28,NA,NA,NA,NA,NA,1,24,"likert"
"0DFD507CA7284410A8B1C760D7710E23",1,"0198eced-dd93-7f74-8cc9-13974deff97f","0198c493-061b-72b6-9f09-7b914e79ecc0","2025-08-27_15h08.16.319",NA,NA,151.509,151.509,151.509,151.859,NA,NA,NA,NA,NA,NA,NA,TRUE,1,0.9362,148.5094,151.5089,0,24,24,39,1,28,35,NA,NA,NA,NA,NA,1,25,"likert"
"0DFD507CA7284410A8B1C760D7710E23",1,"0198eced-dd93-7f74-8cc9-13974deff97f","0198c493-061b-72b6-9f09-7b914e79ecc0","2025-08-27_15h08.16.319",NA,NA,154.8592,154.8592,154.8592,155.2089,NA,NA,NA,NA,NA,NA,NA,TRUE,1,0.7876,151.8594,154.859,0,25,25,91,1,150,33,NA,NA,NA,NA,NA,1,26,"likert"
"0DFD507CA7284410A8B1C760D7710E23",1,"0198eced-dd93-7f74-8cc9-13974deff97f","0198c493-061b-72b6-9f09-7b914e79ecc0","2025-08-27_15h08.16.319",NA,NA,158.209,158.209,158.209,158.5591,NA,NA,NA,NA,NA,NA,NA,TRUE,5,0.9614,155.2094,158.2089,0,26,26,10,1,10,30,NA,NA,NA,NA,NA,1,27,"likert"
"0DFD507CA7284410A8B1C760D7710E23",1,"0198eced-dd93-7f74-8cc9-13974deff97f","0198c493-061b-72b6-9f09-7b914e79ecc0","2025-08-27_15h08.16.319",NA,NA,161.559,161.559,161.559,161.9089,NA,NA,NA,NA,NA,NA,NA,TRUE,1,0.6503,158.5595,161.5589,0,27,27,85,1,100,31,NA,NA,NA,NA,NA,1,28,"likert"
"0DFD507CA7284410A8B1C760D7710E23",1,"0198eced-dd93-7f74-8cc9-13974deff97f","0198c493-061b-72b6-9f09-7b914e79ecc0","2025-08-27_15h08.16.319",NA,NA,164.9091,164.9091,164.9091,165.2593,NA,NA,NA,NA,NA,NA,NA,TRUE,1,0.7814,161.9094,164.909,0,28,28,36,1,28,26,NA,NA,NA,NA,NA,1,29,"likert"
"0DFD507CA7284410A8B1C760D7710E23",1,"0198eced-dd93-7f74-8cc9-13974deff97f","0198c493-061b-72b6-9f09-7b914e79ecc0","2025-08-27_15h08.16.319",NA,NA,168.2591,168.2591,168.2591,168.6091,NA,NA,NA,NA,NA,NA,NA,TRUE,1,0.6833,165.2596,168.2591,0,29,29,90,1,150,31,NA,NA,NA,NA,NA,1,30,"likert"
"0DFD507CA7284410A8B1C760D7710E23",1,"0198eced-dd93-7f74-8cc9-13974deff97f","0198c493-061b-72b6-9f09-7b914e79ecc0","2025-08-27_15h08.16.319",NA,NA,171.6095,171.6095,171.6095,171.959,NA,NA,NA,NA,NA,NA,NA,TRUE,1,0.6888,168.6095,171.6094,0,30,30,30,1,25,27,NA,NA,NA,NA,NA,1,31,"likert"
"0DFD507CA7284410A8B1C760D7710E23",1,"0198eced-dd93-7f74-8cc9-13974deff97f","0198c493-061b-72b6-9f09-7b914e79ecc0","2025-08-27_15h08.16.319",NA,NA,174.9591,174.9591,174.9591,175.309,NA,NA,NA,NA,NA,NA,NA,TRUE,1,0.6438,171.9594,174.959,0,31,31,33,1,25,33,NA,NA,NA,NA,NA,1,32,"likert"
"0DFD507CA7284410A8B1C760D7710E23",1,"0198eced-dd93-7f74-8cc9-13974deff97f","0198c493-061b-72b6-9f09-7b914e79ecc0","2025-08-27_15h08.16.319",NA,NA,178.3091,178.3091,178.3091,178.659,NA,NA,NA,NA,NA,NA,NA,TRUE,1,1.1577,175.3094,178.309,0,32,32,25,1,21,27,NA,NA,NA,NA,NA,1,33,"likert"
"0DFD507CA7284410A8B1C760D7710E23",1,"0198eced-dd93-7f74-8cc9-13974deff97f","0198c493-061b-72b6-9f09-7b914e79ecc0","2025-08-27_15h08.16.319",NA,NA,181.6589,181.6589,181.659,182.0094,NA,NA,NA,NA,NA,NA,NA,TRUE,1,0.6356,178.6593,181.6589,0,33,33,23,1,14,39,NA,NA,NA,NA,NA,1,34,"likert"
"0DFD507CA7284410A8B1C760D7710E23",1,"0198eced-dd93-7f74-8cc9-13974deff97f","0198c493-061b-72b6-9f09-7b914e79ecc0","2025-08-27_15h08.16.319",NA,NA,185.009,185.009,185.009,185.3588,NA,NA,NA,NA,NA,NA,NA,TRUE,1,0.6412,182.0097,185.009,0,34,34,27,1,21,30,NA,NA,NA,NA,NA,1,35,"likert"
"0DFD507CA7284410A8B1C760D7710E23",1,"0198eced-dd93-7f74-8cc9-13974deff97f","0198c493-061b-72b6-9f09-7b914e79ecc0","2025-08-27_15h08.16.319",NA,NA,188.3591,188.3591,188.3591,188.7091,NA,NA,NA,NA,NA,NA,NA,TRUE,5,0.933,185.3592,188.3591,0,35,35,5,1,7,35,NA,NA,NA,NA,NA,1,36,"likert"
"0DFD507CA7284410A8B1C760D7710E23",1,"0198eced-dd93-7f74-8cc9-13974deff97f","0198c493-061b-72b6-9f09-7b914e79ecc0","2025-08-27_15h08.16.319",NA,NA,191.7092,191.7092,191.7093,192.0594,NA,NA,NA,NA,NA,NA,NA,TRUE,5,0.7737,188.7094,191.7092,0,36,36,1,1,7,26,NA,NA,NA,NA,NA,1,37,"likert"
"0DFD507CA7284410A8B1C760D7710E23",1,"0198eced-dd93-7f74-8cc9-13974deff97f","0198c493-061b-72b6-9f09-7b914e79ecc0","2025-08-27_15h08.16.319",NA,NA,195.059,195.3092,195.3092,195.4091,NA,NA,NA,NA,NA,NA,NA,FALSE,NA,NA,192.0597,195.059,0,37,37,78,1,95,31,NA,NA,NA,NA,NA,1,38,"likert"
"0DFD507CA7284410A8B1C760D7710E23",1,"0198eced-dd93-7f74-8cc9-13974deff97f","0198c493-061b-72b6-9f09-7b914e79ecc0","2025-08-27_15h08.16.319",NA,NA,198.409,198.409,198.409,198.7591,NA,NA,NA,NA,NA,NA,NA,TRUE,1,0.798,195.4095,198.409,0,38,38,3,1,7,30,NA,NA,NA,NA,NA,1,39,"likert"
"0DFD507CA7284410A8B1C760D7710E23",1,"0198eced-dd93-7f74-8cc9-13974deff97f","0198c493-061b-72b6-9f09-7b914e79ecc0","2025-08-27_15h08.16.319",NA,NA,201.7592,201.7592,201.7592,202.1094,NA,NA,NA,NA,NA,NA,NA,TRUE,1,0.4318,198.7595,201.7592,0,39,39,43,1,30,27,NA,NA,NA,NA,NA,1,40,"likert"
"0DFD507CA7284410A8B1C760D7710E23",1,"0198eced-dd93-7f74-8cc9-13974deff97f","0198c493-061b-72b6-9f09-7b914e79ecc0","2025-08-27_15h08.16.319",NA,NA,205.109,205.1091,205.1091,205.4591,NA,NA,NA,NA,NA,NA,NA,TRUE,1,0.2692,202.1098,205.1089,0,40,40,86,1,100,38,NA,NA,NA,NA,NA,1,41,"likert"
"0DFD507CA7284410A8B1C760D7710E23",1,"0198eced-dd93-7f74-8cc9-13974deff97f","0198c493-061b-72b6-9f09-7b914e79ecc0","2025-08-27_15h08.16.319",NA,NA,208.4591,208.4591,208.4591,208.809,NA,NA,NA,NA,NA,NA,NA,TRUE,1,0.2835,205.4595,208.459,0,41,41,65,1,50,54,NA,NA,NA,NA,NA,1,42,"likert"
"0DFD507CA7284410A8B1C760D7710E23",1,"0198eced-dd93-7f74-8cc9-13974deff97f","0198c493-061b-72b6-9f09-7b914e79ecc0","2025-08-27_15h08.16.319",NA,NA,211.8091,211.8091,211.8091,212.159,NA,NA,NA,NA,NA,NA,NA,TRUE,5,0.2935,208.8094,211.809,0,42,42,69,1,60,40,NA,NA,NA,NA,NA,1,43,"likert"
"0DFD507CA7284410A8B1C760D7710E23",1,"0198eced-dd93-7f74-8cc9-13974deff97f","0198c493-061b-72b6-9f09-7b914e79ecc0","2025-08-27_15h08.16.319",NA,NA,215.1591,215.1592,215.1592,215.509,NA,NA,NA,NA,NA,NA,NA,TRUE,5,0.2677,212.1594,215.1591,0,43,43,92,1,150,35,NA,NA,NA,NA,NA,1,44,"likert"
"0DFD507CA7284410A8B1C760D7710E23",1,"0198eced-dd93-7f74-8cc9-13974deff97f","0198c493-061b-72b6-9f09-7b914e79ecc0","2025-08-27_15h08.16.319",NA,NA,218.5091,218.5092,218.5092,218.8592,NA,NA,NA,NA,NA,NA,NA,TRUE,1,0.3214,215.5093,218.509,0,44,44,61,1,50,30,NA,NA,NA,NA,NA,1,45,"likert"
"0DFD507CA7284410A8B1C760D7710E23",1,"0198eced-dd93-7f74-8cc9-13974deff97f","0198c493-061b-72b6-9f09-7b914e79ecc0","2025-08-27_15h08.16.319",NA,NA,221.859,221.859,221.8591,222.2091,NA,NA,NA,NA,NA,NA,NA,TRUE,1,0.4832,218.8595,221.859,0,45,45,87,1,100,39,NA,NA,NA,NA,NA,1,46,"likert"
"0DFD507CA7284410A8B1C760D7710E23",1,"0198eced-dd93-7f74-8cc9-13974deff97f","0198c493-061b-72b6-9f09-7b914e79ecc0","2025-08-27_15h08.16.319",NA,NA,225.2092,225.2092,225.2092,225.559,NA,NA,NA,NA,NA,NA,NA,TRUE,1,0.4983,222.2095,225.2091,0,46,46,40,1,28,39,NA,NA,NA,NA,NA,1,47,"likert"
"0DFD507CA7284410A8B1C760D7710E23",1,"0198eced-dd93-7f74-8cc9-13974deff97f","0198c493-061b-72b6-9f09-7b914e79ecc0","2025-08-27_15h08.16.319",NA,NA,228.5593,228.5593,228.5593,228.909,NA,NA,NA,NA,NA,NA,NA,TRUE,1,0.4875,225.5593,228.5592,0,47,47,66,1,60,29,NA,NA,NA,NA,NA,1,48,"likert"
"0DFD507CA7284410A8B1C760D7710E23",1,"0198eced-dd93-7f74-8cc9-13974deff97f","0198c493-061b-72b6-9f09-7b914e79ecc0","2025-08-27_15h08.16.319",NA,NA,231.909,231.909,231.909,232.2591,NA,NA,NA,NA,NA,NA,NA,TRUE,1,0.3776,228.9094,231.9089,0,48,48,9,1,10,29,NA,NA,NA,NA,NA,1,49,"likert"
"0DFD507CA7284410A8B1C760D7710E23",1,"0198eced-dd93-7f74-8cc9-13974deff97f","0198c493-061b-72b6-9f09-7b914e79ecc0","2025-08-27_15h08.16.319",NA,NA,235.2591,235.2591,235.2591,235.6091,NA,NA,NA,NA,NA,NA,NA,TRUE,1,0.4436,232.2594,235.259,0,49,49,71,1,60,54,NA,NA,NA,NA,NA,1,50,"likert"
"0DFD507CA7284410A8B1C760D7710E23",1,"0198eced-dd93-7f74-8cc9-13974deff97f","0198c493-061b-72b6-9f09-7b914e79ecc0","2025-08-27_15h08.16.319",NA,NA,238.6092,238.6092,238.6092,238.959,NA,NA,NA,NA,NA,NA,NA,TRUE,1,0.2976,235.6095,238.6091,0,50,50,55,1,45,29,NA,NA,NA,NA,NA,1,51,"likert"
"0DFD507CA7284410A8B1C760D7710E23",1,"0198eced-dd93-7f74-8cc9-13974deff97f","0198c493-061b-72b6-9f09-7b914e79ecc0","2025-08-27_15h08.16.319",NA,NA,241.9594,241.9594,241.9594,242.3089,NA,NA,NA,NA,NA,NA,NA,TRUE,1,0.3076,238.9594,241.9593,0,51,51,16,1,12,33,NA,NA,NA,NA,NA,1,52,"likert"
"0DFD507CA7284410A8B1C760D7710E23",1,"0198eced-dd93-7f74-8cc9-13974deff97f","0198c493-061b-72b6-9f09-7b914e79ecc0","2025-08-27_15h08.16.319",NA,NA,245.3092,245.3092,245.3092,245.6593,NA,NA,NA,NA,NA,NA,NA,TRUE,1,0.315,242.3093,245.3091,0,52,52,17,1,12,35,NA,NA,NA,NA,NA,1,53,"likert"
"0DFD507CA7284410A8B1C760D7710E23",1,"0198eced-dd93-7f74-8cc9-13974deff97f","0198c493-061b-72b6-9f09-7b914e79ecc0","2025-08-27_15h08.16.319",NA,NA,248.6592,248.6592,248.6592,249.009,NA,NA,NA,NA,NA,NA,NA,TRUE,5,0.4914,245.6595,248.6591,0,53,53,29,1,21,38,NA,NA,NA,NA,NA,1,54,"likert"
"0DFD507CA7284410A8B1C760D7710E23",1,"0198eced-dd93-7f74-8cc9-13974deff97f","0198c493-061b-72b6-9f09-7b914e79ecc0","2025-08-27_15h08.16.319",NA,NA,252.0091,252.0091,252.0091,252.3592,NA,NA,NA,NA,NA,NA,NA,TRUE,1,0.3983,249.0094,252.0091,0,54,54,102,1,200,26,NA,NA,NA,NA,NA,1,55,"likert"
"0DFD507CA7284410A8B1C760D7710E23",1,"0198eced-dd93-7f74-8cc9-13974deff97f","0198c493-061b-72b6-9f09-7b914e79ecc0","2025-08-27_15h08.16.319",NA,NA,255.3593,255.3593,255.3593,255.7091,NA,NA,NA,NA,NA,NA,NA,TRUE,1,0.3551,252.3596,255.3592,0,55,55,34,1,25,35,NA,NA,NA,NA,NA,1,56,"likert"
"0DFD507CA7284410A8B1C760D7710E23",1,"0198eced-dd93-7f74-8cc9-13974deff97f","0198c493-061b-72b6-9f09-7b914e79ecc0","2025-08-27_15h08.16.319",NA,NA,258.7092,258.7092,258.7092,259.0591,NA,NA,NA,NA,NA,NA,NA,TRUE,1,0.3015,255.7095,258.7091,0,56,56,75,1,90,40,NA,NA,NA,NA,NA,1,57,"likert"
"0DFD507CA7284410A8B1C760D7710E23",1,"0198eced-dd93-7f74-8cc9-13974deff97f","0198c493-061b-72b6-9f09-7b914e79ecc0","2025-08-27_15h08.16.319",NA,NA,262.0591,262.0591,262.0591,262.4091,NA,NA,NA,NA,NA,NA,NA,TRUE,1,0.3104,259.0594,262.0591,0,57,57,0,1,7,25,NA,NA,NA,NA,NA,1,58,"likert"
"0DFD507CA7284410A8B1C760D7710E23",1,"0198eced-dd93-7f74-8cc9-13974deff97f","0198c493-061b-72b6-9f09-7b914e79ecc0","2025-08-27_15h08.16.319",NA,NA,265.409,265.4091,265.4091,265.759,NA,NA,NA,NA,NA,NA,NA,TRUE,1,0.8193,262.4096,265.409,0,58,58,79,1,95,33,NA,NA,NA,NA,NA,1,59,"likert"
"0DFD507CA7284410A8B1C760D7710E23",1,"0198eced-dd93-7f74-8cc9-13974deff97f","0198c493-061b-72b6-9f09-7b914e79ecc0","2025-08-27_15h08.16.319",NA,NA,268.7592,268.7592,268.7592,269.109,NA,NA,NA,NA,NA,NA,NA,TRUE,1,0.5274,265.7595,268.7591,0,59,59,4,1,7,32,NA,NA,NA,NA,NA,1,60,"likert"
"0DFD507CA7284410A8B1C760D7710E23",1,"0198eced-dd93-7f74-8cc9-13974deff97f","0198c493-061b-72b6-9f09-7b914e79ecc0","2025-08-27_15h08.16.319",NA,NA,272.1091,272.1091,272.1091,272.4591,NA,NA,NA,NA,NA,NA,NA,TRUE,5,0.7576,269.1093,272.109,0,60,60,8,1,10,27,NA,NA,NA,NA,NA,1,61,"likert"
"0DFD507CA7284410A8B1C760D7710E23",1,"0198eced-dd93-7f74-8cc9-13974deff97f","0198c493-061b-72b6-9f09-7b914e79ecc0","2025-08-27_15h08.16.319",NA,NA,275.4593,275.4593,275.4594,275.809,NA,NA,NA,NA,NA,NA,NA,TRUE,1,0.4552,272.4595,275.4592,0,61,61,19,1,14,26,NA,NA,NA,NA,NA,1,62,"likert"
"0DFD507CA7284410A8B1C760D7710E23",1,"0198eced-dd93-7f74-8cc9-13974deff97f","0198c493-061b-72b6-9f09-7b914e79ecc0","2025-08-27_15h08.16.319",NA,NA,278.8092,278.8093,278.8093,279.1591,NA,NA,NA,NA,NA,NA,NA,TRUE,1,0.4496,275.8093,278.8092,0,62,62,100,1,180,46,NA,NA,NA,NA,NA,1,63,"likert"
"0DFD507CA7284410A8B1C760D7710E23",1,"0198eced-dd93-7f74-8cc9-13974deff97f","0198c493-061b-72b6-9f09-7b914e79ecc0","2025-08-27_15h08.16.319",NA,NA,282.1592,282.1592,282.1593,282.509,NA,NA,NA,NA,NA,NA,NA,TRUE,1,0.4512,279.1594,282.1592,0,63,63,76,1,90,46,NA,NA,NA,NA,NA,1,64,"likert"
"0DFD507CA7284410A8B1C760D7710E23",1,"0198eced-dd93-7f74-8cc9-13974deff97f","0198c493-061b-72b6-9f09-7b914e79ecc0","2025-08-27_15h08.16.319",NA,NA,285.5091,285.5091,285.5092,285.859,NA,NA,NA,NA,NA,NA,NA,TRUE,1,0.7052,282.5094,285.5091,0,64,64,57,1,45,35,NA,NA,NA,NA,NA,1,65,"likert"
"0DFD507CA7284410A8B1C760D7710E23",1,"0198eced-dd93-7f74-8cc9-13974deff97f","0198c493-061b-72b6-9f09-7b914e79ecc0","2025-08-27_15h08.16.319",NA,NA,288.8594,288.8594,288.8594,289.2092,NA,NA,NA,NA,NA,NA,NA,TRUE,1,0.3511,285.8595,288.8593,0,65,65,59,1,45,46,NA,NA,NA,NA,NA,1,66,"likert"
"0DFD507CA7284410A8B1C760D7710E23",1,"0198eced-dd93-7f74-8cc9-13974deff97f","0198c493-061b-72b6-9f09-7b914e79ecc0","2025-08-27_15h08.16.319",NA,NA,292.2091,292.2091,292.2091,292.5591,NA,NA,NA,NA,NA,NA,NA,TRUE,1,0.1732,289.2096,292.2089,0,66,66,11,1,10,32,NA,NA,NA,NA,NA,1,67,"likert"
"0DFD507CA7284410A8B1C760D7710E23",1,"0198eced-dd93-7f74-8cc9-13974deff97f","0198c493-061b-72b6-9f09-7b914e79ecc0","2025-08-27_15h08.16.319",NA,NA,295.559,295.5591,295.5591,295.9091,NA,NA,NA,NA,NA,NA,NA,TRUE,1,0.3433,292.5595,295.559,0,67,67,63,1,50,40,NA,NA,NA,NA,NA,1,68,"likert"
"0DFD507CA7284410A8B1C760D7710E23",1,"0198eced-dd93-7f74-8cc9-13974deff97f","0198c493-061b-72b6-9f09-7b914e79ecc0","2025-08-27_15h08.16.319",NA,NA,298.9093,298.9093,298.9093,299.2591,NA,NA,NA,NA,NA,NA,NA,TRUE,1,0.4893,295.9095,298.9092,0,68,68,67,1,60,33,NA,NA,NA,NA,NA,1,69,"likert"
"0DFD507CA7284410A8B1C760D7710E23",1,"0198eced-dd93-7f74-8cc9-13974deff97f","0198c493-061b-72b6-9f09-7b914e79ecc0","2025-08-27_15h08.16.319",NA,NA,302.2591,302.2591,302.2591,302.6093,NA,NA,NA,NA,NA,NA,NA,TRUE,1,0.6002,299.2595,302.2591,0,69,69,44,1,30,29,NA,NA,NA,NA,NA,1,70,"likert"
"0DFD507CA7284410A8B1C760D7710E23",1,"0198eced-dd93-7f74-8cc9-13974deff97f","0198c493-061b-72b6-9f09-7b914e79ecc0","2025-08-27_15h08.16.319",NA,NA,305.6092,305.6092,305.6092,305.959,NA,NA,NA,NA,NA,NA,NA,TRUE,1,0.3532,302.6096,305.6091,0,70,70,88,1,100,46,NA,NA,NA,NA,NA,1,71,"likert"
"0DFD507CA7284410A8B1C760D7710E23",1,"0198eced-dd93-7f74-8cc9-13974deff97f","0198c493-061b-72b6-9f09-7b914e79ecc0","2025-08-27_15h08.16.319",NA,NA,308.9592,308.9592,308.9592,309.309,NA,NA,NA,NA,NA,NA,NA,TRUE,1,0.3421,305.9594,308.9591,0,71,71,73,1,90,30,NA,NA,NA,NA,NA,1,72,"likert"
"0DFD507CA7284410A8B1C760D7710E23",1,"0198eced-dd93-7f74-8cc9-13974deff97f","0198c493-061b-72b6-9f09-7b914e79ecc0","2025-08-27_15h08.16.319",NA,NA,312.3092,312.3092,312.3092,312.6593,NA,NA,NA,NA,NA,NA,NA,TRUE,1,0.3567,309.3094,312.3091,0,72,72,52,1,40,47,NA,NA,NA,NA,NA,1,73,"likert"
"0DFD507CA7284410A8B1C760D7710E23",1,"0198eced-dd93-7f74-8cc9-13974deff97f","0198c493-061b-72b6-9f09-7b914e79ecc0","2025-08-27_15h08.16.319",NA,NA,315.6594,315.6595,315.6595,316.0091,NA,NA,NA,NA,NA,NA,NA,TRUE,1,0.335,312.6597,315.6593,0,73,73,80,1,95,35,NA,NA,NA,NA,NA,1,74,"likert"
"0DFD507CA7284410A8B1C760D7710E23",1,"0198eced-dd93-7f74-8cc9-13974deff97f","0198c493-061b-72b6-9f09-7b914e79ecc0","2025-08-27_15h08.16.319",NA,NA,319.0092,319.0092,319.0092,319.3591,NA,NA,NA,NA,NA,NA,NA,TRUE,1,0.4812,316.0095,319.0092,0,74,74,104,1,200,35,NA,NA,NA,NA,NA,1,75,"likert"
"0DFD507CA7284410A8B1C760D7710E23",1,"0198eced-dd93-7f74-8cc9-13974deff97f","0198c493-061b-72b6-9f09-7b914e79ecc0","2025-08-27_15h08.16.319",NA,NA,322.3592,322.3593,322.3593,322.7091,NA,NA,NA,NA,NA,NA,NA,TRUE,1,0.3102,319.3594,322.3592,0,75,75,45,1,30,30,NA,NA,NA,NA,NA,1,76,"likert"
"0DFD507CA7284410A8B1C760D7710E23",1,"0198eced-dd93-7f74-8cc9-13974deff97f","0198c493-061b-72b6-9f09-7b914e79ecc0","2025-08-27_15h08.16.319",NA,NA,325.7092,325.7092,325.7092,326.059,NA,NA,NA,NA,NA,NA,NA,TRUE,1,0.3011,322.7095,325.7092,0,76,76,37,1,28,28,NA,NA,NA,NA,NA,1,77,"likert"
"0DFD507CA7284410A8B1C760D7710E23",1,"0198eced-dd93-7f74-8cc9-13974deff97f","0198c493-061b-72b6-9f09-7b914e79ecc0","2025-08-27_15h08.16.319",NA,NA,329.059,329.059,329.059,329.409,NA,NA,NA,NA,NA,NA,NA,TRUE,1,0.2751,326.0594,329.059,0,77,77,53,1,40,54,NA,NA,NA,NA,NA,1,78,"likert"
"0DFD507CA7284410A8B1C760D7710E23",1,"0198eced-dd93-7f74-8cc9-13974deff97f","0198c493-061b-72b6-9f09-7b914e79ecc0","2025-08-27_15h08.16.319",NA,NA,332.4093,332.4093,332.4093,332.7592,NA,NA,NA,NA,NA,NA,NA,TRUE,1,0.2294,329.4095,332.4093,0,78,78,31,1,25,29,NA,NA,NA,NA,NA,1,79,"likert"
"0DFD507CA7284410A8B1C760D7710E23",1,"0198eced-dd93-7f74-8cc9-13974deff97f","0198c493-061b-72b6-9f09-7b914e79ecc0","2025-08-27_15h08.16.319",NA,NA,335.7592,335.7592,335.7592,336.1094,NA,NA,NA,NA,NA,NA,NA,TRUE,1,0.3952,332.7595,335.7591,0,79,79,83,1,95,54,NA,NA,NA,NA,NA,1,80,"likert"
"0DFD507CA7284410A8B1C760D7710E23",1,"0198eced-dd93-7f74-8cc9-13974deff97f","0198c493-061b-72b6-9f09-7b914e79ecc0","2025-08-27_15h08.16.319",NA,NA,339.1091,339.1091,339.1091,339.4592,NA,NA,NA,NA,NA,NA,NA,TRUE,1,0.2959,336.1098,339.109,0,80,80,7,1,10,26,NA,NA,NA,NA,NA,1,81,"likert"
"0DFD507CA7284410A8B1C760D7710E23",1,"0198eced-dd93-7f74-8cc9-13974deff97f","0198c493-061b-72b6-9f09-7b914e79ecc0","2025-08-27_15h08.16.319",NA,NA,342.459,342.459,342.459,342.8092,NA,NA,NA,NA,NA,NA,NA,TRUE,1,0.5352,339.4596,342.459,0,81,81,35,1,25,46,NA,NA,NA,NA,NA,1,82,"likert"
"0DFD507CA7284410A8B1C760D7710E23",1,"0198eced-dd93-7f74-8cc9-13974deff97f","0198c493-061b-72b6-9f09-7b914e79ecc0","2025-08-27_15h08.16.319",NA,NA,345.8092,345.8092,345.8092,346.159,NA,NA,NA,NA,NA,NA,NA,TRUE,1,0.4447,342.8095,345.8091,0,82,82,106,1,200,47,NA,NA,NA,NA,NA,1,83,"likert"
"0DFD507CA7284410A8B1C760D7710E23",1,"0198eced-dd93-7f74-8cc9-13974deff97f","0198c493-061b-72b6-9f09-7b914e79ecc0","2025-08-27_15h08.16.319",NA,NA,349.1592,349.1592,349.1592,349.5091,NA,NA,NA,NA,NA,NA,NA,TRUE,1,0.3506,346.1593,349.1591,0,83,83,26,1,21,29,NA,NA,NA,NA,NA,1,84,"likert"
"0DFD507CA7284410A8B1C760D7710E23",1,"0198eced-dd93-7f74-8cc9-13974deff97f","0198c493-061b-72b6-9f09-7b914e79ecc0","2025-08-27_15h08.16.319",NA,NA,352.5092,352.5093,352.5093,352.859,NA,NA,NA,NA,NA,NA,NA,TRUE,1,0.3572,349.5095,352.5092,0,84,84,56,1,45,31,NA,NA,NA,NA,NA,1,85,"likert"
"0DFD507CA7284410A8B1C760D7710E23",1,"0198eced-dd93-7f74-8cc9-13974deff97f","0198c493-061b-72b6-9f09-7b914e79ecc0","2025-08-27_15h08.16.319",NA,NA,355.8594,355.8594,355.8594,356.2092,NA,NA,NA,NA,NA,NA,NA,TRUE,1,0.2671,352.8593,355.8593,0,85,85,13,1,12,26,NA,NA,NA,NA,NA,1,86,"likert"
"0DFD507CA7284410A8B1C760D7710E23",1,"0198eced-dd93-7f74-8cc9-13974deff97f","0198c493-061b-72b6-9f09-7b914e79ecc0","2025-08-27_15h08.16.319",NA,NA,359.2091,359.2091,359.2091,359.5591,NA,NA,NA,NA,NA,NA,NA,TRUE,1,0.2452,356.2095,359.2091,0,86,86,38,1,28,32,NA,NA,NA,NA,NA,1,87,"likert"
"0DFD507CA7284410A8B1C760D7710E23",1,"0198eced-dd93-7f74-8cc9-13974deff97f","0198c493-061b-72b6-9f09-7b914e79ecc0","2025-08-27_15h08.16.319",NA,NA,362.5591,362.5591,362.5591,362.9094,NA,NA,NA,NA,NA,NA,NA,TRUE,1,0.2835,359.5595,362.5591,0,87,87,99,1,180,39,NA,NA,NA,NA,NA,1,88,"likert"
"0DFD507CA7284410A8B1C760D7710E23",1,"0198eced-dd93-7f74-8cc9-13974deff97f","0198c493-061b-72b6-9f09-7b914e79ecc0","2025-08-27_15h08.16.319",NA,NA,365.9093,365.9093,365.9093,366.2592,NA,NA,NA,NA,NA,NA,NA,TRUE,1,0.3088,362.9098,365.9093,0,88,88,94,1,150,47,NA,NA,NA,NA,NA,1,89,"likert"
"0DFD507CA7284410A8B1C760D7710E23",1,"0198eced-dd93-7f74-8cc9-13974deff97f","0198c493-061b-72b6-9f09-7b914e79ecc0","2025-08-27_15h08.16.319",NA,NA,369.2594,369.2594,369.2594,369.6094,NA,NA,NA,NA,NA,NA,NA,TRUE,1,0.303,366.2596,369.2594,0,89,89,12,1,12,25,NA,NA,NA,NA,NA,1,90,"likert"
"0DFD507CA7284410A8B1C760D7710E23",1,"0198eced-dd93-7f74-8cc9-13974deff97f","0198c493-061b-72b6-9f09-7b914e79ecc0","2025-08-27_15h08.16.319",NA,NA,372.6094,372.6094,372.6094,372.9589,NA,NA,NA,NA,NA,NA,NA,TRUE,1,0.1145,369.6097,372.6093,0,90,90,62,1,50,35,NA,NA,NA,NA,NA,1,91,"likert"
"0DFD507CA7284410A8B1C760D7710E23",1,"0198eced-dd93-7f74-8cc9-13974deff97f","0198c493-061b-72b6-9f09-7b914e79ecc0","2025-08-27_15h08.16.319",NA,NA,375.9591,375.9592,375.9592,376.309,NA,NA,NA,NA,NA,NA,NA,TRUE,1,0.3073,372.9594,375.9591,0,91,91,46,1,30,32,NA,NA,NA,NA,NA,1,92,"likert"
"0DFD507CA7284410A8B1C760D7710E23",1,"0198eced-dd93-7f74-8cc9-13974deff97f","0198c493-061b-72b6-9f09-7b914e79ecc0","2025-08-27_15h08.16.319",NA,NA,379.3091,379.3091,379.3091,379.6593,NA,NA,NA,NA,NA,NA,NA,TRUE,1,0.3819,376.3094,379.309,0,92,92,2,1,7,28,NA,NA,NA,NA,NA,1,93,"likert"
"0DFD507CA7284410A8B1C760D7710E23",1,"0198eced-dd93-7f74-8cc9-13974deff97f","0198c493-061b-72b6-9f09-7b914e79ecc0","2025-08-27_15h08.16.319",NA,NA,382.6593,382.6593,382.6593,383.0091,NA,NA,NA,NA,NA,NA,NA,TRUE,1,0.5228,379.6596,382.6592,0,93,93,68,1,60,35,NA,NA,NA,NA,NA,1,94,"likert"
"0DFD507CA7284410A8B1C760D7710E23",1,"0198eced-dd93-7f74-8cc9-13974deff97f","0198c493-061b-72b6-9f09-7b914e79ecc0","2025-08-27_15h08.16.319",NA,NA,386.0091,386.0091,386.0091,386.3591,NA,NA,NA,NA,NA,NA,NA,TRUE,1,0.3249,383.0095,386.009,0,94,94,82,1,95,47,NA,NA,NA,NA,NA,1,95,"likert"
"0DFD507CA7284410A8B1C760D7710E23",1,"0198eced-dd93-7f74-8cc9-13974deff97f","0198c493-061b-72b6-9f09-7b914e79ecc0","2025-08-27_15h08.16.319",NA,NA,389.3593,389.3593,389.3593,389.7092,NA,NA,NA,NA,NA,NA,NA,TRUE,1,0.291,386.3596,389.3592,0,95,95,103,1,200,28,NA,NA,NA,NA,NA,1,96,"likert"
"0DFD507CA7284410A8B1C760D7710E23",1,"0198eced-dd93-7f74-8cc9-13974deff97f","0198c493-061b-72b6-9f09-7b914e79ecc0","2025-08-27_15h08.16.319",NA,NA,392.7094,392.7094,392.7094,393.0591,NA,NA,NA,NA,NA,NA,NA,TRUE,1,0.009,389.7097,392.7094,0,96,96,51,1,40,40,NA,NA,NA,NA,NA,1,97,"likert"
"0DFD507CA7284410A8B1C760D7710E23",1,"0198eced-dd93-7f74-8cc9-13974deff97f","0198c493-061b-72b6-9f09-7b914e79ecc0","2025-08-27_15h08.16.319",NA,NA,396.0592,396.0592,396.0592,396.4095,NA,NA,NA,NA,NA,NA,NA,TRUE,1,0.4352,393.0595,396.0592,0,97,97,101,1,180,54,NA,NA,NA,NA,NA,1,98,"likert"
"0DFD507CA7284410A8B1C760D7710E23",1,"0198eced-dd93-7f74-8cc9-13974deff97f","0198c493-061b-72b6-9f09-7b914e79ecc0","2025-08-27_15h08.16.319",NA,NA,399.4091,399.4091,399.4091,399.7594,NA,NA,NA,NA,NA,NA,NA,TRUE,1,0.2726,396.41,399.409,0,98,98,74,1,90,33,NA,NA,NA,NA,NA,1,99,"likert"
"0DFD507CA7284410A8B1C760D7710E23",1,"0198eced-dd93-7f74-8cc9-13974deff97f","0198c493-061b-72b6-9f09-7b914e79ecc0","2025-08-27_15h08.16.319",NA,NA,402.7593,402.7593,402.7593,403.1091,NA,NA,NA,NA,NA,NA,NA,TRUE,1,0.2271,399.7598,402.7592,0,99,99,107,1,200,54,NA,NA,NA,NA,NA,1,100,"likert"
"0DFD507CA7284410A8B1C760D7710E23",1,"0198eced-dd93-7f74-8cc9-13974deff97f","0198c493-061b-72b6-9f09-7b914e79ecc0","2025-08-27_15h08.16.319",NA,NA,406.1092,406.1092,406.1092,406.4595,NA,NA,NA,NA,NA,NA,NA,TRUE,1,0.2849,403.1096,406.1091,0,100,100,41,1,28,46,NA,NA,NA,NA,NA,1,101,"likert"
"0DFD507CA7284410A8B1C760D7710E23",1,"0198eced-dd93-7f74-8cc9-13974deff97f","0198c493-061b-72b6-9f09-7b914e79ecc0","2025-08-27_15h08.16.319",NA,NA,409.4591,409.4591,409.4591,409.8091,NA,NA,NA,NA,NA,NA,NA,TRUE,1,0.3869,406.4599,409.4591,0,101,101,48,1,40,27,NA,NA,NA,NA,NA,1,102,"likert"
"0DFD507CA7284410A8B1C760D7710E23",1,"0198eced-dd93-7f74-8cc9-13974deff97f","0198c493-061b-72b6-9f09-7b914e79ecc0","2025-08-27_15h08.16.319",NA,NA,412.809,412.8091,412.8091,413.1592,NA,NA,NA,NA,NA,NA,NA,TRUE,1,0.2854,409.8095,412.809,0,102,102,81,1,95,40,NA,NA,NA,NA,NA,1,103,"likert"
"0DFD507CA7284410A8B1C760D7710E23",1,"0198eced-dd93-7f74-8cc9-13974deff97f","0198c493-061b-72b6-9f09-7b914e79ecc0","2025-08-27_15h08.16.319",NA,NA,416.1593,416.1593,416.1593,416.5091,NA,NA,NA,NA,NA,NA,NA,TRUE,1,0.2795,413.1595,416.1592,0,103,103,89,1,100,54,NA,NA,NA,NA,NA,1,104,"likert"
"0DFD507CA7284410A8B1C760D7710E23",1,"0198eced-dd93-7f74-8cc9-13974deff97f","0198c493-061b-72b6-9f09-7b914e79ecc0","2025-08-27_15h08.16.319",NA,NA,419.5092,419.5092,419.5092,419.8592,NA,NA,NA,NA,NA,NA,NA,TRUE,1,0.0334,416.5094,419.5091,0,104,104,93,1,150,40,NA,NA,NA,NA,NA,1,105,"likert"
"0DFD507CA7284410A8B1C760D7710E23",1,"0198eced-dd93-7f74-8cc9-13974deff97f","0198c493-061b-72b6-9f09-7b914e79ecc0","2025-08-27_15h08.16.319",NA,NA,422.8597,422.8597,422.8597,423.2092,NA,NA,NA,NA,NA,NA,NA,TRUE,1,0.0997,419.8595,422.8596,0,105,105,84,1,100,26,NA,NA,NA,NA,NA,1,106,"likert"
"0DFD507CA7284410A8B1C760D7710E23",1,"0198eced-dd93-7f74-8cc9-13974deff97f","0198c493-061b-72b6-9f09-7b914e79ecc0","2025-08-27_15h08.16.319",NA,NA,426.2093,426.2093,426.2093,426.5591,NA,NA,NA,NA,NA,NA,NA,TRUE,1,0.3093,423.2096,426.2093,0,106,106,49,1,40,33,NA,NA,NA,NA,NA,1,107,"likert"
"0DFD507CA7284410A8B1C760D7710E23",1,"0198eced-dd93-7f74-8cc9-13974deff97f","0198c493-061b-72b6-9f09-7b914e79ecc0","2025-08-27_15h08.16.319",NA,NA,429.5592,429.5592,429.5592,429.9092,NA,NA,NA,NA,NA,NA,NA,TRUE,1,0.2315,426.5594,429.5591,0,107,107,70,1,60,47,NA,NA,NA,NA,NA,1,108,"likert"
"0DFD507CA7284410A8B1C760D7710E23",1,"0198eced-dd93-7f74-8cc9-13974deff97f","0198c493-061b-72b6-9f09-7b914e79ecc0","2025-08-27_15h08.16.319",NA,NA,434.6425,434.6425,434.6425,434.9926,NA,NA,NA,NA,NA,NA,NA,TRUE,1,0.9032,431.6479,434.6424,NA,NA,NA,NA,NA,95,40,0,0,0,81,1,2,1,"likert"
"0DFD507CA7284410A8B1C760D7710E23",1,"0198eced-dd93-7f74-8cc9-13974deff97f","0198c493-061b-72b6-9f09-7b914e79ecc0","2025-08-27_15h08.16.319",NA,NA,437.9927,437.9927,437.9927,438.3424,NA,NA,NA,NA,NA,NA,NA,TRUE,1,0.325,434.993,437.9926,NA,NA,NA,NA,NA,28,32,0,1,1,38,1,2,2,"likert"
"0DFD507CA7284410A8B1C760D7710E23",1,"0198eced-dd93-7f74-8cc9-13974deff97f","0198c493-061b-72b6-9f09-7b914e79ecc0","2025-08-27_15h08.16.319",NA,NA,441.3426,441.3426,441.3426,441.6925,NA,NA,NA,NA,NA,NA,NA,TRUE,1,0.2759,438.3428,441.3425,NA,NA,NA,NA,NA,50,27,0,2,2,60,1,2,3,"likert"
"0DFD507CA7284410A8B1C760D7710E23",1,"0198eced-dd93-7f74-8cc9-13974deff97f","0198c493-061b-72b6-9f09-7b914e79ecc0","2025-08-27_15h08.16.319",NA,NA,444.6923,444.6924,444.6924,445.0426,NA,NA,NA,NA,NA,NA,NA,TRUE,1,0.2894,441.6929,444.6923,NA,NA,NA,NA,NA,45,40,0,3,3,58,1,2,4,"likert"
"0DFD507CA7284410A8B1C760D7710E23",1,"0198eced-dd93-7f74-8cc9-13974deff97f","0198c493-061b-72b6-9f09-7b914e79ecc0","2025-08-27_15h08.16.319",NA,NA,448.0427,448.0427,448.0427,448.3926,NA,NA,NA,NA,NA,NA,NA,TRUE,1,0.2757,445.0431,448.0426,NA,NA,NA,NA,NA,40,47,0,4,4,52,1,2,5,"likert"
"0DFD507CA7284410A8B1C760D7710E23",1,"0198eced-dd93-7f74-8cc9-13974deff97f","0198c493-061b-72b6-9f09-7b914e79ecc0","2025-08-27_15h08.16.319",NA,NA,451.3927,451.3927,451.3927,451.7424,NA,NA,NA,NA,NA,NA,NA,TRUE,1,0.2661,448.3931,451.3927,NA,NA,NA,NA,NA,7,35,0,5,5,5,1,2,6,"likert"
"0DFD507CA7284410A8B1C760D7710E23",1,"0198eced-dd93-7f74-8cc9-13974deff97f","0198c493-061b-72b6-9f09-7b914e79ecc0","2025-08-27_15h08.16.319",NA,NA,454.7426,454.7426,454.7426,455.0947,NA,NA,NA,NA,NA,NA,NA,TRUE,1,1.2676,451.7426,454.7425,NA,NA,NA,NA,NA,60,35,0,6,6,68,1,2,7,"likert"
"0DFD507CA7284410A8B1C760D7710E23",1,"0198eced-dd93-7f74-8cc9-13974deff97f","0198c493-061b-72b6-9f09-7b914e79ecc0","2025-08-27_15h08.16.319",NA,NA,458.0927,458.0927,458.0927,458.4427,NA,NA,NA,NA,NA,NA,NA,TRUE,1,0.8222,455.0953,458.0926,NA,NA,NA,NA,NA,10,29,0,7,7,9,1,2,8,"likert"
"0DFD507CA7284410A8B1C760D7710E23",1,"0198eced-dd93-7f74-8cc9-13974deff97f","0198c493-061b-72b6-9f09-7b914e79ecc0","2025-08-27_15h08.16.319",NA,NA,461.4427,461.4427,461.4427,461.7926,NA,NA,NA,NA,NA,NA,NA,TRUE,1,0.3123,458.4436,461.4427,NA,NA,NA,NA,NA,25,46,0,8,8,35,1,2,9,"likert"
"0DFD507CA7284410A8B1C760D7710E23",1,"0198eced-dd93-7f74-8cc9-13974deff97f","0198c493-061b-72b6-9f09-7b914e79ecc0","2025-08-27_15h08.16.319",NA,NA,464.7925,465.0447,465.0447,465.1425,NA,NA,NA,NA,NA,NA,NA,FALSE,NA,NA,461.7932,464.7925,NA,NA,NA,NA,NA,150,40,0,9,9,93,1,2,10,"likert"
"0DFD507CA7284410A8B1C760D7710E23",1,"0198eced-dd93-7f74-8cc9-13974deff97f","0198c493-061b-72b6-9f09-7b914e79ecc0","2025-08-27_15h08.16.319",NA,NA,468.1449,468.3926,468.3926,468.4926,NA,NA,NA,NA,NA,NA,NA,FALSE,NA,NA,465.1434,468.1448,NA,NA,NA,NA,NA,180,54,0,10,10,101,1,2,11,"likert"
"0DFD507CA7284410A8B1C760D7710E23",1,"0198eced-dd93-7f74-8cc9-13974deff97f","0198c493-061b-72b6-9f09-7b914e79ecc0","2025-08-27_15h08.16.319",NA,NA,471.4925,471.7424,471.7424,471.8425,NA,NA,NA,NA,NA,NA,NA,FALSE,NA,NA,468.4933,471.4924,NA,NA,NA,NA,NA,14,32,0,11,11,21,1,2,12,"likert"
"0DFD507CA7284410A8B1C760D7710E23",1,"0198eced-dd93-7f74-8cc9-13974deff97f","0198c493-061b-72b6-9f09-7b914e79ecc0","2025-08-27_15h08.16.319",NA,NA,474.8428,475.0926,475.0926,475.1924,NA,NA,NA,NA,NA,NA,NA,FALSE,NA,NA,471.8431,474.8427,NA,NA,NA,NA,NA,14,26,0,12,12,19,1,2,13,"likert"
"0DFD507CA7284410A8B1C760D7710E23",1,"0198eced-dd93-7f74-8cc9-13974deff97f","0198c493-061b-72b6-9f09-7b914e79ecc0","2025-08-27_15h08.16.319",NA,NA,478.1925,478.1925,478.1925,478.5424,NA,NA,NA,NA,NA,NA,NA,TRUE,1,1.783,475.193,478.1925,NA,NA,NA,NA,NA,14,35,0,13,13,22,1,2,14,"likert"
"0DFD507CA7284410A8B1C760D7710E23",1,"0198eced-dd93-7f74-8cc9-13974deff97f","0198c493-061b-72b6-9f09-7b914e79ecc0","2025-08-27_15h08.16.319",NA,NA,481.5435,481.5436,481.5436,481.8926,NA,NA,NA,NA,NA,NA,NA,TRUE,1,0.6496,478.5428,481.5434,NA,NA,NA,NA,NA,40,27,0,14,14,48,1,2,15,"likert"
"0DFD507CA7284410A8B1C760D7710E23",1,"0198eced-dd93-7f74-8cc9-13974deff97f","0198c493-061b-72b6-9f09-7b914e79ecc0","2025-08-27_15h08.16.319",NA,NA,484.8926,484.8927,484.8927,485.2424,NA,NA,NA,NA,NA,NA,NA,TRUE,1,0.7906,481.8933,484.8926,NA,NA,NA,NA,NA,45,46,0,15,15,59,1,2,16,"likert"
"0DFD507CA7284410A8B1C760D7710E23",1,"0198eced-dd93-7f74-8cc9-13974deff97f","0198c493-061b-72b6-9f09-7b914e79ecc0","2025-08-27_15h08.16.319",NA,NA,488.2428,488.2429,488.2429,488.5926,NA,NA,NA,NA,NA,NA,NA,TRUE,1,0.676,485.2429,488.2427,NA,NA,NA,NA,NA,200,39,0,16,16,105,1,2,17,"likert"
"0DFD507CA7284410A8B1C760D7710E23",1,"0198eced-dd93-7f74-8cc9-13974deff97f","0198c493-061b-72b6-9f09-7b914e79ecc0","2025-08-27_15h08.16.319",NA,NA,491.5929,491.5929,491.5929,491.9428,NA,NA,NA,NA,NA,NA,NA,TRUE,1,0.4302,488.5931,491.5927,NA,NA,NA,NA,NA,30,30,0,17,17,45,1,2,18,"likert"
"0DFD507CA7284410A8B1C760D7710E23",1,"0198eced-dd93-7f74-8cc9-13974deff97f","0198c493-061b-72b6-9f09-7b914e79ecc0","2025-08-27_15h08.16.319",NA,NA,494.9425,494.9425,494.9425,495.2924,NA,NA,NA,NA,NA,NA,NA,TRUE,1,0.7399,491.9437,494.9424,NA,NA,NA,NA,NA,60,54,0,18,18,71,1,2,19,"likert"
"0DFD507CA7284410A8B1C760D7710E23",1,"0198eced-dd93-7f74-8cc9-13974deff97f","0198c493-061b-72b6-9f09-7b914e79ecc0","2025-08-27_15h08.16.319",NA,NA,498.2927,498.2927,498.2927,498.6424,NA,NA,NA,NA,NA,NA,NA,TRUE,1,0.6019,495.2929,498.2927,NA,NA,NA,NA,NA,12,35,0,19,19,17,1,2,20,"likert"
"0DFD507CA7284410A8B1C760D7710E23",1,"0198eced-dd93-7f74-8cc9-13974deff97f","0198c493-061b-72b6-9f09-7b914e79ecc0","2025-08-27_15h08.16.319",NA,NA,501.6449,501.6449,501.6449,501.9925,NA,NA,NA,NA,NA,NA,NA,TRUE,1,0.5663,498.6428,501.6448,NA,NA,NA,NA,NA,30,32,0,20,20,46,1,2,21,"likert"
"0DFD507CA7284410A8B1C760D7710E23",1,"0198eced-dd93-7f74-8cc9-13974deff97f","0198c493-061b-72b6-9f09-7b914e79ecc0","2025-08-27_15h08.16.319",NA,NA,504.9926,504.9926,504.9926,505.3429,NA,NA,NA,NA,NA,NA,NA,TRUE,1,0.6665,501.993,504.9926,NA,NA,NA,NA,NA,30,26,0,21,21,42,1,2,22,"likert"
"0DFD507CA7284410A8B1C760D7710E23",1,"0198eced-dd93-7f74-8cc9-13974deff97f","0198c493-061b-72b6-9f09-7b914e79ecc0","2025-08-27_15h08.16.319",NA,NA,508.3428,508.3428,508.3428,508.6925,NA,NA,NA,NA,NA,NA,NA,TRUE,1,0.7877,505.3437,508.3426,NA,NA,NA,NA,NA,21,30,0,22,22,27,1,2,23,"likert"
"0DFD507CA7284410A8B1C760D7710E23",1,"0198eced-dd93-7f74-8cc9-13974deff97f","0198c493-061b-72b6-9f09-7b914e79ecc0","2025-08-27_15h08.16.319",NA,NA,511.6927,511.6927,511.6927,512.0426,NA,NA,NA,NA,NA,NA,NA,TRUE,1,0.8021,508.693,511.6926,NA,NA,NA,NA,NA,45,35,0,23,23,57,1,2,24,"likert"
"0DFD507CA7284410A8B1C760D7710E23",1,"0198eced-dd93-7f74-8cc9-13974deff97f","0198c493-061b-72b6-9f09-7b914e79ecc0","2025-08-27_15h08.16.319",NA,NA,515.0427,515.0427,515.0427,515.3924,NA,NA,NA,NA,NA,NA,NA,TRUE,1,0.7662,512.0433,515.0426,NA,NA,NA,NA,NA,150,54,0,24,24,95,1,2,25,"likert"
"0DFD507CA7284410A8B1C760D7710E23",1,"0198eced-dd93-7f74-8cc9-13974deff97f","0198c493-061b-72b6-9f09-7b914e79ecc0","2025-08-27_15h08.16.319",NA,NA,518.3926,518.3926,518.3926,518.7449,NA,NA,NA,NA,NA,NA,NA,TRUE,4,0.7623,515.3931,518.3925,NA,NA,NA,NA,NA,12,25,0,25,25,12,1,2,26,"likert"
"0DFD507CA7284410A8B1C760D7710E23",1,"0198eced-dd93-7f74-8cc9-13974deff97f","0198c493-061b-72b6-9f09-7b914e79ecc0","2025-08-27_15h08.16.319",NA,NA,521.7425,521.7425,521.7425,522.0926,NA,NA,NA,NA,NA,NA,NA,TRUE,1,0.7841,518.7454,521.7425,NA,NA,NA,NA,NA,180,27,0,26,26,96,1,2,27,"likert"
"0DFD507CA7284410A8B1C760D7710E23",1,"0198eced-dd93-7f74-8cc9-13974deff97f","0198c493-061b-72b6-9f09-7b914e79ecc0","2025-08-27_15h08.16.319",NA,NA,525.0926,525.0926,525.0926,525.4426,NA,NA,NA,NA,NA,NA,NA,TRUE,1,0.8499,522.0931,525.0926,NA,NA,NA,NA,NA,50,54,0,27,27,65,1,2,28,"likert"
"0DFD507CA7284410A8B1C760D7710E23",1,"0198eced-dd93-7f74-8cc9-13974deff97f","0198c493-061b-72b6-9f09-7b914e79ecc0","2025-08-27_15h08.16.319",NA,NA,528.4424,528.4424,528.4424,528.7926,NA,NA,NA,NA,NA,NA,NA,TRUE,4,0.58,525.4433,528.4424,NA,NA,NA,NA,NA,10,25,0,28,28,6,1,2,29,"likert"
"0DFD507CA7284410A8B1C760D7710E23",1,"0198eced-dd93-7f74-8cc9-13974deff97f","0198c493-061b-72b6-9f09-7b914e79ecc0","2025-08-27_15h08.16.319",NA,NA,531.7926,531.7926,531.7926,532.1424,NA,NA,NA,NA,NA,NA,NA,TRUE,1,0.7179,528.7932,531.7926,NA,NA,NA,NA,NA,30,27,0,29,29,43,1,2,30,"likert"
"0DFD507CA7284410A8B1C760D7710E23",1,"0198eced-dd93-7f74-8cc9-13974deff97f","0198c493-061b-72b6-9f09-7b914e79ecc0","2025-08-27_15h08.16.319",NA,NA,535.1425,535.1426,535.1426,535.4927,NA,NA,NA,NA,NA,NA,NA,TRUE,1,0.7402,532.1429,535.1425,NA,NA,NA,NA,NA,28,35,0,30,30,39,1,2,31,"likert"
"0DFD507CA7284410A8B1C760D7710E23",1,"0198eced-dd93-7f74-8cc9-13974deff97f","0198c493-061b-72b6-9f09-7b914e79ecc0","2025-08-27_15h08.16.319",NA,NA,538.4925,538.4925,538.4926,538.8425,NA,NA,NA,NA,NA,NA,NA,TRUE,1,0.5994,535.4934,538.4925,NA,NA,NA,NA,NA,50,46,0,31,31,64,1,2,32,"likert"
"0DFD507CA7284410A8B1C760D7710E23",1,"0198eced-dd93-7f74-8cc9-13974deff97f","0198c493-061b-72b6-9f09-7b914e79ecc0","2025-08-27_15h08.16.319",NA,NA,541.8426,541.8426,541.8426,542.1927,NA,NA,NA,NA,NA,NA,NA,TRUE,1,0.5041,538.8431,541.8425,NA,NA,NA,NA,NA,50,35,0,32,32,62,1,2,33,"likert"
"0DFD507CA7284410A8B1C760D7710E23",1,"0198eced-dd93-7f74-8cc9-13974deff97f","0198c493-061b-72b6-9f09-7b914e79ecc0","2025-08-27_15h08.16.319",NA,NA,545.1928,545.1928,545.1928,545.5424,NA,NA,NA,NA,NA,NA,NA,TRUE,1,0.7424,542.1933,545.1927,NA,NA,NA,NA,NA,50,30,0,33,33,61,1,2,34,"likert"
"0DFD507CA7284410A8B1C760D7710E23",1,"0198eced-dd93-7f74-8cc9-13974deff97f","0198c493-061b-72b6-9f09-7b914e79ecc0","2025-08-27_15h08.16.319",NA,NA,548.5426,548.5427,548.5427,548.8927,NA,NA,NA,NA,NA,NA,NA,TRUE,4,0.7759,545.5429,548.5426,NA,NA,NA,NA,NA,7,26,0,34,34,1,1,2,35,"likert"
"0DFD507CA7284410A8B1C760D7710E23",1,"0198eced-dd93-7f74-8cc9-13974deff97f","0198c493-061b-72b6-9f09-7b914e79ecc0","2025-08-27_15h08.16.319",NA,NA,551.8927,551.8927,551.8927,552.2427,NA,NA,NA,NA,NA,NA,NA,TRUE,1,0.906,548.8934,551.8927,NA,NA,NA,NA,NA,21,27,0,35,35,25,1,2,36,"likert"
"0DFD507CA7284410A8B1C760D7710E23",1,"0198eced-dd93-7f74-8cc9-13974deff97f","0198c493-061b-72b6-9f09-7b914e79ecc0","2025-08-27_15h08.16.319",NA,NA,555.2428,555.2428,555.2428,555.5925,NA,NA,NA,NA,NA,NA,NA,TRUE,1,0.5561,552.2431,555.2428,NA,NA,NA,NA,NA,45,26,0,36,36,54,1,2,37,"likert"
"0DFD507CA7284410A8B1C760D7710E23",1,"0198eced-dd93-7f74-8cc9-13974deff97f","0198c493-061b-72b6-9f09-7b914e79ecc0","2025-08-27_15h08.16.319",NA,NA,558.5925,558.5926,558.5926,558.9427,NA,NA,NA,NA,NA,NA,NA,TRUE,1,0.5542,555.593,558.5925,NA,NA,NA,NA,NA,60,47,0,37,37,70,1,2,38,"likert"
"0DFD507CA7284410A8B1C760D7710E23",1,"0198eced-dd93-7f74-8cc9-13974deff97f","0198c493-061b-72b6-9f09-7b914e79ecc0","2025-08-27_15h08.16.319",NA,NA,561.9449,562.1926,562.1926,562.2926,NA,NA,NA,NA,NA,NA,NA,FALSE,NA,NA,558.9434,561.9449,NA,NA,NA,NA,NA,40,40,0,38,38,51,1,2,39,"likert"
"0DFD507CA7284410A8B1C760D7710E23",1,"0198eced-dd93-7f74-8cc9-13974deff97f","0198c493-061b-72b6-9f09-7b914e79ecc0","2025-08-27_15h08.16.319",NA,NA,565.2928,565.2928,565.2928,565.6425,NA,NA,NA,NA,NA,NA,NA,TRUE,1,0.5699,562.2931,565.2927,NA,NA,NA,NA,NA,25,29,0,39,39,31,1,2,40,"likert"
"0DFD507CA7284410A8B1C760D7710E23",1,"0198eced-dd93-7f74-8cc9-13974deff97f","0198c493-061b-72b6-9f09-7b914e79ecc0","2025-08-27_15h08.16.319",NA,NA,568.6426,568.6426,568.6426,568.9926,NA,NA,NA,NA,NA,NA,NA,TRUE,1,0.5403,565.6431,568.6426,NA,NA,NA,NA,NA,7,32,0,40,40,4,1,2,41,"likert"
"0DFD507CA7284410A8B1C760D7710E23",1,"0198eced-dd93-7f74-8cc9-13974deff97f","0198c493-061b-72b6-9f09-7b914e79ecc0","2025-08-27_15h08.16.319",NA,NA,571.9926,571.9926,571.9926,572.3425,NA,NA,NA,NA,NA,NA,NA,TRUE,5,0.474,568.9933,571.9926,NA,NA,NA,NA,NA,7,25,0,41,41,0,1,2,42,"likert"
"0DFD507CA7284410A8B1C760D7710E23",1,"0198eced-dd93-7f74-8cc9-13974deff97f","0198c493-061b-72b6-9f09-7b914e79ecc0","2025-08-27_15h08.16.319",NA,NA,575.3448,575.3448,575.3449,575.6928,NA,NA,NA,NA,NA,NA,NA,TRUE,1,0.6083,572.343,575.3447,NA,NA,NA,NA,NA,30,29,0,42,42,44,1,2,43,"likert"
"0DFD507CA7284410A8B1C760D7710E23",1,"0198eced-dd93-7f74-8cc9-13974deff97f","0198c493-061b-72b6-9f09-7b914e79ecc0","2025-08-27_15h08.16.319",NA,NA,578.6927,578.6927,578.6927,579.0426,NA,NA,NA,NA,NA,NA,NA,TRUE,5,1.2261,575.6936,578.6927,NA,NA,NA,NA,NA,12,31,0,43,43,15,1,2,44,"likert"
"0DFD507CA7284410A8B1C760D7710E23",1,"0198eced-dd93-7f74-8cc9-13974deff97f","0198c493-061b-72b6-9f09-7b914e79ecc0","2025-08-27_15h08.16.319",NA,NA,582.0426,582.0426,582.0427,582.3926,NA,NA,NA,NA,NA,NA,NA,TRUE,1,0.5967,579.043,582.0426,NA,NA,NA,NA,NA,200,26,0,44,44,102,1,2,45,"likert"
"0DFD507CA7284410A8B1C760D7710E23",1,"0198eced-dd93-7f74-8cc9-13974deff97f","0198c493-061b-72b6-9f09-7b914e79ecc0","2025-08-27_15h08.16.319",NA,NA,585.3926,585.3927,585.3927,585.7448,NA,NA,NA,NA,NA,NA,NA,TRUE,1,0.5668,582.3931,585.3926,NA,NA,NA,NA,NA,200,35,0,45,45,104,1,2,46,"likert"
"0DFD507CA7284410A8B1C760D7710E23",1,"0198eced-dd93-7f74-8cc9-13974deff97f","0198c493-061b-72b6-9f09-7b914e79ecc0","2025-08-27_15h08.16.319",NA,NA,588.7426,588.7427,588.7427,589.0925,NA,NA,NA,NA,NA,NA,NA,TRUE,5,0.8079,585.7452,588.7426,NA,NA,NA,NA,NA,12,26,0,46,46,13,1,2,47,"likert"
"0DFD507CA7284410A8B1C760D7710E23",1,"0198eced-dd93-7f74-8cc9-13974deff97f","0198c493-061b-72b6-9f09-7b914e79ecc0","2025-08-27_15h08.16.319",NA,NA,592.0929,592.0929,592.0929,592.4426,NA,NA,NA,NA,NA,NA,NA,TRUE,1,0.4782,589.093,592.0929,NA,NA,NA,NA,NA,150,33,0,47,47,91,1,2,48,"likert"
"0DFD507CA7284410A8B1C760D7710E23",1,"0198eced-dd93-7f74-8cc9-13974deff97f","0198c493-061b-72b6-9f09-7b914e79ecc0","2025-08-27_15h08.16.319",NA,NA,595.4427,595.4427,595.4427,595.7926,NA,NA,NA,NA,NA,NA,NA,TRUE,1,0.5164,592.4432,595.4427,NA,NA,NA,NA,NA,200,54,0,48,48,107,1,2,49,"likert"
"0DFD507CA7284410A8B1C760D7710E23",1,"0198eced-dd93-7f74-8cc9-13974deff97f","0198c493-061b-72b6-9f09-7b914e79ecc0","2025-08-27_15h08.16.319",NA,NA,598.7927,598.7927,598.7927,599.1426,NA,NA,NA,NA,NA,NA,NA,TRUE,1,0.542,595.793,598.7927,NA,NA,NA,NA,NA,180,39,0,49,49,99,1,2,50,"likert"
"0DFD507CA7284410A8B1C760D7710E23",1,"0198eced-dd93-7f74-8cc9-13974deff97f","0198c493-061b-72b6-9f09-7b914e79ecc0","2025-08-27_15h08.16.319",NA,NA,602.1426,602.1426,602.1426,602.4927,NA,NA,NA,NA,NA,NA,NA,TRUE,1,0.683,599.1433,602.1425,NA,NA,NA,NA,NA,90,40,0,50,50,75,1,2,51,"likert"
"0DFD507CA7284410A8B1C760D7710E23",1,"0198eced-dd93-7f74-8cc9-13974deff97f","0198c493-061b-72b6-9f09-7b914e79ecc0","2025-08-27_15h08.16.319",NA,NA,605.4926,605.4926,605.4926,605.8427,NA,NA,NA,NA,NA,NA,NA,TRUE,1,0.5859,602.4931,605.4925,NA,NA,NA,NA,NA,100,26,0,51,51,84,1,2,52,"likert"
"0DFD507CA7284410A8B1C760D7710E23",1,"0198eced-dd93-7f74-8cc9-13974deff97f","0198c493-061b-72b6-9f09-7b914e79ecc0","2025-08-27_15h08.16.319",NA,NA,608.8426,608.8426,608.8426,609.1927,NA,NA,NA,NA,NA,NA,NA,TRUE,1,0.7277,605.8433,608.8426,NA,NA,NA,NA,NA,95,35,0,52,52,80,1,2,53,"likert"
"0DFD507CA7284410A8B1C760D7710E23",1,"0198eced-dd93-7f74-8cc9-13974deff97f","0198c493-061b-72b6-9f09-7b914e79ecc0","2025-08-27_15h08.16.319",NA,NA,612.1927,612.1927,612.1927,612.5426,NA,NA,NA,NA,NA,NA,NA,TRUE,1,0.4697,609.1935,612.1926,NA,NA,NA,NA,NA,14,25,0,53,53,18,1,2,54,"likert"
"0DFD507CA7284410A8B1C760D7710E23",1,"0198eced-dd93-7f74-8cc9-13974deff97f","0198c493-061b-72b6-9f09-7b914e79ecc0","2025-08-27_15h08.16.319",NA,NA,615.5427,615.5427,615.5427,615.8926,NA,NA,NA,NA,NA,NA,NA,TRUE,1,0.5397,612.543,615.5427,NA,NA,NA,NA,NA,200,28,0,54,54,103,1,2,55,"likert"
"0DFD507CA7284410A8B1C760D7710E23",1,"0198eced-dd93-7f74-8cc9-13974deff97f","0198c493-061b-72b6-9f09-7b914e79ecc0","2025-08-27_15h08.16.319",NA,NA,618.8927,618.8927,618.8927,619.2427,NA,NA,NA,NA,NA,NA,NA,TRUE,1,0.6216,615.8931,618.8927,NA,NA,NA,NA,NA,100,39,0,55,55,87,1,2,56,"likert"
"0DFD507CA7284410A8B1C760D7710E23",1,"0198eced-dd93-7f74-8cc9-13974deff97f","0198c493-061b-72b6-9f09-7b914e79ecc0","2025-08-27_15h08.16.319",NA,NA,622.2425,622.2425,622.2425,622.5927,NA,NA,NA,NA,NA,NA,NA,TRUE,1,0.5161,619.2434,622.2424,NA,NA,NA,NA,NA,25,31,0,56,56,32,1,2,57,"likert"
"0DFD507CA7284410A8B1C760D7710E23",1,"0198eced-dd93-7f74-8cc9-13974deff97f","0198c493-061b-72b6-9f09-7b914e79ecc0","2025-08-27_15h08.16.319",NA,NA,625.5927,625.5927,625.5927,625.9427,NA,NA,NA,NA,NA,NA,NA,TRUE,1,0.562,622.5934,625.5927,NA,NA,NA,NA,NA,95,31,0,57,57,78,1,2,58,"likert"
"0DFD507CA7284410A8B1C760D7710E23",1,"0198eced-dd93-7f74-8cc9-13974deff97f","0198c493-061b-72b6-9f09-7b914e79ecc0","2025-08-27_15h08.16.319",NA,NA,628.9425,628.9426,628.9426,629.2926,NA,NA,NA,NA,NA,NA,NA,TRUE,1,0.4516,625.9431,628.9425,NA,NA,NA,NA,NA,7,30,0,58,58,3,1,2,59,"likert"
"0DFD507CA7284410A8B1C760D7710E23",1,"0198eced-dd93-7f74-8cc9-13974deff97f","0198c493-061b-72b6-9f09-7b914e79ecc0","2025-08-27_15h08.16.319",NA,NA,632.2927,632.2927,632.2927,632.6427,NA,NA,NA,NA,NA,NA,NA,TRUE,1,0.9736,629.293,632.2927,NA,NA,NA,NA,NA,180,31,0,59,59,97,1,2,60,"likert"
"0DFD507CA7284410A8B1C760D7710E23",1,"0198eced-dd93-7f74-8cc9-13974deff97f","0198c493-061b-72b6-9f09-7b914e79ecc0","2025-08-27_15h08.16.319",NA,NA,635.6428,635.6428,635.6428,635.9927,NA,NA,NA,NA,NA,NA,NA,TRUE,1,0.6121,632.6434,635.6427,NA,NA,NA,NA,NA,95,47,0,60,60,82,1,2,61,"likert"
"0DFD507CA7284410A8B1C760D7710E23",1,"0198eced-dd93-7f74-8cc9-13974deff97f","0198c493-061b-72b6-9f09-7b914e79ecc0","2025-08-27_15h08.16.319",NA,NA,638.9927,638.9927,638.9927,639.3425,NA,NA,NA,NA,NA,NA,NA,TRUE,1,0.4462,635.9934,638.9927,NA,NA,NA,NA,NA,21,32,0,61,61,28,1,2,62,"likert"
"0DFD507CA7284410A8B1C760D7710E23",1,"0198eced-dd93-7f74-8cc9-13974deff97f","0198c493-061b-72b6-9f09-7b914e79ecc0","2025-08-27_15h08.16.319",NA,NA,642.3429,642.3429,642.3429,642.6926,NA,NA,NA,NA,NA,NA,NA,TRUE,1,0.5996,639.3431,642.3428,NA,NA,NA,NA,NA,12,33,0,62,62,16,1,2,63,"likert"
"0DFD507CA7284410A8B1C760D7710E23",1,"0198eced-dd93-7f74-8cc9-13974deff97f","0198c493-061b-72b6-9f09-7b914e79ecc0","2025-08-27_15h08.16.319",NA,NA,645.6929,645.6929,645.6929,646.0426,NA,NA,NA,NA,NA,NA,NA,TRUE,1,0.722,642.693,645.6928,NA,NA,NA,NA,NA,150,35,0,63,63,92,1,2,64,"likert"
"0DFD507CA7284410A8B1C760D7710E23",1,"0198eced-dd93-7f74-8cc9-13974deff97f","0198c493-061b-72b6-9f09-7b914e79ecc0","2025-08-27_15h08.16.319",NA,NA,649.0428,649.0428,649.0428,649.3926,NA,NA,NA,NA,NA,NA,NA,TRUE,1,0.6198,646.0431,649.0426,NA,NA,NA,NA,NA,30,38,0,64,64,47,1,2,65,"likert"
"0DFD507CA7284410A8B1C760D7710E23",1,"0198eced-dd93-7f74-8cc9-13974deff97f","0198c493-061b-72b6-9f09-7b914e79ecc0","2025-08-27_15h08.16.319",NA,NA,652.3948,652.3948,652.3948,652.7428,NA,NA,NA,NA,NA,NA,NA,TRUE,5,0.926,649.3931,652.3948,NA,NA,NA,NA,NA,10,32,0,65,65,11,1,2,66,"likert"
"0DFD507CA7284410A8B1C760D7710E23",1,"0198eced-dd93-7f74-8cc9-13974deff97f","0198c493-061b-72b6-9f09-7b914e79ecc0","2025-08-27_15h08.16.319",NA,NA,655.7449,655.745,655.745,656.0927,NA,NA,NA,NA,NA,NA,NA,TRUE,5,0.7279,652.7436,655.7449,NA,NA,NA,NA,NA,7,28,0,66,66,2,1,2,67,"likert"
"0DFD507CA7284410A8B1C760D7710E23",1,"0198eced-dd93-7f74-8cc9-13974deff97f","0198c493-061b-72b6-9f09-7b914e79ecc0","2025-08-27_15h08.16.319",NA,NA,659.0926,659.0926,659.0926,659.4427,NA,NA,NA,NA,NA,NA,NA,TRUE,1,0.65,656.0932,659.0926,NA,NA,NA,NA,NA,14,28,0,67,67,20,1,2,68,"likert"
"0DFD507CA7284410A8B1C760D7710E23",1,"0198eced-dd93-7f74-8cc9-13974deff97f","0198c493-061b-72b6-9f09-7b914e79ecc0","2025-08-27_15h08.16.319",NA,NA,662.4428,662.4428,662.4428,662.7929,NA,NA,NA,NA,NA,NA,NA,TRUE,1,0.6279,659.4432,662.4427,NA,NA,NA,NA,NA,60,33,0,68,68,67,1,2,69,"likert"
"0DFD507CA7284410A8B1C760D7710E23",1,"0198eced-dd93-7f74-8cc9-13974deff97f","0198c493-061b-72b6-9f09-7b914e79ecc0","2025-08-27_15h08.16.319",NA,NA,665.7926,665.7926,665.7927,666.1425,NA,NA,NA,NA,NA,NA,NA,TRUE,1,0.5499,662.7935,665.7926,NA,NA,NA,NA,NA,200,47,0,69,69,106,1,2,70,"likert"
"0DFD507CA7284410A8B1C760D7710E23",1,"0198eced-dd93-7f74-8cc9-13974deff97f","0198c493-061b-72b6-9f09-7b914e79ecc0","2025-08-27_15h08.16.319",NA,NA,669.1428,669.1428,669.1428,669.4926,NA,NA,NA,NA,NA,NA,NA,TRUE,1,0.6241,666.1431,669.1427,NA,NA,NA,NA,NA,90,46,0,70,70,76,1,2,71,"likert"
"0DFD507CA7284410A8B1C760D7710E23",1,"0198eced-dd93-7f74-8cc9-13974deff97f","0198c493-061b-72b6-9f09-7b914e79ecc0","2025-08-27_15h08.16.319",NA,NA,672.4925,672.4925,672.4925,672.8427,NA,NA,NA,NA,NA,NA,NA,TRUE,1,0.478,669.4931,672.4925,NA,NA,NA,NA,NA,28,28,0,71,71,37,1,2,72,"likert"
"0DFD507CA7284410A8B1C760D7710E23",1,"0198eced-dd93-7f74-8cc9-13974deff97f","0198c493-061b-72b6-9f09-7b914e79ecc0","2025-08-27_15h08.16.319",NA,NA,675.8427,675.8427,675.8428,676.1927,NA,NA,NA,NA,NA,NA,NA,TRUE,1,0.4199,672.8433,675.8427,NA,NA,NA,NA,NA,25,27,0,72,72,30,1,2,73,"likert"
"0DFD507CA7284410A8B1C760D7710E23",1,"0198eced-dd93-7f74-8cc9-13974deff97f","0198c493-061b-72b6-9f09-7b914e79ecc0","2025-08-27_15h08.16.319",NA,NA,679.1926,679.1926,679.1926,679.5426,NA,NA,NA,NA,NA,NA,NA,TRUE,1,0.5256,676.1932,679.1926,NA,NA,NA,NA,NA,25,33,0,73,73,33,1,2,74,"likert"
"0DFD507CA7284410A8B1C760D7710E23",1,"0198eced-dd93-7f74-8cc9-13974deff97f","0198c493-061b-72b6-9f09-7b914e79ecc0","2025-08-27_15h08.16.319",NA,NA,682.5426,682.5427,682.5427,682.8926,NA,NA,NA,NA,NA,NA,NA,TRUE,4,0.7878,679.5432,682.5425,NA,NA,NA,NA,NA,40,54,0,74,74,53,1,2,75,"likert"
"0DFD507CA7284410A8B1C760D7710E23",1,"0198eced-dd93-7f74-8cc9-13974deff97f","0198c493-061b-72b6-9f09-7b914e79ecc0","2025-08-27_15h08.16.319",NA,NA,685.8928,685.8928,685.8928,686.2428,NA,NA,NA,NA,NA,NA,NA,TRUE,4,0.7738,682.8932,685.8927,NA,NA,NA,NA,NA,12,28,0,75,75,14,1,2,76,"likert"
"0DFD507CA7284410A8B1C760D7710E23",1,"0198eced-dd93-7f74-8cc9-13974deff97f","0198c493-061b-72b6-9f09-7b914e79ecc0","2025-08-27_15h08.16.319",NA,NA,689.2429,689.2429,689.2429,689.5925,NA,NA,NA,NA,NA,NA,NA,TRUE,1,0.76,686.2435,689.2428,NA,NA,NA,NA,NA,100,54,0,76,76,89,1,2,77,"likert"
"0DFD507CA7284410A8B1C760D7710E23",1,"0198eced-dd93-7f74-8cc9-13974deff97f","0198c493-061b-72b6-9f09-7b914e79ecc0","2025-08-27_15h08.16.319",NA,NA,692.5927,692.5927,692.5927,692.9428,NA,NA,NA,NA,NA,NA,NA,TRUE,1,0.7099,689.5929,692.5927,NA,NA,NA,NA,NA,40,35,0,77,77,50,1,2,78,"likert"
"0DFD507CA7284410A8B1C760D7710E23",1,"0198eced-dd93-7f74-8cc9-13974deff97f","0198c493-061b-72b6-9f09-7b914e79ecc0","2025-08-27_15h08.16.319",NA,NA,695.9429,695.9429,695.9429,696.2948,NA,NA,NA,NA,NA,NA,NA,TRUE,1,0.6558,692.9435,695.9428,NA,NA,NA,NA,NA,45,29,0,78,78,55,1,2,79,"likert"
"0DFD507CA7284410A8B1C760D7710E23",1,"0198eced-dd93-7f74-8cc9-13974deff97f","0198c493-061b-72b6-9f09-7b914e79ecc0","2025-08-27_15h08.16.319",NA,NA,699.2927,699.2927,699.2927,699.6426,NA,NA,NA,NA,NA,NA,NA,TRUE,1,0.6737,696.2952,699.2927,NA,NA,NA,NA,NA,21,26,0,79,79,24,1,2,80,"likert"
"0DFD507CA7284410A8B1C760D7710E23",1,"0198eced-dd93-7f74-8cc9-13974deff97f","0198c493-061b-72b6-9f09-7b914e79ecc0","2025-08-27_15h08.16.319",NA,NA,702.6428,702.6428,702.6428,702.9928,NA,NA,NA,NA,NA,NA,NA,TRUE,1,0.644,699.6431,702.6427,NA,NA,NA,NA,NA,40,33,0,80,80,49,1,2,81,"likert"
"0DFD507CA7284410A8B1C760D7710E23",1,"0198eced-dd93-7f74-8cc9-13974deff97f","0198c493-061b-72b6-9f09-7b914e79ecc0","2025-08-27_15h08.16.319",NA,NA,705.9949,705.9949,705.9949,706.3427,NA,NA,NA,NA,NA,NA,NA,TRUE,1,0.702,702.9937,705.9949,NA,NA,NA,NA,NA,95,54,0,81,81,83,1,2,82,"likert"
"0DFD507CA7284410A8B1C760D7710E23",1,"0198eced-dd93-7f74-8cc9-13974deff97f","0198c493-061b-72b6-9f09-7b914e79ecc0","2025-08-27_15h08.16.319",NA,NA,709.3425,709.3425,709.3425,709.6949,NA,NA,NA,NA,NA,NA,NA,TRUE,1,0.5441,706.3433,709.3425,NA,NA,NA,NA,NA,150,31,0,82,82,90,1,2,83,"likert"
"0DFD507CA7284410A8B1C760D7710E23",1,"0198eced-dd93-7f74-8cc9-13974deff97f","0198c493-061b-72b6-9f09-7b914e79ecc0","2025-08-27_15h08.16.319",NA,NA,712.6926,712.6926,712.6926,713.0426,NA,NA,NA,NA,NA,NA,NA,TRUE,1,0.7736,709.6952,712.6926,NA,NA,NA,NA,NA,25,35,0,83,83,34,1,2,84,"likert"
"0DFD507CA7284410A8B1C760D7710E23",1,"0198eced-dd93-7f74-8cc9-13974deff97f","0198c493-061b-72b6-9f09-7b914e79ecc0","2025-08-27_15h08.16.319",NA,NA,716.0428,716.0428,716.0428,716.3926,NA,NA,NA,NA,NA,NA,NA,TRUE,5,0.9962,713.0433,716.0428,NA,NA,NA,NA,NA,21,38,0,84,84,29,1,2,85,"likert"
"0DFD507CA7284410A8B1C760D7710E23",1,"0198eced-dd93-7f74-8cc9-13974deff97f","0198c493-061b-72b6-9f09-7b914e79ecc0","2025-08-27_15h08.16.319",NA,NA,719.3926,719.3926,719.3926,719.7426,NA,NA,NA,NA,NA,NA,NA,TRUE,1,0.6578,716.393,719.3926,NA,NA,NA,NA,NA,180,35,0,85,85,98,1,2,86,"likert"
"0DFD507CA7284410A8B1C760D7710E23",1,"0198eced-dd93-7f74-8cc9-13974deff97f","0198c493-061b-72b6-9f09-7b914e79ecc0","2025-08-27_15h08.16.319",NA,NA,722.7427,722.7427,722.7427,723.0926,NA,NA,NA,NA,NA,NA,NA,TRUE,1,0.6847,719.7431,722.7426,NA,NA,NA,NA,NA,60,29,0,86,86,66,1,2,87,"likert"
"0DFD507CA7284410A8B1C760D7710E23",1,"0198eced-dd93-7f74-8cc9-13974deff97f","0198c493-061b-72b6-9f09-7b914e79ecc0","2025-08-27_15h08.16.319",NA,NA,726.0929,726.0929,726.0929,726.4425,NA,NA,NA,NA,NA,NA,NA,TRUE,1,0.6832,723.0931,726.0929,NA,NA,NA,NA,NA,50,40,0,87,87,63,1,2,88,"likert"
"0DFD507CA7284410A8B1C760D7710E23",1,"0198eced-dd93-7f74-8cc9-13974deff97f","0198c493-061b-72b6-9f09-7b914e79ecc0","2025-08-27_15h08.16.319",NA,NA,729.4427,729.4427,729.4427,729.7925,NA,NA,NA,NA,NA,NA,NA,TRUE,1,0.5165,726.4431,729.4426,NA,NA,NA,NA,NA,90,33,0,88,88,74,1,2,89,"likert"
"0DFD507CA7284410A8B1C760D7710E23",1,"0198eced-dd93-7f74-8cc9-13974deff97f","0198c493-061b-72b6-9f09-7b914e79ecc0","2025-08-27_15h08.16.319",NA,NA,732.793,732.793,732.793,733.1425,NA,NA,NA,NA,NA,NA,NA,TRUE,1,0.5175,729.793,732.7929,NA,NA,NA,NA,NA,90,26,0,89,89,72,1,2,90,"likert"
"0DFD507CA7284410A8B1C760D7710E23",1,"0198eced-dd93-7f74-8cc9-13974deff97f","0198c493-061b-72b6-9f09-7b914e79ecc0","2025-08-27_15h08.16.319",NA,NA,736.1426,736.1427,736.1427,736.4928,NA,NA,NA,NA,NA,NA,NA,TRUE,1,0.4593,733.1432,736.1426,NA,NA,NA,NA,NA,100,46,0,90,90,88,1,2,91,"likert"
"0DFD507CA7284410A8B1C760D7710E23",1,"0198eced-dd93-7f74-8cc9-13974deff97f","0198c493-061b-72b6-9f09-7b914e79ecc0","2025-08-27_15h08.16.319",NA,NA,739.4927,739.4927,739.4927,739.8426,NA,NA,NA,NA,NA,NA,NA,TRUE,1,0.3856,736.4936,739.4926,NA,NA,NA,NA,NA,90,30,0,91,91,73,1,2,92,"likert"
"0DFD507CA7284410A8B1C760D7710E23",1,"0198eced-dd93-7f74-8cc9-13974deff97f","0198c493-061b-72b6-9f09-7b914e79ecc0","2025-08-27_15h08.16.319",NA,NA,742.8429,742.8429,742.8429,743.1927,NA,NA,NA,NA,NA,NA,NA,TRUE,1,0.3678,739.8431,742.8428,NA,NA,NA,NA,NA,180,46,0,92,92,100,1,2,93,"likert"
"0DFD507CA7284410A8B1C760D7710E23",1,"0198eced-dd93-7f74-8cc9-13974deff97f","0198c493-061b-72b6-9f09-7b914e79ecc0","2025-08-27_15h08.16.319",NA,NA,746.1929,746.1929,746.1929,746.5427,NA,NA,NA,NA,NA,NA,NA,TRUE,1,0.43,743.1932,746.1927,NA,NA,NA,NA,NA,10,27,0,93,93,8,1,2,94,"likert"
"0DFD507CA7284410A8B1C760D7710E23",1,"0198eced-dd93-7f74-8cc9-13974deff97f","0198c493-061b-72b6-9f09-7b914e79ecc0","2025-08-27_15h08.16.319",NA,NA,749.5428,749.5429,749.5429,749.8927,NA,NA,NA,NA,NA,NA,NA,TRUE,1,0.7436,746.5432,749.5427,NA,NA,NA,NA,NA,21,29,0,94,94,26,1,2,95,"likert"
"0DFD507CA7284410A8B1C760D7710E23",1,"0198eced-dd93-7f74-8cc9-13974deff97f","0198c493-061b-72b6-9f09-7b914e79ecc0","2025-08-27_15h08.16.319",NA,NA,752.8929,752.8929,752.8929,753.2426,NA,NA,NA,NA,NA,NA,NA,TRUE,1,0.9858,749.8934,752.8928,NA,NA,NA,NA,NA,95,33,0,95,95,79,1,2,96,"likert"
"0DFD507CA7284410A8B1C760D7710E23",1,"0198eced-dd93-7f74-8cc9-13974deff97f","0198c493-061b-72b6-9f09-7b914e79ecc0","2025-08-27_15h08.16.319",NA,NA,756.2426,756.2426,756.2426,756.5926,NA,NA,NA,NA,NA,NA,NA,TRUE,1,0.6495,753.2431,756.2425,NA,NA,NA,NA,NA,100,31,0,96,96,85,1,2,97,"likert"
"0DFD507CA7284410A8B1C760D7710E23",1,"0198eced-dd93-7f74-8cc9-13974deff97f","0198c493-061b-72b6-9f09-7b914e79ecc0","2025-08-27_15h08.16.319",NA,NA,759.5928,759.5928,759.5928,759.9428,NA,NA,NA,NA,NA,NA,NA,TRUE,5,0.7538,756.5931,759.5927,NA,NA,NA,NA,NA,14,39,0,97,97,23,1,2,98,"likert"
"0DFD507CA7284410A8B1C760D7710E23",1,"0198eced-dd93-7f74-8cc9-13974deff97f","0198c493-061b-72b6-9f09-7b914e79ecc0","2025-08-27_15h08.16.319",NA,NA,762.9427,762.9427,762.9427,763.2927,NA,NA,NA,NA,NA,NA,NA,TRUE,5,0.6637,759.9433,762.9427,NA,NA,NA,NA,NA,28,26,0,98,98,36,1,2,99,"likert"
"0DFD507CA7284410A8B1C760D7710E23",1,"0198eced-dd93-7f74-8cc9-13974deff97f","0198c493-061b-72b6-9f09-7b914e79ecc0","2025-08-27_15h08.16.319",NA,NA,766.2928,766.2928,766.2928,766.6426,NA,NA,NA,NA,NA,NA,NA,TRUE,1,0.5214,763.2932,766.2927,NA,NA,NA,NA,NA,60,40,0,99,99,69,1,2,100,"likert"
"0DFD507CA7284410A8B1C760D7710E23",1,"0198eced-dd93-7f74-8cc9-13974deff97f","0198c493-061b-72b6-9f09-7b914e79ecc0","2025-08-27_15h08.16.319",NA,NA,769.6428,769.6428,769.6428,769.9928,NA,NA,NA,NA,NA,NA,NA,TRUE,1,0.5716,766.643,769.6427,NA,NA,NA,NA,NA,100,38,0,100,100,86,1,2,101,"likert"
"0DFD507CA7284410A8B1C760D7710E23",1,"0198eced-dd93-7f74-8cc9-13974deff97f","0198c493-061b-72b6-9f09-7b914e79ecc0","2025-08-27_15h08.16.319",NA,NA,772.9929,772.9929,772.9929,773.3426,NA,NA,NA,NA,NA,NA,NA,TRUE,5,0.7664,769.9933,772.9929,NA,NA,NA,NA,NA,10,30,0,101,101,10,1,2,102,"likert"
"0DFD507CA7284410A8B1C760D7710E23",1,"0198eced-dd93-7f74-8cc9-13974deff97f","0198c493-061b-72b6-9f09-7b914e79ecc0","2025-08-27_15h08.16.319",NA,NA,776.3429,776.3429,776.3429,776.6929,NA,NA,NA,NA,NA,NA,NA,TRUE,5,0.8039,773.3431,776.3428,NA,NA,NA,NA,NA,28,46,0,102,102,41,1,2,103,"likert"
"0DFD507CA7284410A8B1C760D7710E23",1,"0198eced-dd93-7f74-8cc9-13974deff97f","0198c493-061b-72b6-9f09-7b914e79ecc0","2025-08-27_15h08.16.319",NA,NA,779.6929,779.693,779.693,780.0428,NA,NA,NA,NA,NA,NA,NA,TRUE,1,0.6417,776.6937,779.6929,NA,NA,NA,NA,NA,150,47,0,103,103,94,1,2,104,"likert"
"0DFD507CA7284410A8B1C760D7710E23",1,"0198eced-dd93-7f74-8cc9-13974deff97f","0198c493-061b-72b6-9f09-7b914e79ecc0","2025-08-27_15h08.16.319",NA,NA,783.0428,783.0428,783.0428,783.3928,NA,NA,NA,NA,NA,NA,NA,TRUE,1,0.6957,780.0434,783.0427,NA,NA,NA,NA,NA,45,31,0,104,104,56,1,2,105,"likert"
"0DFD507CA7284410A8B1C760D7710E23",1,"0198eced-dd93-7f74-8cc9-13974deff97f","0198c493-061b-72b6-9f09-7b914e79ecc0","2025-08-27_15h08.16.319",NA,NA,786.3928,786.3928,786.3928,786.7427,NA,NA,NA,NA,NA,NA,NA,TRUE,1,0.5496,783.3935,786.3927,NA,NA,NA,NA,NA,90,54,0,105,105,77,1,2,106,"likert"
"0DFD507CA7284410A8B1C760D7710E23",1,"0198eced-dd93-7f74-8cc9-13974deff97f","0198c493-061b-72b6-9f09-7b914e79ecc0","2025-08-27_15h08.16.319",NA,NA,789.7427,789.7427,789.7427,790.0927,NA,NA,NA,NA,NA,NA,NA,TRUE,1,0.4715,786.7433,789.7426,NA,NA,NA,NA,NA,28,39,0,106,106,40,1,2,107,"likert"
"0DFD507CA7284410A8B1C760D7710E23",1,"0198eced-dd93-7f74-8cc9-13974deff97f","0198c493-061b-72b6-9f09-7b914e79ecc0","2025-08-27_15h08.16.319",NA,NA,793.095,793.095,793.095,793.4428,NA,NA,NA,NA,NA,NA,NA,TRUE,1,0.5698,790.0932,793.095,NA,NA,NA,NA,NA,10,26,0,107,107,7,1,2,108,"likert"
