"participant","session","assignmentId","projectId","date","practiceTrial.started","practiceTrial.stopped","tooLate.started","tooLate.stopped","blank.started","blank.stopped","trials_pract.thisRepN","trials_pract.thisTrialN","trials_pract.thisN","trials_pract.thisIndex","trials_pract.ran","delay_pract","amount_pract","responseMade","key","rt","trial.started","trial.stopped","trials.thisRepN","trials.thisTrialN","trials.thisN","trials.thisIndex","trials.ran","delay","amount","trials_2.thisRepN","trials_2.thisTrialN","trials_2.thisN","trials_2.thisIndex","trials_2.ran","block","trial","taskType"
"17303E18C2A14A0ABC2D2DCB050E05CF",1,"0198f77e-6b63-7893-a5ee-ed6c788445da","0198f768-e4d2-711c-944b-6f03c09216de","2025-08-29_16h22.17.698",17.708,20.696,20.696,20.945,20.945,21.046,0,0,0,0,1,7,30,FALSE,NA,NA,NA,NA,NA,NA,NA,NA,NA,NA,NA,NA,NA,NA,NA,NA,0,1,"likert"
"17303E18C2A14A0ABC2D2DCB050E05CF",1,"0198f77e-6b63-7893-a5ee-ed6c788445da","0198f768-e4d2-711c-944b-6f03c09216de","2025-08-29_16h22.17.698",21.047,24.046,24.046,24.046,24.046,24.396,0,1,1,3,1,3,27,TRUE,5,2.462,NA,NA,NA,NA,NA,NA,NA,NA,NA,NA,NA,NA,NA,NA,0,2,"likert"
"17303E18C2A14A0ABC2D2DCB050E05CF",1,"0198f77e-6b63-7893-a5ee-ed6c788445da","0198f768-e4d2-711c-944b-6f03c09216de","2025-08-29_16h22.17.698",24.397,27.396,27.396,27.396,27.396,27.746,0,2,2,4,1,30,40,TRUE,5,1.645,NA,NA,NA,NA,NA,NA,NA,NA,NA,NA,NA,NA,NA,NA,0,3,"likert"
"17303E18C2A14A0ABC2D2DCB050E05CF",1,"0198f77e-6b63-7893-a5ee-ed6c788445da","0198f768-e4d2-711c-944b-6f03c09216de","2025-08-29_16h22.17.698",27.747,30.746,30.746,30.747,30.747,31.096,0,3,3,2,1,14,45,TRUE,5,2.087,NA,NA,NA,NA,NA,NA,NA,NA,NA,NA,NA,NA,NA,NA,0,4,"likert"
"17303E18C2A14A0ABC2D2DCB050E05CF",1,"0198f77e-6b63-7893-a5ee-ed6c788445da","0198f768-e4d2-711c-944b-6f03c09216de","2025-08-29_16h22.17.698",31.097,34.096,34.096,34.096,34.097,34.446,0,4,4,1,1,100,50,TRUE,1,2.367,NA,NA,NA,NA,NA,NA,NA,NA,NA,NA,NA,NA,NA,NA,0,5,"likert"
"17303E18C2A14A0ABC2D2DCB050E05CF",1,"0198f77e-6b63-7893-a5ee-ed6c788445da","0198f768-e4d2-711c-944b-6f03c09216de","2025-08-29_16h22.17.698",NA,NA,52.796,52.796,52.797,53.147,NA,NA,NA,NA,NA,NA,NA,TRUE,1,1.119,49.809,52.796,0,0,0,88,1,100,46,NA,NA,NA,NA,NA,1,1,"likert"
"17303E18C2A14A0ABC2D2DCB050E05CF",1,"0198f77e-6b63-7893-a5ee-ed6c788445da","0198f768-e4d2-711c-944b-6f03c09216de","2025-08-29_16h22.17.698",NA,NA,56.147,56.147,56.147,56.496,NA,NA,NA,NA,NA,NA,NA,TRUE,1,1.337,53.147,56.147,0,1,1,50,1,40,35,NA,NA,NA,NA,NA,1,2,"likert"
"17303E18C2A14A0ABC2D2DCB050E05CF",1,"0198f77e-6b63-7893-a5ee-ed6c788445da","0198f768-e4d2-711c-944b-6f03c09216de","2025-08-29_16h22.17.698",NA,NA,59.497,59.497,59.497,59.847,NA,NA,NA,NA,NA,NA,NA,TRUE,1,1.052,56.497,59.496,0,2,2,76,1,90,46,NA,NA,NA,NA,NA,1,3,"likert"
"17303E18C2A14A0ABC2D2DCB050E05CF",1,"0198f77e-6b63-7893-a5ee-ed6c788445da","0198f768-e4d2-711c-944b-6f03c09216de","2025-08-29_16h22.17.698",NA,NA,62.847,62.847,62.847,63.197,NA,NA,NA,NA,NA,NA,NA,TRUE,1,0.818,59.847,62.847,0,3,3,83,1,95,54,NA,NA,NA,NA,NA,1,4,"likert"
"17303E18C2A14A0ABC2D2DCB050E05CF",1,"0198f77e-6b63-7893-a5ee-ed6c788445da","0198f768-e4d2-711c-944b-6f03c09216de","2025-08-29_16h22.17.698",NA,NA,66.197,66.198,66.198,66.546,NA,NA,NA,NA,NA,NA,NA,TRUE,1,1.012,63.197,66.197,0,4,4,104,1,200,35,NA,NA,NA,NA,NA,1,5,"likert"
"17303E18C2A14A0ABC2D2DCB050E05CF",1,"0198f77e-6b63-7893-a5ee-ed6c788445da","0198f768-e4d2-711c-944b-6f03c09216de","2025-08-29_16h22.17.698",NA,NA,69.548,69.548,69.548,69.897,NA,NA,NA,NA,NA,NA,NA,TRUE,5,1.602,66.547,69.547,0,5,5,8,1,10,27,NA,NA,NA,NA,NA,1,6,"likert"
"17303E18C2A14A0ABC2D2DCB050E05CF",1,"0198f77e-6b63-7893-a5ee-ed6c788445da","0198f768-e4d2-711c-944b-6f03c09216de","2025-08-29_16h22.17.698",NA,NA,72.897,72.897,72.897,73.247,NA,NA,NA,NA,NA,NA,NA,TRUE,1,1.313,69.901,72.897,0,6,6,41,1,28,46,NA,NA,NA,NA,NA,1,7,"likert"
"17303E18C2A14A0ABC2D2DCB050E05CF",1,"0198f77e-6b63-7893-a5ee-ed6c788445da","0198f768-e4d2-711c-944b-6f03c09216de","2025-08-29_16h22.17.698",NA,NA,76.248,76.248,76.248,76.597,NA,NA,NA,NA,NA,NA,NA,TRUE,1,1.139,73.248,76.247,0,7,7,103,1,200,28,NA,NA,NA,NA,NA,1,8,"likert"
"17303E18C2A14A0ABC2D2DCB050E05CF",1,"0198f77e-6b63-7893-a5ee-ed6c788445da","0198f768-e4d2-711c-944b-6f03c09216de","2025-08-29_16h22.17.698",NA,NA,79.597,79.597,79.597,79.947,NA,NA,NA,NA,NA,NA,NA,TRUE,5,1.501,76.598,79.597,0,8,8,23,1,14,39,NA,NA,NA,NA,NA,1,9,"likert"
"17303E18C2A14A0ABC2D2DCB050E05CF",1,"0198f77e-6b63-7893-a5ee-ed6c788445da","0198f768-e4d2-711c-944b-6f03c09216de","2025-08-29_16h22.17.698",NA,NA,82.947,82.947,82.947,83.297,NA,NA,NA,NA,NA,NA,NA,TRUE,1,0.973,79.948,82.947,0,9,9,58,1,45,40,NA,NA,NA,NA,NA,1,10,"likert"
"17303E18C2A14A0ABC2D2DCB050E05CF",1,"0198f77e-6b63-7893-a5ee-ed6c788445da","0198f768-e4d2-711c-944b-6f03c09216de","2025-08-29_16h22.17.698",NA,NA,86.298,86.298,86.298,86.647,NA,NA,NA,NA,NA,NA,NA,TRUE,5,1.786,83.298,86.298,0,10,10,1,1,7,26,NA,NA,NA,NA,NA,1,11,"likert"
"17303E18C2A14A0ABC2D2DCB050E05CF",1,"0198f77e-6b63-7893-a5ee-ed6c788445da","0198f768-e4d2-711c-944b-6f03c09216de","2025-08-29_16h22.17.698",NA,NA,89.648,89.648,89.648,89.997,NA,NA,NA,NA,NA,NA,NA,TRUE,1,1.304,86.649,89.648,0,11,11,78,1,95,31,NA,NA,NA,NA,NA,1,12,"likert"
"17303E18C2A14A0ABC2D2DCB050E05CF",1,"0198f77e-6b63-7893-a5ee-ed6c788445da","0198f768-e4d2-711c-944b-6f03c09216de","2025-08-29_16h22.17.698",NA,NA,92.997,92.997,92.997,93.347,NA,NA,NA,NA,NA,NA,NA,TRUE,1,1.087,89.998,92.997,0,12,12,49,1,40,33,NA,NA,NA,NA,NA,1,13,"likert"
"17303E18C2A14A0ABC2D2DCB050E05CF",1,"0198f77e-6b63-7893-a5ee-ed6c788445da","0198f768-e4d2-711c-944b-6f03c09216de","2025-08-29_16h22.17.698",NA,NA,96.348,96.348,96.348,96.698,NA,NA,NA,NA,NA,NA,NA,TRUE,5,1.231,93.348,96.348,0,13,13,13,1,12,26,NA,NA,NA,NA,NA,1,14,"likert"
"17303E18C2A14A0ABC2D2DCB050E05CF",1,"0198f77e-6b63-7893-a5ee-ed6c788445da","0198f768-e4d2-711c-944b-6f03c09216de","2025-08-29_16h22.17.698",NA,NA,99.697,99.697,99.698,100.048,NA,NA,NA,NA,NA,NA,NA,TRUE,5,1.851,96.699,99.697,0,14,14,7,1,10,26,NA,NA,NA,NA,NA,1,15,"likert"
"17303E18C2A14A0ABC2D2DCB050E05CF",1,"0198f77e-6b63-7893-a5ee-ed6c788445da","0198f768-e4d2-711c-944b-6f03c09216de","2025-08-29_16h22.17.698",NA,NA,103.048,103.048,103.048,103.397,NA,NA,NA,NA,NA,NA,NA,TRUE,1,0.857,100.053,103.048,0,15,15,74,1,90,33,NA,NA,NA,NA,NA,1,16,"likert"
"17303E18C2A14A0ABC2D2DCB050E05CF",1,"0198f77e-6b63-7893-a5ee-ed6c788445da","0198f768-e4d2-711c-944b-6f03c09216de","2025-08-29_16h22.17.698",NA,NA,106.398,106.398,106.398,106.748,NA,NA,NA,NA,NA,NA,NA,TRUE,1,1.648,103.398,106.398,0,16,16,39,1,28,35,NA,NA,NA,NA,NA,1,17,"likert"
"17303E18C2A14A0ABC2D2DCB050E05CF",1,"0198f77e-6b63-7893-a5ee-ed6c788445da","0198f768-e4d2-711c-944b-6f03c09216de","2025-08-29_16h22.17.698",NA,NA,109.748,109.748,109.748,110.098,NA,NA,NA,NA,NA,NA,NA,TRUE,1,0.713,106.749,109.748,0,17,17,84,1,100,26,NA,NA,NA,NA,NA,1,18,"likert"
"17303E18C2A14A0ABC2D2DCB050E05CF",1,"0198f77e-6b63-7893-a5ee-ed6c788445da","0198f768-e4d2-711c-944b-6f03c09216de","2025-08-29_16h22.17.698",NA,NA,113.098,113.098,113.098,113.447,NA,NA,NA,NA,NA,NA,NA,TRUE,1,0.864,110.099,113.098,0,18,18,55,1,45,29,NA,NA,NA,NA,NA,1,19,"likert"
"17303E18C2A14A0ABC2D2DCB050E05CF",1,"0198f77e-6b63-7893-a5ee-ed6c788445da","0198f768-e4d2-711c-944b-6f03c09216de","2025-08-29_16h22.17.698",NA,NA,116.448,116.448,116.448,116.798,NA,NA,NA,NA,NA,NA,NA,TRUE,1,0.906,113.448,116.448,0,19,19,94,1,150,47,NA,NA,NA,NA,NA,1,20,"likert"
"17303E18C2A14A0ABC2D2DCB050E05CF",1,"0198f77e-6b63-7893-a5ee-ed6c788445da","0198f768-e4d2-711c-944b-6f03c09216de","2025-08-29_16h22.17.698",NA,NA,119.798,119.798,119.798,120.148,NA,NA,NA,NA,NA,NA,NA,TRUE,1,1.991,116.799,119.798,0,20,20,46,1,30,32,NA,NA,NA,NA,NA,1,21,"likert"
"17303E18C2A14A0ABC2D2DCB050E05CF",1,"0198f77e-6b63-7893-a5ee-ed6c788445da","0198f768-e4d2-711c-944b-6f03c09216de","2025-08-29_16h22.17.698",NA,NA,123.148,123.148,123.148,123.498,NA,NA,NA,NA,NA,NA,NA,TRUE,5,0.828,120.149,123.148,0,21,21,4,1,7,32,NA,NA,NA,NA,NA,1,22,"likert"
"17303E18C2A14A0ABC2D2DCB050E05CF",1,"0198f77e-6b63-7893-a5ee-ed6c788445da","0198f768-e4d2-711c-944b-6f03c09216de","2025-08-29_16h22.17.698",NA,NA,126.498,126.498,126.498,126.848,NA,NA,NA,NA,NA,NA,NA,TRUE,1,0.6,123.499,126.498,0,22,22,34,1,25,35,NA,NA,NA,NA,NA,1,23,"likert"
"17303E18C2A14A0ABC2D2DCB050E05CF",1,"0198f77e-6b63-7893-a5ee-ed6c788445da","0198f768-e4d2-711c-944b-6f03c09216de","2025-08-29_16h22.17.698",NA,NA,129.848,129.848,129.848,130.198,NA,NA,NA,NA,NA,NA,NA,TRUE,1,0.682,126.849,129.848,0,23,23,29,1,21,38,NA,NA,NA,NA,NA,1,24,"likert"
"17303E18C2A14A0ABC2D2DCB050E05CF",1,"0198f77e-6b63-7893-a5ee-ed6c788445da","0198f768-e4d2-711c-944b-6f03c09216de","2025-08-29_16h22.17.698",NA,NA,133.198,133.199,133.199,133.548,NA,NA,NA,NA,NA,NA,NA,TRUE,1,0.615,130.199,133.198,0,24,24,54,1,45,26,NA,NA,NA,NA,NA,1,25,"likert"
"17303E18C2A14A0ABC2D2DCB050E05CF",1,"0198f77e-6b63-7893-a5ee-ed6c788445da","0198f768-e4d2-711c-944b-6f03c09216de","2025-08-29_16h22.17.698",NA,NA,136.548,136.548,136.548,136.899,NA,NA,NA,NA,NA,NA,NA,TRUE,1,0.574,133.549,136.548,0,25,25,107,1,200,54,NA,NA,NA,NA,NA,1,26,"likert"
"17303E18C2A14A0ABC2D2DCB050E05CF",1,"0198f77e-6b63-7893-a5ee-ed6c788445da","0198f768-e4d2-711c-944b-6f03c09216de","2025-08-29_16h22.17.698",NA,NA,139.899,139.899,139.899,140.248,NA,NA,NA,NA,NA,NA,NA,TRUE,1,0.952,136.904,139.899,0,26,26,28,1,21,32,NA,NA,NA,NA,NA,1,27,"likert"
"17303E18C2A14A0ABC2D2DCB050E05CF",1,"0198f77e-6b63-7893-a5ee-ed6c788445da","0198f768-e4d2-711c-944b-6f03c09216de","2025-08-29_16h22.17.698",NA,NA,143.249,143.249,143.249,143.598,NA,NA,NA,NA,NA,NA,NA,TRUE,1,0.822,140.249,143.249,0,27,27,81,1,95,40,NA,NA,NA,NA,NA,1,28,"likert"
"17303E18C2A14A0ABC2D2DCB050E05CF",1,"0198f77e-6b63-7893-a5ee-ed6c788445da","0198f768-e4d2-711c-944b-6f03c09216de","2025-08-29_16h22.17.698",NA,NA,146.598,146.598,146.598,146.949,NA,NA,NA,NA,NA,NA,NA,TRUE,1,0.739,143.599,146.598,0,28,28,97,1,180,31,NA,NA,NA,NA,NA,1,29,"likert"
"17303E18C2A14A0ABC2D2DCB050E05CF",1,"0198f77e-6b63-7893-a5ee-ed6c788445da","0198f768-e4d2-711c-944b-6f03c09216de","2025-08-29_16h22.17.698",NA,NA,149.949,149.949,149.949,150.299,NA,NA,NA,NA,NA,NA,NA,TRUE,1,0.807,146.95,149.949,0,29,29,60,1,50,27,NA,NA,NA,NA,NA,1,30,"likert"
"17303E18C2A14A0ABC2D2DCB050E05CF",1,"0198f77e-6b63-7893-a5ee-ed6c788445da","0198f768-e4d2-711c-944b-6f03c09216de","2025-08-29_16h22.17.698",NA,NA,153.299,153.299,153.299,153.649,NA,NA,NA,NA,NA,NA,NA,TRUE,5,1.488,150.3,153.299,0,30,30,16,1,12,33,NA,NA,NA,NA,NA,1,31,"likert"
"17303E18C2A14A0ABC2D2DCB050E05CF",1,"0198f77e-6b63-7893-a5ee-ed6c788445da","0198f768-e4d2-711c-944b-6f03c09216de","2025-08-29_16h22.17.698",NA,NA,156.649,156.649,156.649,156.998,NA,NA,NA,NA,NA,NA,NA,TRUE,1,0.692,153.65,156.649,0,31,31,64,1,50,46,NA,NA,NA,NA,NA,1,32,"likert"
"17303E18C2A14A0ABC2D2DCB050E05CF",1,"0198f77e-6b63-7893-a5ee-ed6c788445da","0198f768-e4d2-711c-944b-6f03c09216de","2025-08-29_16h22.17.698",NA,NA,159.999,159.999,159.999,160.349,NA,NA,NA,NA,NA,NA,NA,TRUE,1,0.658,157,159.999,0,32,32,37,1,28,28,NA,NA,NA,NA,NA,1,33,"likert"
"17303E18C2A14A0ABC2D2DCB050E05CF",1,"0198f77e-6b63-7893-a5ee-ed6c788445da","0198f768-e4d2-711c-944b-6f03c09216de","2025-08-29_16h22.17.698",NA,NA,163.349,163.349,163.349,163.699,NA,NA,NA,NA,NA,NA,NA,TRUE,1,0.61,160.35,163.349,0,33,33,67,1,60,33,NA,NA,NA,NA,NA,1,34,"likert"
"17303E18C2A14A0ABC2D2DCB050E05CF",1,"0198f77e-6b63-7893-a5ee-ed6c788445da","0198f768-e4d2-711c-944b-6f03c09216de","2025-08-29_16h22.17.698",NA,NA,166.7,166.7,166.7,167.049,NA,NA,NA,NA,NA,NA,NA,TRUE,1,0.632,163.7,166.699,0,34,34,80,1,95,35,NA,NA,NA,NA,NA,1,35,"likert"
"17303E18C2A14A0ABC2D2DCB050E05CF",1,"0198f77e-6b63-7893-a5ee-ed6c788445da","0198f768-e4d2-711c-944b-6f03c09216de","2025-08-29_16h22.17.698",NA,NA,170.049,170.049,170.049,170.399,NA,NA,NA,NA,NA,NA,NA,TRUE,5,0.742,167.054,170.049,0,35,35,18,1,14,25,NA,NA,NA,NA,NA,1,36,"likert"
"17303E18C2A14A0ABC2D2DCB050E05CF",1,"0198f77e-6b63-7893-a5ee-ed6c788445da","0198f768-e4d2-711c-944b-6f03c09216de","2025-08-29_16h22.17.698",NA,NA,173.399,173.399,173.399,173.749,NA,NA,NA,NA,NA,NA,NA,TRUE,1,0.671,170.401,173.399,0,36,36,63,1,50,40,NA,NA,NA,NA,NA,1,37,"likert"
"17303E18C2A14A0ABC2D2DCB050E05CF",1,"0198f77e-6b63-7893-a5ee-ed6c788445da","0198f768-e4d2-711c-944b-6f03c09216de","2025-08-29_16h22.17.698",NA,NA,176.749,176.749,176.749,177.099,NA,NA,NA,NA,NA,NA,NA,TRUE,1,1.139,173.75,176.749,0,37,37,24,1,21,26,NA,NA,NA,NA,NA,1,38,"likert"
"17303E18C2A14A0ABC2D2DCB050E05CF",1,"0198f77e-6b63-7893-a5ee-ed6c788445da","0198f768-e4d2-711c-944b-6f03c09216de","2025-08-29_16h22.17.698",NA,NA,180.1,180.1,180.1,180.45,NA,NA,NA,NA,NA,NA,NA,TRUE,1,0.768,177.1,180.1,0,38,38,99,1,180,39,NA,NA,NA,NA,NA,1,39,"likert"
"17303E18C2A14A0ABC2D2DCB050E05CF",1,"0198f77e-6b63-7893-a5ee-ed6c788445da","0198f768-e4d2-711c-944b-6f03c09216de","2025-08-29_16h22.17.698",NA,NA,183.45,183.45,183.45,183.8,NA,NA,NA,NA,NA,NA,NA,TRUE,1,0.768,180.45,183.45,0,39,39,66,1,60,29,NA,NA,NA,NA,NA,1,40,"likert"
"17303E18C2A14A0ABC2D2DCB050E05CF",1,"0198f77e-6b63-7893-a5ee-ed6c788445da","0198f768-e4d2-711c-944b-6f03c09216de","2025-08-29_16h22.17.698",NA,NA,186.799,186.799,186.799,187.15,NA,NA,NA,NA,NA,NA,NA,TRUE,5,0.832,183.8,186.799,0,40,40,22,1,14,35,NA,NA,NA,NA,NA,1,41,"likert"
"17303E18C2A14A0ABC2D2DCB050E05CF",1,"0198f77e-6b63-7893-a5ee-ed6c788445da","0198f768-e4d2-711c-944b-6f03c09216de","2025-08-29_16h22.17.698",NA,NA,190.15,190.15,190.15,190.499,NA,NA,NA,NA,NA,NA,NA,TRUE,1,0.592,187.151,190.15,0,41,41,105,1,200,39,NA,NA,NA,NA,NA,1,42,"likert"
"17303E18C2A14A0ABC2D2DCB050E05CF",1,"0198f77e-6b63-7893-a5ee-ed6c788445da","0198f768-e4d2-711c-944b-6f03c09216de","2025-08-29_16h22.17.698",NA,NA,193.499,193.499,193.499,193.849,NA,NA,NA,NA,NA,NA,NA,TRUE,1,0.603,190.5,193.499,0,42,42,75,1,90,40,NA,NA,NA,NA,NA,1,43,"likert"
"17303E18C2A14A0ABC2D2DCB050E05CF",1,"0198f77e-6b63-7893-a5ee-ed6c788445da","0198f768-e4d2-711c-944b-6f03c09216de","2025-08-29_16h22.17.698",NA,NA,196.85,196.85,196.85,197.2,NA,NA,NA,NA,NA,NA,NA,TRUE,5,1.258,193.85,196.85,0,43,43,20,1,14,28,NA,NA,NA,NA,NA,1,44,"likert"
"17303E18C2A14A0ABC2D2DCB050E05CF",1,"0198f77e-6b63-7893-a5ee-ed6c788445da","0198f768-e4d2-711c-944b-6f03c09216de","2025-08-29_16h22.17.698",NA,NA,200.199,200.2,200.2,200.55,NA,NA,NA,NA,NA,NA,NA,TRUE,1,1.032,197.201,200.199,0,44,44,33,1,25,33,NA,NA,NA,NA,NA,1,45,"likert"
"17303E18C2A14A0ABC2D2DCB050E05CF",1,"0198f77e-6b63-7893-a5ee-ed6c788445da","0198f768-e4d2-711c-944b-6f03c09216de","2025-08-29_16h22.17.698",NA,NA,203.551,203.551,203.551,203.9,NA,NA,NA,NA,NA,NA,NA,TRUE,5,1.044,200.556,203.55,0,45,45,21,1,14,32,NA,NA,NA,NA,NA,1,46,"likert"
"17303E18C2A14A0ABC2D2DCB050E05CF",1,"0198f77e-6b63-7893-a5ee-ed6c788445da","0198f768-e4d2-711c-944b-6f03c09216de","2025-08-29_16h22.17.698",NA,NA,206.902,206.902,206.902,207.25,NA,NA,NA,NA,NA,NA,NA,TRUE,1,0.617,203.9,206.902,0,46,46,47,1,30,38,NA,NA,NA,NA,NA,1,47,"likert"
"17303E18C2A14A0ABC2D2DCB050E05CF",1,"0198f77e-6b63-7893-a5ee-ed6c788445da","0198f768-e4d2-711c-944b-6f03c09216de","2025-08-29_16h22.17.698",NA,NA,210.25,210.25,210.25,210.6,NA,NA,NA,NA,NA,NA,NA,TRUE,1,0.608,207.251,210.25,0,47,47,62,1,50,35,NA,NA,NA,NA,NA,1,48,"likert"
"17303E18C2A14A0ABC2D2DCB050E05CF",1,"0198f77e-6b63-7893-a5ee-ed6c788445da","0198f768-e4d2-711c-944b-6f03c09216de","2025-08-29_16h22.17.698",NA,NA,213.6,213.601,213.601,213.95,NA,NA,NA,NA,NA,NA,NA,TRUE,1,0.72,210.602,213.6,0,48,48,61,1,50,30,NA,NA,NA,NA,NA,1,49,"likert"
"17303E18C2A14A0ABC2D2DCB050E05CF",1,"0198f77e-6b63-7893-a5ee-ed6c788445da","0198f768-e4d2-711c-944b-6f03c09216de","2025-08-29_16h22.17.698",NA,NA,216.95,216.95,216.95,217.3,NA,NA,NA,NA,NA,NA,NA,TRUE,1,1.536,213.951,216.95,0,49,49,77,1,90,54,NA,NA,NA,NA,NA,1,50,"likert"
"17303E18C2A14A0ABC2D2DCB050E05CF",1,"0198f77e-6b63-7893-a5ee-ed6c788445da","0198f768-e4d2-711c-944b-6f03c09216de","2025-08-29_16h22.17.698",NA,NA,220.3,220.3,220.3,220.65,NA,NA,NA,NA,NA,NA,NA,TRUE,1,0.687,217.301,220.3,0,50,50,98,1,180,35,NA,NA,NA,NA,NA,1,51,"likert"
"17303E18C2A14A0ABC2D2DCB050E05CF",1,"0198f77e-6b63-7893-a5ee-ed6c788445da","0198f768-e4d2-711c-944b-6f03c09216de","2025-08-29_16h22.17.698",NA,NA,223.65,223.65,223.65,224,NA,NA,NA,NA,NA,NA,NA,TRUE,5,1.036,220.651,223.65,0,51,51,17,1,12,35,NA,NA,NA,NA,NA,1,52,"likert"
"17303E18C2A14A0ABC2D2DCB050E05CF",1,"0198f77e-6b63-7893-a5ee-ed6c788445da","0198f768-e4d2-711c-944b-6f03c09216de","2025-08-29_16h22.17.698",NA,NA,227,227,227,227.35,NA,NA,NA,NA,NA,NA,NA,TRUE,1,0.682,224.001,227,0,52,52,53,1,40,54,NA,NA,NA,NA,NA,1,53,"likert"
"17303E18C2A14A0ABC2D2DCB050E05CF",1,"0198f77e-6b63-7893-a5ee-ed6c788445da","0198f768-e4d2-711c-944b-6f03c09216de","2025-08-29_16h22.17.698",NA,NA,230.352,230.352,230.352,230.7,NA,NA,NA,NA,NA,NA,NA,TRUE,1,0.669,227.351,230.35,0,53,53,93,1,150,40,NA,NA,NA,NA,NA,1,54,"likert"
"17303E18C2A14A0ABC2D2DCB050E05CF",1,"0198f77e-6b63-7893-a5ee-ed6c788445da","0198f768-e4d2-711c-944b-6f03c09216de","2025-08-29_16h22.17.698",NA,NA,233.701,233.701,233.701,234.051,NA,NA,NA,NA,NA,NA,NA,TRUE,1,0.875,230.706,233.701,0,54,54,26,1,21,29,NA,NA,NA,NA,NA,1,55,"likert"
"17303E18C2A14A0ABC2D2DCB050E05CF",1,"0198f77e-6b63-7893-a5ee-ed6c788445da","0198f768-e4d2-711c-944b-6f03c09216de","2025-08-29_16h22.17.698",NA,NA,237.051,237.051,237.051,237.401,NA,NA,NA,NA,NA,NA,NA,TRUE,1,0.585,234.052,237.051,0,55,55,51,1,40,40,NA,NA,NA,NA,NA,1,56,"likert"
"17303E18C2A14A0ABC2D2DCB050E05CF",1,"0198f77e-6b63-7893-a5ee-ed6c788445da","0198f768-e4d2-711c-944b-6f03c09216de","2025-08-29_16h22.17.698",NA,NA,240.401,240.401,240.401,240.75,NA,NA,NA,NA,NA,NA,NA,TRUE,1,0.751,237.402,240.401,0,56,56,65,1,50,54,NA,NA,NA,NA,NA,1,57,"likert"
"17303E18C2A14A0ABC2D2DCB050E05CF",1,"0198f77e-6b63-7893-a5ee-ed6c788445da","0198f768-e4d2-711c-944b-6f03c09216de","2025-08-29_16h22.17.698",NA,NA,243.751,243.751,243.751,244.101,NA,NA,NA,NA,NA,NA,NA,TRUE,1,0.529,240.751,243.751,0,57,57,79,1,95,33,NA,NA,NA,NA,NA,1,58,"likert"
"17303E18C2A14A0ABC2D2DCB050E05CF",1,"0198f77e-6b63-7893-a5ee-ed6c788445da","0198f768-e4d2-711c-944b-6f03c09216de","2025-08-29_16h22.17.698",NA,NA,247.101,247.101,247.101,247.451,NA,NA,NA,NA,NA,NA,NA,TRUE,1,0.6,244.101,247.101,0,58,58,35,1,25,46,NA,NA,NA,NA,NA,1,59,"likert"
"17303E18C2A14A0ABC2D2DCB050E05CF",1,"0198f77e-6b63-7893-a5ee-ed6c788445da","0198f768-e4d2-711c-944b-6f03c09216de","2025-08-29_16h22.17.698",NA,NA,250.45,250.45,250.45,250.8,NA,NA,NA,NA,NA,NA,NA,TRUE,5,1.277,247.452,250.45,0,59,59,9,1,10,29,NA,NA,NA,NA,NA,1,60,"likert"
"17303E18C2A14A0ABC2D2DCB050E05CF",1,"0198f77e-6b63-7893-a5ee-ed6c788445da","0198f768-e4d2-711c-944b-6f03c09216de","2025-08-29_16h22.17.698",NA,NA,253.801,253.801,253.801,254.151,NA,NA,NA,NA,NA,NA,NA,TRUE,1,0.621,250.801,253.801,0,60,60,43,1,30,27,NA,NA,NA,NA,NA,1,61,"likert"
"17303E18C2A14A0ABC2D2DCB050E05CF",1,"0198f77e-6b63-7893-a5ee-ed6c788445da","0198f768-e4d2-711c-944b-6f03c09216de","2025-08-29_16h22.17.698",NA,NA,257.151,257.151,257.151,257.501,NA,NA,NA,NA,NA,NA,NA,TRUE,5,0.864,254.152,257.15,0,61,61,15,1,12,31,NA,NA,NA,NA,NA,1,62,"likert"
"17303E18C2A14A0ABC2D2DCB050E05CF",1,"0198f77e-6b63-7893-a5ee-ed6c788445da","0198f768-e4d2-711c-944b-6f03c09216de","2025-08-29_16h22.17.698",NA,NA,260.501,260.501,260.501,260.851,NA,NA,NA,NA,NA,NA,NA,TRUE,1,0.561,257.502,260.501,0,62,62,48,1,40,27,NA,NA,NA,NA,NA,1,63,"likert"
"17303E18C2A14A0ABC2D2DCB050E05CF",1,"0198f77e-6b63-7893-a5ee-ed6c788445da","0198f768-e4d2-711c-944b-6f03c09216de","2025-08-29_16h22.17.698",NA,NA,263.851,263.851,263.851,264.201,NA,NA,NA,NA,NA,NA,NA,TRUE,1,0.706,260.852,263.85,0,63,63,70,1,60,47,NA,NA,NA,NA,NA,1,64,"likert"
"17303E18C2A14A0ABC2D2DCB050E05CF",1,"0198f77e-6b63-7893-a5ee-ed6c788445da","0198f768-e4d2-711c-944b-6f03c09216de","2025-08-29_16h22.17.698",NA,NA,267.202,267.202,267.202,267.551,NA,NA,NA,NA,NA,NA,NA,TRUE,1,0.605,264.202,267.201,0,64,64,40,1,28,39,NA,NA,NA,NA,NA,1,65,"likert"
"17303E18C2A14A0ABC2D2DCB050E05CF",1,"0198f77e-6b63-7893-a5ee-ed6c788445da","0198f768-e4d2-711c-944b-6f03c09216de","2025-08-29_16h22.17.698",NA,NA,270.535,270.535,270.535,270.901,NA,NA,NA,NA,NA,NA,NA,TRUE,1,0.717,267.557,270.535,0,65,65,86,1,100,38,NA,NA,NA,NA,NA,1,66,"likert"
"17303E18C2A14A0ABC2D2DCB050E05CF",1,"0198f77e-6b63-7893-a5ee-ed6c788445da","0198f768-e4d2-711c-944b-6f03c09216de","2025-08-29_16h22.17.698",NA,NA,273.901,273.901,273.901,274.252,NA,NA,NA,NA,NA,NA,NA,TRUE,1,0.75,270.902,273.901,0,66,66,82,1,95,47,NA,NA,NA,NA,NA,1,67,"likert"
"17303E18C2A14A0ABC2D2DCB050E05CF",1,"0198f77e-6b63-7893-a5ee-ed6c788445da","0198f768-e4d2-711c-944b-6f03c09216de","2025-08-29_16h22.17.698",NA,NA,277.251,277.251,277.251,277.601,NA,NA,NA,NA,NA,NA,NA,TRUE,1,0.814,274.252,277.251,0,67,67,44,1,30,29,NA,NA,NA,NA,NA,1,68,"likert"
"17303E18C2A14A0ABC2D2DCB050E05CF",1,"0198f77e-6b63-7893-a5ee-ed6c788445da","0198f768-e4d2-711c-944b-6f03c09216de","2025-08-29_16h22.17.698",NA,NA,280.601,280.601,280.601,280.935,NA,NA,NA,NA,NA,NA,NA,TRUE,1,0.748,277.603,280.601,0,68,68,69,1,60,40,NA,NA,NA,NA,NA,1,69,"likert"
"17303E18C2A14A0ABC2D2DCB050E05CF",1,"0198f77e-6b63-7893-a5ee-ed6c788445da","0198f768-e4d2-711c-944b-6f03c09216de","2025-08-29_16h22.17.698",NA,NA,283.951,283.952,283.952,284.285,NA,NA,NA,NA,NA,NA,NA,TRUE,1,1.466,280.936,283.951,0,69,69,12,1,12,25,NA,NA,NA,NA,NA,1,70,"likert"
"17303E18C2A14A0ABC2D2DCB050E05CF",1,"0198f77e-6b63-7893-a5ee-ed6c788445da","0198f768-e4d2-711c-944b-6f03c09216de","2025-08-29_16h22.17.698",NA,NA,287.302,287.302,287.302,287.651,NA,NA,NA,NA,NA,NA,NA,TRUE,1,0.681,284.286,287.302,0,70,70,91,1,150,33,NA,NA,NA,NA,NA,1,71,"likert"
"17303E18C2A14A0ABC2D2DCB050E05CF",1,"0198f77e-6b63-7893-a5ee-ed6c788445da","0198f768-e4d2-711c-944b-6f03c09216de","2025-08-29_16h22.17.698",NA,NA,290.651,290.651,290.651,290.985,NA,NA,NA,NA,NA,NA,NA,TRUE,1,0.798,287.652,290.651,0,71,71,92,1,150,35,NA,NA,NA,NA,NA,1,72,"likert"
"17303E18C2A14A0ABC2D2DCB050E05CF",1,"0198f77e-6b63-7893-a5ee-ed6c788445da","0198f768-e4d2-711c-944b-6f03c09216de","2025-08-29_16h22.17.698",NA,NA,293.985,293.985,293.985,294.335,NA,NA,NA,NA,NA,NA,NA,TRUE,1,0.628,290.986,293.985,0,72,72,95,1,150,54,NA,NA,NA,NA,NA,1,73,"likert"
"17303E18C2A14A0ABC2D2DCB050E05CF",1,"0198f77e-6b63-7893-a5ee-ed6c788445da","0198f768-e4d2-711c-944b-6f03c09216de","2025-08-29_16h22.17.698",NA,NA,297.336,297.336,297.336,297.685,NA,NA,NA,NA,NA,NA,NA,TRUE,5,1.038,294.336,297.336,0,73,73,3,1,7,30,NA,NA,NA,NA,NA,1,74,"likert"
"17303E18C2A14A0ABC2D2DCB050E05CF",1,"0198f77e-6b63-7893-a5ee-ed6c788445da","0198f768-e4d2-711c-944b-6f03c09216de","2025-08-29_16h22.17.698",NA,NA,300.685,300.685,300.685,301.035,NA,NA,NA,NA,NA,NA,NA,TRUE,1,1.535,297.691,300.685,0,74,74,0,1,7,25,NA,NA,NA,NA,NA,1,75,"likert"
"17303E18C2A14A0ABC2D2DCB050E05CF",1,"0198f77e-6b63-7893-a5ee-ed6c788445da","0198f768-e4d2-711c-944b-6f03c09216de","2025-08-29_16h22.17.698",NA,NA,304.036,304.036,304.036,304.385,NA,NA,NA,NA,NA,NA,NA,TRUE,1,1.201,301.037,304.035,0,75,75,6,1,10,25,NA,NA,NA,NA,NA,1,76,"likert"
"17303E18C2A14A0ABC2D2DCB050E05CF",1,"0198f77e-6b63-7893-a5ee-ed6c788445da","0198f768-e4d2-711c-944b-6f03c09216de","2025-08-29_16h22.17.698",NA,NA,307.385,307.385,307.385,307.735,NA,NA,NA,NA,NA,NA,NA,TRUE,1,1.051,304.386,307.385,0,76,76,52,1,40,47,NA,NA,NA,NA,NA,1,77,"likert"
"17303E18C2A14A0ABC2D2DCB050E05CF",1,"0198f77e-6b63-7893-a5ee-ed6c788445da","0198f768-e4d2-711c-944b-6f03c09216de","2025-08-29_16h22.17.698",NA,NA,310.736,310.736,310.736,311.086,NA,NA,NA,NA,NA,NA,NA,TRUE,1,0.649,307.737,310.736,0,77,77,45,1,30,30,NA,NA,NA,NA,NA,1,78,"likert"
"17303E18C2A14A0ABC2D2DCB050E05CF",1,"0198f77e-6b63-7893-a5ee-ed6c788445da","0198f768-e4d2-711c-944b-6f03c09216de","2025-08-29_16h22.17.698",NA,NA,314.085,314.085,314.085,314.436,NA,NA,NA,NA,NA,NA,NA,TRUE,1,0.633,311.087,314.085,0,78,78,31,1,25,29,NA,NA,NA,NA,NA,1,79,"likert"
"17303E18C2A14A0ABC2D2DCB050E05CF",1,"0198f77e-6b63-7893-a5ee-ed6c788445da","0198f768-e4d2-711c-944b-6f03c09216de","2025-08-29_16h22.17.698",NA,NA,317.436,317.436,317.436,317.785,NA,NA,NA,NA,NA,NA,NA,TRUE,1,0.633,314.437,317.436,0,79,79,56,1,45,31,NA,NA,NA,NA,NA,1,80,"likert"
"17303E18C2A14A0ABC2D2DCB050E05CF",1,"0198f77e-6b63-7893-a5ee-ed6c788445da","0198f768-e4d2-711c-944b-6f03c09216de","2025-08-29_16h22.17.698",NA,NA,320.786,320.786,320.786,321.136,NA,NA,NA,NA,NA,NA,NA,TRUE,1,0.814,317.786,320.786,0,80,80,102,1,200,26,NA,NA,NA,NA,NA,1,81,"likert"
"17303E18C2A14A0ABC2D2DCB050E05CF",1,"0198f77e-6b63-7893-a5ee-ed6c788445da","0198f768-e4d2-711c-944b-6f03c09216de","2025-08-29_16h22.17.698",NA,NA,324.136,324.136,324.136,324.486,NA,NA,NA,NA,NA,NA,NA,TRUE,1,0.838,321.136,324.135,0,81,81,101,1,180,54,NA,NA,NA,NA,NA,1,82,"likert"
"17303E18C2A14A0ABC2D2DCB050E05CF",1,"0198f77e-6b63-7893-a5ee-ed6c788445da","0198f768-e4d2-711c-944b-6f03c09216de","2025-08-29_16h22.17.698",NA,NA,327.486,327.486,327.486,327.836,NA,NA,NA,NA,NA,NA,NA,TRUE,1,0.563,324.486,327.485,0,82,82,73,1,90,30,NA,NA,NA,NA,NA,1,83,"likert"
"17303E18C2A14A0ABC2D2DCB050E05CF",1,"0198f77e-6b63-7893-a5ee-ed6c788445da","0198f768-e4d2-711c-944b-6f03c09216de","2025-08-29_16h22.17.698",NA,NA,330.837,330.837,330.837,331.186,NA,NA,NA,NA,NA,NA,NA,TRUE,5,1.074,327.837,330.837,0,83,83,11,1,10,32,NA,NA,NA,NA,NA,1,84,"likert"
"17303E18C2A14A0ABC2D2DCB050E05CF",1,"0198f77e-6b63-7893-a5ee-ed6c788445da","0198f768-e4d2-711c-944b-6f03c09216de","2025-08-29_16h22.17.698",NA,NA,334.186,334.186,334.186,334.536,NA,NA,NA,NA,NA,NA,NA,TRUE,5,0.954,331.191,334.186,0,84,84,14,1,12,28,NA,NA,NA,NA,NA,1,85,"likert"
"17303E18C2A14A0ABC2D2DCB050E05CF",1,"0198f77e-6b63-7893-a5ee-ed6c788445da","0198f768-e4d2-711c-944b-6f03c09216de","2025-08-29_16h22.17.698",NA,NA,337.536,337.536,337.536,337.886,NA,NA,NA,NA,NA,NA,NA,TRUE,1,0.788,334.538,337.536,0,85,85,71,1,60,54,NA,NA,NA,NA,NA,1,86,"likert"
"17303E18C2A14A0ABC2D2DCB050E05CF",1,"0198f77e-6b63-7893-a5ee-ed6c788445da","0198f768-e4d2-711c-944b-6f03c09216de","2025-08-29_16h22.17.698",NA,NA,340.886,340.886,340.886,341.236,NA,NA,NA,NA,NA,NA,NA,TRUE,1,1.405,337.887,340.886,0,86,86,36,1,28,26,NA,NA,NA,NA,NA,1,87,"likert"
"17303E18C2A14A0ABC2D2DCB050E05CF",1,"0198f77e-6b63-7893-a5ee-ed6c788445da","0198f768-e4d2-711c-944b-6f03c09216de","2025-08-29_16h22.17.698",NA,NA,344.236,344.236,344.236,344.586,NA,NA,NA,NA,NA,NA,NA,TRUE,1,0.767,341.238,344.236,0,87,87,87,1,100,39,NA,NA,NA,NA,NA,1,88,"likert"
"17303E18C2A14A0ABC2D2DCB050E05CF",1,"0198f77e-6b63-7893-a5ee-ed6c788445da","0198f768-e4d2-711c-944b-6f03c09216de","2025-08-29_16h22.17.698",NA,NA,347.586,347.586,347.586,347.936,NA,NA,NA,NA,NA,NA,NA,TRUE,1,0.627,344.587,347.586,0,88,88,106,1,200,47,NA,NA,NA,NA,NA,1,89,"likert"
"17303E18C2A14A0ABC2D2DCB050E05CF",1,"0198f77e-6b63-7893-a5ee-ed6c788445da","0198f768-e4d2-711c-944b-6f03c09216de","2025-08-29_16h22.17.698",NA,NA,350.936,350.936,350.936,351.286,NA,NA,NA,NA,NA,NA,NA,TRUE,1,0.577,347.937,350.936,0,89,89,57,1,45,35,NA,NA,NA,NA,NA,1,90,"likert"
"17303E18C2A14A0ABC2D2DCB050E05CF",1,"0198f77e-6b63-7893-a5ee-ed6c788445da","0198f768-e4d2-711c-944b-6f03c09216de","2025-08-29_16h22.17.698",NA,NA,354.286,354.286,354.286,354.636,NA,NA,NA,NA,NA,NA,NA,TRUE,1,0.901,351.287,354.286,0,90,90,25,1,21,27,NA,NA,NA,NA,NA,1,91,"likert"
"17303E18C2A14A0ABC2D2DCB050E05CF",1,"0198f77e-6b63-7893-a5ee-ed6c788445da","0198f768-e4d2-711c-944b-6f03c09216de","2025-08-29_16h22.17.698",NA,NA,357.636,357.636,357.637,357.986,NA,NA,NA,NA,NA,NA,NA,TRUE,1,0.51,354.637,357.636,0,91,91,59,1,45,46,NA,NA,NA,NA,NA,1,92,"likert"
"17303E18C2A14A0ABC2D2DCB050E05CF",1,"0198f77e-6b63-7893-a5ee-ed6c788445da","0198f768-e4d2-711c-944b-6f03c09216de","2025-08-29_16h22.17.698",NA,NA,360.987,360.987,360.987,361.336,NA,NA,NA,NA,NA,NA,NA,TRUE,1,0.651,357.987,360.987,0,92,92,32,1,25,31,NA,NA,NA,NA,NA,1,93,"likert"
"17303E18C2A14A0ABC2D2DCB050E05CF",1,"0198f77e-6b63-7893-a5ee-ed6c788445da","0198f768-e4d2-711c-944b-6f03c09216de","2025-08-29_16h22.17.698",NA,NA,364.337,364.337,364.337,364.686,NA,NA,NA,NA,NA,NA,NA,TRUE,1,0.605,361.341,364.336,0,93,93,85,1,100,31,NA,NA,NA,NA,NA,1,94,"likert"
"17303E18C2A14A0ABC2D2DCB050E05CF",1,"0198f77e-6b63-7893-a5ee-ed6c788445da","0198f768-e4d2-711c-944b-6f03c09216de","2025-08-29_16h22.17.698",NA,NA,367.687,367.687,367.687,368.036,NA,NA,NA,NA,NA,NA,NA,TRUE,1,0.851,364.687,367.687,0,94,94,42,1,30,26,NA,NA,NA,NA,NA,1,95,"likert"
"17303E18C2A14A0ABC2D2DCB050E05CF",1,"0198f77e-6b63-7893-a5ee-ed6c788445da","0198f768-e4d2-711c-944b-6f03c09216de","2025-08-29_16h22.17.698",NA,NA,371.037,371.037,371.037,371.387,NA,NA,NA,NA,NA,NA,NA,TRUE,1,1.611,368.037,371.037,0,95,95,72,1,90,26,NA,NA,NA,NA,NA,1,96,"likert"
"17303E18C2A14A0ABC2D2DCB050E05CF",1,"0198f77e-6b63-7893-a5ee-ed6c788445da","0198f768-e4d2-711c-944b-6f03c09216de","2025-08-29_16h22.17.698",NA,NA,374.388,374.388,374.388,374.737,NA,NA,NA,NA,NA,NA,NA,TRUE,5,0.905,371.388,374.387,0,96,96,5,1,7,35,NA,NA,NA,NA,NA,1,97,"likert"
"17303E18C2A14A0ABC2D2DCB050E05CF",1,"0198f77e-6b63-7893-a5ee-ed6c788445da","0198f768-e4d2-711c-944b-6f03c09216de","2025-08-29_16h22.17.698",NA,NA,377.737,377.737,377.737,378.086,NA,NA,NA,NA,NA,NA,NA,TRUE,1,0.68,374.738,377.737,0,97,97,90,1,150,31,NA,NA,NA,NA,NA,1,98,"likert"
"17303E18C2A14A0ABC2D2DCB050E05CF",1,"0198f77e-6b63-7893-a5ee-ed6c788445da","0198f768-e4d2-711c-944b-6f03c09216de","2025-08-29_16h22.17.698",NA,NA,381.087,381.087,381.087,381.436,NA,NA,NA,NA,NA,NA,NA,TRUE,1,0.785,378.087,381.087,0,98,98,30,1,25,27,NA,NA,NA,NA,NA,1,99,"likert"
"17303E18C2A14A0ABC2D2DCB050E05CF",1,"0198f77e-6b63-7893-a5ee-ed6c788445da","0198f768-e4d2-711c-944b-6f03c09216de","2025-08-29_16h22.17.698",NA,NA,384.437,384.437,384.437,384.787,NA,NA,NA,NA,NA,NA,NA,TRUE,5,0.854,381.438,384.437,0,99,99,2,1,7,28,NA,NA,NA,NA,NA,1,100,"likert"
"17303E18C2A14A0ABC2D2DCB050E05CF",1,"0198f77e-6b63-7893-a5ee-ed6c788445da","0198f768-e4d2-711c-944b-6f03c09216de","2025-08-29_16h22.17.698",NA,NA,387.787,387.787,387.787,388.137,NA,NA,NA,NA,NA,NA,NA,TRUE,1,0.731,384.788,387.787,0,100,100,100,1,180,46,NA,NA,NA,NA,NA,1,101,"likert"
"17303E18C2A14A0ABC2D2DCB050E05CF",1,"0198f77e-6b63-7893-a5ee-ed6c788445da","0198f768-e4d2-711c-944b-6f03c09216de","2025-08-29_16h22.17.698",NA,NA,391.137,391.137,391.137,391.487,NA,NA,NA,NA,NA,NA,NA,TRUE,1,0.68,388.138,391.137,0,101,101,89,1,100,54,NA,NA,NA,NA,NA,1,102,"likert"
"17303E18C2A14A0ABC2D2DCB050E05CF",1,"0198f77e-6b63-7893-a5ee-ed6c788445da","0198f768-e4d2-711c-944b-6f03c09216de","2025-08-29_16h22.17.698",NA,NA,394.488,394.488,394.488,394.837,NA,NA,NA,NA,NA,NA,NA,TRUE,1,0.699,391.488,394.487,0,102,102,27,1,21,30,NA,NA,NA,NA,NA,1,103,"likert"
"17303E18C2A14A0ABC2D2DCB050E05CF",1,"0198f77e-6b63-7893-a5ee-ed6c788445da","0198f768-e4d2-711c-944b-6f03c09216de","2025-08-29_16h22.17.698",NA,NA,397.838,397.838,397.838,398.187,NA,NA,NA,NA,NA,NA,NA,TRUE,1,0.704,394.843,397.837,0,103,103,96,1,180,27,NA,NA,NA,NA,NA,1,104,"likert"
"17303E18C2A14A0ABC2D2DCB050E05CF",1,"0198f77e-6b63-7893-a5ee-ed6c788445da","0198f768-e4d2-711c-944b-6f03c09216de","2025-08-29_16h22.17.698",NA,NA,401.188,401.188,401.188,401.538,NA,NA,NA,NA,NA,NA,NA,TRUE,1,0.736,398.188,401.187,0,104,104,10,1,10,30,NA,NA,NA,NA,NA,1,105,"likert"
"17303E18C2A14A0ABC2D2DCB050E05CF",1,"0198f77e-6b63-7893-a5ee-ed6c788445da","0198f768-e4d2-711c-944b-6f03c09216de","2025-08-29_16h22.17.698",NA,NA,404.537,404.537,404.537,404.888,NA,NA,NA,NA,NA,NA,NA,TRUE,1,0.718,401.538,404.537,0,105,105,68,1,60,35,NA,NA,NA,NA,NA,1,106,"likert"
"17303E18C2A14A0ABC2D2DCB050E05CF",1,"0198f77e-6b63-7893-a5ee-ed6c788445da","0198f768-e4d2-711c-944b-6f03c09216de","2025-08-29_16h22.17.698",NA,NA,407.891,407.891,407.891,408.237,NA,NA,NA,NA,NA,NA,NA,TRUE,1,0.553,404.889,407.891,0,106,106,38,1,28,32,NA,NA,NA,NA,NA,1,107,"likert"
"17303E18C2A14A0ABC2D2DCB050E05CF",1,"0198f77e-6b63-7893-a5ee-ed6c788445da","0198f768-e4d2-711c-944b-6f03c09216de","2025-08-29_16h22.17.698",NA,NA,411.238,411.238,411.238,411.587,NA,NA,NA,NA,NA,NA,NA,TRUE,5,1.301,408.238,411.238,0,107,107,19,1,14,26,NA,NA,NA,NA,NA,1,108,"likert"
"17303E18C2A14A0ABC2D2DCB050E05CF",1,"0198f77e-6b63-7893-a5ee-ed6c788445da","0198f768-e4d2-711c-944b-6f03c09216de","2025-08-29_16h22.17.698",NA,NA,420.605,420.605,420.605,420.954,NA,NA,NA,NA,NA,NA,NA,TRUE,1,1.212,417.617,420.604,NA,NA,NA,NA,NA,30,26,0,0,0,42,1,2,1,"likert"
"17303E18C2A14A0ABC2D2DCB050E05CF",1,"0198f77e-6b63-7893-a5ee-ed6c788445da","0198f768-e4d2-711c-944b-6f03c09216de","2025-08-29_16h22.17.698",NA,NA,423.955,423.956,423.956,424.305,NA,NA,NA,NA,NA,NA,NA,TRUE,1,0.754,420.955,423.955,NA,NA,NA,NA,NA,21,30,0,1,1,27,1,2,2,"likert"
"17303E18C2A14A0ABC2D2DCB050E05CF",1,"0198f77e-6b63-7893-a5ee-ed6c788445da","0198f768-e4d2-711c-944b-6f03c09216de","2025-08-29_16h22.17.698",NA,NA,427.304,427.304,427.304,427.654,NA,NA,NA,NA,NA,NA,NA,TRUE,1,0.649,424.31,427.304,NA,NA,NA,NA,NA,200,47,0,2,2,106,1,2,3,"likert"
"17303E18C2A14A0ABC2D2DCB050E05CF",1,"0198f77e-6b63-7893-a5ee-ed6c788445da","0198f768-e4d2-711c-944b-6f03c09216de","2025-08-29_16h22.17.698",NA,NA,430.655,430.655,430.655,431.005,NA,NA,NA,NA,NA,NA,NA,TRUE,1,0.575,427.655,430.655,NA,NA,NA,NA,NA,90,26,0,3,3,72,1,2,4,"likert"
"17303E18C2A14A0ABC2D2DCB050E05CF",1,"0198f77e-6b63-7893-a5ee-ed6c788445da","0198f768-e4d2-711c-944b-6f03c09216de","2025-08-29_16h22.17.698",NA,NA,434.005,434.005,434.005,434.355,NA,NA,NA,NA,NA,NA,NA,TRUE,1,0.767,431.006,434.005,NA,NA,NA,NA,NA,25,33,0,4,4,33,1,2,5,"likert"
"17303E18C2A14A0ABC2D2DCB050E05CF",1,"0198f77e-6b63-7893-a5ee-ed6c788445da","0198f768-e4d2-711c-944b-6f03c09216de","2025-08-29_16h22.17.698",NA,NA,437.355,437.355,437.355,437.704,NA,NA,NA,NA,NA,NA,NA,TRUE,1,0.714,434.356,437.355,NA,NA,NA,NA,NA,25,35,0,5,5,34,1,2,6,"likert"
"17303E18C2A14A0ABC2D2DCB050E05CF",1,"0198f77e-6b63-7893-a5ee-ed6c788445da","0198f768-e4d2-711c-944b-6f03c09216de","2025-08-29_16h22.17.698",NA,NA,440.705,440.705,440.705,441.054,NA,NA,NA,NA,NA,NA,NA,TRUE,1,0.571,437.705,440.705,NA,NA,NA,NA,NA,40,40,0,6,6,51,1,2,7,"likert"
"17303E18C2A14A0ABC2D2DCB050E05CF",1,"0198f77e-6b63-7893-a5ee-ed6c788445da","0198f768-e4d2-711c-944b-6f03c09216de","2025-08-29_16h22.17.698",NA,NA,444.055,444.055,444.055,444.405,NA,NA,NA,NA,NA,NA,NA,TRUE,5,1.236,441.055,444.055,NA,NA,NA,NA,NA,14,28,0,7,7,20,1,2,8,"likert"
"17303E18C2A14A0ABC2D2DCB050E05CF",1,"0198f77e-6b63-7893-a5ee-ed6c788445da","0198f768-e4d2-711c-944b-6f03c09216de","2025-08-29_16h22.17.698",NA,NA,447.405,447.405,447.405,447.755,NA,NA,NA,NA,NA,NA,NA,TRUE,1,0.675,444.406,447.405,NA,NA,NA,NA,NA,200,28,0,8,8,103,1,2,9,"likert"
"17303E18C2A14A0ABC2D2DCB050E05CF",1,"0198f77e-6b63-7893-a5ee-ed6c788445da","0198f768-e4d2-711c-944b-6f03c09216de","2025-08-29_16h22.17.698",NA,NA,450.755,450.755,450.755,451.105,NA,NA,NA,NA,NA,NA,NA,TRUE,1,0.753,447.756,450.755,NA,NA,NA,NA,NA,150,47,0,9,9,94,1,2,10,"likert"
"17303E18C2A14A0ABC2D2DCB050E05CF",1,"0198f77e-6b63-7893-a5ee-ed6c788445da","0198f768-e4d2-711c-944b-6f03c09216de","2025-08-29_16h22.17.698",NA,NA,454.106,454.106,454.106,454.455,NA,NA,NA,NA,NA,NA,NA,TRUE,1,0.616,451.106,454.106,NA,NA,NA,NA,NA,45,46,0,10,10,59,1,2,11,"likert"
"17303E18C2A14A0ABC2D2DCB050E05CF",1,"0198f77e-6b63-7893-a5ee-ed6c788445da","0198f768-e4d2-711c-944b-6f03c09216de","2025-08-29_16h22.17.698",NA,NA,457.456,457.456,457.456,457.806,NA,NA,NA,NA,NA,NA,NA,TRUE,1,0.634,454.46,457.455,NA,NA,NA,NA,NA,60,29,0,11,11,66,1,2,12,"likert"
"17303E18C2A14A0ABC2D2DCB050E05CF",1,"0198f77e-6b63-7893-a5ee-ed6c788445da","0198f768-e4d2-711c-944b-6f03c09216de","2025-08-29_16h22.17.698",NA,NA,460.806,460.806,460.806,461.155,NA,NA,NA,NA,NA,NA,NA,TRUE,1,0.681,457.808,460.805,NA,NA,NA,NA,NA,95,33,0,12,12,79,1,2,13,"likert"
"17303E18C2A14A0ABC2D2DCB050E05CF",1,"0198f77e-6b63-7893-a5ee-ed6c788445da","0198f768-e4d2-711c-944b-6f03c09216de","2025-08-29_16h22.17.698",NA,NA,464.156,464.156,464.156,464.505,NA,NA,NA,NA,NA,NA,NA,TRUE,1,0.797,461.157,464.156,NA,NA,NA,NA,NA,95,47,0,13,13,82,1,2,14,"likert"
"17303E18C2A14A0ABC2D2DCB050E05CF",1,"0198f77e-6b63-7893-a5ee-ed6c788445da","0198f768-e4d2-711c-944b-6f03c09216de","2025-08-29_16h22.17.698",NA,NA,467.505,467.505,467.505,467.856,NA,NA,NA,NA,NA,NA,NA,TRUE,5,1.569,464.506,467.505,NA,NA,NA,NA,NA,7,28,0,14,14,2,1,2,15,"likert"
"17303E18C2A14A0ABC2D2DCB050E05CF",1,"0198f77e-6b63-7893-a5ee-ed6c788445da","0198f768-e4d2-711c-944b-6f03c09216de","2025-08-29_16h22.17.698",NA,NA,470.855,470.855,470.855,471.205,NA,NA,NA,NA,NA,NA,NA,TRUE,1,0.875,467.856,470.855,NA,NA,NA,NA,NA,90,30,0,15,15,73,1,2,16,"likert"
"17303E18C2A14A0ABC2D2DCB050E05CF",1,"0198f77e-6b63-7893-a5ee-ed6c788445da","0198f768-e4d2-711c-944b-6f03c09216de","2025-08-29_16h22.17.698",NA,NA,474.206,474.206,474.206,474.556,NA,NA,NA,NA,NA,NA,NA,TRUE,1,0.635,471.206,474.206,NA,NA,NA,NA,NA,100,39,0,16,16,87,1,2,17,"likert"
"17303E18C2A14A0ABC2D2DCB050E05CF",1,"0198f77e-6b63-7893-a5ee-ed6c788445da","0198f768-e4d2-711c-944b-6f03c09216de","2025-08-29_16h22.17.698",NA,NA,477.556,477.556,477.556,477.905,NA,NA,NA,NA,NA,NA,NA,TRUE,1,0.522,474.557,477.556,NA,NA,NA,NA,NA,28,26,0,17,17,36,1,2,18,"likert"
"17303E18C2A14A0ABC2D2DCB050E05CF",1,"0198f77e-6b63-7893-a5ee-ed6c788445da","0198f768-e4d2-711c-944b-6f03c09216de","2025-08-29_16h22.17.698",NA,NA,480.905,480.905,480.905,481.255,NA,NA,NA,NA,NA,NA,NA,TRUE,1,0.599,477.906,480.905,NA,NA,NA,NA,NA,100,26,0,18,18,84,1,2,19,"likert"
"17303E18C2A14A0ABC2D2DCB050E05CF",1,"0198f77e-6b63-7893-a5ee-ed6c788445da","0198f768-e4d2-711c-944b-6f03c09216de","2025-08-29_16h22.17.698",NA,NA,484.257,484.257,484.257,484.606,NA,NA,NA,NA,NA,NA,NA,TRUE,1,0.698,481.256,484.257,NA,NA,NA,NA,NA,30,27,0,19,19,43,1,2,20,"likert"
"17303E18C2A14A0ABC2D2DCB050E05CF",1,"0198f77e-6b63-7893-a5ee-ed6c788445da","0198f768-e4d2-711c-944b-6f03c09216de","2025-08-29_16h22.17.698",NA,NA,487.606,487.607,487.607,487.956,NA,NA,NA,NA,NA,NA,NA,TRUE,5,1.087,484.61,487.606,NA,NA,NA,NA,NA,14,26,0,20,20,19,1,2,21,"likert"
"17303E18C2A14A0ABC2D2DCB050E05CF",1,"0198f77e-6b63-7893-a5ee-ed6c788445da","0198f768-e4d2-711c-944b-6f03c09216de","2025-08-29_16h22.17.698",NA,NA,490.956,490.956,490.956,491.306,NA,NA,NA,NA,NA,NA,NA,TRUE,5,1.433,487.957,490.956,NA,NA,NA,NA,NA,10,32,0,21,21,11,1,2,22,"likert"
"17303E18C2A14A0ABC2D2DCB050E05CF",1,"0198f77e-6b63-7893-a5ee-ed6c788445da","0198f768-e4d2-711c-944b-6f03c09216de","2025-08-29_16h22.17.698",NA,NA,494.306,494.307,494.307,494.656,NA,NA,NA,NA,NA,NA,NA,TRUE,1,0.897,491.307,494.306,NA,NA,NA,NA,NA,200,54,0,22,22,107,1,2,23,"likert"
"17303E18C2A14A0ABC2D2DCB050E05CF",1,"0198f77e-6b63-7893-a5ee-ed6c788445da","0198f768-e4d2-711c-944b-6f03c09216de","2025-08-29_16h22.17.698",NA,NA,497.656,497.656,497.656,498.006,NA,NA,NA,NA,NA,NA,NA,TRUE,1,0.728,494.658,497.656,NA,NA,NA,NA,NA,200,26,0,23,23,102,1,2,24,"likert"
"17303E18C2A14A0ABC2D2DCB050E05CF",1,"0198f77e-6b63-7893-a5ee-ed6c788445da","0198f768-e4d2-711c-944b-6f03c09216de","2025-08-29_16h22.17.698",NA,NA,501.006,501.006,501.006,501.356,NA,NA,NA,NA,NA,NA,NA,TRUE,1,0.668,498.007,501.006,NA,NA,NA,NA,NA,50,35,0,24,24,62,1,2,25,"likert"
"17303E18C2A14A0ABC2D2DCB050E05CF",1,"0198f77e-6b63-7893-a5ee-ed6c788445da","0198f768-e4d2-711c-944b-6f03c09216de","2025-08-29_16h22.17.698",NA,NA,504.357,504.357,504.357,504.706,NA,NA,NA,NA,NA,NA,NA,TRUE,1,0.632,501.357,504.357,NA,NA,NA,NA,NA,25,46,0,25,25,35,1,2,26,"likert"
"17303E18C2A14A0ABC2D2DCB050E05CF",1,"0198f77e-6b63-7893-a5ee-ed6c788445da","0198f768-e4d2-711c-944b-6f03c09216de","2025-08-29_16h22.17.698",NA,NA,507.706,507.706,507.706,508.056,NA,NA,NA,NA,NA,NA,NA,TRUE,1,0.661,504.706,507.706,NA,NA,NA,NA,NA,180,31,0,26,26,97,1,2,27,"likert"
"17303E18C2A14A0ABC2D2DCB050E05CF",1,"0198f77e-6b63-7893-a5ee-ed6c788445da","0198f768-e4d2-711c-944b-6f03c09216de","2025-08-29_16h22.17.698",NA,NA,511.056,511.056,511.056,511.406,NA,NA,NA,NA,NA,NA,NA,TRUE,1,0.637,508.056,511.056,NA,NA,NA,NA,NA,150,33,0,27,27,91,1,2,28,"likert"
"17303E18C2A14A0ABC2D2DCB050E05CF",1,"0198f77e-6b63-7893-a5ee-ed6c788445da","0198f768-e4d2-711c-944b-6f03c09216de","2025-08-29_16h22.17.698",NA,NA,514.407,514.407,514.407,514.756,NA,NA,NA,NA,NA,NA,NA,TRUE,5,0.971,511.407,514.407,NA,NA,NA,NA,NA,7,35,0,28,28,5,1,2,29,"likert"
"17303E18C2A14A0ABC2D2DCB050E05CF",1,"0198f77e-6b63-7893-a5ee-ed6c788445da","0198f768-e4d2-711c-944b-6f03c09216de","2025-08-29_16h22.17.698",NA,NA,517.757,517.757,517.757,518.107,NA,NA,NA,NA,NA,NA,NA,TRUE,1,0.553,514.757,517.757,NA,NA,NA,NA,NA,40,35,0,29,29,50,1,2,30,"likert"
"17303E18C2A14A0ABC2D2DCB050E05CF",1,"0198f77e-6b63-7893-a5ee-ed6c788445da","0198f768-e4d2-711c-944b-6f03c09216de","2025-08-29_16h22.17.698",NA,NA,521.107,521.107,521.107,521.457,NA,NA,NA,NA,NA,NA,NA,TRUE,1,0.848,518.111,521.107,NA,NA,NA,NA,NA,90,40,0,30,30,75,1,2,31,"likert"
"17303E18C2A14A0ABC2D2DCB050E05CF",1,"0198f77e-6b63-7893-a5ee-ed6c788445da","0198f768-e4d2-711c-944b-6f03c09216de","2025-08-29_16h22.17.698",NA,NA,524.457,524.457,524.457,524.806,NA,NA,NA,NA,NA,NA,NA,TRUE,1,0.765,521.458,524.457,NA,NA,NA,NA,NA,40,27,0,31,31,48,1,2,32,"likert"
"17303E18C2A14A0ABC2D2DCB050E05CF",1,"0198f77e-6b63-7893-a5ee-ed6c788445da","0198f768-e4d2-711c-944b-6f03c09216de","2025-08-29_16h22.17.698",NA,NA,527.807,527.807,527.807,528.157,NA,NA,NA,NA,NA,NA,NA,TRUE,1,0.616,524.807,527.806,NA,NA,NA,NA,NA,25,29,0,32,32,31,1,2,33,"likert"
"17303E18C2A14A0ABC2D2DCB050E05CF",1,"0198f77e-6b63-7893-a5ee-ed6c788445da","0198f768-e4d2-711c-944b-6f03c09216de","2025-08-29_16h22.17.698",NA,NA,531.157,531.157,531.157,531.507,NA,NA,NA,NA,NA,NA,NA,TRUE,1,0.506,528.158,531.157,NA,NA,NA,NA,NA,180,54,0,33,33,101,1,2,34,"likert"
"17303E18C2A14A0ABC2D2DCB050E05CF",1,"0198f77e-6b63-7893-a5ee-ed6c788445da","0198f768-e4d2-711c-944b-6f03c09216de","2025-08-29_16h22.17.698",NA,NA,534.507,534.507,534.507,534.857,NA,NA,NA,NA,NA,NA,NA,TRUE,1,0.481,531.508,534.507,NA,NA,NA,NA,NA,90,33,0,34,34,74,1,2,35,"likert"
"17303E18C2A14A0ABC2D2DCB050E05CF",1,"0198f77e-6b63-7893-a5ee-ed6c788445da","0198f768-e4d2-711c-944b-6f03c09216de","2025-08-29_16h22.17.698",NA,NA,537.857,537.857,537.857,538.207,NA,NA,NA,NA,NA,NA,NA,TRUE,1,0.579,534.857,537.857,NA,NA,NA,NA,NA,180,35,0,35,35,98,1,2,36,"likert"
"17303E18C2A14A0ABC2D2DCB050E05CF",1,"0198f77e-6b63-7893-a5ee-ed6c788445da","0198f768-e4d2-711c-944b-6f03c09216de","2025-08-29_16h22.17.698",NA,NA,541.207,541.207,541.207,541.557,NA,NA,NA,NA,NA,NA,NA,TRUE,5,1.087,538.208,541.207,NA,NA,NA,NA,NA,10,25,0,36,36,6,1,2,37,"likert"
"17303E18C2A14A0ABC2D2DCB050E05CF",1,"0198f77e-6b63-7893-a5ee-ed6c788445da","0198f768-e4d2-711c-944b-6f03c09216de","2025-08-29_16h22.17.698",NA,NA,544.557,544.557,544.557,544.907,NA,NA,NA,NA,NA,NA,NA,TRUE,1,0.717,541.558,544.557,NA,NA,NA,NA,NA,95,31,0,37,37,78,1,2,38,"likert"
"17303E18C2A14A0ABC2D2DCB050E05CF",1,"0198f77e-6b63-7893-a5ee-ed6c788445da","0198f768-e4d2-711c-944b-6f03c09216de","2025-08-29_16h22.17.698",NA,NA,547.907,547.907,547.907,548.257,NA,NA,NA,NA,NA,NA,NA,TRUE,1,1.767,544.908,547.907,NA,NA,NA,NA,NA,28,28,0,38,38,37,1,2,39,"likert"
"17303E18C2A14A0ABC2D2DCB050E05CF",1,"0198f77e-6b63-7893-a5ee-ed6c788445da","0198f768-e4d2-711c-944b-6f03c09216de","2025-08-29_16h22.17.698",NA,NA,551.258,551.258,551.258,551.607,NA,NA,NA,NA,NA,NA,NA,TRUE,1,0.714,548.259,551.257,NA,NA,NA,NA,NA,50,40,0,39,39,63,1,2,40,"likert"
"17303E18C2A14A0ABC2D2DCB050E05CF",1,"0198f77e-6b63-7893-a5ee-ed6c788445da","0198f768-e4d2-711c-944b-6f03c09216de","2025-08-29_16h22.17.698",NA,NA,554.607,554.607,554.607,554.958,NA,NA,NA,NA,NA,NA,NA,TRUE,1,0.571,551.613,554.607,NA,NA,NA,NA,NA,60,33,0,40,40,67,1,2,41,"likert"
"17303E18C2A14A0ABC2D2DCB050E05CF",1,"0198f77e-6b63-7893-a5ee-ed6c788445da","0198f768-e4d2-711c-944b-6f03c09216de","2025-08-29_16h22.17.698",NA,NA,557.957,557.957,557.957,558.308,NA,NA,NA,NA,NA,NA,NA,TRUE,1,0.621,554.959,557.957,NA,NA,NA,NA,NA,60,40,0,41,41,69,1,2,42,"likert"
"17303E18C2A14A0ABC2D2DCB050E05CF",1,"0198f77e-6b63-7893-a5ee-ed6c788445da","0198f768-e4d2-711c-944b-6f03c09216de","2025-08-29_16h22.17.698",NA,NA,561.308,561.308,561.308,561.657,NA,NA,NA,NA,NA,NA,NA,TRUE,1,0.48,558.308,561.308,NA,NA,NA,NA,NA,21,38,0,42,42,29,1,2,43,"likert"
"17303E18C2A14A0ABC2D2DCB050E05CF",1,"0198f77e-6b63-7893-a5ee-ed6c788445da","0198f768-e4d2-711c-944b-6f03c09216de","2025-08-29_16h22.17.698",NA,NA,564.657,564.657,564.657,565.007,NA,NA,NA,NA,NA,NA,NA,TRUE,1,0.562,561.659,564.657,NA,NA,NA,NA,NA,90,54,0,43,43,77,1,2,44,"likert"
"17303E18C2A14A0ABC2D2DCB050E05CF",1,"0198f77e-6b63-7893-a5ee-ed6c788445da","0198f768-e4d2-711c-944b-6f03c09216de","2025-08-29_16h22.17.698",NA,NA,568.007,568.007,568.007,568.358,NA,NA,NA,NA,NA,NA,NA,TRUE,1,0.619,565.008,568.007,NA,NA,NA,NA,NA,30,32,0,44,44,46,1,2,45,"likert"
"17303E18C2A14A0ABC2D2DCB050E05CF",1,"0198f77e-6b63-7893-a5ee-ed6c788445da","0198f768-e4d2-711c-944b-6f03c09216de","2025-08-29_16h22.17.698",NA,NA,571.357,571.357,571.357,571.708,NA,NA,NA,NA,NA,NA,NA,TRUE,5,1.003,568.359,571.357,NA,NA,NA,NA,NA,12,33,0,45,45,16,1,2,46,"likert"
"17303E18C2A14A0ABC2D2DCB050E05CF",1,"0198f77e-6b63-7893-a5ee-ed6c788445da","0198f768-e4d2-711c-944b-6f03c09216de","2025-08-29_16h22.17.698",NA,NA,574.708,574.708,574.708,575.057,NA,NA,NA,NA,NA,NA,NA,TRUE,1,0.668,571.709,574.708,NA,NA,NA,NA,NA,150,31,0,46,46,90,1,2,47,"likert"
"17303E18C2A14A0ABC2D2DCB050E05CF",1,"0198f77e-6b63-7893-a5ee-ed6c788445da","0198f768-e4d2-711c-944b-6f03c09216de","2025-08-29_16h22.17.698",NA,NA,578.058,578.058,578.058,578.408,NA,NA,NA,NA,NA,NA,NA,TRUE,1,0.87,575.058,578.058,NA,NA,NA,NA,NA,21,29,0,47,47,26,1,2,48,"likert"
"17303E18C2A14A0ABC2D2DCB050E05CF",1,"0198f77e-6b63-7893-a5ee-ed6c788445da","0198f768-e4d2-711c-944b-6f03c09216de","2025-08-29_16h22.17.698",NA,NA,581.409,581.409,581.409,581.758,NA,NA,NA,NA,NA,NA,NA,TRUE,1,0.737,578.409,581.409,NA,NA,NA,NA,NA,100,46,0,48,48,88,1,2,49,"likert"
"17303E18C2A14A0ABC2D2DCB050E05CF",1,"0198f77e-6b63-7893-a5ee-ed6c788445da","0198f768-e4d2-711c-944b-6f03c09216de","2025-08-29_16h22.17.698",NA,NA,584.758,584.758,584.758,585.108,NA,NA,NA,NA,NA,NA,NA,TRUE,1,0.606,581.763,584.758,NA,NA,NA,NA,NA,50,27,0,49,49,60,1,2,50,"likert"
"17303E18C2A14A0ABC2D2DCB050E05CF",1,"0198f77e-6b63-7893-a5ee-ed6c788445da","0198f768-e4d2-711c-944b-6f03c09216de","2025-08-29_16h22.17.698",NA,NA,588.109,588.109,588.109,588.442,NA,NA,NA,NA,NA,NA,NA,TRUE,1,0.815,585.11,588.109,NA,NA,NA,NA,NA,40,33,0,50,50,49,1,2,51,"likert"
"17303E18C2A14A0ABC2D2DCB050E05CF",1,"0198f77e-6b63-7893-a5ee-ed6c788445da","0198f768-e4d2-711c-944b-6f03c09216de","2025-08-29_16h22.17.698",NA,NA,591.458,591.458,591.458,591.808,NA,NA,NA,NA,NA,NA,NA,TRUE,1,0.606,588.443,591.458,NA,NA,NA,NA,NA,45,26,0,51,51,54,1,2,52,"likert"
"17303E18C2A14A0ABC2D2DCB050E05CF",1,"0198f77e-6b63-7893-a5ee-ed6c788445da","0198f768-e4d2-711c-944b-6f03c09216de","2025-08-29_16h22.17.698",NA,NA,594.792,594.792,594.792,595.158,NA,NA,NA,NA,NA,NA,NA,TRUE,1,1.338,591.809,594.792,NA,NA,NA,NA,NA,14,25,0,52,52,18,1,2,53,"likert"
"17303E18C2A14A0ABC2D2DCB050E05CF",1,"0198f77e-6b63-7893-a5ee-ed6c788445da","0198f768-e4d2-711c-944b-6f03c09216de","2025-08-29_16h22.17.698",NA,NA,598.159,598.159,598.159,598.492,NA,NA,NA,NA,NA,NA,NA,TRUE,1,0.683,595.159,598.159,NA,NA,NA,NA,NA,90,46,0,53,53,76,1,2,54,"likert"
"17303E18C2A14A0ABC2D2DCB050E05CF",1,"0198f77e-6b63-7893-a5ee-ed6c788445da","0198f768-e4d2-711c-944b-6f03c09216de","2025-08-29_16h22.17.698",NA,NA,601.509,601.509,601.509,601.858,NA,NA,NA,NA,NA,NA,NA,TRUE,1,0.597,598.493,601.508,NA,NA,NA,NA,NA,95,35,0,54,54,80,1,2,55,"likert"
"17303E18C2A14A0ABC2D2DCB050E05CF",1,"0198f77e-6b63-7893-a5ee-ed6c788445da","0198f768-e4d2-711c-944b-6f03c09216de","2025-08-29_16h22.17.698",NA,NA,604.842,604.842,604.842,605.192,NA,NA,NA,NA,NA,NA,NA,TRUE,1,0.595,601.859,604.842,NA,NA,NA,NA,NA,7,32,0,55,55,4,1,2,56,"likert"
"17303E18C2A14A0ABC2D2DCB050E05CF",1,"0198f77e-6b63-7893-a5ee-ed6c788445da","0198f768-e4d2-711c-944b-6f03c09216de","2025-08-29_16h22.17.698",NA,NA,608.209,608.209,608.209,608.542,NA,NA,NA,NA,NA,NA,NA,TRUE,1,0.698,605.193,608.208,NA,NA,NA,NA,NA,28,46,0,56,56,41,1,2,57,"likert"
"17303E18C2A14A0ABC2D2DCB050E05CF",1,"0198f77e-6b63-7893-a5ee-ed6c788445da","0198f768-e4d2-711c-944b-6f03c09216de","2025-08-29_16h22.17.698",NA,NA,611.542,611.542,611.542,611.892,NA,NA,NA,NA,NA,NA,NA,TRUE,1,0.947,608.543,611.542,NA,NA,NA,NA,NA,45,35,0,57,57,57,1,2,58,"likert"
"17303E18C2A14A0ABC2D2DCB050E05CF",1,"0198f77e-6b63-7893-a5ee-ed6c788445da","0198f768-e4d2-711c-944b-6f03c09216de","2025-08-29_16h22.17.698",NA,NA,614.909,614.909,614.909,615.242,NA,NA,NA,NA,NA,NA,NA,TRUE,1,0.809,611.897,614.908,NA,NA,NA,NA,NA,100,54,0,58,58,89,1,2,59,"likert"
"17303E18C2A14A0ABC2D2DCB050E05CF",1,"0198f77e-6b63-7893-a5ee-ed6c788445da","0198f768-e4d2-711c-944b-6f03c09216de","2025-08-29_16h22.17.698",NA,NA,618.242,618.242,618.242,618.592,NA,NA,NA,NA,NA,NA,NA,TRUE,1,0.619,615.243,618.242,NA,NA,NA,NA,NA,60,35,0,59,59,68,1,2,60,"likert"
"17303E18C2A14A0ABC2D2DCB050E05CF",1,"0198f77e-6b63-7893-a5ee-ed6c788445da","0198f768-e4d2-711c-944b-6f03c09216de","2025-08-29_16h22.17.698",NA,NA,621.592,621.592,621.592,621.942,NA,NA,NA,NA,NA,NA,NA,TRUE,1,0.644,618.593,621.592,NA,NA,NA,NA,NA,50,30,0,60,60,61,1,2,61,"likert"
"17303E18C2A14A0ABC2D2DCB050E05CF",1,"0198f77e-6b63-7893-a5ee-ed6c788445da","0198f768-e4d2-711c-944b-6f03c09216de","2025-08-29_16h22.17.698",NA,NA,624.943,624.943,624.943,625.292,NA,NA,NA,NA,NA,NA,NA,TRUE,1,0.673,621.943,624.943,NA,NA,NA,NA,NA,100,31,0,61,61,85,1,2,62,"likert"
"17303E18C2A14A0ABC2D2DCB050E05CF",1,"0198f77e-6b63-7893-a5ee-ed6c788445da","0198f768-e4d2-711c-944b-6f03c09216de","2025-08-29_16h22.17.698",NA,NA,628.292,628.292,628.292,628.643,NA,NA,NA,NA,NA,NA,NA,TRUE,5,0.938,625.293,628.292,NA,NA,NA,NA,NA,12,25,0,62,62,12,1,2,63,"likert"
"17303E18C2A14A0ABC2D2DCB050E05CF",1,"0198f77e-6b63-7893-a5ee-ed6c788445da","0198f768-e4d2-711c-944b-6f03c09216de","2025-08-29_16h22.17.698",NA,NA,631.642,631.642,631.642,631.993,NA,NA,NA,NA,NA,NA,NA,TRUE,1,0.541,628.643,631.642,NA,NA,NA,NA,NA,25,31,0,63,63,32,1,2,64,"likert"
"17303E18C2A14A0ABC2D2DCB050E05CF",1,"0198f77e-6b63-7893-a5ee-ed6c788445da","0198f768-e4d2-711c-944b-6f03c09216de","2025-08-29_16h22.17.698",NA,NA,634.992,634.992,634.992,635.342,NA,NA,NA,NA,NA,NA,NA,TRUE,1,0.706,631.994,634.992,NA,NA,NA,NA,NA,180,39,0,64,64,99,1,2,65,"likert"
"17303E18C2A14A0ABC2D2DCB050E05CF",1,"0198f77e-6b63-7893-a5ee-ed6c788445da","0198f768-e4d2-711c-944b-6f03c09216de","2025-08-29_16h22.17.698",NA,NA,638.342,638.342,638.342,638.693,NA,NA,NA,NA,NA,NA,NA,TRUE,5,1.45,635.343,638.342,NA,NA,NA,NA,NA,14,39,0,65,65,23,1,2,66,"likert"
"17303E18C2A14A0ABC2D2DCB050E05CF",1,"0198f77e-6b63-7893-a5ee-ed6c788445da","0198f768-e4d2-711c-944b-6f03c09216de","2025-08-29_16h22.17.698",NA,NA,641.693,641.693,641.693,642.042,NA,NA,NA,NA,NA,NA,NA,TRUE,1,0.688,638.694,641.692,NA,NA,NA,NA,NA,45,29,0,66,66,55,1,2,67,"likert"
"17303E18C2A14A0ABC2D2DCB050E05CF",1,"0198f77e-6b63-7893-a5ee-ed6c788445da","0198f768-e4d2-711c-944b-6f03c09216de","2025-08-29_16h22.17.698",NA,NA,645.043,645.043,645.043,645.392,NA,NA,NA,NA,NA,NA,NA,TRUE,5,1.185,642.048,645.043,NA,NA,NA,NA,NA,7,30,0,67,67,3,1,2,68,"likert"
"17303E18C2A14A0ABC2D2DCB050E05CF",1,"0198f77e-6b63-7893-a5ee-ed6c788445da","0198f768-e4d2-711c-944b-6f03c09216de","2025-08-29_16h22.17.698",NA,NA,648.394,648.394,648.394,648.743,NA,NA,NA,NA,NA,NA,NA,TRUE,1,0.894,645.394,648.393,NA,NA,NA,NA,NA,21,27,0,68,68,25,1,2,69,"likert"
"17303E18C2A14A0ABC2D2DCB050E05CF",1,"0198f77e-6b63-7893-a5ee-ed6c788445da","0198f768-e4d2-711c-944b-6f03c09216de","2025-08-29_16h22.17.698",NA,NA,651.743,651.743,651.743,652.093,NA,NA,NA,NA,NA,NA,NA,TRUE,1,0.661,648.744,651.742,NA,NA,NA,NA,NA,40,54,0,69,69,53,1,2,70,"likert"
"17303E18C2A14A0ABC2D2DCB050E05CF",1,"0198f77e-6b63-7893-a5ee-ed6c788445da","0198f768-e4d2-711c-944b-6f03c09216de","2025-08-29_16h22.17.698",NA,NA,655.093,655.093,655.093,655.442,NA,NA,NA,NA,NA,NA,NA,TRUE,1,0.557,652.094,655.093,NA,NA,NA,NA,NA,95,54,0,70,70,83,1,2,71,"likert"
"17303E18C2A14A0ABC2D2DCB050E05CF",1,"0198f77e-6b63-7893-a5ee-ed6c788445da","0198f768-e4d2-711c-944b-6f03c09216de","2025-08-29_16h22.17.698",NA,NA,658.443,658.443,658.443,658.793,NA,NA,NA,NA,NA,NA,NA,TRUE,5,1.071,655.443,658.443,NA,NA,NA,NA,NA,12,35,0,71,71,17,1,2,72,"likert"
"17303E18C2A14A0ABC2D2DCB050E05CF",1,"0198f77e-6b63-7893-a5ee-ed6c788445da","0198f768-e4d2-711c-944b-6f03c09216de","2025-08-29_16h22.17.698",NA,NA,661.793,661.793,661.793,662.143,NA,NA,NA,NA,NA,NA,NA,TRUE,5,1.008,658.793,661.793,NA,NA,NA,NA,NA,14,35,0,72,72,22,1,2,73,"likert"
"17303E18C2A14A0ABC2D2DCB050E05CF",1,"0198f77e-6b63-7893-a5ee-ed6c788445da","0198f768-e4d2-711c-944b-6f03c09216de","2025-08-29_16h22.17.698",NA,NA,665.143,665.143,665.143,665.493,NA,NA,NA,NA,NA,NA,NA,TRUE,5,1.538,662.144,665.143,NA,NA,NA,NA,NA,7,26,0,73,73,1,1,2,74,"likert"
"17303E18C2A14A0ABC2D2DCB050E05CF",1,"0198f77e-6b63-7893-a5ee-ed6c788445da","0198f768-e4d2-711c-944b-6f03c09216de","2025-08-29_16h22.17.698",NA,NA,668.493,668.493,668.493,668.843,NA,NA,NA,NA,NA,NA,NA,TRUE,1,0.649,665.494,668.493,NA,NA,NA,NA,NA,30,38,0,74,74,47,1,2,75,"likert"
"17303E18C2A14A0ABC2D2DCB050E05CF",1,"0198f77e-6b63-7893-a5ee-ed6c788445da","0198f768-e4d2-711c-944b-6f03c09216de","2025-08-29_16h22.17.698",NA,NA,671.844,671.844,671.844,672.193,NA,NA,NA,NA,NA,NA,NA,TRUE,5,1.041,668.845,671.844,NA,NA,NA,NA,NA,12,28,0,75,75,14,1,2,76,"likert"
"17303E18C2A14A0ABC2D2DCB050E05CF",1,"0198f77e-6b63-7893-a5ee-ed6c788445da","0198f768-e4d2-711c-944b-6f03c09216de","2025-08-29_16h22.17.698",NA,NA,675.193,675.193,675.193,675.543,NA,NA,NA,NA,NA,NA,NA,TRUE,5,1.022,672.198,675.193,NA,NA,NA,NA,NA,12,31,0,76,76,15,1,2,77,"likert"
"17303E18C2A14A0ABC2D2DCB050E05CF",1,"0198f77e-6b63-7893-a5ee-ed6c788445da","0198f768-e4d2-711c-944b-6f03c09216de","2025-08-29_16h22.17.698",NA,NA,678.544,678.544,678.544,678.893,NA,NA,NA,NA,NA,NA,NA,TRUE,1,0.744,675.544,678.543,NA,NA,NA,NA,NA,100,38,0,77,77,86,1,2,78,"likert"
"17303E18C2A14A0ABC2D2DCB050E05CF",1,"0198f77e-6b63-7893-a5ee-ed6c788445da","0198f768-e4d2-711c-944b-6f03c09216de","2025-08-29_16h22.17.698",NA,NA,681.894,681.894,681.894,682.244,NA,NA,NA,NA,NA,NA,NA,TRUE,1,0.627,678.894,681.894,NA,NA,NA,NA,NA,150,40,0,78,78,93,1,2,79,"likert"
"17303E18C2A14A0ABC2D2DCB050E05CF",1,"0198f77e-6b63-7893-a5ee-ed6c788445da","0198f768-e4d2-711c-944b-6f03c09216de","2025-08-29_16h22.17.698",NA,NA,685.243,685.244,685.244,685.593,NA,NA,NA,NA,NA,NA,NA,TRUE,1,0.924,682.245,685.243,NA,NA,NA,NA,NA,21,26,0,79,79,24,1,2,80,"likert"
"17303E18C2A14A0ABC2D2DCB050E05CF",1,"0198f77e-6b63-7893-a5ee-ed6c788445da","0198f768-e4d2-711c-944b-6f03c09216de","2025-08-29_16h22.17.698",NA,NA,688.594,688.594,688.594,688.944,NA,NA,NA,NA,NA,NA,NA,TRUE,1,0.688,685.594,688.593,NA,NA,NA,NA,NA,60,47,0,80,80,70,1,2,81,"likert"
"17303E18C2A14A0ABC2D2DCB050E05CF",1,"0198f77e-6b63-7893-a5ee-ed6c788445da","0198f768-e4d2-711c-944b-6f03c09216de","2025-08-29_16h22.17.698",NA,NA,691.944,691.944,691.944,692.294,NA,NA,NA,NA,NA,NA,NA,TRUE,5,1.35,688.945,691.944,NA,NA,NA,NA,NA,10,29,0,81,81,9,1,2,82,"likert"
"17303E18C2A14A0ABC2D2DCB050E05CF",1,"0198f77e-6b63-7893-a5ee-ed6c788445da","0198f768-e4d2-711c-944b-6f03c09216de","2025-08-29_16h22.17.698",NA,NA,695.294,695.294,695.294,695.644,NA,NA,NA,NA,NA,NA,NA,TRUE,1,0.596,692.294,695.294,NA,NA,NA,NA,NA,200,39,0,82,82,105,1,2,83,"likert"
"17303E18C2A14A0ABC2D2DCB050E05CF",1,"0198f77e-6b63-7893-a5ee-ed6c788445da","0198f768-e4d2-711c-944b-6f03c09216de","2025-08-29_16h22.17.698",NA,NA,698.643,698.643,698.644,698.994,NA,NA,NA,NA,NA,NA,NA,TRUE,1,0.541,695.645,698.643,NA,NA,NA,NA,NA,28,35,0,83,83,39,1,2,84,"likert"
"17303E18C2A14A0ABC2D2DCB050E05CF",1,"0198f77e-6b63-7893-a5ee-ed6c788445da","0198f768-e4d2-711c-944b-6f03c09216de","2025-08-29_16h22.17.698",NA,NA,701.994,701.994,701.994,702.344,NA,NA,NA,NA,NA,NA,NA,TRUE,5,1.345,698.995,701.994,NA,NA,NA,NA,NA,10,26,0,84,84,7,1,2,85,"likert"
"17303E18C2A14A0ABC2D2DCB050E05CF",1,"0198f77e-6b63-7893-a5ee-ed6c788445da","0198f768-e4d2-711c-944b-6f03c09216de","2025-08-29_16h22.17.698",NA,NA,705.345,705.345,705.345,705.694,NA,NA,NA,NA,NA,NA,NA,TRUE,5,2.488,702.349,705.345,NA,NA,NA,NA,NA,14,32,0,85,85,21,1,2,86,"likert"
"17303E18C2A14A0ABC2D2DCB050E05CF",1,"0198f77e-6b63-7893-a5ee-ed6c788445da","0198f768-e4d2-711c-944b-6f03c09216de","2025-08-29_16h22.17.698",NA,NA,708.694,708.694,708.694,709.044,NA,NA,NA,NA,NA,NA,NA,TRUE,1,0.746,705.695,708.694,NA,NA,NA,NA,NA,150,54,0,86,86,95,1,2,87,"likert"
"17303E18C2A14A0ABC2D2DCB050E05CF",1,"0198f77e-6b63-7893-a5ee-ed6c788445da","0198f768-e4d2-711c-944b-6f03c09216de","2025-08-29_16h22.17.698",NA,NA,712.044,712.044,712.044,712.394,NA,NA,NA,NA,NA,NA,NA,TRUE,1,0.82,709.045,712.044,NA,NA,NA,NA,NA,28,32,0,87,87,38,1,2,88,"likert"
"17303E18C2A14A0ABC2D2DCB050E05CF",1,"0198f77e-6b63-7893-a5ee-ed6c788445da","0198f768-e4d2-711c-944b-6f03c09216de","2025-08-29_16h22.17.698",NA,NA,715.394,715.394,715.394,715.744,NA,NA,NA,NA,NA,NA,NA,TRUE,1,0.602,712.395,715.394,NA,NA,NA,NA,NA,30,30,0,88,88,45,1,2,89,"likert"
"17303E18C2A14A0ABC2D2DCB050E05CF",1,"0198f77e-6b63-7893-a5ee-ed6c788445da","0198f768-e4d2-711c-944b-6f03c09216de","2025-08-29_16h22.17.698",NA,NA,718.744,718.744,718.744,719.094,NA,NA,NA,NA,NA,NA,NA,TRUE,1,1.347,715.745,718.744,NA,NA,NA,NA,NA,7,25,0,89,89,0,1,2,90,"likert"
"17303E18C2A14A0ABC2D2DCB050E05CF",1,"0198f77e-6b63-7893-a5ee-ed6c788445da","0198f768-e4d2-711c-944b-6f03c09216de","2025-08-29_16h22.17.698",NA,NA,722.094,722.095,722.095,722.444,NA,NA,NA,NA,NA,NA,NA,TRUE,1,0.665,719.095,722.094,NA,NA,NA,NA,NA,45,31,0,90,90,56,1,2,91,"likert"
"17303E18C2A14A0ABC2D2DCB050E05CF",1,"0198f77e-6b63-7893-a5ee-ed6c788445da","0198f768-e4d2-711c-944b-6f03c09216de","2025-08-29_16h22.17.698",NA,NA,725.444,725.444,725.444,725.794,NA,NA,NA,NA,NA,NA,NA,TRUE,1,0.806,722.445,725.444,NA,NA,NA,NA,NA,60,54,0,91,91,71,1,2,92,"likert"
"17303E18C2A14A0ABC2D2DCB050E05CF",1,"0198f77e-6b63-7893-a5ee-ed6c788445da","0198f768-e4d2-711c-944b-6f03c09216de","2025-08-29_16h22.17.698",NA,NA,728.794,728.794,728.794,729.144,NA,NA,NA,NA,NA,NA,NA,TRUE,1,0.55,725.795,728.794,NA,NA,NA,NA,NA,50,46,0,92,92,64,1,2,93,"likert"
"17303E18C2A14A0ABC2D2DCB050E05CF",1,"0198f77e-6b63-7893-a5ee-ed6c788445da","0198f768-e4d2-711c-944b-6f03c09216de","2025-08-29_16h22.17.698",NA,NA,732.145,732.145,732.145,732.494,NA,NA,NA,NA,NA,NA,NA,TRUE,1,1.65,729.145,732.144,NA,NA,NA,NA,NA,25,27,0,93,93,30,1,2,94,"likert"
"17303E18C2A14A0ABC2D2DCB050E05CF",1,"0198f77e-6b63-7893-a5ee-ed6c788445da","0198f768-e4d2-711c-944b-6f03c09216de","2025-08-29_16h22.17.698",NA,NA,735.494,735.494,735.494,735.844,NA,NA,NA,NA,NA,NA,NA,TRUE,1,0.807,732.495,735.494,NA,NA,NA,NA,NA,28,39,0,94,94,40,1,2,95,"likert"
"17303E18C2A14A0ABC2D2DCB050E05CF",1,"0198f77e-6b63-7893-a5ee-ed6c788445da","0198f768-e4d2-711c-944b-6f03c09216de","2025-08-29_16h22.17.698",NA,NA,738.845,738.845,738.845,739.194,NA,NA,NA,NA,NA,NA,NA,TRUE,1,0.568,735.85,738.845,NA,NA,NA,NA,NA,50,54,0,95,95,65,1,2,96,"likert"
"17303E18C2A14A0ABC2D2DCB050E05CF",1,"0198f77e-6b63-7893-a5ee-ed6c788445da","0198f768-e4d2-711c-944b-6f03c09216de","2025-08-29_16h22.17.698",NA,NA,742.195,742.195,742.195,742.545,NA,NA,NA,NA,NA,NA,NA,TRUE,1,0.771,739.195,742.195,NA,NA,NA,NA,NA,180,46,0,96,96,100,1,2,97,"likert"
"17303E18C2A14A0ABC2D2DCB050E05CF",1,"0198f77e-6b63-7893-a5ee-ed6c788445da","0198f768-e4d2-711c-944b-6f03c09216de","2025-08-29_16h22.17.698",NA,NA,745.545,745.545,745.545,745.895,NA,NA,NA,NA,NA,NA,NA,TRUE,1,0.514,742.546,745.545,NA,NA,NA,NA,NA,45,40,0,97,97,58,1,2,98,"likert"
"17303E18C2A14A0ABC2D2DCB050E05CF",1,"0198f77e-6b63-7893-a5ee-ed6c788445da","0198f768-e4d2-711c-944b-6f03c09216de","2025-08-29_16h22.17.698",NA,NA,748.895,748.895,748.895,749.245,NA,NA,NA,NA,NA,NA,NA,TRUE,5,0.968,745.897,748.895,NA,NA,NA,NA,NA,10,27,0,98,98,8,1,2,99,"likert"
"17303E18C2A14A0ABC2D2DCB050E05CF",1,"0198f77e-6b63-7893-a5ee-ed6c788445da","0198f768-e4d2-711c-944b-6f03c09216de","2025-08-29_16h22.17.698",NA,NA,752.245,752.245,752.245,752.595,NA,NA,NA,NA,NA,NA,NA,TRUE,1,1.044,749.246,752.245,NA,NA,NA,NA,NA,200,35,0,99,99,104,1,2,100,"likert"
"17303E18C2A14A0ABC2D2DCB050E05CF",1,"0198f77e-6b63-7893-a5ee-ed6c788445da","0198f768-e4d2-711c-944b-6f03c09216de","2025-08-29_16h22.17.698",NA,NA,755.595,755.595,755.595,755.945,NA,NA,NA,NA,NA,NA,NA,TRUE,1,0.53,752.596,755.595,NA,NA,NA,NA,NA,30,29,0,100,100,44,1,2,101,"likert"
"17303E18C2A14A0ABC2D2DCB050E05CF",1,"0198f77e-6b63-7893-a5ee-ed6c788445da","0198f768-e4d2-711c-944b-6f03c09216de","2025-08-29_16h22.17.698",NA,NA,758.945,758.945,758.945,759.295,NA,NA,NA,NA,NA,NA,NA,TRUE,1,0.786,755.946,758.945,NA,NA,NA,NA,NA,180,27,0,101,101,96,1,2,102,"likert"
"17303E18C2A14A0ABC2D2DCB050E05CF",1,"0198f77e-6b63-7893-a5ee-ed6c788445da","0198f768-e4d2-711c-944b-6f03c09216de","2025-08-29_16h22.17.698",NA,NA,762.295,762.295,762.295,762.645,NA,NA,NA,NA,NA,NA,NA,TRUE,1,0.597,759.296,762.295,NA,NA,NA,NA,NA,40,47,0,102,102,52,1,2,103,"likert"
"17303E18C2A14A0ABC2D2DCB050E05CF",1,"0198f77e-6b63-7893-a5ee-ed6c788445da","0198f768-e4d2-711c-944b-6f03c09216de","2025-08-29_16h22.17.698",NA,NA,765.646,765.646,765.646,765.995,NA,NA,NA,NA,NA,NA,NA,TRUE,1,0.611,762.646,765.645,NA,NA,NA,NA,NA,150,35,0,103,103,92,1,2,104,"likert"
"17303E18C2A14A0ABC2D2DCB050E05CF",1,"0198f77e-6b63-7893-a5ee-ed6c788445da","0198f768-e4d2-711c-944b-6f03c09216de","2025-08-29_16h22.17.698",NA,NA,768.995,768.995,768.995,769.345,NA,NA,NA,NA,NA,NA,NA,TRUE,5,1.192,766,768.995,NA,NA,NA,NA,NA,12,26,0,104,104,13,1,2,105,"likert"
"17303E18C2A14A0ABC2D2DCB050E05CF",1,"0198f77e-6b63-7893-a5ee-ed6c788445da","0198f768-e4d2-711c-944b-6f03c09216de","2025-08-29_16h22.17.698",NA,NA,772.346,772.346,772.346,772.695,NA,NA,NA,NA,NA,NA,NA,TRUE,1,0.756,769.346,772.345,NA,NA,NA,NA,NA,21,32,0,105,105,28,1,2,106,"likert"
"17303E18C2A14A0ABC2D2DCB050E05CF",1,"0198f77e-6b63-7893-a5ee-ed6c788445da","0198f768-e4d2-711c-944b-6f03c09216de","2025-08-29_16h22.17.698",NA,NA,775.695,775.695,775.695,776.046,NA,NA,NA,NA,NA,NA,NA,TRUE,1,0.76,772.696,775.695,NA,NA,NA,NA,NA,95,40,0,106,106,81,1,2,107,"likert"
"17303E18C2A14A0ABC2D2DCB050E05CF",1,"0198f77e-6b63-7893-a5ee-ed6c788445da","0198f768-e4d2-711c-944b-6f03c09216de","2025-08-29_16h22.17.698",NA,NA,779.045,779.045,779.045,779.395,NA,NA,NA,NA,NA,NA,NA,TRUE,5,1.035,776.047,779.045,NA,NA,NA,NA,NA,10,30,0,107,107,10,1,2,108,"likert"
