"participant","session","assignmentId","projectId","date","practiceTrial.started","practiceTrial.stopped","tooLate.started","tooLate.stopped","blank.started","blank.stopped","trials_pract.thisRepN","trials_pract.thisTrialN","trials_pract.thisN","trials_pract.thisIndex","trials_pract.ran","delay_pract","amount_pract","responseMade","key","rt","trial.started","trial.stopped","trials.thisRepN","trials.thisTrialN","trials.thisN","trials.thisIndex","trials.ran","delay","amount","trials_2.thisRepN","trials_2.thisTrialN","trials_2.thisN","trials_2.thisIndex","trials_2.ran","block","trial","taskType"
"18CEC8E96DFC47398974230F954424D7",1,"01990ad8-8904-7c10-8422-d3105a47ee90","01990a84-c4ee-73c2-a87b-ff46a7d3dde5","2025-09-02_10h33.39.378",15.6064,18.5892,18.5906,18.8341,18.8343,18.9345,0,0,0,1,1,100,50,FALSE,NA,NA,NA,NA,NA,NA,NA,NA,NA,NA,NA,NA,NA,NA,NA,NA,0,1,"likert"
"18CEC8E96DFC47398974230F954424D7",1,"01990ad8-8904-7c10-8422-d3105a47ee90","01990a84-c4ee-73c2-a87b-ff46a7d3dde5","2025-09-02_10h33.39.378",18.938,21.933,21.9339,21.9341,21.9341,22.2881,0,1,1,4,1,30,40,TRUE,1,1.6724,NA,NA,NA,NA,NA,NA,NA,NA,NA,NA,NA,NA,NA,NA,0,2,"likert"
"18CEC8E96DFC47398974230F954424D7",1,"01990ad8-8904-7c10-8422-d3105a47ee90","01990a84-c4ee-73c2-a87b-ff46a7d3dde5","2025-09-02_10h33.39.378",22.2906,25.2833,25.2841,25.2843,25.2845,25.6374,0,2,2,3,1,3,27,TRUE,1,1.3602,NA,NA,NA,NA,NA,NA,NA,NA,NA,NA,NA,NA,NA,NA,0,3,"likert"
"18CEC8E96DFC47398974230F954424D7",1,"01990ad8-8904-7c10-8422-d3105a47ee90","01990a84-c4ee-73c2-a87b-ff46a7d3dde5","2025-09-02_10h33.39.378",25.6394,28.6341,28.6347,28.6349,28.6349,28.9825,0,3,3,2,1,14,45,TRUE,5,2.506,NA,NA,NA,NA,NA,NA,NA,NA,NA,NA,NA,NA,NA,NA,0,4,"likert"
"18CEC8E96DFC47398974230F954424D7",1,"01990ad8-8904-7c10-8422-d3105a47ee90","01990a84-c4ee-73c2-a87b-ff46a7d3dde5","2025-09-02_10h33.39.378",28.9861,31.9833,31.9836,31.9837,31.9839,32.3318,0,4,4,0,1,7,30,TRUE,1,1.5835,NA,NA,NA,NA,NA,NA,NA,NA,NA,NA,NA,NA,NA,NA,0,5,"likert"
"18CEC8E96DFC47398974230F954424D7",1,"01990ad8-8904-7c10-8422-d3105a47ee90","01990a84-c4ee-73c2-a87b-ff46a7d3dde5","2025-09-02_10h33.39.378",NA,NA,57.8647,57.8649,57.8649,58.2156,NA,NA,NA,NA,NA,NA,NA,TRUE,1,1.2758,54.8919,57.8641,0,0,0,6,1,10,25,NA,NA,NA,NA,NA,1,1,"likert"
"18CEC8E96DFC47398974230F954424D7",1,"01990ad8-8904-7c10-8422-d3105a47ee90","01990a84-c4ee-73c2-a87b-ff46a7d3dde5","2025-09-02_10h33.39.378",NA,NA,61.215,61.2152,61.2153,61.5647,NA,NA,NA,NA,NA,NA,NA,TRUE,1,0.8014,58.2189,61.2145,0,1,1,1,1,7,26,NA,NA,NA,NA,NA,1,2,"likert"
"18CEC8E96DFC47398974230F954424D7",1,"01990ad8-8904-7c10-8422-d3105a47ee90","01990a84-c4ee-73c2-a87b-ff46a7d3dde5","2025-09-02_10h33.39.378",NA,NA,64.5639,64.5639,64.5639,64.9147,NA,NA,NA,NA,NA,NA,NA,TRUE,1,1.6612,61.5665,64.5637,0,2,2,107,1,200,54,NA,NA,NA,NA,NA,1,3,"likert"
"18CEC8E96DFC47398974230F954424D7",1,"01990ad8-8904-7c10-8422-d3105a47ee90","01990a84-c4ee-73c2-a87b-ff46a7d3dde5","2025-09-02_10h33.39.378",NA,NA,67.9151,67.9153,67.9153,68.2645,NA,NA,NA,NA,NA,NA,NA,TRUE,5,1.5282,64.9166,67.9147,0,3,3,56,1,45,31,NA,NA,NA,NA,NA,1,4,"likert"
"18CEC8E96DFC47398974230F954424D7",1,"01990ad8-8904-7c10-8422-d3105a47ee90","01990a84-c4ee-73c2-a87b-ff46a7d3dde5","2025-09-02_10h33.39.378",NA,NA,71.2645,71.2648,71.2648,71.6144,NA,NA,NA,NA,NA,NA,NA,TRUE,5,1.7617,68.2663,71.2642,0,4,4,53,1,40,54,NA,NA,NA,NA,NA,1,5,"likert"
"18CEC8E96DFC47398974230F954424D7",1,"01990ad8-8904-7c10-8422-d3105a47ee90","01990a84-c4ee-73c2-a87b-ff46a7d3dde5","2025-09-02_10h33.39.378",NA,NA,74.6144,74.6144,74.6144,74.9639,NA,NA,NA,NA,NA,NA,NA,TRUE,1,2.1308,71.6162,74.614,0,5,5,42,1,30,26,NA,NA,NA,NA,NA,1,6,"likert"
"18CEC8E96DFC47398974230F954424D7",1,"01990ad8-8904-7c10-8422-d3105a47ee90","01990a84-c4ee-73c2-a87b-ff46a7d3dde5","2025-09-02_10h33.39.378",NA,NA,77.964,77.9641,77.9641,78.3137,NA,NA,NA,NA,NA,NA,NA,TRUE,1,0.7997,74.9659,77.9636,0,6,6,52,1,40,47,NA,NA,NA,NA,NA,1,7,"likert"
"18CEC8E96DFC47398974230F954424D7",1,"01990ad8-8904-7c10-8422-d3105a47ee90","01990a84-c4ee-73c2-a87b-ff46a7d3dde5","2025-09-02_10h33.39.378",NA,NA,81.3196,81.3197,81.3199,81.6696,NA,NA,NA,NA,NA,NA,NA,TRUE,1,1.3416,78.316,81.3194,0,7,7,22,1,14,35,NA,NA,NA,NA,NA,1,8,"likert"
"18CEC8E96DFC47398974230F954424D7",1,"01990ad8-8904-7c10-8422-d3105a47ee90","01990a84-c4ee-73c2-a87b-ff46a7d3dde5","2025-09-02_10h33.39.378",NA,NA,84.6683,84.6684,84.6684,85.0137,NA,NA,NA,NA,NA,NA,NA,TRUE,1,0.978,81.6718,84.668,0,8,8,95,1,150,54,NA,NA,NA,NA,NA,1,9,"likert"
"18CEC8E96DFC47398974230F954424D7",1,"01990ad8-8904-7c10-8422-d3105a47ee90","01990a84-c4ee-73c2-a87b-ff46a7d3dde5","2025-09-02_10h33.39.378",NA,NA,88.0141,88.2634,88.2635,88.3669,NA,NA,NA,NA,NA,NA,NA,FALSE,NA,NA,85.0168,88.0135,0,9,9,55,1,45,29,NA,NA,NA,NA,NA,1,10,"likert"
"18CEC8E96DFC47398974230F954424D7",1,"01990ad8-8904-7c10-8422-d3105a47ee90","01990a84-c4ee-73c2-a87b-ff46a7d3dde5","2025-09-02_10h33.39.378",NA,NA,91.3534,91.3536,91.3536,91.7172,NA,NA,NA,NA,NA,NA,NA,TRUE,1,1.1754,88.3682,91.3532,0,10,10,105,1,200,39,NA,NA,NA,NA,NA,1,11,"likert"
"18CEC8E96DFC47398974230F954424D7",1,"01990ad8-8904-7c10-8422-d3105a47ee90","01990a84-c4ee-73c2-a87b-ff46a7d3dde5","2025-09-02_10h33.39.378",NA,NA,94.7137,94.7137,94.7138,95.0686,NA,NA,NA,NA,NA,NA,NA,TRUE,1,0.9302,91.7194,94.7133,0,11,11,31,1,25,29,NA,NA,NA,NA,NA,1,12,"likert"
"18CEC8E96DFC47398974230F954424D7",1,"01990ad8-8904-7c10-8422-d3105a47ee90","01990a84-c4ee-73c2-a87b-ff46a7d3dde5","2025-09-02_10h33.39.378",NA,NA,98.0665,98.0668,98.0668,98.4123,NA,NA,NA,NA,NA,NA,NA,TRUE,5,1.3881,95.0714,98.0663,0,12,12,14,1,12,28,NA,NA,NA,NA,NA,1,13,"likert"
"18CEC8E96DFC47398974230F954424D7",1,"01990ad8-8904-7c10-8422-d3105a47ee90","01990a84-c4ee-73c2-a87b-ff46a7d3dde5","2025-09-02_10h33.39.378",NA,NA,101.4127,101.4127,101.4127,101.7627,NA,NA,NA,NA,NA,NA,NA,TRUE,1,1.352,98.4139,101.4121,0,13,13,36,1,28,26,NA,NA,NA,NA,NA,1,14,"likert"
"18CEC8E96DFC47398974230F954424D7",1,"01990ad8-8904-7c10-8422-d3105a47ee90","01990a84-c4ee-73c2-a87b-ff46a7d3dde5","2025-09-02_10h33.39.378",NA,NA,104.7629,104.763,104.763,105.1136,NA,NA,NA,NA,NA,NA,NA,TRUE,1,0.755,101.7654,104.7626,0,14,14,15,1,12,31,NA,NA,NA,NA,NA,1,15,"likert"
"18CEC8E96DFC47398974230F954424D7",1,"01990ad8-8904-7c10-8422-d3105a47ee90","01990a84-c4ee-73c2-a87b-ff46a7d3dde5","2025-09-02_10h33.39.378",NA,NA,108.1135,108.1135,108.1135,108.4621,NA,NA,NA,NA,NA,NA,NA,TRUE,1,0.5905,105.1157,108.113,0,15,15,35,1,25,46,NA,NA,NA,NA,NA,1,16,"likert"
"18CEC8E96DFC47398974230F954424D7",1,"01990ad8-8904-7c10-8422-d3105a47ee90","01990a84-c4ee-73c2-a87b-ff46a7d3dde5","2025-09-02_10h33.39.378",NA,NA,111.4633,111.4633,111.4634,111.8168,NA,NA,NA,NA,NA,NA,NA,TRUE,5,1.8871,108.4646,111.4622,0,16,16,27,1,21,30,NA,NA,NA,NA,NA,1,17,"likert"
"18CEC8E96DFC47398974230F954424D7",1,"01990ad8-8904-7c10-8422-d3105a47ee90","01990a84-c4ee-73c2-a87b-ff46a7d3dde5","2025-09-02_10h33.39.378",NA,NA,114.8149,114.8149,114.815,115.1624,NA,NA,NA,NA,NA,NA,NA,TRUE,1,0.8661,111.8187,114.8147,0,17,17,67,1,60,33,NA,NA,NA,NA,NA,1,18,"likert"
"18CEC8E96DFC47398974230F954424D7",1,"01990ad8-8904-7c10-8422-d3105a47ee90","01990a84-c4ee-73c2-a87b-ff46a7d3dde5","2025-09-02_10h33.39.378",NA,NA,118.1628,118.163,118.1634,118.5126,NA,NA,NA,NA,NA,NA,NA,TRUE,5,1.0768,115.1646,118.1624,0,18,18,75,1,90,40,NA,NA,NA,NA,NA,1,19,"likert"
"18CEC8E96DFC47398974230F954424D7",1,"01990ad8-8904-7c10-8422-d3105a47ee90","01990a84-c4ee-73c2-a87b-ff46a7d3dde5","2025-09-02_10h33.39.378",NA,NA,121.5138,121.5142,121.5142,121.8623,NA,NA,NA,NA,NA,NA,NA,TRUE,1,0.9981,118.5143,121.5136,0,19,19,19,1,14,26,NA,NA,NA,NA,NA,1,20,"likert"
"18CEC8E96DFC47398974230F954424D7",1,"01990ad8-8904-7c10-8422-d3105a47ee90","01990a84-c4ee-73c2-a87b-ff46a7d3dde5","2025-09-02_10h33.39.378",NA,NA,124.8655,124.8657,124.8657,125.2122,NA,NA,NA,NA,NA,NA,NA,TRUE,1,1.3015,121.8631,124.8652,0,20,20,20,1,14,28,NA,NA,NA,NA,NA,1,21,"likert"
"18CEC8E96DFC47398974230F954424D7",1,"01990ad8-8904-7c10-8422-d3105a47ee90","01990a84-c4ee-73c2-a87b-ff46a7d3dde5","2025-09-02_10h33.39.378",NA,NA,128.212,128.2121,128.2121,128.5604,NA,NA,NA,NA,NA,NA,NA,TRUE,1,1.2482,125.2149,128.2117,0,21,21,91,1,150,33,NA,NA,NA,NA,NA,1,22,"likert"
"18CEC8E96DFC47398974230F954424D7",1,"01990ad8-8904-7c10-8422-d3105a47ee90","01990a84-c4ee-73c2-a87b-ff46a7d3dde5","2025-09-02_10h33.39.378",NA,NA,131.5608,131.5608,131.5608,131.9108,NA,NA,NA,NA,NA,NA,NA,TRUE,1,0.7349,128.5627,131.5604,0,22,22,102,1,200,26,NA,NA,NA,NA,NA,1,23,"likert"
"18CEC8E96DFC47398974230F954424D7",1,"01990ad8-8904-7c10-8422-d3105a47ee90","01990a84-c4ee-73c2-a87b-ff46a7d3dde5","2025-09-02_10h33.39.378",NA,NA,134.9114,134.9114,134.9114,135.2605,NA,NA,NA,NA,NA,NA,NA,TRUE,1,0.6136,131.9131,134.9111,0,23,23,25,1,21,27,NA,NA,NA,NA,NA,1,24,"likert"
"18CEC8E96DFC47398974230F954424D7",1,"01990ad8-8904-7c10-8422-d3105a47ee90","01990a84-c4ee-73c2-a87b-ff46a7d3dde5","2025-09-02_10h33.39.378",NA,NA,138.2609,138.261,138.261,138.6101,NA,NA,NA,NA,NA,NA,NA,TRUE,1,0.7815,135.2625,138.2606,0,24,24,16,1,12,33,NA,NA,NA,NA,NA,1,25,"likert"
"18CEC8E96DFC47398974230F954424D7",1,"01990ad8-8904-7c10-8422-d3105a47ee90","01990a84-c4ee-73c2-a87b-ff46a7d3dde5","2025-09-02_10h33.39.378",NA,NA,141.612,141.612,141.612,141.9597,NA,NA,NA,NA,NA,NA,NA,TRUE,1,0.9334,138.6119,141.6118,0,25,25,63,1,50,40,NA,NA,NA,NA,NA,1,26,"likert"
"18CEC8E96DFC47398974230F954424D7",1,"01990ad8-8904-7c10-8422-d3105a47ee90","01990a84-c4ee-73c2-a87b-ff46a7d3dde5","2025-09-02_10h33.39.378",NA,NA,144.9616,144.9617,144.9617,145.3104,NA,NA,NA,NA,NA,NA,NA,TRUE,1,0.9005,141.961,144.9607,0,26,26,47,1,30,38,NA,NA,NA,NA,NA,1,27,"likert"
"18CEC8E96DFC47398974230F954424D7",1,"01990ad8-8904-7c10-8422-d3105a47ee90","01990a84-c4ee-73c2-a87b-ff46a7d3dde5","2025-09-02_10h33.39.378",NA,NA,148.3098,148.3098,148.3099,148.6592,NA,NA,NA,NA,NA,NA,NA,TRUE,1,0.7829,145.3125,148.3097,0,27,27,49,1,40,33,NA,NA,NA,NA,NA,1,28,"likert"
"18CEC8E96DFC47398974230F954424D7",1,"01990ad8-8904-7c10-8422-d3105a47ee90","01990a84-c4ee-73c2-a87b-ff46a7d3dde5","2025-09-02_10h33.39.378",NA,NA,151.6599,151.66,151.66,152.011,NA,NA,NA,NA,NA,NA,NA,TRUE,1,1.1845,148.6602,151.6594,0,28,28,43,1,30,27,NA,NA,NA,NA,NA,1,29,"likert"
"18CEC8E96DFC47398974230F954424D7",1,"01990ad8-8904-7c10-8422-d3105a47ee90","01990a84-c4ee-73c2-a87b-ff46a7d3dde5","2025-09-02_10h33.39.378",NA,NA,155.0102,155.0102,155.0102,155.3599,NA,NA,NA,NA,NA,NA,NA,TRUE,1,1.1772,152.0147,155.0099,0,29,29,73,1,90,30,NA,NA,NA,NA,NA,1,30,"likert"
"18CEC8E96DFC47398974230F954424D7",1,"01990ad8-8904-7c10-8422-d3105a47ee90","01990a84-c4ee-73c2-a87b-ff46a7d3dde5","2025-09-02_10h33.39.378",NA,NA,158.36,158.6093,158.6095,158.7095,NA,NA,NA,NA,NA,NA,NA,FALSE,NA,NA,155.3617,158.3598,0,30,30,62,1,50,35,NA,NA,NA,NA,NA,1,31,"likert"
"18CEC8E96DFC47398974230F954424D7",1,"01990ad8-8904-7c10-8422-d3105a47ee90","01990a84-c4ee-73c2-a87b-ff46a7d3dde5","2025-09-02_10h33.39.378",NA,NA,161.7099,161.7099,161.7099,162.0588,NA,NA,NA,NA,NA,NA,NA,TRUE,1,2.0127,158.7107,161.7097,0,31,31,72,1,90,26,NA,NA,NA,NA,NA,1,32,"likert"
"18CEC8E96DFC47398974230F954424D7",1,"01990ad8-8904-7c10-8422-d3105a47ee90","01990a84-c4ee-73c2-a87b-ff46a7d3dde5","2025-09-02_10h33.39.378",NA,NA,165.0597,165.31,165.3101,165.4098,NA,NA,NA,NA,NA,NA,NA,FALSE,NA,NA,162.0603,165.0594,0,32,32,66,1,60,29,NA,NA,NA,NA,NA,1,33,"likert"
"18CEC8E96DFC47398974230F954424D7",1,"01990ad8-8904-7c10-8422-d3105a47ee90","01990a84-c4ee-73c2-a87b-ff46a7d3dde5","2025-09-02_10h33.39.378",NA,NA,168.4099,168.4101,168.4102,168.7609,NA,NA,NA,NA,NA,NA,NA,TRUE,1,0.7982,165.4122,168.4094,0,33,33,30,1,25,27,NA,NA,NA,NA,NA,1,34,"likert"
"18CEC8E96DFC47398974230F954424D7",1,"01990ad8-8904-7c10-8422-d3105a47ee90","01990a84-c4ee-73c2-a87b-ff46a7d3dde5","2025-09-02_10h33.39.378",NA,NA,171.7589,171.7589,171.7589,172.1118,NA,NA,NA,NA,NA,NA,NA,TRUE,1,0.8354,168.7618,171.7588,0,34,34,87,1,100,39,NA,NA,NA,NA,NA,1,35,"likert"
"18CEC8E96DFC47398974230F954424D7",1,"01990ad8-8904-7c10-8422-d3105a47ee90","01990a84-c4ee-73c2-a87b-ff46a7d3dde5","2025-09-02_10h33.39.378",NA,NA,175.1081,175.1082,175.1082,175.46,NA,NA,NA,NA,NA,NA,NA,TRUE,5,1.7332,172.1139,175.1081,0,35,35,37,1,28,28,NA,NA,NA,NA,NA,1,36,"likert"
"18CEC8E96DFC47398974230F954424D7",1,"01990ad8-8904-7c10-8422-d3105a47ee90","01990a84-c4ee-73c2-a87b-ff46a7d3dde5","2025-09-02_10h33.39.378",NA,NA,178.4602,178.4602,178.4603,178.8089,NA,NA,NA,NA,NA,NA,NA,TRUE,1,1.234,175.4624,178.46,0,36,36,77,1,90,54,NA,NA,NA,NA,NA,1,37,"likert"
"18CEC8E96DFC47398974230F954424D7",1,"01990ad8-8904-7c10-8422-d3105a47ee90","01990a84-c4ee-73c2-a87b-ff46a7d3dde5","2025-09-02_10h33.39.378",NA,NA,181.8081,181.8082,181.8082,182.1591,NA,NA,NA,NA,NA,NA,NA,TRUE,1,0.7524,178.8107,181.8081,0,37,37,98,1,180,35,NA,NA,NA,NA,NA,1,38,"likert"
"18CEC8E96DFC47398974230F954424D7",1,"01990ad8-8904-7c10-8422-d3105a47ee90","01990a84-c4ee-73c2-a87b-ff46a7d3dde5","2025-09-02_10h33.39.378",NA,NA,185.1592,185.1592,185.1592,185.5084,NA,NA,NA,NA,NA,NA,NA,TRUE,5,2.5472,182.161,185.1589,0,38,38,59,1,45,46,NA,NA,NA,NA,NA,1,39,"likert"
"18CEC8E96DFC47398974230F954424D7",1,"01990ad8-8904-7c10-8422-d3105a47ee90","01990a84-c4ee-73c2-a87b-ff46a7d3dde5","2025-09-02_10h33.39.378",NA,NA,188.5095,188.5095,188.5095,188.8577,NA,NA,NA,NA,NA,NA,NA,TRUE,1,1.2485,185.5109,188.5092,0,39,39,84,1,100,26,NA,NA,NA,NA,NA,1,40,"likert"
"18CEC8E96DFC47398974230F954424D7",1,"01990ad8-8904-7c10-8422-d3105a47ee90","01990a84-c4ee-73c2-a87b-ff46a7d3dde5","2025-09-02_10h33.39.378",NA,NA,191.8579,191.8579,191.858,192.2087,NA,NA,NA,NA,NA,NA,NA,TRUE,1,0.5562,188.8591,191.8578,0,40,40,39,1,28,35,NA,NA,NA,NA,NA,1,41,"likert"
"18CEC8E96DFC47398974230F954424D7",1,"01990ad8-8904-7c10-8422-d3105a47ee90","01990a84-c4ee-73c2-a87b-ff46a7d3dde5","2025-09-02_10h33.39.378",NA,NA,195.2087,195.2088,195.2088,195.5581,NA,NA,NA,NA,NA,NA,NA,TRUE,1,0.8021,192.2109,195.2084,0,41,41,78,1,95,31,NA,NA,NA,NA,NA,1,42,"likert"
"18CEC8E96DFC47398974230F954424D7",1,"01990ad8-8904-7c10-8422-d3105a47ee90","01990a84-c4ee-73c2-a87b-ff46a7d3dde5","2025-09-02_10h33.39.378",NA,NA,198.5588,198.5589,198.5589,198.9075,NA,NA,NA,NA,NA,NA,NA,TRUE,1,1.1969,195.5613,198.5586,0,42,42,23,1,14,39,NA,NA,NA,NA,NA,1,43,"likert"
"18CEC8E96DFC47398974230F954424D7",1,"01990ad8-8904-7c10-8422-d3105a47ee90","01990a84-c4ee-73c2-a87b-ff46a7d3dde5","2025-09-02_10h33.39.378",NA,NA,201.9073,201.9074,201.9074,202.2578,NA,NA,NA,NA,NA,NA,NA,TRUE,1,1.636,198.9092,201.9072,0,43,43,45,1,30,30,NA,NA,NA,NA,NA,1,44,"likert"
"18CEC8E96DFC47398974230F954424D7",1,"01990ad8-8904-7c10-8422-d3105a47ee90","01990a84-c4ee-73c2-a87b-ff46a7d3dde5","2025-09-02_10h33.39.378",NA,NA,205.259,205.259,205.259,205.6067,NA,NA,NA,NA,NA,NA,NA,TRUE,1,2.6944,202.2603,205.2586,0,44,44,99,1,180,39,NA,NA,NA,NA,NA,1,45,"likert"
"18CEC8E96DFC47398974230F954424D7",1,"01990ad8-8904-7c10-8422-d3105a47ee90","01990a84-c4ee-73c2-a87b-ff46a7d3dde5","2025-09-02_10h33.39.378",NA,NA,208.6093,208.6093,208.6093,208.9569,NA,NA,NA,NA,NA,NA,NA,TRUE,1,0.1651,205.6076,208.609,0,45,45,0,1,7,25,NA,NA,NA,NA,NA,1,46,"likert"
"18CEC8E96DFC47398974230F954424D7",1,"01990ad8-8904-7c10-8422-d3105a47ee90","01990a84-c4ee-73c2-a87b-ff46a7d3dde5","2025-09-02_10h33.39.378",NA,NA,211.9584,211.9585,211.9585,212.3068,NA,NA,NA,NA,NA,NA,NA,TRUE,1,0.2851,208.9585,211.958,0,46,46,44,1,30,29,NA,NA,NA,NA,NA,1,47,"likert"
"18CEC8E96DFC47398974230F954424D7",1,"01990ad8-8904-7c10-8422-d3105a47ee90","01990a84-c4ee-73c2-a87b-ff46a7d3dde5","2025-09-02_10h33.39.378",NA,NA,215.3072,215.3072,215.3073,215.6574,NA,NA,NA,NA,NA,NA,NA,TRUE,1,0.3756,212.3089,215.307,0,47,47,92,1,150,35,NA,NA,NA,NA,NA,1,48,"likert"
"18CEC8E96DFC47398974230F954424D7",1,"01990ad8-8904-7c10-8422-d3105a47ee90","01990a84-c4ee-73c2-a87b-ff46a7d3dde5","2025-09-02_10h33.39.378",NA,NA,218.6569,218.6569,218.6569,219.0063,NA,NA,NA,NA,NA,NA,NA,TRUE,5,0.9023,215.6598,218.6567,0,48,48,4,1,7,32,NA,NA,NA,NA,NA,1,49,"likert"
"18CEC8E96DFC47398974230F954424D7",1,"01990ad8-8904-7c10-8422-d3105a47ee90","01990a84-c4ee-73c2-a87b-ff46a7d3dde5","2025-09-02_10h33.39.378",NA,NA,222.0063,222.0063,222.0063,222.357,NA,NA,NA,NA,NA,NA,NA,TRUE,5,1.0012,219.0076,222.0062,0,49,49,17,1,12,35,NA,NA,NA,NA,NA,1,50,"likert"
"18CEC8E96DFC47398974230F954424D7",1,"01990ad8-8904-7c10-8422-d3105a47ee90","01990a84-c4ee-73c2-a87b-ff46a7d3dde5","2025-09-02_10h33.39.378",NA,NA,225.3578,225.3578,225.3578,225.7067,NA,NA,NA,NA,NA,NA,NA,TRUE,1,1.3161,222.3597,225.3576,0,50,50,18,1,14,25,NA,NA,NA,NA,NA,1,51,"likert"
"18CEC8E96DFC47398974230F954424D7",1,"01990ad8-8904-7c10-8422-d3105a47ee90","01990a84-c4ee-73c2-a87b-ff46a7d3dde5","2025-09-02_10h33.39.378",NA,NA,228.7073,228.7073,228.7073,229.0559,NA,NA,NA,NA,NA,NA,NA,TRUE,1,1.0164,225.7087,228.7069,0,51,51,11,1,10,32,NA,NA,NA,NA,NA,1,52,"likert"
"18CEC8E96DFC47398974230F954424D7",1,"01990ad8-8904-7c10-8422-d3105a47ee90","01990a84-c4ee-73c2-a87b-ff46a7d3dde5","2025-09-02_10h33.39.378",NA,NA,232.0563,232.0563,232.0563,232.4072,NA,NA,NA,NA,NA,NA,NA,TRUE,1,1.267,229.0575,232.0561,0,52,52,40,1,28,39,NA,NA,NA,NA,NA,1,53,"likert"
"18CEC8E96DFC47398974230F954424D7",1,"01990ad8-8904-7c10-8422-d3105a47ee90","01990a84-c4ee-73c2-a87b-ff46a7d3dde5","2025-09-02_10h33.39.378",NA,NA,235.4055,235.4055,235.4056,235.7563,NA,NA,NA,NA,NA,NA,NA,TRUE,1,1.1649,232.4089,235.4054,0,53,53,69,1,60,40,NA,NA,NA,NA,NA,1,54,"likert"
"18CEC8E96DFC47398974230F954424D7",1,"01990ad8-8904-7c10-8422-d3105a47ee90","01990a84-c4ee-73c2-a87b-ff46a7d3dde5","2025-09-02_10h33.39.378",NA,NA,238.757,238.757,238.7571,239.1061,NA,NA,NA,NA,NA,NA,NA,TRUE,1,1.3968,235.7586,238.7567,0,54,54,97,1,180,31,NA,NA,NA,NA,NA,1,55,"likert"
"18CEC8E96DFC47398974230F954424D7",1,"01990ad8-8904-7c10-8422-d3105a47ee90","01990a84-c4ee-73c2-a87b-ff46a7d3dde5","2025-09-02_10h33.39.378",NA,NA,242.1054,242.1055,242.1055,242.4576,NA,NA,NA,NA,NA,NA,NA,TRUE,1,1.3512,239.1082,242.1054,0,55,55,33,1,25,33,NA,NA,NA,NA,NA,1,56,"likert"
"18CEC8E96DFC47398974230F954424D7",1,"01990ad8-8904-7c10-8422-d3105a47ee90","01990a84-c4ee-73c2-a87b-ff46a7d3dde5","2025-09-02_10h33.39.378",NA,NA,245.4553,245.4553,245.4553,245.8062,NA,NA,NA,NA,NA,NA,NA,TRUE,1,0.516,242.4595,245.4551,0,56,56,7,1,10,26,NA,NA,NA,NA,NA,1,57,"likert"
"18CEC8E96DFC47398974230F954424D7",1,"01990ad8-8904-7c10-8422-d3105a47ee90","01990a84-c4ee-73c2-a87b-ff46a7d3dde5","2025-09-02_10h33.39.378",NA,NA,248.8062,248.8063,248.8063,249.1549,NA,NA,NA,NA,NA,NA,NA,TRUE,1,0.5839,245.8081,248.8059,0,57,57,103,1,200,28,NA,NA,NA,NA,NA,1,58,"likert"
"18CEC8E96DFC47398974230F954424D7",1,"01990ad8-8904-7c10-8422-d3105a47ee90","01990a84-c4ee-73c2-a87b-ff46a7d3dde5","2025-09-02_10h33.39.378",NA,NA,252.1553,252.1553,252.1553,252.5065,NA,NA,NA,NA,NA,NA,NA,TRUE,1,0.7324,249.1561,252.155,0,58,58,8,1,10,27,NA,NA,NA,NA,NA,1,59,"likert"
"18CEC8E96DFC47398974230F954424D7",1,"01990ad8-8904-7c10-8422-d3105a47ee90","01990a84-c4ee-73c2-a87b-ff46a7d3dde5","2025-09-02_10h33.39.378",NA,NA,255.5062,255.5062,255.5062,255.8552,NA,NA,NA,NA,NA,NA,NA,TRUE,5,2.1464,252.5087,255.506,0,59,59,9,1,10,29,NA,NA,NA,NA,NA,1,60,"likert"
"18CEC8E96DFC47398974230F954424D7",1,"01990ad8-8904-7c10-8422-d3105a47ee90","01990a84-c4ee-73c2-a87b-ff46a7d3dde5","2025-09-02_10h33.39.378",NA,NA,258.8547,258.8547,258.8548,259.2051,NA,NA,NA,NA,NA,NA,NA,TRUE,1,2.1175,255.8573,258.8546,0,60,60,100,1,180,46,NA,NA,NA,NA,NA,1,61,"likert"
"18CEC8E96DFC47398974230F954424D7",1,"01990ad8-8904-7c10-8422-d3105a47ee90","01990a84-c4ee-73c2-a87b-ff46a7d3dde5","2025-09-02_10h33.39.378",NA,NA,262.2055,262.2056,262.2057,262.5547,NA,NA,NA,NA,NA,NA,NA,TRUE,1,2.3411,259.2067,262.2053,0,61,61,101,1,180,54,NA,NA,NA,NA,NA,1,62,"likert"
"18CEC8E96DFC47398974230F954424D7",1,"01990ad8-8904-7c10-8422-d3105a47ee90","01990a84-c4ee-73c2-a87b-ff46a7d3dde5","2025-09-02_10h33.39.378",NA,NA,265.5553,265.5554,265.5554,265.9049,NA,NA,NA,NA,NA,NA,NA,TRUE,1,0.67,262.5568,265.555,0,62,62,94,1,150,47,NA,NA,NA,NA,NA,1,63,"likert"
"18CEC8E96DFC47398974230F954424D7",1,"01990ad8-8904-7c10-8422-d3105a47ee90","01990a84-c4ee-73c2-a87b-ff46a7d3dde5","2025-09-02_10h33.39.378",NA,NA,268.9047,268.9048,268.9048,269.2553,NA,NA,NA,NA,NA,NA,NA,TRUE,1,0.4974,265.9068,268.9046,0,63,63,96,1,180,27,NA,NA,NA,NA,NA,1,64,"likert"
"18CEC8E96DFC47398974230F954424D7",1,"01990ad8-8904-7c10-8422-d3105a47ee90","01990a84-c4ee-73c2-a87b-ff46a7d3dde5","2025-09-02_10h33.39.378",NA,NA,272.2555,272.2556,272.2556,272.6049,NA,NA,NA,NA,NA,NA,NA,TRUE,1,0.2131,269.2575,272.255,0,64,64,46,1,30,32,NA,NA,NA,NA,NA,1,65,"likert"
"18CEC8E96DFC47398974230F954424D7",1,"01990ad8-8904-7c10-8422-d3105a47ee90","01990a84-c4ee-73c2-a87b-ff46a7d3dde5","2025-09-02_10h33.39.378",NA,NA,275.6046,275.6049,275.6051,275.9542,NA,NA,NA,NA,NA,NA,NA,TRUE,1,0.1479,272.6081,275.6043,0,65,65,24,1,21,26,NA,NA,NA,NA,NA,1,66,"likert"
"18CEC8E96DFC47398974230F954424D7",1,"01990ad8-8904-7c10-8422-d3105a47ee90","01990a84-c4ee-73c2-a87b-ff46a7d3dde5","2025-09-02_10h33.39.378",NA,NA,278.9553,278.9557,278.9557,279.3042,NA,NA,NA,NA,NA,NA,NA,TRUE,1,0.9331,275.9563,278.9552,0,66,66,57,1,45,35,NA,NA,NA,NA,NA,1,67,"likert"
"18CEC8E96DFC47398974230F954424D7",1,"01990ad8-8904-7c10-8422-d3105a47ee90","01990a84-c4ee-73c2-a87b-ff46a7d3dde5","2025-09-02_10h33.39.378",NA,NA,282.3066,282.3068,282.307,282.6543,NA,NA,NA,NA,NA,NA,NA,TRUE,5,0.9417,279.3061,282.3063,0,67,67,86,1,100,38,NA,NA,NA,NA,NA,1,68,"likert"
"18CEC8E96DFC47398974230F954424D7",1,"01990ad8-8904-7c10-8422-d3105a47ee90","01990a84-c4ee-73c2-a87b-ff46a7d3dde5","2025-09-02_10h33.39.378",NA,NA,285.6544,285.6545,285.6545,286.0039,NA,NA,NA,NA,NA,NA,NA,TRUE,5,0.7121,282.6565,285.654,0,68,68,34,1,25,35,NA,NA,NA,NA,NA,1,69,"likert"
"18CEC8E96DFC47398974230F954424D7",1,"01990ad8-8904-7c10-8422-d3105a47ee90","01990a84-c4ee-73c2-a87b-ff46a7d3dde5","2025-09-02_10h33.39.378",NA,NA,289.0029,289.0029,289.0029,289.3694,NA,NA,NA,NA,NA,NA,NA,TRUE,5,0.7471,286.0059,289.0027,0,69,69,5,1,7,35,NA,NA,NA,NA,NA,1,70,"likert"
"18CEC8E96DFC47398974230F954424D7",1,"01990ad8-8904-7c10-8422-d3105a47ee90","01990a84-c4ee-73c2-a87b-ff46a7d3dde5","2025-09-02_10h33.39.378",NA,NA,292.3539,292.3539,292.3539,292.7039,NA,NA,NA,NA,NA,NA,NA,TRUE,5,1.2529,289.3711,292.3536,0,70,70,10,1,10,30,NA,NA,NA,NA,NA,1,71,"likert"
"18CEC8E96DFC47398974230F954424D7",1,"01990ad8-8904-7c10-8422-d3105a47ee90","01990a84-c4ee-73c2-a87b-ff46a7d3dde5","2025-09-02_10h33.39.378",NA,NA,295.7039,295.7039,295.704,296.0535,NA,NA,NA,NA,NA,NA,NA,TRUE,1,0.8472,292.7065,295.7035,0,71,71,88,1,100,46,NA,NA,NA,NA,NA,1,72,"likert"
"18CEC8E96DFC47398974230F954424D7",1,"01990ad8-8904-7c10-8422-d3105a47ee90","01990a84-c4ee-73c2-a87b-ff46a7d3dde5","2025-09-02_10h33.39.378",NA,NA,299.0543,299.0543,299.0544,299.4031,NA,NA,NA,NA,NA,NA,NA,TRUE,1,1.0819,296.0557,299.0539,0,72,72,12,1,12,25,NA,NA,NA,NA,NA,1,73,"likert"
"18CEC8E96DFC47398974230F954424D7",1,"01990ad8-8904-7c10-8422-d3105a47ee90","01990a84-c4ee-73c2-a87b-ff46a7d3dde5","2025-09-02_10h33.39.378",NA,NA,302.4189,302.4189,302.419,302.7531,NA,NA,NA,NA,NA,NA,NA,TRUE,1,2.3786,299.4049,302.4188,0,73,73,21,1,14,32,NA,NA,NA,NA,NA,1,74,"likert"
"18CEC8E96DFC47398974230F954424D7",1,"01990ad8-8904-7c10-8422-d3105a47ee90","01990a84-c4ee-73c2-a87b-ff46a7d3dde5","2025-09-02_10h33.39.378",NA,NA,305.7701,305.7703,305.7703,306.1035,NA,NA,NA,NA,NA,NA,NA,TRUE,1,1.0981,302.7555,305.7698,0,74,74,89,1,100,54,NA,NA,NA,NA,NA,1,75,"likert"
"18CEC8E96DFC47398974230F954424D7",1,"01990ad8-8904-7c10-8422-d3105a47ee90","01990a84-c4ee-73c2-a87b-ff46a7d3dde5","2025-09-02_10h33.39.378",NA,NA,309.1038,309.1038,309.1039,309.4693,NA,NA,NA,NA,NA,NA,NA,TRUE,1,0.9589,306.1061,309.1035,0,75,75,81,1,95,40,NA,NA,NA,NA,NA,1,76,"likert"
"18CEC8E96DFC47398974230F954424D7",1,"01990ad8-8904-7c10-8422-d3105a47ee90","01990a84-c4ee-73c2-a87b-ff46a7d3dde5","2025-09-02_10h33.39.378",NA,NA,312.4687,312.4688,312.4688,312.8192,NA,NA,NA,NA,NA,NA,NA,TRUE,1,1.639,309.4711,312.4686,0,76,76,64,1,50,46,NA,NA,NA,NA,NA,1,77,"likert"
"18CEC8E96DFC47398974230F954424D7",1,"01990ad8-8904-7c10-8422-d3105a47ee90","01990a84-c4ee-73c2-a87b-ff46a7d3dde5","2025-09-02_10h33.39.378",NA,NA,315.8198,315.82,315.82,316.1694,NA,NA,NA,NA,NA,NA,NA,TRUE,1,0.8596,312.8209,315.8195,0,77,77,90,1,150,31,NA,NA,NA,NA,NA,1,78,"likert"
"18CEC8E96DFC47398974230F954424D7",1,"01990ad8-8904-7c10-8422-d3105a47ee90","01990a84-c4ee-73c2-a87b-ff46a7d3dde5","2025-09-02_10h33.39.378",NA,NA,319.1693,319.1693,319.1694,319.518,NA,NA,NA,NA,NA,NA,NA,TRUE,1,1.0292,316.1713,319.169,0,78,78,54,1,45,26,NA,NA,NA,NA,NA,1,79,"likert"
"18CEC8E96DFC47398974230F954424D7",1,"01990ad8-8904-7c10-8422-d3105a47ee90","01990a84-c4ee-73c2-a87b-ff46a7d3dde5","2025-09-02_10h33.39.378",NA,NA,322.518,322.518,322.518,322.8687,NA,NA,NA,NA,NA,NA,NA,TRUE,1,0.7645,319.5193,322.5178,0,79,79,26,1,21,29,NA,NA,NA,NA,NA,1,80,"likert"
"18CEC8E96DFC47398974230F954424D7",1,"01990ad8-8904-7c10-8422-d3105a47ee90","01990a84-c4ee-73c2-a87b-ff46a7d3dde5","2025-09-02_10h33.39.378",NA,NA,325.8689,325.8689,325.8689,326.2186,NA,NA,NA,NA,NA,NA,NA,TRUE,5,0.777,322.8708,325.8686,0,80,80,3,1,7,30,NA,NA,NA,NA,NA,1,81,"likert"
"18CEC8E96DFC47398974230F954424D7",1,"01990ad8-8904-7c10-8422-d3105a47ee90","01990a84-c4ee-73c2-a87b-ff46a7d3dde5","2025-09-02_10h33.39.378",NA,NA,329.2191,329.2192,329.2192,329.5689,NA,NA,NA,NA,NA,NA,NA,TRUE,1,0.83,326.2207,329.2189,0,81,81,13,1,12,26,NA,NA,NA,NA,NA,1,82,"likert"
"18CEC8E96DFC47398974230F954424D7",1,"01990ad8-8904-7c10-8422-d3105a47ee90","01990a84-c4ee-73c2-a87b-ff46a7d3dde5","2025-09-02_10h33.39.378",NA,NA,332.5687,332.5688,332.5688,332.9199,NA,NA,NA,NA,NA,NA,NA,TRUE,1,0.6457,329.5708,332.5684,0,82,82,76,1,90,46,NA,NA,NA,NA,NA,1,83,"likert"
"18CEC8E96DFC47398974230F954424D7",1,"01990ad8-8904-7c10-8422-d3105a47ee90","01990a84-c4ee-73c2-a87b-ff46a7d3dde5","2025-09-02_10h33.39.378",NA,NA,335.9191,335.9192,335.9192,336.2677,NA,NA,NA,NA,NA,NA,NA,TRUE,5,1.4332,332.922,335.9187,0,83,83,28,1,21,32,NA,NA,NA,NA,NA,1,84,"likert"
"18CEC8E96DFC47398974230F954424D7",1,"01990ad8-8904-7c10-8422-d3105a47ee90","01990a84-c4ee-73c2-a87b-ff46a7d3dde5","2025-09-02_10h33.39.378",NA,NA,339.2681,339.2683,339.2684,339.6183,NA,NA,NA,NA,NA,NA,NA,TRUE,1,0.6567,336.2699,339.268,0,84,84,106,1,200,47,NA,NA,NA,NA,NA,1,85,"likert"
"18CEC8E96DFC47398974230F954424D7",1,"01990ad8-8904-7c10-8422-d3105a47ee90","01990a84-c4ee-73c2-a87b-ff46a7d3dde5","2025-09-02_10h33.39.378",NA,NA,342.6182,342.6182,342.6183,342.9681,NA,NA,NA,NA,NA,NA,NA,TRUE,1,1.1147,339.6203,342.6179,0,85,85,79,1,95,33,NA,NA,NA,NA,NA,1,86,"likert"
"18CEC8E96DFC47398974230F954424D7",1,"01990ad8-8904-7c10-8422-d3105a47ee90","01990a84-c4ee-73c2-a87b-ff46a7d3dde5","2025-09-02_10h33.39.378",NA,NA,345.9676,345.9676,345.9676,346.317,NA,NA,NA,NA,NA,NA,NA,TRUE,1,0.7777,342.9699,345.9673,0,86,86,74,1,90,33,NA,NA,NA,NA,NA,1,87,"likert"
"18CEC8E96DFC47398974230F954424D7",1,"01990ad8-8904-7c10-8422-d3105a47ee90","01990a84-c4ee-73c2-a87b-ff46a7d3dde5","2025-09-02_10h33.39.378",NA,NA,349.3178,349.318,349.318,349.6669,NA,NA,NA,NA,NA,NA,NA,TRUE,1,1.1825,346.3189,349.3175,0,87,87,85,1,100,31,NA,NA,NA,NA,NA,1,88,"likert"
"18CEC8E96DFC47398974230F954424D7",1,"01990ad8-8904-7c10-8422-d3105a47ee90","01990a84-c4ee-73c2-a87b-ff46a7d3dde5","2025-09-02_10h33.39.378",NA,NA,352.6677,352.6678,352.6679,353.0173,NA,NA,NA,NA,NA,NA,NA,TRUE,1,1.119,349.6687,352.6675,0,88,88,80,1,95,35,NA,NA,NA,NA,NA,1,89,"likert"
"18CEC8E96DFC47398974230F954424D7",1,"01990ad8-8904-7c10-8422-d3105a47ee90","01990a84-c4ee-73c2-a87b-ff46a7d3dde5","2025-09-02_10h33.39.378",NA,NA,356.0177,356.0179,356.018,356.3663,NA,NA,NA,NA,NA,NA,NA,TRUE,1,1.3279,353.02,356.0172,0,89,89,61,1,50,30,NA,NA,NA,NA,NA,1,90,"likert"
"18CEC8E96DFC47398974230F954424D7",1,"01990ad8-8904-7c10-8422-d3105a47ee90","01990a84-c4ee-73c2-a87b-ff46a7d3dde5","2025-09-02_10h33.39.378",NA,NA,359.3663,359.3664,359.3664,359.7161,NA,NA,NA,NA,NA,NA,NA,TRUE,1,0.6993,356.368,359.3661,0,90,90,41,1,28,46,NA,NA,NA,NA,NA,1,91,"likert"
"18CEC8E96DFC47398974230F954424D7",1,"01990ad8-8904-7c10-8422-d3105a47ee90","01990a84-c4ee-73c2-a87b-ff46a7d3dde5","2025-09-02_10h33.39.378",NA,NA,362.7175,362.7175,362.7176,363.0678,NA,NA,NA,NA,NA,NA,NA,TRUE,1,0.7862,359.7175,362.7172,0,91,91,50,1,40,35,NA,NA,NA,NA,NA,1,92,"likert"
"18CEC8E96DFC47398974230F954424D7",1,"01990ad8-8904-7c10-8422-d3105a47ee90","01990a84-c4ee-73c2-a87b-ff46a7d3dde5","2025-09-02_10h33.39.378",NA,NA,366.0671,366.0672,366.0672,366.4167,NA,NA,NA,NA,NA,NA,NA,TRUE,1,1.4318,363.0704,366.0668,0,92,92,29,1,21,38,NA,NA,NA,NA,NA,1,93,"likert"
"18CEC8E96DFC47398974230F954424D7",1,"01990ad8-8904-7c10-8422-d3105a47ee90","01990a84-c4ee-73c2-a87b-ff46a7d3dde5","2025-09-02_10h33.39.378",NA,NA,369.4168,369.4169,369.4169,369.7663,NA,NA,NA,NA,NA,NA,NA,TRUE,1,1.5934,366.4193,369.4165,0,93,93,48,1,40,27,NA,NA,NA,NA,NA,1,94,"likert"
"18CEC8E96DFC47398974230F954424D7",1,"01990ad8-8904-7c10-8422-d3105a47ee90","01990a84-c4ee-73c2-a87b-ff46a7d3dde5","2025-09-02_10h33.39.378",NA,NA,372.7669,373.0158,373.016,373.1153,NA,NA,NA,NA,NA,NA,NA,FALSE,NA,NA,369.7677,372.7664,0,94,94,82,1,95,47,NA,NA,NA,NA,NA,1,95,"likert"
"18CEC8E96DFC47398974230F954424D7",1,"01990ad8-8904-7c10-8422-d3105a47ee90","01990a84-c4ee-73c2-a87b-ff46a7d3dde5","2025-09-02_10h33.39.378",NA,NA,376.1173,376.1173,376.1174,376.4666,NA,NA,NA,NA,NA,NA,NA,TRUE,1,0.5482,373.1165,376.1171,0,95,95,2,1,7,28,NA,NA,NA,NA,NA,1,96,"likert"
"18CEC8E96DFC47398974230F954424D7",1,"01990ad8-8904-7c10-8422-d3105a47ee90","01990a84-c4ee-73c2-a87b-ff46a7d3dde5","2025-09-02_10h33.39.378",NA,NA,379.4668,379.4669,379.4669,379.816,NA,NA,NA,NA,NA,NA,NA,TRUE,1,0.5176,376.4689,379.4665,0,96,96,65,1,50,54,NA,NA,NA,NA,NA,1,97,"likert"
"18CEC8E96DFC47398974230F954424D7",1,"01990ad8-8904-7c10-8422-d3105a47ee90","01990a84-c4ee-73c2-a87b-ff46a7d3dde5","2025-09-02_10h33.39.378",NA,NA,382.8164,382.8166,382.8167,383.1656,NA,NA,NA,NA,NA,NA,NA,TRUE,1,0.6965,379.8177,382.8162,0,97,97,68,1,60,35,NA,NA,NA,NA,NA,1,98,"likert"
"18CEC8E96DFC47398974230F954424D7",1,"01990ad8-8904-7c10-8422-d3105a47ee90","01990a84-c4ee-73c2-a87b-ff46a7d3dde5","2025-09-02_10h33.39.378",NA,NA,386.1657,386.1658,386.1659,386.5149,NA,NA,NA,NA,NA,NA,NA,TRUE,1,0.8313,383.1677,386.1655,0,98,98,71,1,60,54,NA,NA,NA,NA,NA,1,99,"likert"
"18CEC8E96DFC47398974230F954424D7",1,"01990ad8-8904-7c10-8422-d3105a47ee90","01990a84-c4ee-73c2-a87b-ff46a7d3dde5","2025-09-02_10h33.39.378",NA,NA,389.5161,389.5162,389.5162,389.8643,NA,NA,NA,NA,NA,NA,NA,TRUE,1,0.785,386.5161,389.5158,0,99,99,51,1,40,40,NA,NA,NA,NA,NA,1,100,"likert"
"18CEC8E96DFC47398974230F954424D7",1,"01990ad8-8904-7c10-8422-d3105a47ee90","01990a84-c4ee-73c2-a87b-ff46a7d3dde5","2025-09-02_10h33.39.378",NA,NA,392.8662,392.8662,392.8662,393.2151,NA,NA,NA,NA,NA,NA,NA,TRUE,1,0.3744,389.8651,392.866,0,100,100,83,1,95,54,NA,NA,NA,NA,NA,1,101,"likert"
"18CEC8E96DFC47398974230F954424D7",1,"01990ad8-8904-7c10-8422-d3105a47ee90","01990a84-c4ee-73c2-a87b-ff46a7d3dde5","2025-09-02_10h33.39.378",NA,NA,396.2158,396.2161,396.2162,396.5657,NA,NA,NA,NA,NA,NA,NA,TRUE,1,0.1712,393.2172,396.2156,0,101,101,93,1,150,40,NA,NA,NA,NA,NA,1,102,"likert"
"18CEC8E96DFC47398974230F954424D7",1,"01990ad8-8904-7c10-8422-d3105a47ee90","01990a84-c4ee-73c2-a87b-ff46a7d3dde5","2025-09-02_10h33.39.378",NA,NA,399.5658,399.5658,399.5659,399.9156,NA,NA,NA,NA,NA,NA,NA,TRUE,1,0.3938,396.5675,399.5655,0,102,102,60,1,50,27,NA,NA,NA,NA,NA,1,103,"likert"
"18CEC8E96DFC47398974230F954424D7",1,"01990ad8-8904-7c10-8422-d3105a47ee90","01990a84-c4ee-73c2-a87b-ff46a7d3dde5","2025-09-02_10h33.39.378",NA,NA,402.9153,402.9153,402.9154,403.2654,NA,NA,NA,NA,NA,NA,NA,TRUE,1,0.6984,399.918,402.9151,0,103,103,58,1,45,40,NA,NA,NA,NA,NA,1,104,"likert"
"18CEC8E96DFC47398974230F954424D7",1,"01990ad8-8904-7c10-8422-d3105a47ee90","01990a84-c4ee-73c2-a87b-ff46a7d3dde5","2025-09-02_10h33.39.378",NA,NA,406.2654,406.2654,406.2655,406.6141,NA,NA,NA,NA,NA,NA,NA,TRUE,1,1.0137,403.2674,406.265,0,104,104,32,1,25,31,NA,NA,NA,NA,NA,1,105,"likert"
"18CEC8E96DFC47398974230F954424D7",1,"01990ad8-8904-7c10-8422-d3105a47ee90","01990a84-c4ee-73c2-a87b-ff46a7d3dde5","2025-09-02_10h33.39.378",NA,NA,409.6152,409.6153,409.6154,409.9649,NA,NA,NA,NA,NA,NA,NA,TRUE,1,0.4959,406.6157,409.6151,0,105,105,70,1,60,47,NA,NA,NA,NA,NA,1,106,"likert"
"18CEC8E96DFC47398974230F954424D7",1,"01990ad8-8904-7c10-8422-d3105a47ee90","01990a84-c4ee-73c2-a87b-ff46a7d3dde5","2025-09-02_10h33.39.378",NA,NA,412.9646,412.9647,412.9647,413.3145,NA,NA,NA,NA,NA,NA,NA,TRUE,1,0.71,409.9672,412.9644,0,106,106,104,1,200,35,NA,NA,NA,NA,NA,1,107,"likert"
"18CEC8E96DFC47398974230F954424D7",1,"01990ad8-8904-7c10-8422-d3105a47ee90","01990a84-c4ee-73c2-a87b-ff46a7d3dde5","2025-09-02_10h33.39.378",NA,NA,416.3156,416.3159,416.3159,416.6647,NA,NA,NA,NA,NA,NA,NA,TRUE,1,0.4981,413.3161,416.3151,0,107,107,38,1,28,32,NA,NA,NA,NA,NA,1,108,"likert"
"18CEC8E96DFC47398974230F954424D7",1,"01990ad8-8904-7c10-8422-d3105a47ee90","01990a84-c4ee-73c2-a87b-ff46a7d3dde5","2025-09-02_10h33.39.378",NA,NA,422.2315,422.2317,422.2318,422.5807,NA,NA,NA,NA,NA,NA,NA,TRUE,5,2.1657,419.2467,422.2313,NA,NA,NA,NA,NA,40,47,0,0,0,52,1,2,1,"likert"
"18CEC8E96DFC47398974230F954424D7",1,"01990ad8-8904-7c10-8422-d3105a47ee90","01990a84-c4ee-73c2-a87b-ff46a7d3dde5","2025-09-02_10h33.39.378",NA,NA,425.5811,425.5812,425.5812,425.9294,NA,NA,NA,NA,NA,NA,NA,TRUE,1,0.8808,422.5829,425.581,NA,NA,NA,NA,NA,21,27,0,1,1,25,1,2,2,"likert"
"18CEC8E96DFC47398974230F954424D7",1,"01990ad8-8904-7c10-8422-d3105a47ee90","01990a84-c4ee-73c2-a87b-ff46a7d3dde5","2025-09-02_10h33.39.378",NA,NA,428.9303,428.9303,428.9304,429.2798,NA,NA,NA,NA,NA,NA,NA,TRUE,1,0.6699,425.9307,428.9298,NA,NA,NA,NA,NA,21,26,0,2,2,24,1,2,3,"likert"
"18CEC8E96DFC47398974230F954424D7",1,"01990ad8-8904-7c10-8422-d3105a47ee90","01990a84-c4ee-73c2-a87b-ff46a7d3dde5","2025-09-02_10h33.39.378",NA,NA,432.2815,432.2817,432.2817,432.63,NA,NA,NA,NA,NA,NA,NA,TRUE,1,0.6649,429.2819,432.2813,NA,NA,NA,NA,NA,100,39,0,3,3,87,1,2,4,"likert"
"18CEC8E96DFC47398974230F954424D7",1,"01990ad8-8904-7c10-8422-d3105a47ee90","01990a84-c4ee-73c2-a87b-ff46a7d3dde5","2025-09-02_10h33.39.378",NA,NA,435.6318,435.6319,435.6319,435.9789,NA,NA,NA,NA,NA,NA,NA,TRUE,5,0.8382,432.6325,435.6315,NA,NA,NA,NA,NA,40,40,0,4,4,51,1,2,5,"likert"
"18CEC8E96DFC47398974230F954424D7",1,"01990ad8-8904-7c10-8422-d3105a47ee90","01990a84-c4ee-73c2-a87b-ff46a7d3dde5","2025-09-02_10h33.39.378",NA,NA,438.979,438.979,438.979,439.3296,NA,NA,NA,NA,NA,NA,NA,TRUE,5,1.1193,435.9806,438.9789,NA,NA,NA,NA,NA,25,31,0,5,5,32,1,2,6,"likert"
"18CEC8E96DFC47398974230F954424D7",1,"01990ad8-8904-7c10-8422-d3105a47ee90","01990a84-c4ee-73c2-a87b-ff46a7d3dde5","2025-09-02_10h33.39.378",NA,NA,442.3299,442.33,442.33,442.68,NA,NA,NA,NA,NA,NA,NA,TRUE,5,1.1124,439.3318,442.3297,NA,NA,NA,NA,NA,28,28,0,6,6,37,1,2,7,"likert"
"18CEC8E96DFC47398974230F954424D7",1,"01990ad8-8904-7c10-8422-d3105a47ee90","01990a84-c4ee-73c2-a87b-ff46a7d3dde5","2025-09-02_10h33.39.378",NA,NA,445.6808,445.6808,445.6809,446.0293,NA,NA,NA,NA,NA,NA,NA,TRUE,1,0.9142,442.6827,445.6804,NA,NA,NA,NA,NA,28,39,0,7,7,40,1,2,8,"likert"
"18CEC8E96DFC47398974230F954424D7",1,"01990ad8-8904-7c10-8422-d3105a47ee90","01990a84-c4ee-73c2-a87b-ff46a7d3dde5","2025-09-02_10h33.39.378",NA,NA,449.0291,449.0291,449.0291,449.3785,NA,NA,NA,NA,NA,NA,NA,TRUE,1,0.6437,446.0313,449.0288,NA,NA,NA,NA,NA,180,39,0,8,8,99,1,2,9,"likert"
"18CEC8E96DFC47398974230F954424D7",1,"01990ad8-8904-7c10-8422-d3105a47ee90","01990a84-c4ee-73c2-a87b-ff46a7d3dde5","2025-09-02_10h33.39.378",NA,NA,452.3785,452.3785,452.3785,452.7292,NA,NA,NA,NA,NA,NA,NA,TRUE,5,0.5653,449.3796,452.3783,NA,NA,NA,NA,NA,10,32,0,9,9,11,1,2,10,"likert"
"18CEC8E96DFC47398974230F954424D7",1,"01990ad8-8904-7c10-8422-d3105a47ee90","01990a84-c4ee-73c2-a87b-ff46a7d3dde5","2025-09-02_10h33.39.378",NA,NA,455.7294,455.7295,455.7295,456.0783,NA,NA,NA,NA,NA,NA,NA,TRUE,5,0.7289,452.7316,455.7292,NA,NA,NA,NA,NA,7,32,0,10,10,4,1,2,11,"likert"
"18CEC8E96DFC47398974230F954424D7",1,"01990ad8-8904-7c10-8422-d3105a47ee90","01990a84-c4ee-73c2-a87b-ff46a7d3dde5","2025-09-02_10h33.39.378",NA,NA,459.0783,459.0784,459.0784,459.429,NA,NA,NA,NA,NA,NA,NA,TRUE,5,0.8137,456.0811,459.0782,NA,NA,NA,NA,NA,25,29,0,11,11,31,1,2,12,"likert"
"18CEC8E96DFC47398974230F954424D7",1,"01990ad8-8904-7c10-8422-d3105a47ee90","01990a84-c4ee-73c2-a87b-ff46a7d3dde5","2025-09-02_10h33.39.378",NA,NA,462.4284,462.4284,462.4284,462.7784,NA,NA,NA,NA,NA,NA,NA,TRUE,5,0.4985,459.4309,462.4283,NA,NA,NA,NA,NA,21,30,0,12,12,27,1,2,13,"likert"
"18CEC8E96DFC47398974230F954424D7",1,"01990ad8-8904-7c10-8422-d3105a47ee90","01990a84-c4ee-73c2-a87b-ff46a7d3dde5","2025-09-02_10h33.39.378",NA,NA,465.7782,465.7782,465.7783,466.1283,NA,NA,NA,NA,NA,NA,NA,TRUE,5,0.8249,462.7805,465.778,NA,NA,NA,NA,NA,28,32,0,13,13,38,1,2,14,"likert"
"18CEC8E96DFC47398974230F954424D7",1,"01990ad8-8904-7c10-8422-d3105a47ee90","01990a84-c4ee-73c2-a87b-ff46a7d3dde5","2025-09-02_10h33.39.378",NA,NA,469.1277,469.1278,469.1278,469.4786,NA,NA,NA,NA,NA,NA,NA,TRUE,5,0.6991,466.13,469.1277,NA,NA,NA,NA,NA,28,46,0,14,14,41,1,2,15,"likert"
"18CEC8E96DFC47398974230F954424D7",1,"01990ad8-8904-7c10-8422-d3105a47ee90","01990a84-c4ee-73c2-a87b-ff46a7d3dde5","2025-09-02_10h33.39.378",NA,NA,472.4785,472.4785,472.4785,472.8278,NA,NA,NA,NA,NA,NA,NA,TRUE,1,0.7133,469.4809,472.4783,NA,NA,NA,NA,NA,95,33,0,15,15,79,1,2,16,"likert"
"18CEC8E96DFC47398974230F954424D7",1,"01990ad8-8904-7c10-8422-d3105a47ee90","01990a84-c4ee-73c2-a87b-ff46a7d3dde5","2025-09-02_10h33.39.378",NA,NA,475.8284,475.8285,475.8285,476.1773,NA,NA,NA,NA,NA,NA,NA,TRUE,1,1.064,472.8299,475.8281,NA,NA,NA,NA,NA,45,26,0,16,16,54,1,2,17,"likert"
"18CEC8E96DFC47398974230F954424D7",1,"01990ad8-8904-7c10-8422-d3105a47ee90","01990a84-c4ee-73c2-a87b-ff46a7d3dde5","2025-09-02_10h33.39.378",NA,NA,479.1776,479.1776,479.1777,479.5275,NA,NA,NA,NA,NA,NA,NA,TRUE,1,0.9419,476.1791,479.1774,NA,NA,NA,NA,NA,60,40,0,17,17,69,1,2,18,"likert"
"18CEC8E96DFC47398974230F954424D7",1,"01990ad8-8904-7c10-8422-d3105a47ee90","01990a84-c4ee-73c2-a87b-ff46a7d3dde5","2025-09-02_10h33.39.378",NA,NA,482.5267,482.5267,482.5267,482.8777,NA,NA,NA,NA,NA,NA,NA,TRUE,1,0.5626,479.5294,482.5266,NA,NA,NA,NA,NA,180,46,0,18,18,100,1,2,19,"likert"
"18CEC8E96DFC47398974230F954424D7",1,"01990ad8-8904-7c10-8422-d3105a47ee90","01990a84-c4ee-73c2-a87b-ff46a7d3dde5","2025-09-02_10h33.39.378",NA,NA,485.8781,485.8782,485.8782,486.2277,NA,NA,NA,NA,NA,NA,NA,TRUE,5,0.7182,482.8795,485.8777,NA,NA,NA,NA,NA,14,26,0,19,19,19,1,2,20,"likert"
"18CEC8E96DFC47398974230F954424D7",1,"01990ad8-8904-7c10-8422-d3105a47ee90","01990a84-c4ee-73c2-a87b-ff46a7d3dde5","2025-09-02_10h33.39.378",NA,NA,489.2276,489.2276,489.2276,489.578,NA,NA,NA,NA,NA,NA,NA,TRUE,5,0.582,486.2299,489.2273,NA,NA,NA,NA,NA,25,27,0,20,20,30,1,2,21,"likert"
"18CEC8E96DFC47398974230F954424D7",1,"01990ad8-8904-7c10-8422-d3105a47ee90","01990a84-c4ee-73c2-a87b-ff46a7d3dde5","2025-09-02_10h33.39.378",NA,NA,492.578,492.578,492.5781,492.9274,NA,NA,NA,NA,NA,NA,NA,TRUE,1,0.7436,489.5806,492.5777,NA,NA,NA,NA,NA,200,47,0,21,21,106,1,2,22,"likert"
"18CEC8E96DFC47398974230F954424D7",1,"01990ad8-8904-7c10-8422-d3105a47ee90","01990a84-c4ee-73c2-a87b-ff46a7d3dde5","2025-09-02_10h33.39.378",NA,NA,495.9283,495.9284,495.9285,496.2767,NA,NA,NA,NA,NA,NA,NA,TRUE,1,0.5627,492.9305,495.9281,NA,NA,NA,NA,NA,150,47,0,22,22,94,1,2,23,"likert"
"18CEC8E96DFC47398974230F954424D7",1,"01990ad8-8904-7c10-8422-d3105a47ee90","01990a84-c4ee-73c2-a87b-ff46a7d3dde5","2025-09-02_10h33.39.378",NA,NA,499.2772,499.2773,499.2773,499.6267,NA,NA,NA,NA,NA,NA,NA,TRUE,5,1.9465,496.2784,499.277,NA,NA,NA,NA,NA,30,27,0,23,23,43,1,2,24,"likert"
"18CEC8E96DFC47398974230F954424D7",1,"01990ad8-8904-7c10-8422-d3105a47ee90","01990a84-c4ee-73c2-a87b-ff46a7d3dde5","2025-09-02_10h33.39.378",NA,NA,502.6274,502.6274,502.6274,502.9768,NA,NA,NA,NA,NA,NA,NA,TRUE,1,1.585,499.6291,502.6271,NA,NA,NA,NA,NA,30,29,0,24,24,44,1,2,25,"likert"
"18CEC8E96DFC47398974230F954424D7",1,"01990ad8-8904-7c10-8422-d3105a47ee90","01990a84-c4ee-73c2-a87b-ff46a7d3dde5","2025-09-02_10h33.39.378",NA,NA,505.9779,505.9779,505.9779,506.3266,NA,NA,NA,NA,NA,NA,NA,TRUE,1,1.166,502.9789,505.9777,NA,NA,NA,NA,NA,60,29,0,25,25,66,1,2,26,"likert"
"18CEC8E96DFC47398974230F954424D7",1,"01990ad8-8904-7c10-8422-d3105a47ee90","01990a84-c4ee-73c2-a87b-ff46a7d3dde5","2025-09-02_10h33.39.378",NA,NA,509.327,509.327,509.327,509.6755,NA,NA,NA,NA,NA,NA,NA,TRUE,1,0.4654,506.3294,509.3267,NA,NA,NA,NA,NA,50,35,0,26,26,62,1,2,27,"likert"
"18CEC8E96DFC47398974230F954424D7",1,"01990ad8-8904-7c10-8422-d3105a47ee90","01990a84-c4ee-73c2-a87b-ff46a7d3dde5","2025-09-02_10h33.39.378",NA,NA,512.6756,512.6756,512.6756,513.0252,NA,NA,NA,NA,NA,NA,NA,TRUE,1,0.4687,509.6774,512.6755,NA,NA,NA,NA,NA,200,54,0,27,27,107,1,2,28,"likert"
"18CEC8E96DFC47398974230F954424D7",1,"01990ad8-8904-7c10-8422-d3105a47ee90","01990a84-c4ee-73c2-a87b-ff46a7d3dde5","2025-09-02_10h33.39.378",NA,NA,516.0255,516.0255,516.0256,516.3751,NA,NA,NA,NA,NA,NA,NA,TRUE,1,0.6623,513.0268,516.0253,NA,NA,NA,NA,NA,25,46,0,28,28,35,1,2,29,"likert"
"18CEC8E96DFC47398974230F954424D7",1,"01990ad8-8904-7c10-8422-d3105a47ee90","01990a84-c4ee-73c2-a87b-ff46a7d3dde5","2025-09-02_10h33.39.378",NA,NA,519.3754,519.3755,519.3755,519.7258,NA,NA,NA,NA,NA,NA,NA,TRUE,1,0.3377,516.3764,519.3753,NA,NA,NA,NA,NA,25,33,0,29,29,33,1,2,30,"likert"
"18CEC8E96DFC47398974230F954424D7",1,"01990ad8-8904-7c10-8422-d3105a47ee90","01990a84-c4ee-73c2-a87b-ff46a7d3dde5","2025-09-02_10h33.39.378",NA,NA,522.7275,522.7276,522.7277,523.076,NA,NA,NA,NA,NA,NA,NA,TRUE,1,0.2833,519.7281,522.7272,NA,NA,NA,NA,NA,10,29,0,30,30,9,1,2,31,"likert"
"18CEC8E96DFC47398974230F954424D7",1,"01990ad8-8904-7c10-8422-d3105a47ee90","01990a84-c4ee-73c2-a87b-ff46a7d3dde5","2025-09-02_10h33.39.378",NA,NA,526.076,526.0763,526.0763,526.4246,NA,NA,NA,NA,NA,NA,NA,TRUE,1,0.3052,523.0779,526.0758,NA,NA,NA,NA,NA,150,54,0,31,31,95,1,2,32,"likert"
"18CEC8E96DFC47398974230F954424D7",1,"01990ad8-8904-7c10-8422-d3105a47ee90","01990a84-c4ee-73c2-a87b-ff46a7d3dde5","2025-09-02_10h33.39.378",NA,NA,529.4282,529.4283,529.4283,529.778,NA,NA,NA,NA,NA,NA,NA,TRUE,2,0.3045,526.4266,529.4278,NA,NA,NA,NA,NA,200,39,0,32,32,105,1,2,33,"likert"
"18CEC8E96DFC47398974230F954424D7",1,"01990ad8-8904-7c10-8422-d3105a47ee90","01990a84-c4ee-73c2-a87b-ff46a7d3dde5","2025-09-02_10h33.39.378",NA,NA,532.7759,532.7759,532.7759,533.1256,NA,NA,NA,NA,NA,NA,NA,TRUE,1,0.3435,529.7803,532.7755,NA,NA,NA,NA,NA,45,29,0,33,33,55,1,2,34,"likert"
"18CEC8E96DFC47398974230F954424D7",1,"01990ad8-8904-7c10-8422-d3105a47ee90","01990a84-c4ee-73c2-a87b-ff46a7d3dde5","2025-09-02_10h33.39.378",NA,NA,536.1256,536.1258,536.1259,536.4747,NA,NA,NA,NA,NA,NA,NA,TRUE,2,0.563,533.1279,536.1251,NA,NA,NA,NA,NA,200,26,0,34,34,102,1,2,35,"likert"
"18CEC8E96DFC47398974230F954424D7",1,"01990ad8-8904-7c10-8422-d3105a47ee90","01990a84-c4ee-73c2-a87b-ff46a7d3dde5","2025-09-02_10h33.39.378",NA,NA,539.475,539.475,539.475,539.8249,NA,NA,NA,NA,NA,NA,NA,TRUE,1,0.2316,536.4769,539.4747,NA,NA,NA,NA,NA,60,35,0,35,35,68,1,2,36,"likert"
"18CEC8E96DFC47398974230F954424D7",1,"01990ad8-8904-7c10-8422-d3105a47ee90","01990a84-c4ee-73c2-a87b-ff46a7d3dde5","2025-09-02_10h33.39.378",NA,NA,542.8252,542.8252,542.8253,543.175,NA,NA,NA,NA,NA,NA,NA,TRUE,2,0.5638,539.8273,542.8251,NA,NA,NA,NA,NA,150,40,0,36,36,93,1,2,37,"likert"
"18CEC8E96DFC47398974230F954424D7",1,"01990ad8-8904-7c10-8422-d3105a47ee90","01990a84-c4ee-73c2-a87b-ff46a7d3dde5","2025-09-02_10h33.39.378",NA,NA,546.1748,546.1748,546.1748,546.5242,NA,NA,NA,NA,NA,NA,NA,TRUE,1,0.4186,543.177,546.1744,NA,NA,NA,NA,NA,150,33,0,37,37,91,1,2,38,"likert"
"18CEC8E96DFC47398974230F954424D7",1,"01990ad8-8904-7c10-8422-d3105a47ee90","01990a84-c4ee-73c2-a87b-ff46a7d3dde5","2025-09-02_10h33.39.378",NA,NA,549.525,549.5252,549.5253,549.874,NA,NA,NA,NA,NA,NA,NA,TRUE,1,0.7611,546.5263,549.5249,NA,NA,NA,NA,NA,12,26,0,38,38,13,1,2,39,"likert"
"18CEC8E96DFC47398974230F954424D7",1,"01990ad8-8904-7c10-8422-d3105a47ee90","01990a84-c4ee-73c2-a87b-ff46a7d3dde5","2025-09-02_10h33.39.378",NA,NA,552.8745,552.8745,552.8745,553.2243,NA,NA,NA,NA,NA,NA,NA,TRUE,1,0.6196,549.8761,552.8742,NA,NA,NA,NA,NA,10,30,0,39,39,10,1,2,40,"likert"
"18CEC8E96DFC47398974230F954424D7",1,"01990ad8-8904-7c10-8422-d3105a47ee90","01990a84-c4ee-73c2-a87b-ff46a7d3dde5","2025-09-02_10h33.39.378",NA,NA,556.2248,556.4732,556.4732,556.5741,NA,NA,NA,NA,NA,NA,NA,FALSE,NA,NA,553.2264,556.2246,NA,NA,NA,NA,NA,14,28,0,40,40,20,1,2,41,"likert"
"18CEC8E96DFC47398974230F954424D7",1,"01990ad8-8904-7c10-8422-d3105a47ee90","01990a84-c4ee-73c2-a87b-ff46a7d3dde5","2025-09-02_10h33.39.378",NA,NA,559.5747,559.5748,559.5748,559.9236,NA,NA,NA,NA,NA,NA,NA,TRUE,1,0.2986,556.5762,559.5745,NA,NA,NA,NA,NA,7,25,0,41,41,0,1,2,42,"likert"
"18CEC8E96DFC47398974230F954424D7",1,"01990ad8-8904-7c10-8422-d3105a47ee90","01990a84-c4ee-73c2-a87b-ff46a7d3dde5","2025-09-02_10h33.39.378",NA,NA,562.9247,563.1746,563.1746,563.2742,NA,NA,NA,NA,NA,NA,NA,FALSE,NA,NA,559.9265,562.9244,NA,NA,NA,NA,NA,180,54,0,42,42,101,1,2,43,"likert"
"18CEC8E96DFC47398974230F954424D7",1,"01990ad8-8904-7c10-8422-d3105a47ee90","01990a84-c4ee-73c2-a87b-ff46a7d3dde5","2025-09-02_10h33.39.378",NA,NA,566.2745,566.2745,566.2745,566.6229,NA,NA,NA,NA,NA,NA,NA,TRUE,1,1.0638,563.2762,566.2741,NA,NA,NA,NA,NA,12,35,0,43,43,17,1,2,44,"likert"
"18CEC8E96DFC47398974230F954424D7",1,"01990ad8-8904-7c10-8422-d3105a47ee90","01990a84-c4ee-73c2-a87b-ff46a7d3dde5","2025-09-02_10h33.39.378",NA,NA,569.6231,569.6231,569.6231,569.9728,NA,NA,NA,NA,NA,NA,NA,TRUE,1,0.8816,566.6245,569.6228,NA,NA,NA,NA,NA,50,30,0,44,44,61,1,2,45,"likert"
"18CEC8E96DFC47398974230F954424D7",1,"01990ad8-8904-7c10-8422-d3105a47ee90","01990a84-c4ee-73c2-a87b-ff46a7d3dde5","2025-09-02_10h33.39.378",NA,NA,572.9744,572.9745,572.9745,573.3237,NA,NA,NA,NA,NA,NA,NA,TRUE,1,1.3138,569.9752,572.9742,NA,NA,NA,NA,NA,30,38,0,45,45,47,1,2,46,"likert"
"18CEC8E96DFC47398974230F954424D7",1,"01990ad8-8904-7c10-8422-d3105a47ee90","01990a84-c4ee-73c2-a87b-ff46a7d3dde5","2025-09-02_10h33.39.378",NA,NA,576.3238,576.3238,576.3238,576.6732,NA,NA,NA,NA,NA,NA,NA,TRUE,1,0.2793,573.3261,576.3236,NA,NA,NA,NA,NA,95,31,0,46,46,78,1,2,47,"likert"
"18CEC8E96DFC47398974230F954424D7",1,"01990ad8-8904-7c10-8422-d3105a47ee90","01990a84-c4ee-73c2-a87b-ff46a7d3dde5","2025-09-02_10h33.39.378",NA,NA,579.6735,579.6735,579.6736,580.0232,NA,NA,NA,NA,NA,NA,NA,TRUE,1,0.8894,576.6753,579.6731,NA,NA,NA,NA,NA,95,35,0,47,47,80,1,2,48,"likert"
"18CEC8E96DFC47398974230F954424D7",1,"01990ad8-8904-7c10-8422-d3105a47ee90","01990a84-c4ee-73c2-a87b-ff46a7d3dde5","2025-09-02_10h33.39.378",NA,NA,583.0276,583.0276,583.0276,583.377,NA,NA,NA,NA,NA,NA,NA,TRUE,1,2.3131,580.0254,583.0274,NA,NA,NA,NA,NA,7,30,0,48,48,3,1,2,49,"likert"
"18CEC8E96DFC47398974230F954424D7",1,"01990ad8-8904-7c10-8422-d3105a47ee90","01990a84-c4ee-73c2-a87b-ff46a7d3dde5","2025-09-02_10h33.39.378",NA,NA,586.3725,586.3725,586.3726,586.722,NA,NA,NA,NA,NA,NA,NA,TRUE,1,0.41,583.3785,586.372,NA,NA,NA,NA,NA,45,40,0,49,49,58,1,2,50,"likert"
"18CEC8E96DFC47398974230F954424D7",1,"01990ad8-8904-7c10-8422-d3105a47ee90","01990a84-c4ee-73c2-a87b-ff46a7d3dde5","2025-09-02_10h33.39.378",NA,NA,589.7269,589.7271,589.7271,590.0766,NA,NA,NA,NA,NA,NA,NA,TRUE,1,0.2822,586.7242,589.7266,NA,NA,NA,NA,NA,28,35,0,50,50,39,1,2,51,"likert"
"18CEC8E96DFC47398974230F954424D7",1,"01990ad8-8904-7c10-8422-d3105a47ee90","01990a84-c4ee-73c2-a87b-ff46a7d3dde5","2025-09-02_10h33.39.378",NA,NA,593.0729,593.0729,593.073,593.4218,NA,NA,NA,NA,NA,NA,NA,TRUE,1,0.7914,590.0785,593.0721,NA,NA,NA,NA,NA,10,27,0,51,51,8,1,2,52,"likert"
"18CEC8E96DFC47398974230F954424D7",1,"01990ad8-8904-7c10-8422-d3105a47ee90","01990a84-c4ee-73c2-a87b-ff46a7d3dde5","2025-09-02_10h33.39.378",NA,NA,596.4262,596.4262,596.4262,596.772,NA,NA,NA,NA,NA,NA,NA,TRUE,1,0.1198,593.4252,596.4258,NA,NA,NA,NA,NA,50,40,0,52,52,63,1,2,53,"likert"
"18CEC8E96DFC47398974230F954424D7",1,"01990ad8-8904-7c10-8422-d3105a47ee90","01990a84-c4ee-73c2-a87b-ff46a7d3dde5","2025-09-02_10h33.39.378",NA,NA,599.7731,599.7732,599.7732,600.1253,NA,NA,NA,NA,NA,NA,NA,TRUE,1,0.3197,596.7746,599.7725,NA,NA,NA,NA,NA,30,30,0,53,53,45,1,2,54,"likert"
"18CEC8E96DFC47398974230F954424D7",1,"01990ad8-8904-7c10-8422-d3105a47ee90","01990a84-c4ee-73c2-a87b-ff46a7d3dde5","2025-09-02_10h33.39.378",NA,NA,603.1217,603.1219,603.122,603.4709,NA,NA,NA,NA,NA,NA,NA,TRUE,1,0.2167,600.1268,603.1215,NA,NA,NA,NA,NA,40,35,0,54,54,50,1,2,55,"likert"
"18CEC8E96DFC47398974230F954424D7",1,"01990ad8-8904-7c10-8422-d3105a47ee90","01990a84-c4ee-73c2-a87b-ff46a7d3dde5","2025-09-02_10h33.39.378",NA,NA,606.471,606.4711,606.4712,606.8208,NA,NA,NA,NA,NA,NA,NA,TRUE,1,0.1971,603.4726,606.4706,NA,NA,NA,NA,NA,90,30,0,55,55,73,1,2,56,"likert"
"18CEC8E96DFC47398974230F954424D7",1,"01990ad8-8904-7c10-8422-d3105a47ee90","01990a84-c4ee-73c2-a87b-ff46a7d3dde5","2025-09-02_10h33.39.378",NA,NA,609.8284,609.8284,609.8285,610.1766,NA,NA,NA,NA,NA,NA,NA,TRUE,1,0.2509,606.8228,609.8281,NA,NA,NA,NA,NA,90,46,0,56,56,76,1,2,57,"likert"
"18CEC8E96DFC47398974230F954424D7",1,"01990ad8-8904-7c10-8422-d3105a47ee90","01990a84-c4ee-73c2-a87b-ff46a7d3dde5","2025-09-02_10h33.39.378",NA,NA,613.1718,613.1719,613.1719,613.5205,NA,NA,NA,NA,NA,NA,NA,TRUE,1,0.0011,610.1788,613.1714,NA,NA,NA,NA,NA,45,31,0,57,57,56,1,2,58,"likert"
"18CEC8E96DFC47398974230F954424D7",1,"01990ad8-8904-7c10-8422-d3105a47ee90","01990a84-c4ee-73c2-a87b-ff46a7d3dde5","2025-09-02_10h33.39.378",NA,NA,616.5211,616.5212,616.5212,616.8716,NA,NA,NA,NA,NA,NA,NA,TRUE,1,0.109,613.5228,616.5207,NA,NA,NA,NA,NA,180,27,0,58,58,96,1,2,59,"likert"
"18CEC8E96DFC47398974230F954424D7",1,"01990ad8-8904-7c10-8422-d3105a47ee90","01990a84-c4ee-73c2-a87b-ff46a7d3dde5","2025-09-02_10h33.39.378",NA,NA,619.8744,619.8744,619.8745,620.2263,NA,NA,NA,NA,NA,NA,NA,TRUE,1,0.8181,616.8735,619.8741,NA,NA,NA,NA,NA,90,26,0,59,59,72,1,2,60,"likert"
"18CEC8E96DFC47398974230F954424D7",1,"01990ad8-8904-7c10-8422-d3105a47ee90","01990a84-c4ee-73c2-a87b-ff46a7d3dde5","2025-09-02_10h33.39.378",NA,NA,623.2261,623.2262,623.2262,623.5708,NA,NA,NA,NA,NA,NA,NA,TRUE,1,0.2825,620.228,623.2258,NA,NA,NA,NA,NA,90,40,0,60,60,75,1,2,61,"likert"
"18CEC8E96DFC47398974230F954424D7",1,"01990ad8-8904-7c10-8422-d3105a47ee90","01990a84-c4ee-73c2-a87b-ff46a7d3dde5","2025-09-02_10h33.39.378",NA,NA,626.5709,626.5709,626.5709,626.9272,NA,NA,NA,NA,NA,NA,NA,TRUE,1,0.3406,623.5735,626.5704,NA,NA,NA,NA,NA,21,38,0,61,61,29,1,2,62,"likert"
"18CEC8E96DFC47398974230F954424D7",1,"01990ad8-8904-7c10-8422-d3105a47ee90","01990a84-c4ee-73c2-a87b-ff46a7d3dde5","2025-09-02_10h33.39.378",NA,NA,629.9261,629.9261,629.9261,630.2699,NA,NA,NA,NA,NA,NA,NA,TRUE,1,0.2084,626.9295,629.9259,NA,NA,NA,NA,NA,14,25,0,62,62,18,1,2,63,"likert"
"18CEC8E96DFC47398974230F954424D7",1,"01990ad8-8904-7c10-8422-d3105a47ee90","01990a84-c4ee-73c2-a87b-ff46a7d3dde5","2025-09-02_10h33.39.378",NA,NA,633.2713,633.2714,633.2716,633.6194,NA,NA,NA,NA,NA,NA,NA,TRUE,1,0.0663,630.2727,633.271,NA,NA,NA,NA,NA,7,28,0,63,63,2,1,2,64,"likert"
"18CEC8E96DFC47398974230F954424D7",1,"01990ad8-8904-7c10-8422-d3105a47ee90","01990a84-c4ee-73c2-a87b-ff46a7d3dde5","2025-09-02_10h33.39.378",NA,NA,636.6258,636.6258,636.6258,636.9717,NA,NA,NA,NA,NA,NA,NA,TRUE,1,0.1014,633.6217,636.6256,NA,NA,NA,NA,NA,95,47,0,64,64,82,1,2,65,"likert"
"18CEC8E96DFC47398974230F954424D7",1,"01990ad8-8904-7c10-8422-d3105a47ee90","01990a84-c4ee-73c2-a87b-ff46a7d3dde5","2025-09-02_10h33.39.378",NA,NA,639.9766,639.9766,639.9766,640.32,NA,NA,NA,NA,NA,NA,NA,TRUE,1,2.9666,636.973,639.9764,NA,NA,NA,NA,NA,30,26,0,65,65,42,1,2,66,"likert"
"18CEC8E96DFC47398974230F954424D7",1,"01990ad8-8904-7c10-8422-d3105a47ee90","01990a84-c4ee-73c2-a87b-ff46a7d3dde5","2025-09-02_10h33.39.378",NA,NA,643.3195,643.3196,643.3196,643.669,NA,NA,NA,NA,NA,NA,NA,TRUE,1,0.3664,640.323,643.3192,NA,NA,NA,NA,NA,100,46,0,66,66,88,1,2,67,"likert"
"18CEC8E96DFC47398974230F954424D7",1,"01990ad8-8904-7c10-8422-d3105a47ee90","01990a84-c4ee-73c2-a87b-ff46a7d3dde5","2025-09-02_10h33.39.378",NA,NA,646.6697,646.6698,646.6698,647.02,NA,NA,NA,NA,NA,NA,NA,TRUE,1,0.0336,643.6711,646.6693,NA,NA,NA,NA,NA,21,29,0,67,67,26,1,2,68,"likert"
"18CEC8E96DFC47398974230F954424D7",1,"01990ad8-8904-7c10-8422-d3105a47ee90","01990a84-c4ee-73c2-a87b-ff46a7d3dde5","2025-09-02_10h33.39.378",NA,NA,650.025,650.025,650.0251,650.3692,NA,NA,NA,NA,NA,NA,NA,TRUE,1,0.0266,647.0228,650.0248,NA,NA,NA,NA,NA,90,54,0,68,68,77,1,2,69,"likert"
"18CEC8E96DFC47398974230F954424D7",1,"01990ad8-8904-7c10-8422-d3105a47ee90","01990a84-c4ee-73c2-a87b-ff46a7d3dde5","2025-09-02_10h33.39.378",NA,NA,653.3692,653.3694,653.3694,653.7184,NA,NA,NA,NA,NA,NA,NA,TRUE,1,0.1718,650.372,653.3688,NA,NA,NA,NA,NA,100,38,0,69,69,86,1,2,70,"likert"
"18CEC8E96DFC47398974230F954424D7",1,"01990ad8-8904-7c10-8422-d3105a47ee90","01990a84-c4ee-73c2-a87b-ff46a7d3dde5","2025-09-02_10h33.39.378",NA,NA,656.7359,656.7361,656.7361,657.0727,NA,NA,NA,NA,NA,NA,NA,TRUE,1,0.2697,653.7202,656.7356,NA,NA,NA,NA,NA,12,31,0,70,70,15,1,2,71,"likert"
"18CEC8E96DFC47398974230F954424D7",1,"01990ad8-8904-7c10-8422-d3105a47ee90","01990a84-c4ee-73c2-a87b-ff46a7d3dde5","2025-09-02_10h33.39.378",NA,NA,660.0734,660.0734,660.0734,660.4187,NA,NA,NA,NA,NA,NA,NA,TRUE,1,0.4015,657.0743,660.0732,NA,NA,NA,NA,NA,10,26,0,71,71,7,1,2,72,"likert"
"18CEC8E96DFC47398974230F954424D7",1,"01990ad8-8904-7c10-8422-d3105a47ee90","01990a84-c4ee-73c2-a87b-ff46a7d3dde5","2025-09-02_10h33.39.378",NA,NA,663.4198,663.4199,663.4199,663.7718,NA,NA,NA,NA,NA,NA,NA,TRUE,1,0.8854,660.421,663.4195,NA,NA,NA,NA,NA,14,32,0,72,72,21,1,2,73,"likert"
"18CEC8E96DFC47398974230F954424D7",1,"01990ad8-8904-7c10-8422-d3105a47ee90","01990a84-c4ee-73c2-a87b-ff46a7d3dde5","2025-09-02_10h33.39.378",NA,NA,666.7844,666.7844,666.7845,667.1342,NA,NA,NA,NA,NA,NA,NA,TRUE,1,0.3426,663.7729,666.7841,NA,NA,NA,NA,NA,200,35,0,73,73,104,1,2,74,"likert"
"18CEC8E96DFC47398974230F954424D7",1,"01990ad8-8904-7c10-8422-d3105a47ee90","01990a84-c4ee-73c2-a87b-ff46a7d3dde5","2025-09-02_10h33.39.378",NA,NA,670.1196,670.1198,670.1198,670.4686,NA,NA,NA,NA,NA,NA,NA,TRUE,1,0.573,667.1361,670.1192,NA,NA,NA,NA,NA,21,32,0,74,74,28,1,2,75,"likert"
"18CEC8E96DFC47398974230F954424D7",1,"01990ad8-8904-7c10-8422-d3105a47ee90","01990a84-c4ee-73c2-a87b-ff46a7d3dde5","2025-09-02_10h33.39.378",NA,NA,673.4741,673.4742,673.4742,673.8217,NA,NA,NA,NA,NA,NA,NA,TRUE,1,0.2021,670.4714,673.4739,NA,NA,NA,NA,NA,14,39,0,75,75,23,1,2,76,"likert"
"18CEC8E96DFC47398974230F954424D7",1,"01990ad8-8904-7c10-8422-d3105a47ee90","01990a84-c4ee-73c2-a87b-ff46a7d3dde5","2025-09-02_10h33.39.378",NA,NA,676.8375,676.8377,676.8377,677.1687,NA,NA,NA,NA,NA,NA,NA,TRUE,1,0.7671,673.8227,676.8373,NA,NA,NA,NA,NA,40,33,0,76,76,49,1,2,77,"likert"
"18CEC8E96DFC47398974230F954424D7",1,"01990ad8-8904-7c10-8422-d3105a47ee90","01990a84-c4ee-73c2-a87b-ff46a7d3dde5","2025-09-02_10h33.39.378",NA,NA,680.1739,680.174,680.174,680.534,NA,NA,NA,NA,NA,NA,NA,TRUE,1,5e-04,677.1715,680.1737,NA,NA,NA,NA,NA,12,33,0,77,77,16,1,2,78,"likert"
"18CEC8E96DFC47398974230F954424D7",1,"01990ad8-8904-7c10-8422-d3105a47ee90","01990a84-c4ee-73c2-a87b-ff46a7d3dde5","2025-09-02_10h33.39.378",NA,NA,683.5411,683.5411,683.5412,683.8852,NA,NA,NA,NA,NA,NA,NA,TRUE,1,0.6141,680.5363,683.5408,NA,NA,NA,NA,NA,90,33,0,78,78,74,1,2,79,"likert"
"18CEC8E96DFC47398974230F954424D7",1,"01990ad8-8904-7c10-8422-d3105a47ee90","01990a84-c4ee-73c2-a87b-ff46a7d3dde5","2025-09-02_10h33.39.378",NA,NA,686.8689,686.8689,686.8689,687.2365,NA,NA,NA,NA,NA,NA,NA,TRUE,1,0.0192,683.8878,686.8688,NA,NA,NA,NA,NA,95,40,0,79,79,81,1,2,80,"likert"
"18CEC8E96DFC47398974230F954424D7",1,"01990ad8-8904-7c10-8422-d3105a47ee90","01990a84-c4ee-73c2-a87b-ff46a7d3dde5","2025-09-02_10h33.39.378",NA,NA,690.2397,690.2397,690.2397,690.5891,NA,NA,NA,NA,NA,NA,NA,TRUE,1,2.9622,687.2381,690.2394,NA,NA,NA,NA,NA,180,35,0,80,80,98,1,2,81,"likert"
"18CEC8E96DFC47398974230F954424D7",1,"01990ad8-8904-7c10-8422-d3105a47ee90","01990a84-c4ee-73c2-a87b-ff46a7d3dde5","2025-09-02_10h33.39.378",NA,NA,693.585,693.5859,693.5859,693.9338,NA,NA,NA,NA,NA,NA,NA,TRUE,1,0.2488,690.5914,693.5848,NA,NA,NA,NA,NA,100,54,0,81,81,89,1,2,82,"likert"
"18CEC8E96DFC47398974230F954424D7",1,"01990ad8-8904-7c10-8422-d3105a47ee90","01990a84-c4ee-73c2-a87b-ff46a7d3dde5","2025-09-02_10h33.39.378",NA,NA,696.9337,696.934,696.934,697.2827,NA,NA,NA,NA,NA,NA,NA,TRUE,1,0.1712,693.9365,696.9334,NA,NA,NA,NA,NA,7,26,0,82,82,1,1,2,83,"likert"
"18CEC8E96DFC47398974230F954424D7",1,"01990ad8-8904-7c10-8422-d3105a47ee90","01990a84-c4ee-73c2-a87b-ff46a7d3dde5","2025-09-02_10h33.39.378",NA,NA,700.2841,700.2843,700.2843,700.6327,NA,NA,NA,NA,NA,NA,NA,TRUE,1,0.349,697.2836,700.2838,NA,NA,NA,NA,NA,10,25,0,83,83,6,1,2,84,"likert"
"18CEC8E96DFC47398974230F954424D7",1,"01990ad8-8904-7c10-8422-d3105a47ee90","01990a84-c4ee-73c2-a87b-ff46a7d3dde5","2025-09-02_10h33.39.378",NA,NA,703.634,703.634,703.6341,703.9837,NA,NA,NA,NA,NA,NA,NA,TRUE,1,0.7039,700.6339,703.6338,NA,NA,NA,NA,NA,200,28,0,84,84,103,1,2,85,"likert"
"18CEC8E96DFC47398974230F954424D7",1,"01990ad8-8904-7c10-8422-d3105a47ee90","01990a84-c4ee-73c2-a87b-ff46a7d3dde5","2025-09-02_10h33.39.378",NA,NA,706.9836,706.9837,706.9837,707.3335,NA,NA,NA,NA,NA,NA,NA,TRUE,1,0.7184,703.9859,706.9833,NA,NA,NA,NA,NA,100,26,0,85,85,84,1,2,86,"likert"
"18CEC8E96DFC47398974230F954424D7",1,"01990ad8-8904-7c10-8422-d3105a47ee90","01990a84-c4ee-73c2-a87b-ff46a7d3dde5","2025-09-02_10h33.39.378",NA,NA,710.3339,710.334,710.334,710.6835,NA,NA,NA,NA,NA,NA,NA,TRUE,1,0.0532,707.3353,710.3336,NA,NA,NA,NA,NA,45,35,0,86,86,57,1,2,87,"likert"
"18CEC8E96DFC47398974230F954424D7",1,"01990ad8-8904-7c10-8422-d3105a47ee90","01990a84-c4ee-73c2-a87b-ff46a7d3dde5","2025-09-02_10h33.39.378",NA,NA,713.6824,713.6825,713.6825,714.0329,NA,NA,NA,NA,NA,NA,NA,TRUE,1,0.0605,710.6855,713.6822,NA,NA,NA,NA,NA,50,54,0,87,87,65,1,2,88,"likert"
"18CEC8E96DFC47398974230F954424D7",1,"01990ad8-8904-7c10-8422-d3105a47ee90","01990a84-c4ee-73c2-a87b-ff46a7d3dde5","2025-09-02_10h33.39.378",NA,NA,717.0329,717.0332,717.0333,717.3819,NA,NA,NA,NA,NA,NA,NA,TRUE,1,0.0807,714.0349,717.0326,NA,NA,NA,NA,NA,60,33,0,88,88,67,1,2,89,"likert"
"18CEC8E96DFC47398974230F954424D7",1,"01990ad8-8904-7c10-8422-d3105a47ee90","01990a84-c4ee-73c2-a87b-ff46a7d3dde5","2025-09-02_10h33.39.378",NA,NA,720.3821,720.3821,720.3821,720.7321,NA,NA,NA,NA,NA,NA,NA,TRUE,1,0.0012,717.3831,720.3818,NA,NA,NA,NA,NA,40,27,0,89,89,48,1,2,90,"likert"
"18CEC8E96DFC47398974230F954424D7",1,"01990ad8-8904-7c10-8422-d3105a47ee90","01990a84-c4ee-73c2-a87b-ff46a7d3dde5","2025-09-02_10h33.39.378",NA,NA,723.7335,723.7336,723.7336,724.0874,NA,NA,NA,NA,NA,NA,NA,TRUE,1,0.0011,720.7345,723.7324,NA,NA,NA,NA,NA,40,54,0,90,90,53,1,2,91,"likert"
"18CEC8E96DFC47398974230F954424D7",1,"01990ad8-8904-7c10-8422-d3105a47ee90","01990a84-c4ee-73c2-a87b-ff46a7d3dde5","2025-09-02_10h33.39.378",NA,NA,727.0871,727.0871,727.0872,727.4348,NA,NA,NA,NA,NA,NA,NA,TRUE,1,0.0745,724.0893,727.0868,NA,NA,NA,NA,NA,50,46,0,91,91,64,1,2,92,"likert"
"18CEC8E96DFC47398974230F954424D7",1,"01990ad8-8904-7c10-8422-d3105a47ee90","01990a84-c4ee-73c2-a87b-ff46a7d3dde5","2025-09-02_10h33.39.378",NA,NA,730.433,730.4331,730.4331,730.7823,NA,NA,NA,NA,NA,NA,NA,TRUE,1,0.0511,727.4363,730.4326,NA,NA,NA,NA,NA,60,54,0,92,92,71,1,2,93,"likert"
"18CEC8E96DFC47398974230F954424D7",1,"01990ad8-8904-7c10-8422-d3105a47ee90","01990a84-c4ee-73c2-a87b-ff46a7d3dde5","2025-09-02_10h33.39.378",NA,NA,733.782,733.7822,733.7822,734.1324,NA,NA,NA,NA,NA,NA,NA,TRUE,1,2.9687,730.784,733.7817,NA,NA,NA,NA,NA,50,27,0,93,93,60,1,2,94,"likert"
"18CEC8E96DFC47398974230F954424D7",1,"01990ad8-8904-7c10-8422-d3105a47ee90","01990a84-c4ee-73c2-a87b-ff46a7d3dde5","2025-09-02_10h33.39.378",NA,NA,737.1384,737.1385,737.1386,737.4815,NA,NA,NA,NA,NA,NA,NA,TRUE,1,2.9715,734.1348,737.1381,NA,NA,NA,NA,NA,45,46,0,94,94,59,1,2,95,"likert"
"18CEC8E96DFC47398974230F954424D7",1,"01990ad8-8904-7c10-8422-d3105a47ee90","01990a84-c4ee-73c2-a87b-ff46a7d3dde5","2025-09-02_10h33.39.378",NA,NA,740.4819,740.482,740.4821,740.8321,NA,NA,NA,NA,NA,NA,NA,TRUE,1,2.9832,737.4846,740.4815,NA,NA,NA,NA,NA,14,35,0,95,95,22,1,2,96,"likert"
"18CEC8E96DFC47398974230F954424D7",1,"01990ad8-8904-7c10-8422-d3105a47ee90","01990a84-c4ee-73c2-a87b-ff46a7d3dde5","2025-09-02_10h33.39.378",NA,NA,743.8357,743.8357,743.8357,744.1691,NA,NA,NA,NA,NA,NA,NA,TRUE,1,0.2659,740.8347,743.8355,NA,NA,NA,NA,NA,100,31,0,96,96,85,1,2,97,"likert"
"18CEC8E96DFC47398974230F954424D7",1,"01990ad8-8904-7c10-8422-d3105a47ee90","01990a84-c4ee-73c2-a87b-ff46a7d3dde5","2025-09-02_10h33.39.378",NA,NA,747.1869,747.1871,747.1871,747.5317,NA,NA,NA,NA,NA,NA,NA,TRUE,1,0.2928,744.1711,747.1867,NA,NA,NA,NA,NA,30,32,0,97,97,46,1,2,98,"likert"
"18CEC8E96DFC47398974230F954424D7",1,"01990ad8-8904-7c10-8422-d3105a47ee90","01990a84-c4ee-73c2-a87b-ff46a7d3dde5","2025-09-02_10h33.39.378",NA,NA,750.5373,750.5374,750.5374,750.8846,NA,NA,NA,NA,NA,NA,NA,TRUE,1,0.4395,747.534,750.5369,NA,NA,NA,NA,NA,12,28,0,98,98,14,1,2,99,"likert"
"18CEC8E96DFC47398974230F954424D7",1,"01990ad8-8904-7c10-8422-d3105a47ee90","01990a84-c4ee-73c2-a87b-ff46a7d3dde5","2025-09-02_10h33.39.378",NA,NA,753.8874,753.8875,753.8876,754.2358,NA,NA,NA,NA,NA,NA,NA,TRUE,1,0.2499,750.8868,753.8872,NA,NA,NA,NA,NA,25,35,0,99,99,34,1,2,100,"likert"
"18CEC8E96DFC47398974230F954424D7",1,"01990ad8-8904-7c10-8422-d3105a47ee90","01990a84-c4ee-73c2-a87b-ff46a7d3dde5","2025-09-02_10h33.39.378",NA,NA,757.2362,757.2363,757.2365,757.581,NA,NA,NA,NA,NA,NA,NA,TRUE,1,0.2495,754.2378,757.2359,NA,NA,NA,NA,NA,95,54,0,100,100,83,1,2,101,"likert"
"18CEC8E96DFC47398974230F954424D7",1,"01990ad8-8904-7c10-8422-d3105a47ee90","01990a84-c4ee-73c2-a87b-ff46a7d3dde5","2025-09-02_10h33.39.378",NA,NA,760.5818,760.582,760.582,760.9311,NA,NA,NA,NA,NA,NA,NA,TRUE,1,0.4024,757.5837,760.5814,NA,NA,NA,NA,NA,150,35,0,101,101,92,1,2,102,"likert"
"18CEC8E96DFC47398974230F954424D7",1,"01990ad8-8904-7c10-8422-d3105a47ee90","01990a84-c4ee-73c2-a87b-ff46a7d3dde5","2025-09-02_10h33.39.378",NA,NA,763.9198,763.9198,763.9199,764.2841,NA,NA,NA,NA,NA,NA,NA,TRUE,1,0.123,760.9334,763.9196,NA,NA,NA,NA,NA,150,31,0,102,102,90,1,2,103,"likert"
"18CEC8E96DFC47398974230F954424D7",1,"01990ad8-8904-7c10-8422-d3105a47ee90","01990a84-c4ee-73c2-a87b-ff46a7d3dde5","2025-09-02_10h33.39.378",NA,NA,767.2815,767.2816,767.2816,767.6194,NA,NA,NA,NA,NA,NA,NA,TRUE,1,0.2352,764.2852,767.2809,NA,NA,NA,NA,NA,12,25,0,103,103,12,1,2,104,"likert"
"18CEC8E96DFC47398974230F954424D7",1,"01990ad8-8904-7c10-8422-d3105a47ee90","01990a84-c4ee-73c2-a87b-ff46a7d3dde5","2025-09-02_10h33.39.378",NA,NA,770.6356,770.6357,770.6357,770.9849,NA,NA,NA,NA,NA,NA,NA,TRUE,1,0.2522,767.6223,770.6355,NA,NA,NA,NA,NA,180,31,0,104,104,97,1,2,105,"likert"
"18CEC8E96DFC47398974230F954424D7",1,"01990ad8-8904-7c10-8422-d3105a47ee90","01990a84-c4ee-73c2-a87b-ff46a7d3dde5","2025-09-02_10h33.39.378",NA,NA,773.9696,773.9697,773.9698,774.3299,NA,NA,NA,NA,NA,NA,NA,TRUE,1,0.3853,770.987,773.9692,NA,NA,NA,NA,NA,28,26,0,105,105,36,1,2,106,"likert"
"18CEC8E96DFC47398974230F954424D7",1,"01990ad8-8904-7c10-8422-d3105a47ee90","01990a84-c4ee-73c2-a87b-ff46a7d3dde5","2025-09-02_10h33.39.378",NA,NA,777.3363,777.3365,777.3366,777.6792,NA,NA,NA,NA,NA,NA,NA,TRUE,1,0.0334,774.3332,777.336,NA,NA,NA,NA,NA,7,35,0,106,106,5,1,2,107,"likert"
"18CEC8E96DFC47398974230F954424D7",1,"01990ad8-8904-7c10-8422-d3105a47ee90","01990a84-c4ee-73c2-a87b-ff46a7d3dde5","2025-09-02_10h33.39.378",NA,NA,780.6858,780.686,780.6862,781.0355,NA,NA,NA,NA,NA,NA,NA,TRUE,1,0.2526,777.6815,780.6856,NA,NA,NA,NA,NA,60,47,0,107,107,70,1,2,108,"likert"
