"participant","session","assignmentId","projectId","date","practiceTrial.started","practiceTrial.stopped","tooLate.started","tooLate.stopped","blank.started","blank.stopped","trials_pract.thisRepN","trials_pract.thisTrialN","trials_pract.thisN","trials_pract.thisIndex","trials_pract.ran","delay_pract","amount_pract","responseMade","key","rt","trial.started","trial.stopped","trials.thisRepN","trials.thisTrialN","trials.thisN","trials.thisIndex","trials.ran","delay","amount","trials_2.thisRepN","trials_2.thisTrialN","trials_2.thisN","trials_2.thisIndex","trials_2.ran","block","trial","taskType"
"1C51D2A52C004D2196F28D04A14A70A6",1,"01990a9a-4dd8-7c35-bcf9-828173ce821a","01990a84-c4ee-73c2-a87b-ff46a7d3dde5","2025-09-02_09h25.58.743",82.2736,85.2498,85.2512,85.4953,85.4956,85.5949,0,0,0,3,1,3,27,FALSE,NA,NA,NA,NA,NA,NA,NA,NA,NA,NA,NA,NA,NA,NA,NA,NA,0,1,"likert"
"1C51D2A52C004D2196F28D04A14A70A6",1,"01990a9a-4dd8-7c35-bcf9-828173ce821a","01990a84-c4ee-73c2-a87b-ff46a7d3dde5","2025-09-02_09h25.58.743",85.5974,88.5944,88.5946,88.5946,88.5947,88.9446,0,1,1,4,1,30,40,TRUE,1,0.0148,NA,NA,NA,NA,NA,NA,NA,NA,NA,NA,NA,NA,NA,NA,0,2,"likert"
"1C51D2A52C004D2196F28D04A14A70A6",1,"01990a9a-4dd8-7c35-bcf9-828173ce821a","01990a84-c4ee-73c2-a87b-ff46a7d3dde5","2025-09-02_09h25.58.743",88.9459,91.9446,91.9448,91.9448,91.9448,92.2946,0,2,2,0,1,7,30,TRUE,1,2.1751,NA,NA,NA,NA,NA,NA,NA,NA,NA,NA,NA,NA,NA,NA,0,3,"likert"
"1C51D2A52C004D2196F28D04A14A70A6",1,"01990a9a-4dd8-7c35-bcf9-828173ce821a","01990a84-c4ee-73c2-a87b-ff46a7d3dde5","2025-09-02_09h25.58.743",92.2966,95.2943,95.2945,95.2945,95.2945,95.6442,0,3,3,1,1,100,50,TRUE,4,2.5419,NA,NA,NA,NA,NA,NA,NA,NA,NA,NA,NA,NA,NA,NA,0,4,"likert"
"1C51D2A52C004D2196F28D04A14A70A6",1,"01990a9a-4dd8-7c35-bcf9-828173ce821a","01990a84-c4ee-73c2-a87b-ff46a7d3dde5","2025-09-02_09h25.58.743",95.6454,98.6439,98.6441,98.6441,98.6441,98.9936,0,4,4,2,1,14,45,TRUE,1,1.7174,NA,NA,NA,NA,NA,NA,NA,NA,NA,NA,NA,NA,NA,NA,0,5,"likert"
"1C51D2A52C004D2196F28D04A14A70A6",1,"01990a9a-4dd8-7c35-bcf9-828173ce821a","01990a84-c4ee-73c2-a87b-ff46a7d3dde5","2025-09-02_09h25.58.743",NA,NA,129.2405,129.2405,129.2406,129.5904,NA,NA,NA,NA,NA,NA,NA,TRUE,1,1.3011,126.253,129.2403,0,0,0,6,1,10,25,NA,NA,NA,NA,NA,1,1,"likert"
"1C51D2A52C004D2196F28D04A14A70A6",1,"01990a9a-4dd8-7c35-bcf9-828173ce821a","01990a84-c4ee-73c2-a87b-ff46a7d3dde5","2025-09-02_09h25.58.743",NA,NA,132.5902,132.5903,132.5903,132.9396,NA,NA,NA,NA,NA,NA,NA,TRUE,1,1.0474,129.5918,132.5901,0,1,1,91,1,150,33,NA,NA,NA,NA,NA,1,2,"likert"
"1C51D2A52C004D2196F28D04A14A70A6",1,"01990a9a-4dd8-7c35-bcf9-828173ce821a","01990a84-c4ee-73c2-a87b-ff46a7d3dde5","2025-09-02_09h25.58.743",NA,NA,135.9395,135.9395,135.9395,136.2896,NA,NA,NA,NA,NA,NA,NA,TRUE,1,1.2339,132.9407,135.9394,0,2,2,28,1,21,32,NA,NA,NA,NA,NA,1,3,"likert"
"1C51D2A52C004D2196F28D04A14A70A6",1,"01990a9a-4dd8-7c35-bcf9-828173ce821a","01990a84-c4ee-73c2-a87b-ff46a7d3dde5","2025-09-02_09h25.58.743",NA,NA,139.2893,139.2894,139.2894,139.639,NA,NA,NA,NA,NA,NA,NA,TRUE,1,1.6611,136.2914,139.2891,0,3,3,68,1,60,35,NA,NA,NA,NA,NA,1,4,"likert"
"1C51D2A52C004D2196F28D04A14A70A6",1,"01990a9a-4dd8-7c35-bcf9-828173ce821a","01990a84-c4ee-73c2-a87b-ff46a7d3dde5","2025-09-02_09h25.58.743",NA,NA,142.639,142.639,142.639,142.9884,NA,NA,NA,NA,NA,NA,NA,TRUE,1,1.6196,139.6403,142.6388,0,4,4,105,1,200,39,NA,NA,NA,NA,NA,1,5,"likert"
"1C51D2A52C004D2196F28D04A14A70A6",1,"01990a9a-4dd8-7c35-bcf9-828173ce821a","01990a84-c4ee-73c2-a87b-ff46a7d3dde5","2025-09-02_09h25.58.743",NA,NA,145.9891,146.2386,146.2386,146.3386,NA,NA,NA,NA,NA,NA,NA,FALSE,NA,NA,142.9896,145.9889,0,5,5,47,1,30,38,NA,NA,NA,NA,NA,1,6,"likert"
"1C51D2A52C004D2196F28D04A14A70A6",1,"01990a9a-4dd8-7c35-bcf9-828173ce821a","01990a84-c4ee-73c2-a87b-ff46a7d3dde5","2025-09-02_09h25.58.743",NA,NA,149.3384,149.5883,149.5883,149.688,NA,NA,NA,NA,NA,NA,NA,FALSE,NA,NA,146.3396,149.3382,0,6,6,55,1,45,29,NA,NA,NA,NA,NA,1,7,"likert"
"1C51D2A52C004D2196F28D04A14A70A6",1,"01990a9a-4dd8-7c35-bcf9-828173ce821a","01990a84-c4ee-73c2-a87b-ff46a7d3dde5","2025-09-02_09h25.58.743",NA,NA,152.6879,152.6881,152.6881,153.0377,NA,NA,NA,NA,NA,NA,NA,TRUE,5,1.1893,149.6897,152.6879,0,7,7,31,1,25,29,NA,NA,NA,NA,NA,1,8,"likert"
"1C51D2A52C004D2196F28D04A14A70A6",1,"01990a9a-4dd8-7c35-bcf9-828173ce821a","01990a84-c4ee-73c2-a87b-ff46a7d3dde5","2025-09-02_09h25.58.743",NA,NA,156.0376,156.0377,156.0377,156.387,NA,NA,NA,NA,NA,NA,NA,TRUE,4,1.4641,153.0387,156.0372,0,8,8,61,1,50,30,NA,NA,NA,NA,NA,1,9,"likert"
"1C51D2A52C004D2196F28D04A14A70A6",1,"01990a9a-4dd8-7c35-bcf9-828173ce821a","01990a84-c4ee-73c2-a87b-ff46a7d3dde5","2025-09-02_09h25.58.743",NA,NA,159.3874,159.3874,159.3875,159.737,NA,NA,NA,NA,NA,NA,NA,TRUE,5,1.9074,156.3876,159.3873,0,9,9,89,1,100,54,NA,NA,NA,NA,NA,1,10,"likert"
"1C51D2A52C004D2196F28D04A14A70A6",1,"01990a9a-4dd8-7c35-bcf9-828173ce821a","01990a84-c4ee-73c2-a87b-ff46a7d3dde5","2025-09-02_09h25.58.743",NA,NA,162.7368,162.7368,162.7368,163.0869,NA,NA,NA,NA,NA,NA,NA,TRUE,4,1.4866,159.7382,162.7367,0,10,10,106,1,200,47,NA,NA,NA,NA,NA,1,11,"likert"
"1C51D2A52C004D2196F28D04A14A70A6",1,"01990a9a-4dd8-7c35-bcf9-828173ce821a","01990a84-c4ee-73c2-a87b-ff46a7d3dde5","2025-09-02_09h25.58.743",NA,NA,166.0861,166.0861,166.0861,166.4366,NA,NA,NA,NA,NA,NA,NA,TRUE,4,2.0209,163.088,166.086,0,11,11,74,1,90,33,NA,NA,NA,NA,NA,1,12,"likert"
"1C51D2A52C004D2196F28D04A14A70A6",1,"01990a9a-4dd8-7c35-bcf9-828173ce821a","01990a84-c4ee-73c2-a87b-ff46a7d3dde5","2025-09-02_09h25.58.743",NA,NA,169.4362,169.4362,169.4363,169.7857,NA,NA,NA,NA,NA,NA,NA,TRUE,5,2.8075,166.4377,169.4361,0,12,12,48,1,40,27,NA,NA,NA,NA,NA,1,13,"likert"
"1C51D2A52C004D2196F28D04A14A70A6",1,"01990a9a-4dd8-7c35-bcf9-828173ce821a","01990a84-c4ee-73c2-a87b-ff46a7d3dde5","2025-09-02_09h25.58.743",NA,NA,172.7855,173.0355,173.0355,173.1354,NA,NA,NA,NA,NA,NA,NA,FALSE,NA,NA,169.7865,172.7852,0,13,13,26,1,21,29,NA,NA,NA,NA,NA,1,14,"likert"
"1C51D2A52C004D2196F28D04A14A70A6",1,"01990a9a-4dd8-7c35-bcf9-828173ce821a","01990a84-c4ee-73c2-a87b-ff46a7d3dde5","2025-09-02_09h25.58.743",NA,NA,176.1356,176.1356,176.1356,176.4856,NA,NA,NA,NA,NA,NA,NA,TRUE,2,1.3358,173.1367,176.1354,0,14,14,95,1,150,54,NA,NA,NA,NA,NA,1,15,"likert"
"1C51D2A52C004D2196F28D04A14A70A6",1,"01990a9a-4dd8-7c35-bcf9-828173ce821a","01990a84-c4ee-73c2-a87b-ff46a7d3dde5","2025-09-02_09h25.58.743",NA,NA,179.4853,179.4853,179.4853,179.8349,NA,NA,NA,NA,NA,NA,NA,TRUE,2,1.2148,176.4871,179.4851,0,15,15,72,1,90,26,NA,NA,NA,NA,NA,1,16,"likert"
"1C51D2A52C004D2196F28D04A14A70A6",1,"01990a9a-4dd8-7c35-bcf9-828173ce821a","01990a84-c4ee-73c2-a87b-ff46a7d3dde5","2025-09-02_09h25.58.743",NA,NA,182.8348,182.8348,182.8349,183.1848,NA,NA,NA,NA,NA,NA,NA,TRUE,2,1.4008,179.8365,182.8347,0,16,16,92,1,150,35,NA,NA,NA,NA,NA,1,17,"likert"
"1C51D2A52C004D2196F28D04A14A70A6",1,"01990a9a-4dd8-7c35-bcf9-828173ce821a","01990a84-c4ee-73c2-a87b-ff46a7d3dde5","2025-09-02_09h25.58.743",NA,NA,186.1845,186.1845,186.1845,186.5344,NA,NA,NA,NA,NA,NA,NA,TRUE,2,1.219,183.1863,186.1842,0,17,17,23,1,14,39,NA,NA,NA,NA,NA,1,18,"likert"
"1C51D2A52C004D2196F28D04A14A70A6",1,"01990a9a-4dd8-7c35-bcf9-828173ce821a","01990a84-c4ee-73c2-a87b-ff46a7d3dde5","2025-09-02_09h25.58.743",NA,NA,189.5341,189.5341,189.5342,189.8845,NA,NA,NA,NA,NA,NA,NA,TRUE,2,1.6056,186.5361,189.534,0,18,18,56,1,45,31,NA,NA,NA,NA,NA,1,19,"likert"
"1C51D2A52C004D2196F28D04A14A70A6",1,"01990a9a-4dd8-7c35-bcf9-828173ce821a","01990a84-c4ee-73c2-a87b-ff46a7d3dde5","2025-09-02_09h25.58.743",NA,NA,192.8841,192.8841,192.8842,193.2332,NA,NA,NA,NA,NA,NA,NA,TRUE,2,1.186,189.886,192.8838,0,19,19,93,1,150,40,NA,NA,NA,NA,NA,1,20,"likert"
"1C51D2A52C004D2196F28D04A14A70A6",1,"01990a9a-4dd8-7c35-bcf9-828173ce821a","01990a84-c4ee-73c2-a87b-ff46a7d3dde5","2025-09-02_09h25.58.743",NA,NA,196.2332,196.2332,196.2332,196.5863,NA,NA,NA,NA,NA,NA,NA,TRUE,2,1.7716,193.2341,196.2328,0,20,20,88,1,100,46,NA,NA,NA,NA,NA,1,21,"likert"
"1C51D2A52C004D2196F28D04A14A70A6",1,"01990a9a-4dd8-7c35-bcf9-828173ce821a","01990a84-c4ee-73c2-a87b-ff46a7d3dde5","2025-09-02_09h25.58.743",NA,NA,199.5826,199.5827,199.5827,199.9327,NA,NA,NA,NA,NA,NA,NA,TRUE,1,1.3898,196.5871,199.5825,0,21,21,34,1,25,35,NA,NA,NA,NA,NA,1,22,"likert"
"1C51D2A52C004D2196F28D04A14A70A6",1,"01990a9a-4dd8-7c35-bcf9-828173ce821a","01990a84-c4ee-73c2-a87b-ff46a7d3dde5","2025-09-02_09h25.58.743",NA,NA,202.9366,202.9367,202.9367,203.2836,NA,NA,NA,NA,NA,NA,NA,TRUE,1,1.2501,199.934,202.9365,0,22,22,54,1,45,26,NA,NA,NA,NA,NA,1,23,"likert"
"1C51D2A52C004D2196F28D04A14A70A6",1,"01990a9a-4dd8-7c35-bcf9-828173ce821a","01990a84-c4ee-73c2-a87b-ff46a7d3dde5","2025-09-02_09h25.58.743",NA,NA,206.2859,206.2859,206.2859,206.6356,NA,NA,NA,NA,NA,NA,NA,TRUE,1,2.4444,203.2843,206.2858,0,23,23,41,1,28,46,NA,NA,NA,NA,NA,1,24,"likert"
"1C51D2A52C004D2196F28D04A14A70A6",1,"01990a9a-4dd8-7c35-bcf9-828173ce821a","01990a84-c4ee-73c2-a87b-ff46a7d3dde5","2025-09-02_09h25.58.743",NA,NA,209.6323,209.6323,209.6323,209.9817,NA,NA,NA,NA,NA,NA,NA,TRUE,1,1.0835,206.6366,209.6322,0,24,24,49,1,40,33,NA,NA,NA,NA,NA,1,25,"likert"
"1C51D2A52C004D2196F28D04A14A70A6",1,"01990a9a-4dd8-7c35-bcf9-828173ce821a","01990a84-c4ee-73c2-a87b-ff46a7d3dde5","2025-09-02_09h25.58.743",NA,NA,212.9819,212.9819,212.982,213.3314,NA,NA,NA,NA,NA,NA,NA,TRUE,2,1.6382,209.9828,212.9815,0,25,25,7,1,10,26,NA,NA,NA,NA,NA,1,26,"likert"
"1C51D2A52C004D2196F28D04A14A70A6",1,"01990a9a-4dd8-7c35-bcf9-828173ce821a","01990a84-c4ee-73c2-a87b-ff46a7d3dde5","2025-09-02_09h25.58.743",NA,NA,216.3312,216.3312,216.3312,216.6836,NA,NA,NA,NA,NA,NA,NA,TRUE,1,1.4375,213.3326,216.331,0,26,26,85,1,100,31,NA,NA,NA,NA,NA,1,27,"likert"
"1C51D2A52C004D2196F28D04A14A70A6",1,"01990a9a-4dd8-7c35-bcf9-828173ce821a","01990a84-c4ee-73c2-a87b-ff46a7d3dde5","2025-09-02_09h25.58.743",NA,NA,219.6828,219.6828,219.6828,220.0306,NA,NA,NA,NA,NA,NA,NA,TRUE,1,2.05,216.6843,219.6826,0,27,27,63,1,50,40,NA,NA,NA,NA,NA,1,28,"likert"
"1C51D2A52C004D2196F28D04A14A70A6",1,"01990a9a-4dd8-7c35-bcf9-828173ce821a","01990a84-c4ee-73c2-a87b-ff46a7d3dde5","2025-09-02_09h25.58.743",NA,NA,223.0301,223.0301,223.0301,223.3841,NA,NA,NA,NA,NA,NA,NA,TRUE,1,1.3839,220.032,223.03,0,28,28,71,1,60,54,NA,NA,NA,NA,NA,1,29,"likert"
"1C51D2A52C004D2196F28D04A14A70A6",1,"01990a9a-4dd8-7c35-bcf9-828173ce821a","01990a84-c4ee-73c2-a87b-ff46a7d3dde5","2025-09-02_09h25.58.743",NA,NA,226.3804,226.3804,226.3804,226.7329,NA,NA,NA,NA,NA,NA,NA,TRUE,1,1.309,223.385,226.3803,0,29,29,99,1,180,39,NA,NA,NA,NA,NA,1,30,"likert"
"1C51D2A52C004D2196F28D04A14A70A6",1,"01990a9a-4dd8-7c35-bcf9-828173ce821a","01990a84-c4ee-73c2-a87b-ff46a7d3dde5","2025-09-02_09h25.58.743",NA,NA,229.7295,229.7295,229.7295,230.0797,NA,NA,NA,NA,NA,NA,NA,TRUE,1,1.5022,226.734,229.7294,0,30,30,19,1,14,26,NA,NA,NA,NA,NA,1,31,"likert"
"1C51D2A52C004D2196F28D04A14A70A6",1,"01990a9a-4dd8-7c35-bcf9-828173ce821a","01990a84-c4ee-73c2-a87b-ff46a7d3dde5","2025-09-02_09h25.58.743",NA,NA,233.0825,233.0825,233.0825,233.4293,NA,NA,NA,NA,NA,NA,NA,TRUE,1,1.4335,230.081,233.0824,0,31,31,104,1,200,35,NA,NA,NA,NA,NA,1,32,"likert"
"1C51D2A52C004D2196F28D04A14A70A6",1,"01990a9a-4dd8-7c35-bcf9-828173ce821a","01990a84-c4ee-73c2-a87b-ff46a7d3dde5","2025-09-02_09h25.58.743",NA,NA,236.4292,236.4292,236.4292,236.7788,NA,NA,NA,NA,NA,NA,NA,TRUE,1,1.5332,233.4304,236.429,0,32,32,24,1,21,26,NA,NA,NA,NA,NA,1,33,"likert"
"1C51D2A52C004D2196F28D04A14A70A6",1,"01990a9a-4dd8-7c35-bcf9-828173ce821a","01990a84-c4ee-73c2-a87b-ff46a7d3dde5","2025-09-02_09h25.58.743",NA,NA,239.7822,240.0467,240.0467,240.129,NA,NA,NA,NA,NA,NA,NA,FALSE,NA,NA,236.7797,239.7821,0,33,33,64,1,50,46,NA,NA,NA,NA,NA,1,34,"likert"
"1C51D2A52C004D2196F28D04A14A70A6",1,"01990a9a-4dd8-7c35-bcf9-828173ce821a","01990a84-c4ee-73c2-a87b-ff46a7d3dde5","2025-09-02_09h25.58.743",NA,NA,243.145,243.145,243.1451,243.4948,NA,NA,NA,NA,NA,NA,NA,TRUE,1,1.1517,240.13,243.1449,0,34,34,51,1,40,40,NA,NA,NA,NA,NA,1,35,"likert"
"1C51D2A52C004D2196F28D04A14A70A6",1,"01990a9a-4dd8-7c35-bcf9-828173ce821a","01990a84-c4ee-73c2-a87b-ff46a7d3dde5","2025-09-02_09h25.58.743",NA,NA,246.4942,246.4942,246.4942,246.8448,NA,NA,NA,NA,NA,NA,NA,TRUE,2,2.9856,243.4954,246.4941,0,35,35,35,1,25,46,NA,NA,NA,NA,NA,1,36,"likert"
"1C51D2A52C004D2196F28D04A14A70A6",1,"01990a9a-4dd8-7c35-bcf9-828173ce821a","01990a84-c4ee-73c2-a87b-ff46a7d3dde5","2025-09-02_09h25.58.743",NA,NA,249.8445,250.0941,250.0942,250.1943,NA,NA,NA,NA,NA,NA,NA,FALSE,NA,NA,246.8456,249.8443,0,36,36,58,1,45,40,NA,NA,NA,NA,NA,1,37,"likert"
"1C51D2A52C004D2196F28D04A14A70A6",1,"01990a9a-4dd8-7c35-bcf9-828173ce821a","01990a84-c4ee-73c2-a87b-ff46a7d3dde5","2025-09-02_09h25.58.743",NA,NA,253.1944,253.4439,253.4439,253.5435,NA,NA,NA,NA,NA,NA,NA,FALSE,NA,NA,250.1953,253.1939,0,37,37,30,1,25,27,NA,NA,NA,NA,NA,1,38,"likert"
"1C51D2A52C004D2196F28D04A14A70A6",1,"01990a9a-4dd8-7c35-bcf9-828173ce821a","01990a84-c4ee-73c2-a87b-ff46a7d3dde5","2025-09-02_09h25.58.743",NA,NA,256.5438,256.7935,256.7936,256.8935,NA,NA,NA,NA,NA,NA,NA,FALSE,NA,NA,253.5448,256.5434,0,38,38,22,1,14,35,NA,NA,NA,NA,NA,1,39,"likert"
"1C51D2A52C004D2196F28D04A14A70A6",1,"01990a9a-4dd8-7c35-bcf9-828173ce821a","01990a84-c4ee-73c2-a87b-ff46a7d3dde5","2025-09-02_09h25.58.743",NA,NA,259.8931,260.1434,260.1435,260.2434,NA,NA,NA,NA,NA,NA,NA,FALSE,NA,NA,256.8947,259.8929,0,39,39,43,1,30,27,NA,NA,NA,NA,NA,1,40,"likert"
"1C51D2A52C004D2196F28D04A14A70A6",1,"01990a9a-4dd8-7c35-bcf9-828173ce821a","01990a84-c4ee-73c2-a87b-ff46a7d3dde5","2025-09-02_09h25.58.743",NA,NA,263.2432,263.2432,263.2432,263.5925,NA,NA,NA,NA,NA,NA,NA,TRUE,2,1.567,260.2443,263.2431,0,40,40,69,1,60,40,NA,NA,NA,NA,NA,1,41,"likert"
"1C51D2A52C004D2196F28D04A14A70A6",1,"01990a9a-4dd8-7c35-bcf9-828173ce821a","01990a84-c4ee-73c2-a87b-ff46a7d3dde5","2025-09-02_09h25.58.743",NA,NA,266.5929,266.5929,266.5929,266.9423,NA,NA,NA,NA,NA,NA,NA,TRUE,1,0.8425,263.5932,266.5926,0,41,41,77,1,90,54,NA,NA,NA,NA,NA,1,42,"likert"
"1C51D2A52C004D2196F28D04A14A70A6",1,"01990a9a-4dd8-7c35-bcf9-828173ce821a","01990a84-c4ee-73c2-a87b-ff46a7d3dde5","2025-09-02_09h25.58.743",NA,NA,269.9419,269.9419,269.9419,270.2921,NA,NA,NA,NA,NA,NA,NA,TRUE,1,1.3528,266.9435,269.9419,0,42,42,94,1,150,47,NA,NA,NA,NA,NA,1,43,"likert"
"1C51D2A52C004D2196F28D04A14A70A6",1,"01990a9a-4dd8-7c35-bcf9-828173ce821a","01990a84-c4ee-73c2-a87b-ff46a7d3dde5","2025-09-02_09h25.58.743",NA,NA,273.292,273.292,273.292,273.6419,NA,NA,NA,NA,NA,NA,NA,TRUE,1,1.7805,270.2928,273.2919,0,43,43,84,1,100,26,NA,NA,NA,NA,NA,1,44,"likert"
"1C51D2A52C004D2196F28D04A14A70A6",1,"01990a9a-4dd8-7c35-bcf9-828173ce821a","01990a84-c4ee-73c2-a87b-ff46a7d3dde5","2025-09-02_09h25.58.743",NA,NA,276.6421,276.6421,276.6421,276.9917,NA,NA,NA,NA,NA,NA,NA,TRUE,2,1.3549,273.6425,276.6419,0,44,44,44,1,30,29,NA,NA,NA,NA,NA,1,45,"likert"
"1C51D2A52C004D2196F28D04A14A70A6",1,"01990a9a-4dd8-7c35-bcf9-828173ce821a","01990a84-c4ee-73c2-a87b-ff46a7d3dde5","2025-09-02_09h25.58.743",NA,NA,279.9913,279.9913,279.9913,280.3413,NA,NA,NA,NA,NA,NA,NA,TRUE,1,0.901,276.9927,279.9912,0,45,45,79,1,95,33,NA,NA,NA,NA,NA,1,46,"likert"
"1C51D2A52C004D2196F28D04A14A70A6",1,"01990a9a-4dd8-7c35-bcf9-828173ce821a","01990a84-c4ee-73c2-a87b-ff46a7d3dde5","2025-09-02_09h25.58.743",NA,NA,283.341,283.341,283.341,283.6908,NA,NA,NA,NA,NA,NA,NA,TRUE,1,0.8709,280.3421,283.3409,0,46,46,67,1,60,33,NA,NA,NA,NA,NA,1,47,"likert"
"1C51D2A52C004D2196F28D04A14A70A6",1,"01990a9a-4dd8-7c35-bcf9-828173ce821a","01990a84-c4ee-73c2-a87b-ff46a7d3dde5","2025-09-02_09h25.58.743",NA,NA,286.6905,286.6905,286.6905,287.04,NA,NA,NA,NA,NA,NA,NA,TRUE,2,1.8805,283.692,286.6904,0,47,47,75,1,90,40,NA,NA,NA,NA,NA,1,48,"likert"
"1C51D2A52C004D2196F28D04A14A70A6",1,"01990a9a-4dd8-7c35-bcf9-828173ce821a","01990a84-c4ee-73c2-a87b-ff46a7d3dde5","2025-09-02_09h25.58.743",NA,NA,290.0403,290.0403,290.0403,290.3901,NA,NA,NA,NA,NA,NA,NA,TRUE,1,1.2409,287.0412,290.0402,0,48,48,9,1,10,29,NA,NA,NA,NA,NA,1,49,"likert"
"1C51D2A52C004D2196F28D04A14A70A6",1,"01990a9a-4dd8-7c35-bcf9-828173ce821a","01990a84-c4ee-73c2-a87b-ff46a7d3dde5","2025-09-02_09h25.58.743",NA,NA,293.3899,293.3899,293.3899,293.7394,NA,NA,NA,NA,NA,NA,NA,TRUE,1,1.3472,290.391,293.3897,0,49,49,18,1,14,25,NA,NA,NA,NA,NA,1,50,"likert"
"1C51D2A52C004D2196F28D04A14A70A6",1,"01990a9a-4dd8-7c35-bcf9-828173ce821a","01990a84-c4ee-73c2-a87b-ff46a7d3dde5","2025-09-02_09h25.58.743",NA,NA,296.7396,296.7396,296.7396,297.0894,NA,NA,NA,NA,NA,NA,NA,TRUE,1,1.219,293.7403,296.7394,0,50,50,70,1,60,47,NA,NA,NA,NA,NA,1,51,"likert"
"1C51D2A52C004D2196F28D04A14A70A6",1,"01990a9a-4dd8-7c35-bcf9-828173ce821a","01990a84-c4ee-73c2-a87b-ff46a7d3dde5","2025-09-02_09h25.58.743",NA,NA,300.0894,300.0894,300.0895,300.439,NA,NA,NA,NA,NA,NA,NA,TRUE,1,1.1647,297.0903,300.0893,0,51,51,16,1,12,33,NA,NA,NA,NA,NA,1,52,"likert"
"1C51D2A52C004D2196F28D04A14A70A6",1,"01990a9a-4dd8-7c35-bcf9-828173ce821a","01990a84-c4ee-73c2-a87b-ff46a7d3dde5","2025-09-02_09h25.58.743",NA,NA,303.4389,303.439,303.439,303.7885,NA,NA,NA,NA,NA,NA,NA,TRUE,1,1.1813,300.4408,303.4387,0,52,52,90,1,150,31,NA,NA,NA,NA,NA,1,53,"likert"
"1C51D2A52C004D2196F28D04A14A70A6",1,"01990a9a-4dd8-7c35-bcf9-828173ce821a","01990a84-c4ee-73c2-a87b-ff46a7d3dde5","2025-09-02_09h25.58.743",NA,NA,306.7882,306.7882,306.7882,307.1384,NA,NA,NA,NA,NA,NA,NA,TRUE,1,1.3152,303.7895,306.7882,0,53,53,97,1,180,31,NA,NA,NA,NA,NA,1,54,"likert"
"1C51D2A52C004D2196F28D04A14A70A6",1,"01990a9a-4dd8-7c35-bcf9-828173ce821a","01990a84-c4ee-73c2-a87b-ff46a7d3dde5","2025-09-02_09h25.58.743",NA,NA,310.1378,310.1378,310.1379,310.4877,NA,NA,NA,NA,NA,NA,NA,TRUE,1,1.1585,307.1395,310.1377,0,54,54,5,1,7,35,NA,NA,NA,NA,NA,1,55,"likert"
"1C51D2A52C004D2196F28D04A14A70A6",1,"01990a9a-4dd8-7c35-bcf9-828173ce821a","01990a84-c4ee-73c2-a87b-ff46a7d3dde5","2025-09-02_09h25.58.743",NA,NA,313.4877,313.4878,313.4878,313.8374,NA,NA,NA,NA,NA,NA,NA,TRUE,1,1.5652,310.4889,313.4877,0,55,55,27,1,21,30,NA,NA,NA,NA,NA,1,56,"likert"
"1C51D2A52C004D2196F28D04A14A70A6",1,"01990a9a-4dd8-7c35-bcf9-828173ce821a","01990a84-c4ee-73c2-a87b-ff46a7d3dde5","2025-09-02_09h25.58.743",NA,NA,316.8379,316.8379,316.8379,317.1877,NA,NA,NA,NA,NA,NA,NA,TRUE,1,0.9571,313.8385,316.8378,0,56,56,98,1,180,35,NA,NA,NA,NA,NA,1,57,"likert"
"1C51D2A52C004D2196F28D04A14A70A6",1,"01990a9a-4dd8-7c35-bcf9-828173ce821a","01990a84-c4ee-73c2-a87b-ff46a7d3dde5","2025-09-02_09h25.58.743",NA,NA,320.1873,320.1873,320.1873,320.5371,NA,NA,NA,NA,NA,NA,NA,TRUE,2,1.963,317.1891,320.1871,0,57,57,59,1,45,46,NA,NA,NA,NA,NA,1,58,"likert"
"1C51D2A52C004D2196F28D04A14A70A6",1,"01990a9a-4dd8-7c35-bcf9-828173ce821a","01990a84-c4ee-73c2-a87b-ff46a7d3dde5","2025-09-02_09h25.58.743",NA,NA,323.5368,323.5368,323.5368,323.8864,NA,NA,NA,NA,NA,NA,NA,TRUE,2,1.3073,320.5381,323.5367,0,58,58,36,1,28,26,NA,NA,NA,NA,NA,1,59,"likert"
"1C51D2A52C004D2196F28D04A14A70A6",1,"01990a9a-4dd8-7c35-bcf9-828173ce821a","01990a84-c4ee-73c2-a87b-ff46a7d3dde5","2025-09-02_09h25.58.743",NA,NA,326.8861,326.8861,326.8861,327.2359,NA,NA,NA,NA,NA,NA,NA,TRUE,1,1.4825,323.887,326.886,0,59,59,62,1,50,35,NA,NA,NA,NA,NA,1,60,"likert"
"1C51D2A52C004D2196F28D04A14A70A6",1,"01990a9a-4dd8-7c35-bcf9-828173ce821a","01990a84-c4ee-73c2-a87b-ff46a7d3dde5","2025-09-02_09h25.58.743",NA,NA,330.2362,330.2362,330.2363,330.5855,NA,NA,NA,NA,NA,NA,NA,TRUE,1,0.7037,327.2372,330.2361,0,60,60,57,1,45,35,NA,NA,NA,NA,NA,1,61,"likert"
"1C51D2A52C004D2196F28D04A14A70A6",1,"01990a9a-4dd8-7c35-bcf9-828173ce821a","01990a84-c4ee-73c2-a87b-ff46a7d3dde5","2025-09-02_09h25.58.743",NA,NA,333.586,333.586,333.586,333.9353,NA,NA,NA,NA,NA,NA,NA,TRUE,2,0.9318,330.5863,333.5859,0,61,61,4,1,7,32,NA,NA,NA,NA,NA,1,62,"likert"
"1C51D2A52C004D2196F28D04A14A70A6",1,"01990a9a-4dd8-7c35-bcf9-828173ce821a","01990a84-c4ee-73c2-a87b-ff46a7d3dde5","2025-09-02_09h25.58.743",NA,NA,336.9352,336.9352,336.9352,337.2853,NA,NA,NA,NA,NA,NA,NA,TRUE,1,1.8535,333.9366,336.935,0,62,62,0,1,7,25,NA,NA,NA,NA,NA,1,63,"likert"
"1C51D2A52C004D2196F28D04A14A70A6",1,"01990a9a-4dd8-7c35-bcf9-828173ce821a","01990a84-c4ee-73c2-a87b-ff46a7d3dde5","2025-09-02_09h25.58.743",NA,NA,340.2857,340.5351,340.5351,340.635,NA,NA,NA,NA,NA,NA,NA,FALSE,NA,NA,337.2865,340.2856,0,63,63,46,1,30,32,NA,NA,NA,NA,NA,1,64,"likert"
"1C51D2A52C004D2196F28D04A14A70A6",1,"01990a9a-4dd8-7c35-bcf9-828173ce821a","01990a84-c4ee-73c2-a87b-ff46a7d3dde5","2025-09-02_09h25.58.743",NA,NA,343.6383,343.6383,343.6383,343.9842,NA,NA,NA,NA,NA,NA,NA,TRUE,2,1.2745,340.6359,343.6382,0,64,64,81,1,95,40,NA,NA,NA,NA,NA,1,65,"likert"
"1C51D2A52C004D2196F28D04A14A70A6",1,"01990a9a-4dd8-7c35-bcf9-828173ce821a","01990a84-c4ee-73c2-a87b-ff46a7d3dde5","2025-09-02_09h25.58.743",NA,NA,346.9842,347.2341,347.2341,347.3345,NA,NA,NA,NA,NA,NA,NA,FALSE,NA,NA,343.9851,346.9841,0,65,65,107,1,200,54,NA,NA,NA,NA,NA,1,66,"likert"
"1C51D2A52C004D2196F28D04A14A70A6",1,"01990a9a-4dd8-7c35-bcf9-828173ce821a","01990a84-c4ee-73c2-a87b-ff46a7d3dde5","2025-09-02_09h25.58.743",NA,NA,350.3337,350.5836,350.5837,350.6845,NA,NA,NA,NA,NA,NA,NA,FALSE,NA,NA,347.336,350.3337,0,66,66,60,1,50,27,NA,NA,NA,NA,NA,1,67,"likert"
"1C51D2A52C004D2196F28D04A14A70A6",1,"01990a9a-4dd8-7c35-bcf9-828173ce821a","01990a84-c4ee-73c2-a87b-ff46a7d3dde5","2025-09-02_09h25.58.743",NA,NA,353.6837,353.6837,353.6837,354.0336,NA,NA,NA,NA,NA,NA,NA,TRUE,1,0.8098,350.6857,353.6836,0,67,67,42,1,30,26,NA,NA,NA,NA,NA,1,68,"likert"
"1C51D2A52C004D2196F28D04A14A70A6",1,"01990a9a-4dd8-7c35-bcf9-828173ce821a","01990a84-c4ee-73c2-a87b-ff46a7d3dde5","2025-09-02_09h25.58.743",NA,NA,357.0334,357.0334,357.0334,357.3833,NA,NA,NA,NA,NA,NA,NA,TRUE,1,0.5846,354.035,357.0333,0,68,68,86,1,100,38,NA,NA,NA,NA,NA,1,69,"likert"
"1C51D2A52C004D2196F28D04A14A70A6",1,"01990a9a-4dd8-7c35-bcf9-828173ce821a","01990a84-c4ee-73c2-a87b-ff46a7d3dde5","2025-09-02_09h25.58.743",NA,NA,360.3828,360.3829,360.3829,360.7329,NA,NA,NA,NA,NA,NA,NA,TRUE,2,0.8423,357.3848,360.3828,0,69,69,17,1,12,35,NA,NA,NA,NA,NA,1,70,"likert"
"1C51D2A52C004D2196F28D04A14A70A6",1,"01990a9a-4dd8-7c35-bcf9-828173ce821a","01990a84-c4ee-73c2-a87b-ff46a7d3dde5","2025-09-02_09h25.58.743",NA,NA,363.7327,363.7327,363.7327,364.0823,NA,NA,NA,NA,NA,NA,NA,TRUE,1,0.562,360.7342,363.7325,0,70,70,12,1,12,25,NA,NA,NA,NA,NA,1,71,"likert"
"1C51D2A52C004D2196F28D04A14A70A6",1,"01990a9a-4dd8-7c35-bcf9-828173ce821a","01990a84-c4ee-73c2-a87b-ff46a7d3dde5","2025-09-02_09h25.58.743",NA,NA,367.0824,367.0824,367.0824,367.4321,NA,NA,NA,NA,NA,NA,NA,TRUE,1,1.0575,364.0836,367.0822,0,71,71,37,1,28,28,NA,NA,NA,NA,NA,1,72,"likert"
"1C51D2A52C004D2196F28D04A14A70A6",1,"01990a9a-4dd8-7c35-bcf9-828173ce821a","01990a84-c4ee-73c2-a87b-ff46a7d3dde5","2025-09-02_09h25.58.743",NA,NA,370.4318,370.4318,370.4318,370.7816,NA,NA,NA,NA,NA,NA,NA,TRUE,1,0.6876,367.4329,370.4316,0,72,72,2,1,7,28,NA,NA,NA,NA,NA,1,73,"likert"
"1C51D2A52C004D2196F28D04A14A70A6",1,"01990a9a-4dd8-7c35-bcf9-828173ce821a","01990a84-c4ee-73c2-a87b-ff46a7d3dde5","2025-09-02_09h25.58.743",NA,NA,373.7813,373.7814,373.7814,374.1353,NA,NA,NA,NA,NA,NA,NA,TRUE,1,1.0182,370.7826,373.7812,0,73,73,40,1,28,39,NA,NA,NA,NA,NA,1,74,"likert"
"1C51D2A52C004D2196F28D04A14A70A6",1,"01990a9a-4dd8-7c35-bcf9-828173ce821a","01990a84-c4ee-73c2-a87b-ff46a7d3dde5","2025-09-02_09h25.58.743",NA,NA,377.1311,377.1311,377.1311,377.4809,NA,NA,NA,NA,NA,NA,NA,TRUE,1,0.8019,374.1367,377.1311,0,74,74,13,1,12,26,NA,NA,NA,NA,NA,1,75,"likert"
"1C51D2A52C004D2196F28D04A14A70A6",1,"01990a9a-4dd8-7c35-bcf9-828173ce821a","01990a84-c4ee-73c2-a87b-ff46a7d3dde5","2025-09-02_09h25.58.743",NA,NA,380.4813,380.4813,380.4814,380.8307,NA,NA,NA,NA,NA,NA,NA,TRUE,1,0.9383,377.4821,380.481,0,75,75,103,1,200,28,NA,NA,NA,NA,NA,1,76,"likert"
"1C51D2A52C004D2196F28D04A14A70A6",1,"01990a9a-4dd8-7c35-bcf9-828173ce821a","01990a84-c4ee-73c2-a87b-ff46a7d3dde5","2025-09-02_09h25.58.743",NA,NA,383.8303,383.8303,383.8303,384.1802,NA,NA,NA,NA,NA,NA,NA,TRUE,1,1.7703,380.8323,383.8302,0,76,76,96,1,180,27,NA,NA,NA,NA,NA,1,77,"likert"
"1C51D2A52C004D2196F28D04A14A70A6",1,"01990a9a-4dd8-7c35-bcf9-828173ce821a","01990a84-c4ee-73c2-a87b-ff46a7d3dde5","2025-09-02_09h25.58.743",NA,NA,387.1797,387.1798,387.1798,387.5298,NA,NA,NA,NA,NA,NA,NA,TRUE,2,1.0342,384.1814,387.1796,0,77,77,15,1,12,31,NA,NA,NA,NA,NA,1,78,"likert"
"1C51D2A52C004D2196F28D04A14A70A6",1,"01990a9a-4dd8-7c35-bcf9-828173ce821a","01990a84-c4ee-73c2-a87b-ff46a7d3dde5","2025-09-02_09h25.58.743",NA,NA,390.5298,390.5298,390.5298,390.8794,NA,NA,NA,NA,NA,NA,NA,TRUE,2,0.7267,387.5309,390.5297,0,78,78,25,1,21,27,NA,NA,NA,NA,NA,1,79,"likert"
"1C51D2A52C004D2196F28D04A14A70A6",1,"01990a9a-4dd8-7c35-bcf9-828173ce821a","01990a84-c4ee-73c2-a87b-ff46a7d3dde5","2025-09-02_09h25.58.743",NA,NA,393.8794,393.8795,393.8795,394.2293,NA,NA,NA,NA,NA,NA,NA,TRUE,1,0.8512,390.8804,393.8794,0,79,79,100,1,180,46,NA,NA,NA,NA,NA,1,80,"likert"
"1C51D2A52C004D2196F28D04A14A70A6",1,"01990a9a-4dd8-7c35-bcf9-828173ce821a","01990a84-c4ee-73c2-a87b-ff46a7d3dde5","2025-09-02_09h25.58.743",NA,NA,397.2323,397.2323,397.2325,397.5952,NA,NA,NA,NA,NA,NA,NA,TRUE,1,1.4711,394.2304,397.2321,0,80,80,38,1,28,32,NA,NA,NA,NA,NA,1,81,"likert"
"1C51D2A52C004D2196F28D04A14A70A6",1,"01990a9a-4dd8-7c35-bcf9-828173ce821a","01990a84-c4ee-73c2-a87b-ff46a7d3dde5","2025-09-02_09h25.58.743",NA,NA,400.5787,400.5788,400.5788,400.9287,NA,NA,NA,NA,NA,NA,NA,TRUE,2,0.7678,397.5962,400.5786,0,81,81,14,1,12,28,NA,NA,NA,NA,NA,1,82,"likert"
"1C51D2A52C004D2196F28D04A14A70A6",1,"01990a9a-4dd8-7c35-bcf9-828173ce821a","01990a84-c4ee-73c2-a87b-ff46a7d3dde5","2025-09-02_09h25.58.743",NA,NA,403.9286,403.9287,403.9287,404.2948,NA,NA,NA,NA,NA,NA,NA,TRUE,2,1.2753,400.9295,403.9285,0,82,82,53,1,40,54,NA,NA,NA,NA,NA,1,83,"likert"
"1C51D2A52C004D2196F28D04A14A70A6",1,"01990a9a-4dd8-7c35-bcf9-828173ce821a","01990a84-c4ee-73c2-a87b-ff46a7d3dde5","2025-09-02_09h25.58.743",NA,NA,407.295,407.2951,407.2951,407.6446,NA,NA,NA,NA,NA,NA,NA,TRUE,1,1.9026,404.2957,407.2949,0,83,83,66,1,60,29,NA,NA,NA,NA,NA,1,84,"likert"
"1C51D2A52C004D2196F28D04A14A70A6",1,"01990a9a-4dd8-7c35-bcf9-828173ce821a","01990a84-c4ee-73c2-a87b-ff46a7d3dde5","2025-09-02_09h25.58.743",NA,NA,410.6442,410.6443,410.6443,410.994,NA,NA,NA,NA,NA,NA,NA,TRUE,1,1.2321,407.646,410.6441,0,84,84,78,1,95,31,NA,NA,NA,NA,NA,1,85,"likert"
"1C51D2A52C004D2196F28D04A14A70A6",1,"01990a9a-4dd8-7c35-bcf9-828173ce821a","01990a84-c4ee-73c2-a87b-ff46a7d3dde5","2025-09-02_09h25.58.743",NA,NA,413.9937,414.2435,414.2436,414.3438,NA,NA,NA,NA,NA,NA,NA,FALSE,NA,NA,410.9957,413.9936,0,85,85,10,1,10,30,NA,NA,NA,NA,NA,1,86,"likert"
"1C51D2A52C004D2196F28D04A14A70A6",1,"01990a9a-4dd8-7c35-bcf9-828173ce821a","01990a84-c4ee-73c2-a87b-ff46a7d3dde5","2025-09-02_09h25.58.743",NA,NA,417.3312,417.3312,417.3312,417.693,NA,NA,NA,NA,NA,NA,NA,TRUE,1,0.2008,414.3454,417.3311,0,86,86,33,1,25,33,NA,NA,NA,NA,NA,1,87,"likert"
"1C51D2A52C004D2196F28D04A14A70A6",1,"01990a9a-4dd8-7c35-bcf9-828173ce821a","01990a84-c4ee-73c2-a87b-ff46a7d3dde5","2025-09-02_09h25.58.743",NA,NA,420.6808,420.6808,420.6808,421.0429,NA,NA,NA,NA,NA,NA,NA,TRUE,1,1.0503,417.694,420.6806,0,87,87,80,1,95,35,NA,NA,NA,NA,NA,1,88,"likert"
"1C51D2A52C004D2196F28D04A14A70A6",1,"01990a9a-4dd8-7c35-bcf9-828173ce821a","01990a84-c4ee-73c2-a87b-ff46a7d3dde5","2025-09-02_09h25.58.743",NA,NA,424.0432,424.0432,424.0433,424.3927,NA,NA,NA,NA,NA,NA,NA,TRUE,2,1.0389,421.0442,424.043,0,88,88,8,1,10,27,NA,NA,NA,NA,NA,1,89,"likert"
"1C51D2A52C004D2196F28D04A14A70A6",1,"01990a9a-4dd8-7c35-bcf9-828173ce821a","01990a84-c4ee-73c2-a87b-ff46a7d3dde5","2025-09-02_09h25.58.743",NA,NA,427.393,427.393,427.3931,427.7425,NA,NA,NA,NA,NA,NA,NA,TRUE,1,1.1956,424.3936,427.3928,0,89,89,50,1,40,35,NA,NA,NA,NA,NA,1,90,"likert"
"1C51D2A52C004D2196F28D04A14A70A6",1,"01990a9a-4dd8-7c35-bcf9-828173ce821a","01990a84-c4ee-73c2-a87b-ff46a7d3dde5","2025-09-02_09h25.58.743",NA,NA,430.7419,430.7419,430.7419,431.0916,NA,NA,NA,NA,NA,NA,NA,TRUE,2,1.0627,427.7445,430.7418,0,90,90,82,1,95,47,NA,NA,NA,NA,NA,1,91,"likert"
"1C51D2A52C004D2196F28D04A14A70A6",1,"01990a9a-4dd8-7c35-bcf9-828173ce821a","01990a84-c4ee-73c2-a87b-ff46a7d3dde5","2025-09-02_09h25.58.743",NA,NA,434.0926,434.3415,434.3416,434.4419,NA,NA,NA,NA,NA,NA,NA,FALSE,NA,NA,431.0931,434.0924,0,91,91,39,1,28,35,NA,NA,NA,NA,NA,1,92,"likert"
"1C51D2A52C004D2196F28D04A14A70A6",1,"01990a9a-4dd8-7c35-bcf9-828173ce821a","01990a84-c4ee-73c2-a87b-ff46a7d3dde5","2025-09-02_09h25.58.743",NA,NA,437.4457,437.6947,437.6947,437.791,NA,NA,NA,NA,NA,NA,NA,FALSE,NA,NA,434.4433,437.4455,0,92,92,73,1,90,30,NA,NA,NA,NA,NA,1,93,"likert"
"1C51D2A52C004D2196F28D04A14A70A6",1,"01990a9a-4dd8-7c35-bcf9-828173ce821a","01990a84-c4ee-73c2-a87b-ff46a7d3dde5","2025-09-02_09h25.58.743",NA,NA,440.7913,440.7914,440.7914,441.1413,NA,NA,NA,NA,NA,NA,NA,TRUE,1,2.3745,437.792,440.7912,0,93,93,21,1,14,32,NA,NA,NA,NA,NA,1,94,"likert"
"1C51D2A52C004D2196F28D04A14A70A6",1,"01990a9a-4dd8-7c35-bcf9-828173ce821a","01990a84-c4ee-73c2-a87b-ff46a7d3dde5","2025-09-02_09h25.58.743",NA,NA,444.1412,444.1413,444.1413,444.4911,NA,NA,NA,NA,NA,NA,NA,TRUE,2,1.6547,441.1429,444.141,0,94,94,32,1,25,31,NA,NA,NA,NA,NA,1,95,"likert"
"1C51D2A52C004D2196F28D04A14A70A6",1,"01990a9a-4dd8-7c35-bcf9-828173ce821a","01990a84-c4ee-73c2-a87b-ff46a7d3dde5","2025-09-02_09h25.58.743",NA,NA,447.4908,447.4908,447.4908,447.841,NA,NA,NA,NA,NA,NA,NA,TRUE,1,1.2467,444.4927,447.4907,0,95,95,1,1,7,26,NA,NA,NA,NA,NA,1,96,"likert"
"1C51D2A52C004D2196F28D04A14A70A6",1,"01990a9a-4dd8-7c35-bcf9-828173ce821a","01990a84-c4ee-73c2-a87b-ff46a7d3dde5","2025-09-02_09h25.58.743",NA,NA,450.8401,450.8401,450.8401,451.1901,NA,NA,NA,NA,NA,NA,NA,TRUE,2,1.1356,447.8423,450.8399,0,96,96,45,1,30,30,NA,NA,NA,NA,NA,1,97,"likert"
"1C51D2A52C004D2196F28D04A14A70A6",1,"01990a9a-4dd8-7c35-bcf9-828173ce821a","01990a84-c4ee-73c2-a87b-ff46a7d3dde5","2025-09-02_09h25.58.743",NA,NA,454.1907,454.1907,454.1907,454.5398,NA,NA,NA,NA,NA,NA,NA,TRUE,1,0.9662,451.192,454.1902,0,97,97,11,1,10,32,NA,NA,NA,NA,NA,1,98,"likert"
"1C51D2A52C004D2196F28D04A14A70A6",1,"01990a9a-4dd8-7c35-bcf9-828173ce821a","01990a84-c4ee-73c2-a87b-ff46a7d3dde5","2025-09-02_09h25.58.743",NA,NA,457.5397,457.5397,457.5397,457.8894,NA,NA,NA,NA,NA,NA,NA,TRUE,2,0.9497,454.5415,457.5394,0,98,98,29,1,21,38,NA,NA,NA,NA,NA,1,99,"likert"
"1C51D2A52C004D2196F28D04A14A70A6",1,"01990a9a-4dd8-7c35-bcf9-828173ce821a","01990a84-c4ee-73c2-a87b-ff46a7d3dde5","2025-09-02_09h25.58.743",NA,NA,460.8892,460.8892,460.8893,461.2387,NA,NA,NA,NA,NA,NA,NA,TRUE,2,1.2017,457.8908,460.889,0,99,99,87,1,100,39,NA,NA,NA,NA,NA,1,100,"likert"
"1C51D2A52C004D2196F28D04A14A70A6",1,"01990a9a-4dd8-7c35-bcf9-828173ce821a","01990a84-c4ee-73c2-a87b-ff46a7d3dde5","2025-09-02_09h25.58.743",NA,NA,464.2389,464.2389,464.2389,464.5903,NA,NA,NA,NA,NA,NA,NA,TRUE,2,1.3269,461.2401,464.2386,0,100,100,76,1,90,46,NA,NA,NA,NA,NA,1,101,"likert"
"1C51D2A52C004D2196F28D04A14A70A6",1,"01990a9a-4dd8-7c35-bcf9-828173ce821a","01990a84-c4ee-73c2-a87b-ff46a7d3dde5","2025-09-02_09h25.58.743",NA,NA,467.5789,467.5791,467.5792,467.9386,NA,NA,NA,NA,NA,NA,NA,TRUE,1,1.9052,464.5919,467.5788,0,101,101,83,1,95,54,NA,NA,NA,NA,NA,1,102,"likert"
"1C51D2A52C004D2196F28D04A14A70A6",1,"01990a9a-4dd8-7c35-bcf9-828173ce821a","01990a84-c4ee-73c2-a87b-ff46a7d3dde5","2025-09-02_09h25.58.743",NA,NA,470.9384,470.9384,470.9384,471.2882,NA,NA,NA,NA,NA,NA,NA,TRUE,2,1.5117,467.9402,470.9382,0,102,102,3,1,7,30,NA,NA,NA,NA,NA,1,103,"likert"
"1C51D2A52C004D2196F28D04A14A70A6",1,"01990a9a-4dd8-7c35-bcf9-828173ce821a","01990a84-c4ee-73c2-a87b-ff46a7d3dde5","2025-09-02_09h25.58.743",NA,NA,474.2875,474.2875,474.2875,474.6411,NA,NA,NA,NA,NA,NA,NA,TRUE,1,0.7818,471.29,474.2874,0,103,103,65,1,50,54,NA,NA,NA,NA,NA,1,104,"likert"
"1C51D2A52C004D2196F28D04A14A70A6",1,"01990a9a-4dd8-7c35-bcf9-828173ce821a","01990a84-c4ee-73c2-a87b-ff46a7d3dde5","2025-09-02_09h25.58.743",NA,NA,477.6377,477.6377,477.6377,477.9874,NA,NA,NA,NA,NA,NA,NA,TRUE,1,1.4994,474.6421,477.6375,0,104,104,102,1,200,26,NA,NA,NA,NA,NA,1,105,"likert"
"1C51D2A52C004D2196F28D04A14A70A6",1,"01990a9a-4dd8-7c35-bcf9-828173ce821a","01990a84-c4ee-73c2-a87b-ff46a7d3dde5","2025-09-02_09h25.58.743",NA,NA,480.9867,480.9867,480.9867,481.3366,NA,NA,NA,NA,NA,NA,NA,TRUE,1,2.1351,477.9884,480.9866,0,105,105,52,1,40,47,NA,NA,NA,NA,NA,1,106,"likert"
"1C51D2A52C004D2196F28D04A14A70A6",1,"01990a9a-4dd8-7c35-bcf9-828173ce821a","01990a84-c4ee-73c2-a87b-ff46a7d3dde5","2025-09-02_09h25.58.743",NA,NA,484.339,484.339,484.339,484.6866,NA,NA,NA,NA,NA,NA,NA,TRUE,1,0.9568,481.338,484.3388,0,106,106,101,1,180,54,NA,NA,NA,NA,NA,1,107,"likert"
"1C51D2A52C004D2196F28D04A14A70A6",1,"01990a9a-4dd8-7c35-bcf9-828173ce821a","01990a84-c4ee-73c2-a87b-ff46a7d3dde5","2025-09-02_09h25.58.743",NA,NA,487.6901,487.6901,487.6902,488.0384,NA,NA,NA,NA,NA,NA,NA,TRUE,2,0.987,484.6879,487.69,0,107,107,20,1,14,28,NA,NA,NA,NA,NA,1,108,"likert"
"1C51D2A52C004D2196F28D04A14A70A6",1,"01990a9a-4dd8-7c35-bcf9-828173ce821a","01990a84-c4ee-73c2-a87b-ff46a7d3dde5","2025-09-02_09h25.58.743",NA,NA,534.132,534.1321,534.1322,534.4816,NA,NA,NA,NA,NA,NA,NA,TRUE,2,0.9265,531.1548,534.1317,NA,NA,NA,NA,NA,21,29,0,0,0,26,1,2,1,"likert"
"1C51D2A52C004D2196F28D04A14A70A6",1,"01990a9a-4dd8-7c35-bcf9-828173ce821a","01990a84-c4ee-73c2-a87b-ff46a7d3dde5","2025-09-02_09h25.58.743",NA,NA,537.4809,537.4809,537.4809,537.8306,NA,NA,NA,NA,NA,NA,NA,TRUE,2,0.9976,534.4831,537.4808,NA,NA,NA,NA,NA,100,31,0,1,1,85,1,2,2,"likert"
"1C51D2A52C004D2196F28D04A14A70A6",1,"01990a9a-4dd8-7c35-bcf9-828173ce821a","01990a84-c4ee-73c2-a87b-ff46a7d3dde5","2025-09-02_09h25.58.743",NA,NA,540.8308,541.0805,541.0805,541.18,NA,NA,NA,NA,NA,NA,NA,FALSE,NA,NA,537.832,540.8306,NA,NA,NA,NA,NA,50,54,0,2,2,65,1,2,3,"likert"
"1C51D2A52C004D2196F28D04A14A70A6",1,"01990a9a-4dd8-7c35-bcf9-828173ce821a","01990a84-c4ee-73c2-a87b-ff46a7d3dde5","2025-09-02_09h25.58.743",NA,NA,544.1801,544.1801,544.1801,544.5303,NA,NA,NA,NA,NA,NA,NA,TRUE,2,0.9815,541.1808,544.1799,NA,NA,NA,NA,NA,12,35,0,3,3,17,1,2,4,"likert"
"1C51D2A52C004D2196F28D04A14A70A6",1,"01990a9a-4dd8-7c35-bcf9-828173ce821a","01990a84-c4ee-73c2-a87b-ff46a7d3dde5","2025-09-02_09h25.58.743",NA,NA,547.5302,547.5302,547.5302,547.8797,NA,NA,NA,NA,NA,NA,NA,TRUE,1,0.8136,544.5315,547.5298,NA,NA,NA,NA,NA,25,29,0,4,4,31,1,2,5,"likert"
"1C51D2A52C004D2196F28D04A14A70A6",1,"01990a9a-4dd8-7c35-bcf9-828173ce821a","01990a84-c4ee-73c2-a87b-ff46a7d3dde5","2025-09-02_09h25.58.743",NA,NA,550.8799,550.8801,550.8801,551.2293,NA,NA,NA,NA,NA,NA,NA,TRUE,2,0.954,547.8803,550.8797,NA,NA,NA,NA,NA,90,40,0,5,5,75,1,2,6,"likert"
"1C51D2A52C004D2196F28D04A14A70A6",1,"01990a9a-4dd8-7c35-bcf9-828173ce821a","01990a84-c4ee-73c2-a87b-ff46a7d3dde5","2025-09-02_09h25.58.743",NA,NA,554.2291,554.2292,554.2292,554.5787,NA,NA,NA,NA,NA,NA,NA,TRUE,2,2.1811,551.2302,554.229,NA,NA,NA,NA,NA,12,25,0,6,6,12,1,2,7,"likert"
"1C51D2A52C004D2196F28D04A14A70A6",1,"01990a9a-4dd8-7c35-bcf9-828173ce821a","01990a84-c4ee-73c2-a87b-ff46a7d3dde5","2025-09-02_09h25.58.743",NA,NA,557.5791,557.8287,557.8288,557.9291,NA,NA,NA,NA,NA,NA,NA,FALSE,NA,NA,554.5796,557.579,NA,NA,NA,NA,NA,180,31,0,7,7,97,1,2,8,"likert"
"1C51D2A52C004D2196F28D04A14A70A6",1,"01990a9a-4dd8-7c35-bcf9-828173ce821a","01990a84-c4ee-73c2-a87b-ff46a7d3dde5","2025-09-02_09h25.58.743",NA,NA,560.9288,560.9288,560.9288,561.2787,NA,NA,NA,NA,NA,NA,NA,TRUE,2,2.8896,557.9303,560.9287,NA,NA,NA,NA,NA,200,54,0,8,8,107,1,2,9,"likert"
"1C51D2A52C004D2196F28D04A14A70A6",1,"01990a9a-4dd8-7c35-bcf9-828173ce821a","01990a84-c4ee-73c2-a87b-ff46a7d3dde5","2025-09-02_09h25.58.743",NA,NA,564.2785,564.2785,564.2785,564.6283,NA,NA,NA,NA,NA,NA,NA,TRUE,1,1.1155,561.2798,564.2784,NA,NA,NA,NA,NA,60,29,0,9,9,66,1,2,10,"likert"
"1C51D2A52C004D2196F28D04A14A70A6",1,"01990a9a-4dd8-7c35-bcf9-828173ce821a","01990a84-c4ee-73c2-a87b-ff46a7d3dde5","2025-09-02_09h25.58.743",NA,NA,567.628,567.628,567.628,567.978,NA,NA,NA,NA,NA,NA,NA,TRUE,2,1.0978,564.6292,567.628,NA,NA,NA,NA,NA,90,54,0,10,10,77,1,2,11,"likert"
"1C51D2A52C004D2196F28D04A14A70A6",1,"01990a9a-4dd8-7c35-bcf9-828173ce821a","01990a84-c4ee-73c2-a87b-ff46a7d3dde5","2025-09-02_09h25.58.743",NA,NA,570.9775,570.9775,570.9775,571.3275,NA,NA,NA,NA,NA,NA,NA,TRUE,1,1.1045,567.9789,570.9774,NA,NA,NA,NA,NA,180,46,0,11,11,100,1,2,12,"likert"
"1C51D2A52C004D2196F28D04A14A70A6",1,"01990a9a-4dd8-7c35-bcf9-828173ce821a","01990a84-c4ee-73c2-a87b-ff46a7d3dde5","2025-09-02_09h25.58.743",NA,NA,574.3268,574.3268,574.3268,574.677,NA,NA,NA,NA,NA,NA,NA,TRUE,1,1.7232,571.3284,574.3267,NA,NA,NA,NA,NA,100,38,0,12,12,86,1,2,13,"likert"
"1C51D2A52C004D2196F28D04A14A70A6",1,"01990a9a-4dd8-7c35-bcf9-828173ce821a","01990a84-c4ee-73c2-a87b-ff46a7d3dde5","2025-09-02_09h25.58.743",NA,NA,577.6772,577.6773,577.6773,578.027,NA,NA,NA,NA,NA,NA,NA,TRUE,2,1.0026,574.6785,577.6771,NA,NA,NA,NA,NA,60,47,0,13,13,70,1,2,14,"likert"
"1C51D2A52C004D2196F28D04A14A70A6",1,"01990a9a-4dd8-7c35-bcf9-828173ce821a","01990a84-c4ee-73c2-a87b-ff46a7d3dde5","2025-09-02_09h25.58.743",NA,NA,581.027,581.027,581.027,581.3767,NA,NA,NA,NA,NA,NA,NA,TRUE,2,1.4027,578.0282,581.0268,NA,NA,NA,NA,NA,150,31,0,14,14,90,1,2,15,"likert"
"1C51D2A52C004D2196F28D04A14A70A6",1,"01990a9a-4dd8-7c35-bcf9-828173ce821a","01990a84-c4ee-73c2-a87b-ff46a7d3dde5","2025-09-02_09h25.58.743",NA,NA,584.3764,584.3764,584.3765,584.7259,NA,NA,NA,NA,NA,NA,NA,TRUE,2,0.7498,581.3776,584.3762,NA,NA,NA,NA,NA,30,26,0,15,15,42,1,2,16,"likert"
"1C51D2A52C004D2196F28D04A14A70A6",1,"01990a9a-4dd8-7c35-bcf9-828173ce821a","01990a84-c4ee-73c2-a87b-ff46a7d3dde5","2025-09-02_09h25.58.743",NA,NA,587.726,587.726,587.726,588.0751,NA,NA,NA,NA,NA,NA,NA,TRUE,1,1.7388,584.7268,587.7256,NA,NA,NA,NA,NA,180,27,0,16,16,96,1,2,17,"likert"
"1C51D2A52C004D2196F28D04A14A70A6",1,"01990a9a-4dd8-7c35-bcf9-828173ce821a","01990a84-c4ee-73c2-a87b-ff46a7d3dde5","2025-09-02_09h25.58.743",NA,NA,591.0755,591.0755,591.0755,591.4255,NA,NA,NA,NA,NA,NA,NA,TRUE,2,0.902,588.076,591.0751,NA,NA,NA,NA,NA,28,39,0,17,17,40,1,2,18,"likert"
"1C51D2A52C004D2196F28D04A14A70A6",1,"01990a9a-4dd8-7c35-bcf9-828173ce821a","01990a84-c4ee-73c2-a87b-ff46a7d3dde5","2025-09-02_09h25.58.743",NA,NA,594.4256,594.4257,594.4257,594.7754,NA,NA,NA,NA,NA,NA,NA,TRUE,1,0.861,591.4267,594.4254,NA,NA,NA,NA,NA,28,28,0,18,18,37,1,2,19,"likert"
"1C51D2A52C004D2196F28D04A14A70A6",1,"01990a9a-4dd8-7c35-bcf9-828173ce821a","01990a84-c4ee-73c2-a87b-ff46a7d3dde5","2025-09-02_09h25.58.743",NA,NA,597.7752,597.7752,597.7752,598.1248,NA,NA,NA,NA,NA,NA,NA,TRUE,1,1.0702,594.7768,597.775,NA,NA,NA,NA,NA,50,30,0,19,19,61,1,2,20,"likert"
"1C51D2A52C004D2196F28D04A14A70A6",1,"01990a9a-4dd8-7c35-bcf9-828173ce821a","01990a84-c4ee-73c2-a87b-ff46a7d3dde5","2025-09-02_09h25.58.743",NA,NA,601.1247,601.1247,601.1248,601.4737,NA,NA,NA,NA,NA,NA,NA,TRUE,2,0.9723,598.1262,601.1245,NA,NA,NA,NA,NA,12,31,0,20,20,15,1,2,21,"likert"
"1C51D2A52C004D2196F28D04A14A70A6",1,"01990a9a-4dd8-7c35-bcf9-828173ce821a","01990a84-c4ee-73c2-a87b-ff46a7d3dde5","2025-09-02_09h25.58.743",NA,NA,604.4742,604.4742,604.4742,604.8241,NA,NA,NA,NA,NA,NA,NA,TRUE,1,1.1599,601.4747,604.4741,NA,NA,NA,NA,NA,50,35,0,21,21,62,1,2,22,"likert"
"1C51D2A52C004D2196F28D04A14A70A6",1,"01990a9a-4dd8-7c35-bcf9-828173ce821a","01990a84-c4ee-73c2-a87b-ff46a7d3dde5","2025-09-02_09h25.58.743",NA,NA,607.8242,607.8242,607.8242,608.1731,NA,NA,NA,NA,NA,NA,NA,TRUE,2,1.8319,604.8252,607.824,NA,NA,NA,NA,NA,25,46,0,22,22,35,1,2,23,"likert"
"1C51D2A52C004D2196F28D04A14A70A6",1,"01990a9a-4dd8-7c35-bcf9-828173ce821a","01990a84-c4ee-73c2-a87b-ff46a7d3dde5","2025-09-02_09h25.58.743",NA,NA,611.173,611.1731,611.1731,611.5233,NA,NA,NA,NA,NA,NA,NA,TRUE,2,1.2726,608.1739,611.173,NA,NA,NA,NA,NA,14,26,0,23,23,19,1,2,24,"likert"
"1C51D2A52C004D2196F28D04A14A70A6",1,"01990a9a-4dd8-7c35-bcf9-828173ce821a","01990a84-c4ee-73c2-a87b-ff46a7d3dde5","2025-09-02_09h25.58.743",NA,NA,614.523,614.523,614.523,614.8731,NA,NA,NA,NA,NA,NA,NA,TRUE,2,1.331,611.5244,614.5229,NA,NA,NA,NA,NA,14,25,0,24,24,18,1,2,25,"likert"
"1C51D2A52C004D2196F28D04A14A70A6",1,"01990a9a-4dd8-7c35-bcf9-828173ce821a","01990a84-c4ee-73c2-a87b-ff46a7d3dde5","2025-09-02_09h25.58.743",NA,NA,617.8726,617.8726,617.8726,618.2228,NA,NA,NA,NA,NA,NA,NA,TRUE,2,0.9825,614.8743,617.8724,NA,NA,NA,NA,NA,10,25,0,25,25,6,1,2,26,"likert"
"1C51D2A52C004D2196F28D04A14A70A6",1,"01990a9a-4dd8-7c35-bcf9-828173ce821a","01990a84-c4ee-73c2-a87b-ff46a7d3dde5","2025-09-02_09h25.58.743",NA,NA,621.222,621.222,621.222,621.5718,NA,NA,NA,NA,NA,NA,NA,TRUE,2,2.6208,618.2241,621.2219,NA,NA,NA,NA,NA,45,29,0,26,26,55,1,2,27,"likert"
"1C51D2A52C004D2196F28D04A14A70A6",1,"01990a9a-4dd8-7c35-bcf9-828173ce821a","01990a84-c4ee-73c2-a87b-ff46a7d3dde5","2025-09-02_09h25.58.743",NA,NA,624.572,624.572,624.5721,624.9217,NA,NA,NA,NA,NA,NA,NA,TRUE,1,1.1329,621.5727,624.572,NA,NA,NA,NA,NA,95,47,0,27,27,82,1,2,28,"likert"
"1C51D2A52C004D2196F28D04A14A70A6",1,"01990a9a-4dd8-7c35-bcf9-828173ce821a","01990a84-c4ee-73c2-a87b-ff46a7d3dde5","2025-09-02_09h25.58.743",NA,NA,627.9212,627.9212,627.9212,628.2714,NA,NA,NA,NA,NA,NA,NA,TRUE,1,1.3056,624.9233,627.9211,NA,NA,NA,NA,NA,45,35,0,28,28,57,1,2,29,"likert"
"1C51D2A52C004D2196F28D04A14A70A6",1,"01990a9a-4dd8-7c35-bcf9-828173ce821a","01990a84-c4ee-73c2-a87b-ff46a7d3dde5","2025-09-02_09h25.58.743",NA,NA,631.2711,631.2712,631.2712,631.6213,NA,NA,NA,NA,NA,NA,NA,TRUE,1,1.493,628.2719,631.271,NA,NA,NA,NA,NA,30,32,0,29,29,46,1,2,30,"likert"
"1C51D2A52C004D2196F28D04A14A70A6",1,"01990a9a-4dd8-7c35-bcf9-828173ce821a","01990a84-c4ee-73c2-a87b-ff46a7d3dde5","2025-09-02_09h25.58.743",NA,NA,634.6204,634.6204,634.6204,634.9705,NA,NA,NA,NA,NA,NA,NA,TRUE,1,0.9834,631.622,634.6203,NA,NA,NA,NA,NA,60,40,0,30,30,69,1,2,31,"likert"
"1C51D2A52C004D2196F28D04A14A70A6",1,"01990a9a-4dd8-7c35-bcf9-828173ce821a","01990a84-c4ee-73c2-a87b-ff46a7d3dde5","2025-09-02_09h25.58.743",NA,NA,637.9705,637.9705,637.9705,638.3204,NA,NA,NA,NA,NA,NA,NA,TRUE,1,0.9307,634.9711,637.9704,NA,NA,NA,NA,NA,21,38,0,31,31,29,1,2,32,"likert"
"1C51D2A52C004D2196F28D04A14A70A6",1,"01990a9a-4dd8-7c35-bcf9-828173ce821a","01990a84-c4ee-73c2-a87b-ff46a7d3dde5","2025-09-02_09h25.58.743",NA,NA,641.3201,641.3201,641.3201,641.6697,NA,NA,NA,NA,NA,NA,NA,TRUE,1,1.9974,638.3213,641.3201,NA,NA,NA,NA,NA,100,26,0,32,32,84,1,2,33,"likert"
"1C51D2A52C004D2196F28D04A14A70A6",1,"01990a9a-4dd8-7c35-bcf9-828173ce821a","01990a84-c4ee-73c2-a87b-ff46a7d3dde5","2025-09-02_09h25.58.743",NA,NA,644.6702,644.6702,644.6702,645.0196,NA,NA,NA,NA,NA,NA,NA,TRUE,1,1.0341,641.6707,644.6699,NA,NA,NA,NA,NA,95,31,0,33,33,78,1,2,34,"likert"
"1C51D2A52C004D2196F28D04A14A70A6",1,"01990a9a-4dd8-7c35-bcf9-828173ce821a","01990a84-c4ee-73c2-a87b-ff46a7d3dde5","2025-09-02_09h25.58.743",NA,NA,648.0192,648.2697,648.2697,648.3695,NA,NA,NA,NA,NA,NA,NA,FALSE,NA,NA,645.0209,648.0191,NA,NA,NA,NA,NA,200,35,0,34,34,104,1,2,35,"likert"
"1C51D2A52C004D2196F28D04A14A70A6",1,"01990a9a-4dd8-7c35-bcf9-828173ce821a","01990a84-c4ee-73c2-a87b-ff46a7d3dde5","2025-09-02_09h25.58.743",NA,NA,651.3691,651.3691,651.3691,651.7192,NA,NA,NA,NA,NA,NA,NA,TRUE,2,2.541,648.3707,651.3689,NA,NA,NA,NA,NA,60,33,0,35,35,67,1,2,36,"likert"
"1C51D2A52C004D2196F28D04A14A70A6",1,"01990a9a-4dd8-7c35-bcf9-828173ce821a","01990a84-c4ee-73c2-a87b-ff46a7d3dde5","2025-09-02_09h25.58.743",NA,NA,654.7191,654.7191,654.7191,655.0686,NA,NA,NA,NA,NA,NA,NA,TRUE,1,1.0207,651.7202,654.719,NA,NA,NA,NA,NA,90,26,0,36,36,72,1,2,37,"likert"
"1C51D2A52C004D2196F28D04A14A70A6",1,"01990a9a-4dd8-7c35-bcf9-828173ce821a","01990a84-c4ee-73c2-a87b-ff46a7d3dde5","2025-09-02_09h25.58.743",NA,NA,658.0686,658.0686,658.0686,658.4187,NA,NA,NA,NA,NA,NA,NA,TRUE,1,1.2243,655.0699,658.0684,NA,NA,NA,NA,NA,150,54,0,37,37,95,1,2,38,"likert"
"1C51D2A52C004D2196F28D04A14A70A6",1,"01990a9a-4dd8-7c35-bcf9-828173ce821a","01990a84-c4ee-73c2-a87b-ff46a7d3dde5","2025-09-02_09h25.58.743",NA,NA,661.4184,661.4184,661.4184,661.7678,NA,NA,NA,NA,NA,NA,NA,TRUE,2,1.1972,658.4205,661.4183,NA,NA,NA,NA,NA,7,28,0,38,38,2,1,2,39,"likert"
"1C51D2A52C004D2196F28D04A14A70A6",1,"01990a9a-4dd8-7c35-bcf9-828173ce821a","01990a84-c4ee-73c2-a87b-ff46a7d3dde5","2025-09-02_09h25.58.743",NA,NA,664.768,664.768,664.768,665.1177,NA,NA,NA,NA,NA,NA,NA,TRUE,2,1.0989,661.7691,664.7678,NA,NA,NA,NA,NA,21,32,0,39,39,28,1,2,40,"likert"
"1C51D2A52C004D2196F28D04A14A70A6",1,"01990a9a-4dd8-7c35-bcf9-828173ce821a","01990a84-c4ee-73c2-a87b-ff46a7d3dde5","2025-09-02_09h25.58.743",NA,NA,668.1176,668.1176,668.1177,668.4669,NA,NA,NA,NA,NA,NA,NA,TRUE,1,0.9732,665.119,668.1175,NA,NA,NA,NA,NA,200,26,0,40,40,102,1,2,41,"likert"
"1C51D2A52C004D2196F28D04A14A70A6",1,"01990a9a-4dd8-7c35-bcf9-828173ce821a","01990a84-c4ee-73c2-a87b-ff46a7d3dde5","2025-09-02_09h25.58.743",NA,NA,671.4672,671.7172,671.7172,671.817,NA,NA,NA,NA,NA,NA,NA,FALSE,NA,NA,668.4677,671.4671,NA,NA,NA,NA,NA,200,47,0,41,41,106,1,2,42,"likert"
"1C51D2A52C004D2196F28D04A14A70A6",1,"01990a9a-4dd8-7c35-bcf9-828173ce821a","01990a84-c4ee-73c2-a87b-ff46a7d3dde5","2025-09-02_09h25.58.743",NA,NA,674.8333,674.8333,674.8334,675.1835,NA,NA,NA,NA,NA,NA,NA,TRUE,2,0.1683,671.8179,674.8332,NA,NA,NA,NA,NA,90,33,0,42,42,74,1,2,43,"likert"
"1C51D2A52C004D2196F28D04A14A70A6",1,"01990a9a-4dd8-7c35-bcf9-828173ce821a","01990a84-c4ee-73c2-a87b-ff46a7d3dde5","2025-09-02_09h25.58.743",NA,NA,678.183,678.1831,678.1831,678.5329,NA,NA,NA,NA,NA,NA,NA,TRUE,2,1.2799,675.1847,678.1829,NA,NA,NA,NA,NA,10,26,0,43,43,7,1,2,44,"likert"
"1C51D2A52C004D2196F28D04A14A70A6",1,"01990a9a-4dd8-7c35-bcf9-828173ce821a","01990a84-c4ee-73c2-a87b-ff46a7d3dde5","2025-09-02_09h25.58.743",NA,NA,681.5327,681.5328,681.5328,681.8824,NA,NA,NA,NA,NA,NA,NA,TRUE,2,1.4078,678.5335,681.5325,NA,NA,NA,NA,NA,25,33,0,44,44,33,1,2,45,"likert"
"1C51D2A52C004D2196F28D04A14A70A6",1,"01990a9a-4dd8-7c35-bcf9-828173ce821a","01990a84-c4ee-73c2-a87b-ff46a7d3dde5","2025-09-02_09h25.58.743",NA,NA,684.8819,684.8819,684.882,685.232,NA,NA,NA,NA,NA,NA,NA,TRUE,1,0.9137,681.8836,684.8819,NA,NA,NA,NA,NA,14,32,0,45,45,21,1,2,46,"likert"
"1C51D2A52C004D2196F28D04A14A70A6",1,"01990a9a-4dd8-7c35-bcf9-828173ce821a","01990a84-c4ee-73c2-a87b-ff46a7d3dde5","2025-09-02_09h25.58.743",NA,NA,688.2319,688.2319,688.232,688.5821,NA,NA,NA,NA,NA,NA,NA,TRUE,1,1.2388,685.2328,688.2317,NA,NA,NA,NA,NA,45,31,0,46,46,56,1,2,47,"likert"
"1C51D2A52C004D2196F28D04A14A70A6",1,"01990a9a-4dd8-7c35-bcf9-828173ce821a","01990a84-c4ee-73c2-a87b-ff46a7d3dde5","2025-09-02_09h25.58.743",NA,NA,691.5816,691.5817,691.5817,691.9317,NA,NA,NA,NA,NA,NA,NA,TRUE,1,1.03,688.5831,691.5815,NA,NA,NA,NA,NA,45,46,0,47,47,59,1,2,48,"likert"
"1C51D2A52C004D2196F28D04A14A70A6",1,"01990a9a-4dd8-7c35-bcf9-828173ce821a","01990a84-c4ee-73c2-a87b-ff46a7d3dde5","2025-09-02_09h25.58.743",NA,NA,694.931,694.931,694.931,695.2813,NA,NA,NA,NA,NA,NA,NA,TRUE,1,1.0165,691.9329,694.9309,NA,NA,NA,NA,NA,50,46,0,48,48,64,1,2,49,"likert"
"1C51D2A52C004D2196F28D04A14A70A6",1,"01990a9a-4dd8-7c35-bcf9-828173ce821a","01990a84-c4ee-73c2-a87b-ff46a7d3dde5","2025-09-02_09h25.58.743",NA,NA,698.2812,698.2812,698.2812,698.6307,NA,NA,NA,NA,NA,NA,NA,TRUE,2,0.8313,695.2825,698.281,NA,NA,NA,NA,NA,14,28,0,49,49,20,1,2,50,"likert"
"1C51D2A52C004D2196F28D04A14A70A6",1,"01990a9a-4dd8-7c35-bcf9-828173ce821a","01990a84-c4ee-73c2-a87b-ff46a7d3dde5","2025-09-02_09h25.58.743",NA,NA,701.6306,701.6307,701.6308,701.9803,NA,NA,NA,NA,NA,NA,NA,TRUE,2,0.9485,698.6314,701.6306,NA,NA,NA,NA,NA,30,30,0,50,50,45,1,2,51,"likert"
"1C51D2A52C004D2196F28D04A14A70A6",1,"01990a9a-4dd8-7c35-bcf9-828173ce821a","01990a84-c4ee-73c2-a87b-ff46a7d3dde5","2025-09-02_09h25.58.743",NA,NA,704.9803,704.9804,704.9804,705.3303,NA,NA,NA,NA,NA,NA,NA,TRUE,2,1.5362,701.9813,704.98,NA,NA,NA,NA,NA,40,35,0,51,51,50,1,2,52,"likert"
"1C51D2A52C004D2196F28D04A14A70A6",1,"01990a9a-4dd8-7c35-bcf9-828173ce821a","01990a84-c4ee-73c2-a87b-ff46a7d3dde5","2025-09-02_09h25.58.743",NA,NA,708.3301,708.3301,708.3302,708.6795,NA,NA,NA,NA,NA,NA,NA,TRUE,1,1.0649,705.3315,708.3299,NA,NA,NA,NA,NA,100,39,0,52,52,87,1,2,53,"likert"
"1C51D2A52C004D2196F28D04A14A70A6",1,"01990a9a-4dd8-7c35-bcf9-828173ce821a","01990a84-c4ee-73c2-a87b-ff46a7d3dde5","2025-09-02_09h25.58.743",NA,NA,711.6796,711.6798,711.6798,712.0292,NA,NA,NA,NA,NA,NA,NA,TRUE,1,0.7216,708.6808,711.6796,NA,NA,NA,NA,NA,60,54,0,53,53,71,1,2,54,"likert"
"1C51D2A52C004D2196F28D04A14A70A6",1,"01990a9a-4dd8-7c35-bcf9-828173ce821a","01990a84-c4ee-73c2-a87b-ff46a7d3dde5","2025-09-02_09h25.58.743",NA,NA,715.0292,715.0292,715.0292,715.3792,NA,NA,NA,NA,NA,NA,NA,TRUE,2,1.0155,712.0298,715.0291,NA,NA,NA,NA,NA,10,27,0,54,54,8,1,2,55,"likert"
"1C51D2A52C004D2196F28D04A14A70A6",1,"01990a9a-4dd8-7c35-bcf9-828173ce821a","01990a84-c4ee-73c2-a87b-ff46a7d3dde5","2025-09-02_09h25.58.743",NA,NA,718.3791,718.629,718.629,718.7288,NA,NA,NA,NA,NA,NA,NA,FALSE,NA,NA,715.3804,718.3789,NA,NA,NA,NA,NA,21,26,0,55,55,24,1,2,56,"likert"
"1C51D2A52C004D2196F28D04A14A70A6",1,"01990a9a-4dd8-7c35-bcf9-828173ce821a","01990a84-c4ee-73c2-a87b-ff46a7d3dde5","2025-09-02_09h25.58.743",NA,NA,721.7287,721.7287,721.7287,722.0782,NA,NA,NA,NA,NA,NA,NA,TRUE,1,2.4371,718.7301,721.7285,NA,NA,NA,NA,NA,30,29,0,56,56,44,1,2,57,"likert"
"1C51D2A52C004D2196F28D04A14A70A6",1,"01990a9a-4dd8-7c35-bcf9-828173ce821a","01990a84-c4ee-73c2-a87b-ff46a7d3dde5","2025-09-02_09h25.58.743",NA,NA,725.0782,725.0783,725.0783,725.4279,NA,NA,NA,NA,NA,NA,NA,TRUE,1,2.3194,722.0792,725.0781,NA,NA,NA,NA,NA,50,27,0,57,57,60,1,2,58,"likert"
"1C51D2A52C004D2196F28D04A14A70A6",1,"01990a9a-4dd8-7c35-bcf9-828173ce821a","01990a84-c4ee-73c2-a87b-ff46a7d3dde5","2025-09-02_09h25.58.743",NA,NA,728.4282,728.4282,728.4282,728.778,NA,NA,NA,NA,NA,NA,NA,TRUE,1,1.237,725.4289,728.428,NA,NA,NA,NA,NA,90,30,0,58,58,73,1,2,59,"likert"
"1C51D2A52C004D2196F28D04A14A70A6",1,"01990a9a-4dd8-7c35-bcf9-828173ce821a","01990a84-c4ee-73c2-a87b-ff46a7d3dde5","2025-09-02_09h25.58.743",NA,NA,731.7778,731.7779,731.7779,732.1273,NA,NA,NA,NA,NA,NA,NA,TRUE,2,1.0476,728.7792,731.7777,NA,NA,NA,NA,NA,12,28,0,59,59,14,1,2,60,"likert"
"1C51D2A52C004D2196F28D04A14A70A6",1,"01990a9a-4dd8-7c35-bcf9-828173ce821a","01990a84-c4ee-73c2-a87b-ff46a7d3dde5","2025-09-02_09h25.58.743",NA,NA,735.1277,735.1277,735.1278,735.4776,NA,NA,NA,NA,NA,NA,NA,TRUE,2,2.0341,732.129,735.1276,NA,NA,NA,NA,NA,12,33,0,60,60,16,1,2,61,"likert"
"1C51D2A52C004D2196F28D04A14A70A6",1,"01990a9a-4dd8-7c35-bcf9-828173ce821a","01990a84-c4ee-73c2-a87b-ff46a7d3dde5","2025-09-02_09h25.58.743",NA,NA,738.4772,738.4772,738.4772,738.8265,NA,NA,NA,NA,NA,NA,NA,TRUE,1,0.8496,735.4788,738.4772,NA,NA,NA,NA,NA,150,40,0,61,61,93,1,2,62,"likert"
"1C51D2A52C004D2196F28D04A14A70A6",1,"01990a9a-4dd8-7c35-bcf9-828173ce821a","01990a84-c4ee-73c2-a87b-ff46a7d3dde5","2025-09-02_09h25.58.743",NA,NA,741.8268,741.8268,741.8268,742.1767,NA,NA,NA,NA,NA,NA,NA,TRUE,2,0.9137,738.828,741.8267,NA,NA,NA,NA,NA,40,54,0,62,62,53,1,2,63,"likert"
"1C51D2A52C004D2196F28D04A14A70A6",1,"01990a9a-4dd8-7c35-bcf9-828173ce821a","01990a84-c4ee-73c2-a87b-ff46a7d3dde5","2025-09-02_09h25.58.743",NA,NA,745.1766,745.1766,745.1766,745.5261,NA,NA,NA,NA,NA,NA,NA,TRUE,2,1.7737,742.1781,745.1764,NA,NA,NA,NA,NA,7,32,0,63,63,4,1,2,64,"likert"
"1C51D2A52C004D2196F28D04A14A70A6",1,"01990a9a-4dd8-7c35-bcf9-828173ce821a","01990a84-c4ee-73c2-a87b-ff46a7d3dde5","2025-09-02_09h25.58.743",NA,NA,748.5263,748.5263,748.5263,748.8761,NA,NA,NA,NA,NA,NA,NA,TRUE,1,0.9071,745.5277,748.5261,NA,NA,NA,NA,NA,45,40,0,64,64,58,1,2,65,"likert"
"1C51D2A52C004D2196F28D04A14A70A6",1,"01990a9a-4dd8-7c35-bcf9-828173ce821a","01990a84-c4ee-73c2-a87b-ff46a7d3dde5","2025-09-02_09h25.58.743",NA,NA,751.8753,751.8753,751.8753,752.2255,NA,NA,NA,NA,NA,NA,NA,TRUE,2,1.5806,748.8776,751.8751,NA,NA,NA,NA,NA,50,40,0,65,65,63,1,2,66,"likert"
"1C51D2A52C004D2196F28D04A14A70A6",1,"01990a9a-4dd8-7c35-bcf9-828173ce821a","01990a84-c4ee-73c2-a87b-ff46a7d3dde5","2025-09-02_09h25.58.743",NA,NA,755.2256,755.2256,755.2256,755.5746,NA,NA,NA,NA,NA,NA,NA,TRUE,1,1.3718,752.2267,755.2253,NA,NA,NA,NA,NA,25,27,0,66,66,30,1,2,67,"likert"
"1C51D2A52C004D2196F28D04A14A70A6",1,"01990a9a-4dd8-7c35-bcf9-828173ce821a","01990a84-c4ee-73c2-a87b-ff46a7d3dde5","2025-09-02_09h25.58.743",NA,NA,758.5742,758.5744,758.5744,758.9241,NA,NA,NA,NA,NA,NA,NA,TRUE,1,1.3391,755.5762,758.5742,NA,NA,NA,NA,NA,28,26,0,67,67,36,1,2,68,"likert"
"1C51D2A52C004D2196F28D04A14A70A6",1,"01990a9a-4dd8-7c35-bcf9-828173ce821a","01990a84-c4ee-73c2-a87b-ff46a7d3dde5","2025-09-02_09h25.58.743",NA,NA,761.9246,761.9246,761.9246,762.274,NA,NA,NA,NA,NA,NA,NA,TRUE,1,1.4411,758.9247,761.9245,NA,NA,NA,NA,NA,14,39,0,68,68,23,1,2,69,"likert"
"1C51D2A52C004D2196F28D04A14A70A6",1,"01990a9a-4dd8-7c35-bcf9-828173ce821a","01990a84-c4ee-73c2-a87b-ff46a7d3dde5","2025-09-02_09h25.58.743",NA,NA,765.2741,765.2741,765.2741,765.6238,NA,NA,NA,NA,NA,NA,NA,TRUE,2,1.3194,762.275,765.2739,NA,NA,NA,NA,NA,21,30,0,69,69,27,1,2,70,"likert"
"1C51D2A52C004D2196F28D04A14A70A6",1,"01990a9a-4dd8-7c35-bcf9-828173ce821a","01990a84-c4ee-73c2-a87b-ff46a7d3dde5","2025-09-02_09h25.58.743",NA,NA,768.6232,768.6233,768.6233,768.9734,NA,NA,NA,NA,NA,NA,NA,TRUE,1,0.9732,765.6246,768.6231,NA,NA,NA,NA,NA,60,35,0,70,70,68,1,2,71,"likert"
"1C51D2A52C004D2196F28D04A14A70A6",1,"01990a9a-4dd8-7c35-bcf9-828173ce821a","01990a84-c4ee-73c2-a87b-ff46a7d3dde5","2025-09-02_09h25.58.743",NA,NA,771.9734,771.9734,771.9734,772.3227,NA,NA,NA,NA,NA,NA,NA,TRUE,1,1.45,768.9742,771.9733,NA,NA,NA,NA,NA,28,46,0,71,71,41,1,2,72,"likert"
"1C51D2A52C004D2196F28D04A14A70A6",1,"01990a9a-4dd8-7c35-bcf9-828173ce821a","01990a84-c4ee-73c2-a87b-ff46a7d3dde5","2025-09-02_09h25.58.743",NA,NA,775.3227,775.3227,775.3227,775.6724,NA,NA,NA,NA,NA,NA,NA,TRUE,2,1.5669,772.3234,775.3223,NA,NA,NA,NA,NA,150,47,0,72,72,94,1,2,73,"likert"
"1C51D2A52C004D2196F28D04A14A70A6",1,"01990a9a-4dd8-7c35-bcf9-828173ce821a","01990a84-c4ee-73c2-a87b-ff46a7d3dde5","2025-09-02_09h25.58.743",NA,NA,778.6722,778.6722,778.6722,779.0219,NA,NA,NA,NA,NA,NA,NA,TRUE,2,1.5102,775.6735,778.6721,NA,NA,NA,NA,NA,30,38,0,73,73,47,1,2,74,"likert"
"1C51D2A52C004D2196F28D04A14A70A6",1,"01990a9a-4dd8-7c35-bcf9-828173ce821a","01990a84-c4ee-73c2-a87b-ff46a7d3dde5","2025-09-02_09h25.58.743",NA,NA,782.0221,782.0221,782.0221,782.3718,NA,NA,NA,NA,NA,NA,NA,TRUE,2,1.1003,779.0227,782.022,NA,NA,NA,NA,NA,180,39,0,74,74,99,1,2,75,"likert"
"1C51D2A52C004D2196F28D04A14A70A6",1,"01990a9a-4dd8-7c35-bcf9-828173ce821a","01990a84-c4ee-73c2-a87b-ff46a7d3dde5","2025-09-02_09h25.58.743",NA,NA,785.372,785.372,785.372,785.7216,NA,NA,NA,NA,NA,NA,NA,TRUE,2,1.2155,782.3725,785.3719,NA,NA,NA,NA,NA,200,28,0,75,75,103,1,2,76,"likert"
"1C51D2A52C004D2196F28D04A14A70A6",1,"01990a9a-4dd8-7c35-bcf9-828173ce821a","01990a84-c4ee-73c2-a87b-ff46a7d3dde5","2025-09-02_09h25.58.743",NA,NA,788.7216,788.7217,788.7217,789.0716,NA,NA,NA,NA,NA,NA,NA,TRUE,1,1.3039,785.7226,788.7215,NA,NA,NA,NA,NA,40,27,0,76,76,48,1,2,77,"likert"
"1C51D2A52C004D2196F28D04A14A70A6",1,"01990a9a-4dd8-7c35-bcf9-828173ce821a","01990a84-c4ee-73c2-a87b-ff46a7d3dde5","2025-09-02_09h25.58.743",NA,NA,792.0714,792.0714,792.0714,792.4207,NA,NA,NA,NA,NA,NA,NA,TRUE,2,0.8748,789.0729,792.0709,NA,NA,NA,NA,NA,40,33,0,77,77,49,1,2,78,"likert"
"1C51D2A52C004D2196F28D04A14A70A6",1,"01990a9a-4dd8-7c35-bcf9-828173ce821a","01990a84-c4ee-73c2-a87b-ff46a7d3dde5","2025-09-02_09h25.58.743",NA,NA,795.4212,795.4212,795.4212,795.7706,NA,NA,NA,NA,NA,NA,NA,TRUE,1,0.9592,792.4213,795.4211,NA,NA,NA,NA,NA,30,27,0,78,78,43,1,2,79,"likert"
"1C51D2A52C004D2196F28D04A14A70A6",1,"01990a9a-4dd8-7c35-bcf9-828173ce821a","01990a84-c4ee-73c2-a87b-ff46a7d3dde5","2025-09-02_09h25.58.743",NA,NA,798.7709,798.771,798.771,799.1204,NA,NA,NA,NA,NA,NA,NA,TRUE,1,0.7976,795.7721,798.7708,NA,NA,NA,NA,NA,7,25,0,79,79,0,1,2,80,"likert"
"1C51D2A52C004D2196F28D04A14A70A6",1,"01990a9a-4dd8-7c35-bcf9-828173ce821a","01990a84-c4ee-73c2-a87b-ff46a7d3dde5","2025-09-02_09h25.58.743",NA,NA,802.1208,802.1209,802.1209,802.4702,NA,NA,NA,NA,NA,NA,NA,TRUE,2,1.2169,799.1221,802.1207,NA,NA,NA,NA,NA,10,30,0,80,80,10,1,2,81,"likert"
"1C51D2A52C004D2196F28D04A14A70A6",1,"01990a9a-4dd8-7c35-bcf9-828173ce821a","01990a84-c4ee-73c2-a87b-ff46a7d3dde5","2025-09-02_09h25.58.743",NA,NA,805.4702,805.4703,805.4703,805.8201,NA,NA,NA,NA,NA,NA,NA,TRUE,1,1.4309,802.4717,805.47,NA,NA,NA,NA,NA,7,35,0,81,81,5,1,2,82,"likert"
"1C51D2A52C004D2196F28D04A14A70A6",1,"01990a9a-4dd8-7c35-bcf9-828173ce821a","01990a84-c4ee-73c2-a87b-ff46a7d3dde5","2025-09-02_09h25.58.743",NA,NA,808.8194,808.8194,808.8194,809.1693,NA,NA,NA,NA,NA,NA,NA,TRUE,1,1.5237,805.8218,808.8193,NA,NA,NA,NA,NA,180,35,0,82,82,98,1,2,83,"likert"
"1C51D2A52C004D2196F28D04A14A70A6",1,"01990a9a-4dd8-7c35-bcf9-828173ce821a","01990a84-c4ee-73c2-a87b-ff46a7d3dde5","2025-09-02_09h25.58.743",NA,NA,812.1696,812.1696,812.1697,812.5192,NA,NA,NA,NA,NA,NA,NA,TRUE,2,0.7554,809.1704,812.1695,NA,NA,NA,NA,NA,95,33,0,83,83,79,1,2,84,"likert"
"1C51D2A52C004D2196F28D04A14A70A6",1,"01990a9a-4dd8-7c35-bcf9-828173ce821a","01990a84-c4ee-73c2-a87b-ff46a7d3dde5","2025-09-02_09h25.58.743",NA,NA,815.5187,815.5187,815.5187,815.8685,NA,NA,NA,NA,NA,NA,NA,TRUE,4,1.8378,812.5204,815.5186,NA,NA,NA,NA,NA,7,30,0,84,84,3,1,2,85,"likert"
"1C51D2A52C004D2196F28D04A14A70A6",1,"01990a9a-4dd8-7c35-bcf9-828173ce821a","01990a84-c4ee-73c2-a87b-ff46a7d3dde5","2025-09-02_09h25.58.743",NA,NA,818.8691,818.8691,818.8691,819.2183,NA,NA,NA,NA,NA,NA,NA,TRUE,2,1.7953,815.8697,818.8689,NA,NA,NA,NA,NA,10,29,0,85,85,9,1,2,86,"likert"
"1C51D2A52C004D2196F28D04A14A70A6",1,"01990a9a-4dd8-7c35-bcf9-828173ce821a","01990a84-c4ee-73c2-a87b-ff46a7d3dde5","2025-09-02_09h25.58.743",NA,NA,822.2184,822.2186,822.2186,822.5682,NA,NA,NA,NA,NA,NA,NA,TRUE,1,0.9372,819.2199,822.2182,NA,NA,NA,NA,NA,200,39,0,86,86,105,1,2,87,"likert"
"1C51D2A52C004D2196F28D04A14A70A6",1,"01990a9a-4dd8-7c35-bcf9-828173ce821a","01990a84-c4ee-73c2-a87b-ff46a7d3dde5","2025-09-02_09h25.58.743",NA,NA,825.5678,825.5678,825.5678,825.918,NA,NA,NA,NA,NA,NA,NA,TRUE,1,1.7982,822.5694,825.5676,NA,NA,NA,NA,NA,100,54,0,87,87,89,1,2,88,"likert"
"1C51D2A52C004D2196F28D04A14A70A6",1,"01990a9a-4dd8-7c35-bcf9-828173ce821a","01990a84-c4ee-73c2-a87b-ff46a7d3dde5","2025-09-02_09h25.58.743",NA,NA,828.917,828.917,828.9171,829.2667,NA,NA,NA,NA,NA,NA,NA,TRUE,1,1.1537,825.9193,828.9169,NA,NA,NA,NA,NA,150,33,0,88,88,91,1,2,89,"likert"
"1C51D2A52C004D2196F28D04A14A70A6",1,"01990a9a-4dd8-7c35-bcf9-828173ce821a","01990a84-c4ee-73c2-a87b-ff46a7d3dde5","2025-09-02_09h25.58.743",NA,NA,832.2835,832.2835,832.2836,832.617,NA,NA,NA,NA,NA,NA,NA,TRUE,2,1.3444,829.2674,832.2834,NA,NA,NA,NA,NA,40,40,0,89,89,51,1,2,90,"likert"
"1C51D2A52C004D2196F28D04A14A70A6",1,"01990a9a-4dd8-7c35-bcf9-828173ce821a","01990a84-c4ee-73c2-a87b-ff46a7d3dde5","2025-09-02_09h25.58.743",NA,NA,835.6172,835.6172,835.6172,835.9672,NA,NA,NA,NA,NA,NA,NA,TRUE,2,1.1291,832.6184,835.6171,NA,NA,NA,NA,NA,12,26,0,90,90,13,1,2,91,"likert"
"1C51D2A52C004D2196F28D04A14A70A6",1,"01990a9a-4dd8-7c35-bcf9-828173ce821a","01990a84-c4ee-73c2-a87b-ff46a7d3dde5","2025-09-02_09h25.58.743",NA,NA,838.9828,838.9829,838.9829,839.3328,NA,NA,NA,NA,NA,NA,NA,TRUE,1,1.2006,835.9689,838.9828,NA,NA,NA,NA,NA,45,26,0,91,91,54,1,2,92,"likert"
"1C51D2A52C004D2196F28D04A14A70A6",1,"01990a9a-4dd8-7c35-bcf9-828173ce821a","01990a84-c4ee-73c2-a87b-ff46a7d3dde5","2025-09-02_09h25.58.743",NA,NA,842.3331,842.3331,842.3332,842.6826,NA,NA,NA,NA,NA,NA,NA,TRUE,2,1.2464,839.334,842.3329,NA,NA,NA,NA,NA,10,32,0,92,92,11,1,2,93,"likert"
"1C51D2A52C004D2196F28D04A14A70A6",1,"01990a9a-4dd8-7c35-bcf9-828173ce821a","01990a84-c4ee-73c2-a87b-ff46a7d3dde5","2025-09-02_09h25.58.743",NA,NA,845.6827,845.6827,845.6827,846.0324,NA,NA,NA,NA,NA,NA,NA,TRUE,1,1.7666,842.6834,845.6825,NA,NA,NA,NA,NA,40,47,0,93,93,52,1,2,94,"likert"
"1C51D2A52C004D2196F28D04A14A70A6",1,"01990a9a-4dd8-7c35-bcf9-828173ce821a","01990a84-c4ee-73c2-a87b-ff46a7d3dde5","2025-09-02_09h25.58.743",NA,NA,849.0321,849.0321,849.0321,849.3815,NA,NA,NA,NA,NA,NA,NA,TRUE,2,1.7604,846.0341,849.032,NA,NA,NA,NA,NA,21,27,0,94,94,25,1,2,95,"likert"
"1C51D2A52C004D2196F28D04A14A70A6",1,"01990a9a-4dd8-7c35-bcf9-828173ce821a","01990a84-c4ee-73c2-a87b-ff46a7d3dde5","2025-09-02_09h25.58.743",NA,NA,852.3816,852.3816,852.3816,852.7318,NA,NA,NA,NA,NA,NA,NA,TRUE,1,0.9591,849.3826,852.3815,NA,NA,NA,NA,NA,14,35,0,95,95,22,1,2,96,"likert"
"1C51D2A52C004D2196F28D04A14A70A6",1,"01990a9a-4dd8-7c35-bcf9-828173ce821a","01990a84-c4ee-73c2-a87b-ff46a7d3dde5","2025-09-02_09h25.58.743",NA,NA,855.7316,855.7317,855.7317,856.0815,NA,NA,NA,NA,NA,NA,NA,TRUE,2,0.7616,852.7333,855.7315,NA,NA,NA,NA,NA,150,35,0,96,96,92,1,2,97,"likert"
"1C51D2A52C004D2196F28D04A14A70A6",1,"01990a9a-4dd8-7c35-bcf9-828173ce821a","01990a84-c4ee-73c2-a87b-ff46a7d3dde5","2025-09-02_09h25.58.743",NA,NA,859.0813,859.0813,859.0813,859.4309,NA,NA,NA,NA,NA,NA,NA,TRUE,2,1.1769,856.083,859.0811,NA,NA,NA,NA,NA,7,26,0,97,97,1,1,2,98,"likert"
"1C51D2A52C004D2196F28D04A14A70A6",1,"01990a9a-4dd8-7c35-bcf9-828173ce821a","01990a84-c4ee-73c2-a87b-ff46a7d3dde5","2025-09-02_09h25.58.743",NA,NA,862.4308,862.4309,862.4309,862.781,NA,NA,NA,NA,NA,NA,NA,TRUE,1,1.387,859.4324,862.4306,NA,NA,NA,NA,NA,28,32,0,98,98,38,1,2,99,"likert"
"1C51D2A52C004D2196F28D04A14A70A6",1,"01990a9a-4dd8-7c35-bcf9-828173ce821a","01990a84-c4ee-73c2-a87b-ff46a7d3dde5","2025-09-02_09h25.58.743",NA,NA,865.7805,865.7805,865.7805,866.1298,NA,NA,NA,NA,NA,NA,NA,TRUE,2,2.5776,862.7828,865.7804,NA,NA,NA,NA,NA,28,35,0,99,99,39,1,2,100,"likert"
"1C51D2A52C004D2196F28D04A14A70A6",1,"01990a9a-4dd8-7c35-bcf9-828173ce821a","01990a84-c4ee-73c2-a87b-ff46a7d3dde5","2025-09-02_09h25.58.743",NA,NA,869.13,869.1301,869.1301,869.48,NA,NA,NA,NA,NA,NA,NA,TRUE,2,1.5957,866.1311,869.1298,NA,NA,NA,NA,NA,25,35,0,100,100,34,1,2,101,"likert"
"1C51D2A52C004D2196F28D04A14A70A6",1,"01990a9a-4dd8-7c35-bcf9-828173ce821a","01990a84-c4ee-73c2-a87b-ff46a7d3dde5","2025-09-02_09h25.58.743",NA,NA,872.4797,872.4798,872.4799,872.8297,NA,NA,NA,NA,NA,NA,NA,TRUE,1,1.4493,869.4816,872.4796,NA,NA,NA,NA,NA,180,54,0,101,101,101,1,2,102,"likert"
"1C51D2A52C004D2196F28D04A14A70A6",1,"01990a9a-4dd8-7c35-bcf9-828173ce821a","01990a84-c4ee-73c2-a87b-ff46a7d3dde5","2025-09-02_09h25.58.743",NA,NA,875.8296,875.8297,875.8297,876.1792,NA,NA,NA,NA,NA,NA,NA,TRUE,2,2.662,872.8311,875.8295,NA,NA,NA,NA,NA,25,31,0,102,102,32,1,2,103,"likert"
"1C51D2A52C004D2196F28D04A14A70A6",1,"01990a9a-4dd8-7c35-bcf9-828173ce821a","01990a84-c4ee-73c2-a87b-ff46a7d3dde5","2025-09-02_09h25.58.743",NA,NA,879.1793,879.1794,879.1794,879.5285,NA,NA,NA,NA,NA,NA,NA,TRUE,1,2.3955,876.1805,879.1791,NA,NA,NA,NA,NA,95,40,0,103,103,81,1,2,104,"likert"
"1C51D2A52C004D2196F28D04A14A70A6",1,"01990a9a-4dd8-7c35-bcf9-828173ce821a","01990a84-c4ee-73c2-a87b-ff46a7d3dde5","2025-09-02_09h25.58.743",NA,NA,882.5286,882.5286,882.5287,882.8784,NA,NA,NA,NA,NA,NA,NA,TRUE,2,2.9461,879.5298,882.5285,NA,NA,NA,NA,NA,95,54,0,104,104,83,1,2,105,"likert"
"1C51D2A52C004D2196F28D04A14A70A6",1,"01990a9a-4dd8-7c35-bcf9-828173ce821a","01990a84-c4ee-73c2-a87b-ff46a7d3dde5","2025-09-02_09h25.58.743",NA,NA,885.8779,885.8779,885.8779,886.2283,NA,NA,NA,NA,NA,NA,NA,TRUE,2,1.9809,882.8796,885.8777,NA,NA,NA,NA,NA,90,46,0,105,105,76,1,2,106,"likert"
"1C51D2A52C004D2196F28D04A14A70A6",1,"01990a9a-4dd8-7c35-bcf9-828173ce821a","01990a84-c4ee-73c2-a87b-ff46a7d3dde5","2025-09-02_09h25.58.743",NA,NA,889.2281,889.2281,889.2281,889.5777,NA,NA,NA,NA,NA,NA,NA,TRUE,1,0.701,886.2296,889.228,NA,NA,NA,NA,NA,100,46,0,106,106,88,1,2,107,"likert"
"1C51D2A52C004D2196F28D04A14A70A6",1,"01990a9a-4dd8-7c35-bcf9-828173ce821a","01990a84-c4ee-73c2-a87b-ff46a7d3dde5","2025-09-02_09h25.58.743",NA,NA,892.5774,892.5774,892.5774,892.9276,NA,NA,NA,NA,NA,NA,NA,TRUE,2,1.2944,889.579,892.5773,NA,NA,NA,NA,NA,95,35,0,107,107,80,1,2,108,"likert"
