"participant","session","assignmentId","projectId","date","practiceTrial.started","practiceTrial.stopped","tooLate.started","tooLate.stopped","blank.started","blank.stopped","trials_pract.thisRepN","trials_pract.thisTrialN","trials_pract.thisN","trials_pract.thisIndex","trials_pract.ran","delay_pract","amount_pract","responseMade","key","rt","trial.started","trial.stopped","trials.thisRepN","trials.thisTrialN","trials.thisN","trials.thisIndex","trials.ran","delay","amount","trials_2.thisRepN","trials_2.thisTrialN","trials_2.thisN","trials_2.thisIndex","trials_2.ran","block","trial","taskType"
"1F6D14219DB14F748F80AE9837CEEDF0",1,"0198eced-5950-78fb-b96d-a9e709e205ba","0198c493-061b-72b6-9f09-7b914e79ecc0","2025-08-27_15h07.36.709",27.072,30.0546,30.0551,30.3047,30.3048,30.4045,0,0,0,4,1,30,40,FALSE,NA,NA,NA,NA,NA,NA,NA,NA,NA,NA,NA,NA,NA,NA,NA,NA,0,1,"likert"
"1F6D14219DB14F748F80AE9837CEEDF0",1,"0198eced-5950-78fb-b96d-a9e709e205ba","0198c493-061b-72b6-9f09-7b914e79ecc0","2025-08-27_15h07.36.709",30.4058,33.4046,33.4048,33.6549,33.6549,33.7546,0,1,1,3,1,3,27,FALSE,NA,NA,NA,NA,NA,NA,NA,NA,NA,NA,NA,NA,NA,NA,NA,NA,0,2,"likert"
"1F6D14219DB14F748F80AE9837CEEDF0",1,"0198eced-5950-78fb-b96d-a9e709e205ba","0198c493-061b-72b6-9f09-7b914e79ecc0","2025-08-27_15h07.36.709",33.756,36.7548,36.755,36.7551,36.7551,37.1046,0,2,2,2,1,14,45,TRUE,5,0.8527,NA,NA,NA,NA,NA,NA,NA,NA,NA,NA,NA,NA,NA,NA,0,3,"likert"
"1F6D14219DB14F748F80AE9837CEEDF0",1,"0198eced-5950-78fb-b96d-a9e709e205ba","0198c493-061b-72b6-9f09-7b914e79ecc0","2025-08-27_15h07.36.709",37.1056,40.1044,40.1045,40.1045,40.1046,40.4543,0,3,3,1,1,100,50,TRUE,5,1.5749,NA,NA,NA,NA,NA,NA,NA,NA,NA,NA,NA,NA,NA,NA,0,4,"likert"
"1F6D14219DB14F748F80AE9837CEEDF0",1,"0198eced-5950-78fb-b96d-a9e709e205ba","0198c493-061b-72b6-9f09-7b914e79ecc0","2025-08-27_15h07.36.709",40.4549,43.4336,43.434,43.7046,43.7046,43.8054,0,4,4,0,1,7,30,FALSE,NA,NA,NA,NA,NA,NA,NA,NA,NA,NA,NA,NA,NA,NA,NA,NA,0,5,"likert"
"1F6D14219DB14F748F80AE9837CEEDF0",1,"0198eced-5950-78fb-b96d-a9e709e205ba","0198c493-061b-72b6-9f09-7b914e79ecc0","2025-08-27_15h07.36.709",NA,NA,72.0222,72.0222,72.0223,72.3712,NA,NA,NA,NA,NA,NA,NA,TRUE,5,1.7367,69.0396,72.0217,0,0,0,28,1,21,32,NA,NA,NA,NA,NA,1,1,"likert"
"1F6D14219DB14F748F80AE9837CEEDF0",1,"0198eced-5950-78fb-b96d-a9e709e205ba","0198c493-061b-72b6-9f09-7b914e79ecc0","2025-08-27_15h07.36.709",NA,NA,75.3715,75.3716,75.3716,75.7211,NA,NA,NA,NA,NA,NA,NA,TRUE,5,1.6335,72.3726,75.3712,0,1,1,20,1,14,28,NA,NA,NA,NA,NA,1,2,"likert"
"1F6D14219DB14F748F80AE9837CEEDF0",1,"0198eced-5950-78fb-b96d-a9e709e205ba","0198c493-061b-72b6-9f09-7b914e79ecc0","2025-08-27_15h07.36.709",NA,NA,78.7231,78.7231,78.7231,79.0718,NA,NA,NA,NA,NA,NA,NA,TRUE,5,1.1355,75.7231,78.723,0,2,2,16,1,12,33,NA,NA,NA,NA,NA,1,3,"likert"
"1F6D14219DB14F748F80AE9837CEEDF0",1,"0198eced-5950-78fb-b96d-a9e709e205ba","0198c493-061b-72b6-9f09-7b914e79ecc0","2025-08-27_15h07.36.709",NA,NA,82.0719,82.0719,82.0719,82.4218,NA,NA,NA,NA,NA,NA,NA,TRUE,4,1.7174,79.0728,82.0718,0,3,3,57,1,45,35,NA,NA,NA,NA,NA,1,4,"likert"
"1F6D14219DB14F748F80AE9837CEEDF0",1,"0198eced-5950-78fb-b96d-a9e709e205ba","0198c493-061b-72b6-9f09-7b914e79ecc0","2025-08-27_15h07.36.709",NA,NA,85.4249,85.425,85.425,85.7713,NA,NA,NA,NA,NA,NA,NA,TRUE,5,1.9007,82.4229,85.4247,0,4,4,1,1,7,26,NA,NA,NA,NA,NA,1,5,"likert"
"1F6D14219DB14F748F80AE9837CEEDF0",1,"0198eced-5950-78fb-b96d-a9e709e205ba","0198c493-061b-72b6-9f09-7b914e79ecc0","2025-08-27_15h07.36.709",NA,NA,88.7718,88.7719,88.7719,89.1212,NA,NA,NA,NA,NA,NA,NA,TRUE,5,1.8629,85.7724,88.7716,0,5,5,48,1,40,27,NA,NA,NA,NA,NA,1,6,"likert"
"1F6D14219DB14F748F80AE9837CEEDF0",1,"0198eced-5950-78fb-b96d-a9e709e205ba","0198c493-061b-72b6-9f09-7b914e79ecc0","2025-08-27_15h07.36.709",NA,NA,92.1211,92.1211,92.1212,92.4714,NA,NA,NA,NA,NA,NA,NA,TRUE,5,1.2844,89.1223,92.121,0,6,6,2,1,7,28,NA,NA,NA,NA,NA,1,7,"likert"
"1F6D14219DB14F748F80AE9837CEEDF0",1,"0198eced-5950-78fb-b96d-a9e709e205ba","0198c493-061b-72b6-9f09-7b914e79ecc0","2025-08-27_15h07.36.709",NA,NA,95.4827,95.4827,95.4827,95.8212,NA,NA,NA,NA,NA,NA,NA,TRUE,5,1.4328,92.4723,95.4825,0,7,7,71,1,60,54,NA,NA,NA,NA,NA,1,8,"likert"
"1F6D14219DB14F748F80AE9837CEEDF0",1,"0198eced-5950-78fb-b96d-a9e709e205ba","0198c493-061b-72b6-9f09-7b914e79ecc0","2025-08-27_15h07.36.709",NA,NA,98.8214,98.8215,98.8215,99.1755,NA,NA,NA,NA,NA,NA,NA,TRUE,4,1.8193,95.8224,98.8212,0,8,8,32,1,25,31,NA,NA,NA,NA,NA,1,9,"likert"
"1F6D14219DB14F748F80AE9837CEEDF0",1,"0198eced-5950-78fb-b96d-a9e709e205ba","0198c493-061b-72b6-9f09-7b914e79ecc0","2025-08-27_15h07.36.709",NA,NA,102.1711,102.1711,102.1711,102.5211,NA,NA,NA,NA,NA,NA,NA,TRUE,3,2.152,99.1768,102.171,0,9,9,74,1,90,33,NA,NA,NA,NA,NA,1,10,"likert"
"1F6D14219DB14F748F80AE9837CEEDF0",1,"0198eced-5950-78fb-b96d-a9e709e205ba","0198c493-061b-72b6-9f09-7b914e79ecc0","2025-08-27_15h07.36.709",NA,NA,105.5258,105.5259,105.5259,105.8741,NA,NA,NA,NA,NA,NA,NA,TRUE,1,2.0684,102.5221,105.5256,0,10,10,85,1,100,31,NA,NA,NA,NA,NA,1,11,"likert"
"1F6D14219DB14F748F80AE9837CEEDF0",1,"0198eced-5950-78fb-b96d-a9e709e205ba","0198c493-061b-72b6-9f09-7b914e79ecc0","2025-08-27_15h07.36.709",NA,NA,108.8713,108.8713,108.8713,109.2212,NA,NA,NA,NA,NA,NA,NA,TRUE,2,2.2211,105.8754,108.8712,0,11,11,62,1,50,35,NA,NA,NA,NA,NA,1,12,"likert"
"1F6D14219DB14F748F80AE9837CEEDF0",1,"0198eced-5950-78fb-b96d-a9e709e205ba","0198c493-061b-72b6-9f09-7b914e79ecc0","2025-08-27_15h07.36.709",NA,NA,112.2214,112.2215,112.2215,112.5712,NA,NA,NA,NA,NA,NA,NA,TRUE,5,1.9882,109.2221,112.2213,0,12,12,84,1,100,26,NA,NA,NA,NA,NA,1,13,"likert"
"1F6D14219DB14F748F80AE9837CEEDF0",1,"0198eced-5950-78fb-b96d-a9e709e205ba","0198c493-061b-72b6-9f09-7b914e79ecc0","2025-08-27_15h07.36.709",NA,NA,115.5713,115.5714,115.5714,115.9214,NA,NA,NA,NA,NA,NA,NA,TRUE,1,2.1897,112.5725,115.5712,0,13,13,31,1,25,29,NA,NA,NA,NA,NA,1,14,"likert"
"1F6D14219DB14F748F80AE9837CEEDF0",1,"0198eced-5950-78fb-b96d-a9e709e205ba","0198c493-061b-72b6-9f09-7b914e79ecc0","2025-08-27_15h07.36.709",NA,NA,118.9215,118.9215,118.9215,119.2713,NA,NA,NA,NA,NA,NA,NA,TRUE,5,1.7482,115.9228,118.9213,0,14,14,69,1,60,40,NA,NA,NA,NA,NA,1,15,"likert"
"1F6D14219DB14F748F80AE9837CEEDF0",1,"0198eced-5950-78fb-b96d-a9e709e205ba","0198c493-061b-72b6-9f09-7b914e79ecc0","2025-08-27_15h07.36.709",NA,NA,122.2711,122.2711,122.2711,122.621,NA,NA,NA,NA,NA,NA,NA,TRUE,2,2.066,119.2725,122.2709,0,15,15,66,1,60,29,NA,NA,NA,NA,NA,1,16,"likert"
"1F6D14219DB14F748F80AE9837CEEDF0",1,"0198eced-5950-78fb-b96d-a9e709e205ba","0198c493-061b-72b6-9f09-7b914e79ecc0","2025-08-27_15h07.36.709",NA,NA,125.6246,125.6247,125.6248,125.9711,NA,NA,NA,NA,NA,NA,NA,TRUE,4,2.041,122.6217,125.6245,0,16,16,95,1,150,54,NA,NA,NA,NA,NA,1,17,"likert"
"1F6D14219DB14F748F80AE9837CEEDF0",1,"0198eced-5950-78fb-b96d-a9e709e205ba","0198c493-061b-72b6-9f09-7b914e79ecc0","2025-08-27_15h07.36.709",NA,NA,128.9713,128.9713,128.9713,129.3212,NA,NA,NA,NA,NA,NA,NA,TRUE,2,2.9452,125.9721,128.9712,0,17,17,22,1,14,35,NA,NA,NA,NA,NA,1,18,"likert"
"1F6D14219DB14F748F80AE9837CEEDF0",1,"0198eced-5950-78fb-b96d-a9e709e205ba","0198c493-061b-72b6-9f09-7b914e79ecc0","2025-08-27_15h07.36.709",NA,NA,132.3212,132.3213,132.3213,132.6713,NA,NA,NA,NA,NA,NA,NA,TRUE,1,2.1824,129.3223,132.3211,0,18,18,47,1,30,38,NA,NA,NA,NA,NA,1,19,"likert"
"1F6D14219DB14F748F80AE9837CEEDF0",1,"0198eced-5950-78fb-b96d-a9e709e205ba","0198c493-061b-72b6-9f09-7b914e79ecc0","2025-08-27_15h07.36.709",NA,NA,135.6833,135.6833,135.6833,136.0281,NA,NA,NA,NA,NA,NA,NA,TRUE,1,2.1872,132.6726,135.6831,0,19,19,27,1,21,30,NA,NA,NA,NA,NA,1,20,"likert"
"1F6D14219DB14F748F80AE9837CEEDF0",1,"0198eced-5950-78fb-b96d-a9e709e205ba","0198c493-061b-72b6-9f09-7b914e79ecc0","2025-08-27_15h07.36.709",NA,NA,139.0215,139.0215,139.0215,139.3711,NA,NA,NA,NA,NA,NA,NA,TRUE,3,2.3148,136.0408,139.0211,0,20,20,107,1,200,54,NA,NA,NA,NA,NA,1,21,"likert"
"1F6D14219DB14F748F80AE9837CEEDF0",1,"0198eced-5950-78fb-b96d-a9e709e205ba","0198c493-061b-72b6-9f09-7b914e79ecc0","2025-08-27_15h07.36.709",NA,NA,142.3712,142.3712,142.3712,142.721,NA,NA,NA,NA,NA,NA,NA,TRUE,2,2.3496,139.3721,142.371,0,21,21,14,1,12,28,NA,NA,NA,NA,NA,1,22,"likert"
"1F6D14219DB14F748F80AE9837CEEDF0",1,"0198eced-5950-78fb-b96d-a9e709e205ba","0198c493-061b-72b6-9f09-7b914e79ecc0","2025-08-27_15h07.36.709",NA,NA,145.7205,145.9714,145.9715,146.0711,NA,NA,NA,NA,NA,NA,NA,FALSE,NA,NA,142.7218,145.7203,0,22,22,105,1,200,39,NA,NA,NA,NA,NA,1,23,"likert"
"1F6D14219DB14F748F80AE9837CEEDF0",1,"0198eced-5950-78fb-b96d-a9e709e205ba","0198c493-061b-72b6-9f09-7b914e79ecc0","2025-08-27_15h07.36.709",NA,NA,149.0712,149.0713,149.0714,149.4211,NA,NA,NA,NA,NA,NA,NA,TRUE,2,1.9999,146.0721,149.0711,0,23,23,104,1,200,35,NA,NA,NA,NA,NA,1,24,"likert"
"1F6D14219DB14F748F80AE9837CEEDF0",1,"0198eced-5950-78fb-b96d-a9e709e205ba","0198c493-061b-72b6-9f09-7b914e79ecc0","2025-08-27_15h07.36.709",NA,NA,152.4211,152.4211,152.4212,152.7711,NA,NA,NA,NA,NA,NA,NA,TRUE,5,2.1156,149.4221,152.4211,0,24,24,43,1,30,27,NA,NA,NA,NA,NA,1,25,"likert"
"1F6D14219DB14F748F80AE9837CEEDF0",1,"0198eced-5950-78fb-b96d-a9e709e205ba","0198c493-061b-72b6-9f09-7b914e79ecc0","2025-08-27_15h07.36.709",NA,NA,155.7676,155.7676,155.7676,156.1222,NA,NA,NA,NA,NA,NA,NA,TRUE,2,1.7836,152.7722,155.7674,0,25,25,68,1,60,35,NA,NA,NA,NA,NA,1,26,"likert"
"1F6D14219DB14F748F80AE9837CEEDF0",1,"0198eced-5950-78fb-b96d-a9e709e205ba","0198c493-061b-72b6-9f09-7b914e79ecc0","2025-08-27_15h07.36.709",NA,NA,159.1213,159.1213,159.1214,159.4711,NA,NA,NA,NA,NA,NA,NA,TRUE,5,2.5158,156.1232,159.1211,0,26,26,98,1,180,35,NA,NA,NA,NA,NA,1,27,"likert"
"1F6D14219DB14F748F80AE9837CEEDF0",1,"0198eced-5950-78fb-b96d-a9e709e205ba","0198c493-061b-72b6-9f09-7b914e79ecc0","2025-08-27_15h07.36.709",NA,NA,162.4711,162.4711,162.4711,162.8216,NA,NA,NA,NA,NA,NA,NA,TRUE,1,2.0338,159.4718,162.471,0,27,27,64,1,50,46,NA,NA,NA,NA,NA,1,28,"likert"
"1F6D14219DB14F748F80AE9837CEEDF0",1,"0198eced-5950-78fb-b96d-a9e709e205ba","0198c493-061b-72b6-9f09-7b914e79ecc0","2025-08-27_15h07.36.709",NA,NA,165.8167,165.8167,165.8168,166.1723,NA,NA,NA,NA,NA,NA,NA,TRUE,2,2.5359,162.8226,165.8165,0,28,28,58,1,45,40,NA,NA,NA,NA,NA,1,29,"likert"
"1F6D14219DB14F748F80AE9837CEEDF0",1,"0198eced-5950-78fb-b96d-a9e709e205ba","0198c493-061b-72b6-9f09-7b914e79ecc0","2025-08-27_15h07.36.709",NA,NA,169.1712,169.1713,169.1713,169.5211,NA,NA,NA,NA,NA,NA,NA,TRUE,4,2.5504,166.1732,169.1712,0,29,29,26,1,21,29,NA,NA,NA,NA,NA,1,30,"likert"
"1F6D14219DB14F748F80AE9837CEEDF0",1,"0198eced-5950-78fb-b96d-a9e709e205ba","0198c493-061b-72b6-9f09-7b914e79ecc0","2025-08-27_15h07.36.709",NA,NA,172.5211,172.5211,172.5211,172.8715,NA,NA,NA,NA,NA,NA,NA,TRUE,3,2.0346,169.5222,172.521,0,30,30,79,1,95,33,NA,NA,NA,NA,NA,1,31,"likert"
"1F6D14219DB14F748F80AE9837CEEDF0",1,"0198eced-5950-78fb-b96d-a9e709e205ba","0198c493-061b-72b6-9f09-7b914e79ecc0","2025-08-27_15h07.36.709",NA,NA,175.8716,175.8716,175.8716,176.2212,NA,NA,NA,NA,NA,NA,NA,TRUE,2,2.0324,172.8729,175.8714,0,31,31,61,1,50,30,NA,NA,NA,NA,NA,1,32,"likert"
"1F6D14219DB14F748F80AE9837CEEDF0",1,"0198eced-5950-78fb-b96d-a9e709e205ba","0198c493-061b-72b6-9f09-7b914e79ecc0","2025-08-27_15h07.36.709",NA,NA,179.2215,179.2215,179.2215,179.5671,NA,NA,NA,NA,NA,NA,NA,TRUE,5,1.6172,176.2222,179.2213,0,32,32,72,1,90,26,NA,NA,NA,NA,NA,1,33,"likert"
"1F6D14219DB14F748F80AE9837CEEDF0",1,"0198eced-5950-78fb-b96d-a9e709e205ba","0198c493-061b-72b6-9f09-7b914e79ecc0","2025-08-27_15h07.36.709",NA,NA,182.5714,182.5714,182.5715,182.9211,NA,NA,NA,NA,NA,NA,NA,TRUE,3,2.3871,179.5696,182.5712,0,33,33,5,1,7,35,NA,NA,NA,NA,NA,1,34,"likert"
"1F6D14219DB14F748F80AE9837CEEDF0",1,"0198eced-5950-78fb-b96d-a9e709e205ba","0198c493-061b-72b6-9f09-7b914e79ecc0","2025-08-27_15h07.36.709",NA,NA,185.9214,185.9214,185.9215,186.2713,NA,NA,NA,NA,NA,NA,NA,TRUE,3,2.1668,182.922,185.9213,0,34,34,10,1,10,30,NA,NA,NA,NA,NA,1,35,"likert"
"1F6D14219DB14F748F80AE9837CEEDF0",1,"0198eced-5950-78fb-b96d-a9e709e205ba","0198c493-061b-72b6-9f09-7b914e79ecc0","2025-08-27_15h07.36.709",NA,NA,189.2713,189.2714,189.2714,189.6212,NA,NA,NA,NA,NA,NA,NA,TRUE,2,2.1677,186.2722,189.2712,0,35,35,49,1,40,33,NA,NA,NA,NA,NA,1,36,"likert"
"1F6D14219DB14F748F80AE9837CEEDF0",1,"0198eced-5950-78fb-b96d-a9e709e205ba","0198c493-061b-72b6-9f09-7b914e79ecc0","2025-08-27_15h07.36.709",NA,NA,192.6132,192.6132,192.6132,192.9619,NA,NA,NA,NA,NA,NA,NA,TRUE,5,2.5299,189.6225,192.613,0,36,36,30,1,25,27,NA,NA,NA,NA,NA,1,37,"likert"
"1F6D14219DB14F748F80AE9837CEEDF0",1,"0198eced-5950-78fb-b96d-a9e709e205ba","0198c493-061b-72b6-9f09-7b914e79ecc0","2025-08-27_15h07.36.709",NA,NA,195.9621,195.9621,195.9622,196.3172,NA,NA,NA,NA,NA,NA,NA,TRUE,5,1.8175,192.9625,195.962,0,37,37,96,1,180,27,NA,NA,NA,NA,NA,1,38,"likert"
"1F6D14219DB14F748F80AE9837CEEDF0",1,"0198eced-5950-78fb-b96d-a9e709e205ba","0198c493-061b-72b6-9f09-7b914e79ecc0","2025-08-27_15h07.36.709",NA,NA,199.3216,199.3217,199.3217,199.671,NA,NA,NA,NA,NA,NA,NA,TRUE,5,2.8673,196.3196,199.3215,0,38,38,101,1,180,54,NA,NA,NA,NA,NA,1,39,"likert"
"1F6D14219DB14F748F80AE9837CEEDF0",1,"0198eced-5950-78fb-b96d-a9e709e205ba","0198c493-061b-72b6-9f09-7b914e79ecc0","2025-08-27_15h07.36.709",NA,NA,202.6711,202.6711,202.6711,203.021,NA,NA,NA,NA,NA,NA,NA,TRUE,3,1.9914,199.6719,202.6709,0,39,39,33,1,25,33,NA,NA,NA,NA,NA,1,40,"likert"
"1F6D14219DB14F748F80AE9837CEEDF0",1,"0198eced-5950-78fb-b96d-a9e709e205ba","0198c493-061b-72b6-9f09-7b914e79ecc0","2025-08-27_15h07.36.709",NA,NA,206.0215,206.0215,206.0215,206.384,NA,NA,NA,NA,NA,NA,NA,TRUE,4,1.5544,203.022,206.0212,0,40,40,51,1,40,40,NA,NA,NA,NA,NA,1,41,"likert"
"1F6D14219DB14F748F80AE9837CEEDF0",1,"0198eced-5950-78fb-b96d-a9e709e205ba","0198c493-061b-72b6-9f09-7b914e79ecc0","2025-08-27_15h07.36.709",NA,NA,209.3741,209.3742,209.3742,209.7109,NA,NA,NA,NA,NA,NA,NA,TRUE,1,2.5145,206.3868,209.374,0,41,41,42,1,30,26,NA,NA,NA,NA,NA,1,42,"likert"
"1F6D14219DB14F748F80AE9837CEEDF0",1,"0198eced-5950-78fb-b96d-a9e709e205ba","0198c493-061b-72b6-9f09-7b914e79ecc0","2025-08-27_15h07.36.709",NA,NA,212.7218,212.7218,212.7218,213.0716,NA,NA,NA,NA,NA,NA,NA,TRUE,4,2.185,209.7119,212.7216,0,42,42,41,1,28,46,NA,NA,NA,NA,NA,1,43,"likert"
"1F6D14219DB14F748F80AE9837CEEDF0",1,"0198eced-5950-78fb-b96d-a9e709e205ba","0198c493-061b-72b6-9f09-7b914e79ecc0","2025-08-27_15h07.36.709",NA,NA,216.0719,216.0719,216.0719,216.4215,NA,NA,NA,NA,NA,NA,NA,TRUE,1,2.5613,213.0726,216.0717,0,43,43,99,1,180,39,NA,NA,NA,NA,NA,1,44,"likert"
"1F6D14219DB14F748F80AE9837CEEDF0",1,"0198eced-5950-78fb-b96d-a9e709e205ba","0198c493-061b-72b6-9f09-7b914e79ecc0","2025-08-27_15h07.36.709",NA,NA,219.4222,219.4224,219.4224,219.7717,NA,NA,NA,NA,NA,NA,NA,TRUE,5,2.1624,216.4224,219.422,0,44,44,102,1,200,26,NA,NA,NA,NA,NA,1,45,"likert"
"1F6D14219DB14F748F80AE9837CEEDF0",1,"0198eced-5950-78fb-b96d-a9e709e205ba","0198c493-061b-72b6-9f09-7b914e79ecc0","2025-08-27_15h07.36.709",NA,NA,222.7711,222.7711,222.7711,223.121,NA,NA,NA,NA,NA,NA,NA,TRUE,2,2.9367,219.7731,222.771,0,45,45,87,1,100,39,NA,NA,NA,NA,NA,1,46,"likert"
"1F6D14219DB14F748F80AE9837CEEDF0",1,"0198eced-5950-78fb-b96d-a9e709e205ba","0198c493-061b-72b6-9f09-7b914e79ecc0","2025-08-27_15h07.36.709",NA,NA,226.1093,226.3712,226.3712,226.4711,NA,NA,NA,NA,NA,NA,NA,FALSE,NA,NA,223.1215,226.1091,0,46,46,92,1,150,35,NA,NA,NA,NA,NA,1,47,"likert"
"1F6D14219DB14F748F80AE9837CEEDF0",1,"0198eced-5950-78fb-b96d-a9e709e205ba","0198c493-061b-72b6-9f09-7b914e79ecc0","2025-08-27_15h07.36.709",NA,NA,229.4713,229.4713,229.4713,229.8234,NA,NA,NA,NA,NA,NA,NA,TRUE,2,1.5803,226.4722,229.4712,0,47,47,44,1,30,29,NA,NA,NA,NA,NA,1,48,"likert"
"1F6D14219DB14F748F80AE9837CEEDF0",1,"0198eced-5950-78fb-b96d-a9e709e205ba","0198c493-061b-72b6-9f09-7b914e79ecc0","2025-08-27_15h07.36.709",NA,NA,232.8213,232.8214,232.8214,233.171,NA,NA,NA,NA,NA,NA,NA,TRUE,2,2.0238,229.8244,232.8212,0,48,48,56,1,45,31,NA,NA,NA,NA,NA,1,49,"likert"
"1F6D14219DB14F748F80AE9837CEEDF0",1,"0198eced-5950-78fb-b96d-a9e709e205ba","0198c493-061b-72b6-9f09-7b914e79ecc0","2025-08-27_15h07.36.709",NA,NA,236.1712,236.1712,236.1712,236.5211,NA,NA,NA,NA,NA,NA,NA,TRUE,3,2.3698,233.1717,236.1711,0,49,49,88,1,100,46,NA,NA,NA,NA,NA,1,50,"likert"
"1F6D14219DB14F748F80AE9837CEEDF0",1,"0198eced-5950-78fb-b96d-a9e709e205ba","0198c493-061b-72b6-9f09-7b914e79ecc0","2025-08-27_15h07.36.709",NA,NA,239.5249,239.5249,239.5249,239.8723,NA,NA,NA,NA,NA,NA,NA,TRUE,1,1.7817,236.5219,239.5248,0,50,50,21,1,14,32,NA,NA,NA,NA,NA,1,51,"likert"
"1F6D14219DB14F748F80AE9837CEEDF0",1,"0198eced-5950-78fb-b96d-a9e709e205ba","0198c493-061b-72b6-9f09-7b914e79ecc0","2025-08-27_15h07.36.709",NA,NA,242.8712,242.8713,242.8713,243.2211,NA,NA,NA,NA,NA,NA,NA,TRUE,3,2.7205,239.8739,242.8711,0,51,51,50,1,40,35,NA,NA,NA,NA,NA,1,52,"likert"
"1F6D14219DB14F748F80AE9837CEEDF0",1,"0198eced-5950-78fb-b96d-a9e709e205ba","0198c493-061b-72b6-9f09-7b914e79ecc0","2025-08-27_15h07.36.709",NA,NA,246.2214,246.2214,246.2214,246.5712,NA,NA,NA,NA,NA,NA,NA,TRUE,1,2.7629,243.2218,246.2211,0,52,52,7,1,10,26,NA,NA,NA,NA,NA,1,53,"likert"
"1F6D14219DB14F748F80AE9837CEEDF0",1,"0198eced-5950-78fb-b96d-a9e709e205ba","0198c493-061b-72b6-9f09-7b914e79ecc0","2025-08-27_15h07.36.709",NA,NA,249.5714,249.5715,249.5715,249.9214,NA,NA,NA,NA,NA,NA,NA,TRUE,2,1.4573,246.5723,249.5712,0,53,53,36,1,28,26,NA,NA,NA,NA,NA,1,54,"likert"
"1F6D14219DB14F748F80AE9837CEEDF0",1,"0198eced-5950-78fb-b96d-a9e709e205ba","0198c493-061b-72b6-9f09-7b914e79ecc0","2025-08-27_15h07.36.709",NA,NA,252.9212,252.9212,252.9212,253.271,NA,NA,NA,NA,NA,NA,NA,TRUE,1,1.7656,249.9224,252.921,0,54,54,103,1,200,28,NA,NA,NA,NA,NA,1,55,"likert"
"1F6D14219DB14F748F80AE9837CEEDF0",1,"0198eced-5950-78fb-b96d-a9e709e205ba","0198c493-061b-72b6-9f09-7b914e79ecc0","2025-08-27_15h07.36.709",NA,NA,256.2712,256.2712,256.2712,256.6211,NA,NA,NA,NA,NA,NA,NA,TRUE,2,2.1629,253.2716,256.2712,0,55,55,13,1,12,26,NA,NA,NA,NA,NA,1,56,"likert"
"1F6D14219DB14F748F80AE9837CEEDF0",1,"0198eced-5950-78fb-b96d-a9e709e205ba","0198c493-061b-72b6-9f09-7b914e79ecc0","2025-08-27_15h07.36.709",NA,NA,259.6213,259.6213,259.6213,259.9713,NA,NA,NA,NA,NA,NA,NA,TRUE,1,1.5653,256.622,259.6211,0,56,56,8,1,10,27,NA,NA,NA,NA,NA,1,57,"likert"
"1F6D14219DB14F748F80AE9837CEEDF0",1,"0198eced-5950-78fb-b96d-a9e709e205ba","0198c493-061b-72b6-9f09-7b914e79ecc0","2025-08-27_15h07.36.709",NA,NA,262.9714,262.9715,262.9715,263.3212,NA,NA,NA,NA,NA,NA,NA,TRUE,3,1.5069,259.9728,262.9713,0,57,57,59,1,45,46,NA,NA,NA,NA,NA,1,58,"likert"
"1F6D14219DB14F748F80AE9837CEEDF0",1,"0198eced-5950-78fb-b96d-a9e709e205ba","0198c493-061b-72b6-9f09-7b914e79ecc0","2025-08-27_15h07.36.709",NA,NA,266.3212,266.3212,266.3212,266.6713,NA,NA,NA,NA,NA,NA,NA,TRUE,3,0.7838,263.3226,266.3211,0,58,58,63,1,50,40,NA,NA,NA,NA,NA,1,59,"likert"
"1F6D14219DB14F748F80AE9837CEEDF0",1,"0198eced-5950-78fb-b96d-a9e709e205ba","0198c493-061b-72b6-9f09-7b914e79ecc0","2025-08-27_15h07.36.709",NA,NA,269.6714,269.6714,269.6714,270.0217,NA,NA,NA,NA,NA,NA,NA,TRUE,2,1.6835,266.6726,269.6712,0,59,59,90,1,150,31,NA,NA,NA,NA,NA,1,60,"likert"
"1F6D14219DB14F748F80AE9837CEEDF0",1,"0198eced-5950-78fb-b96d-a9e709e205ba","0198c493-061b-72b6-9f09-7b914e79ecc0","2025-08-27_15h07.36.709",NA,NA,273.022,273.0221,273.0222,273.3711,NA,NA,NA,NA,NA,NA,NA,TRUE,1,2.1518,270.0231,273.0219,0,60,60,6,1,10,25,NA,NA,NA,NA,NA,1,61,"likert"
"1F6D14219DB14F748F80AE9837CEEDF0",1,"0198eced-5950-78fb-b96d-a9e709e205ba","0198c493-061b-72b6-9f09-7b914e79ecc0","2025-08-27_15h07.36.709",NA,NA,276.3712,276.3714,276.3714,276.7212,NA,NA,NA,NA,NA,NA,NA,TRUE,3,2.7959,273.3718,276.3712,0,61,61,93,1,150,40,NA,NA,NA,NA,NA,1,62,"likert"
"1F6D14219DB14F748F80AE9837CEEDF0",1,"0198eced-5950-78fb-b96d-a9e709e205ba","0198c493-061b-72b6-9f09-7b914e79ecc0","2025-08-27_15h07.36.709",NA,NA,279.7214,279.7214,279.7215,280.0723,NA,NA,NA,NA,NA,NA,NA,TRUE,2,2.1847,276.7226,279.7213,0,62,62,4,1,7,32,NA,NA,NA,NA,NA,1,63,"likert"
"1F6D14219DB14F748F80AE9837CEEDF0",1,"0198eced-5950-78fb-b96d-a9e709e205ba","0198c493-061b-72b6-9f09-7b914e79ecc0","2025-08-27_15h07.36.709",NA,NA,283.0711,283.0712,283.0712,283.4211,NA,NA,NA,NA,NA,NA,NA,TRUE,1,1.5326,280.0731,283.071,0,63,63,73,1,90,30,NA,NA,NA,NA,NA,1,64,"likert"
"1F6D14219DB14F748F80AE9837CEEDF0",1,"0198eced-5950-78fb-b96d-a9e709e205ba","0198c493-061b-72b6-9f09-7b914e79ecc0","2025-08-27_15h07.36.709",NA,NA,286.4211,286.4211,286.4212,286.7711,NA,NA,NA,NA,NA,NA,NA,TRUE,2,1.0643,283.4222,286.4211,0,64,64,78,1,95,31,NA,NA,NA,NA,NA,1,65,"likert"
"1F6D14219DB14F748F80AE9837CEEDF0",1,"0198eced-5950-78fb-b96d-a9e709e205ba","0198c493-061b-72b6-9f09-7b914e79ecc0","2025-08-27_15h07.36.709",NA,NA,289.7607,289.7607,289.7607,290.1213,NA,NA,NA,NA,NA,NA,NA,TRUE,3,1.903,286.7721,289.7606,0,65,65,29,1,21,38,NA,NA,NA,NA,NA,1,66,"likert"
"1F6D14219DB14F748F80AE9837CEEDF0",1,"0198eced-5950-78fb-b96d-a9e709e205ba","0198c493-061b-72b6-9f09-7b914e79ecc0","2025-08-27_15h07.36.709",NA,NA,293.1211,293.1211,293.1211,293.484,NA,NA,NA,NA,NA,NA,NA,TRUE,4,1.5661,290.1226,293.121,0,66,66,70,1,60,47,NA,NA,NA,NA,NA,1,67,"likert"
"1F6D14219DB14F748F80AE9837CEEDF0",1,"0198eced-5950-78fb-b96d-a9e709e205ba","0198c493-061b-72b6-9f09-7b914e79ecc0","2025-08-27_15h07.36.709",NA,NA,296.4714,296.4714,296.4714,296.821,NA,NA,NA,NA,NA,NA,NA,TRUE,1,2.1657,293.4855,296.4713,0,67,67,97,1,180,31,NA,NA,NA,NA,NA,1,68,"likert"
"1F6D14219DB14F748F80AE9837CEEDF0",1,"0198eced-5950-78fb-b96d-a9e709e205ba","0198c493-061b-72b6-9f09-7b914e79ecc0","2025-08-27_15h07.36.709",NA,NA,299.8219,299.8219,299.8219,300.1712,NA,NA,NA,NA,NA,NA,NA,TRUE,2,2.5301,296.8218,299.8218,0,68,68,94,1,150,47,NA,NA,NA,NA,NA,1,69,"likert"
"1F6D14219DB14F748F80AE9837CEEDF0",1,"0198eced-5950-78fb-b96d-a9e709e205ba","0198c493-061b-72b6-9f09-7b914e79ecc0","2025-08-27_15h07.36.709",NA,NA,303.1716,303.1716,303.1716,303.5211,NA,NA,NA,NA,NA,NA,NA,TRUE,1,1.7667,300.1722,303.1714,0,69,69,46,1,30,32,NA,NA,NA,NA,NA,1,70,"likert"
"1F6D14219DB14F748F80AE9837CEEDF0",1,"0198eced-5950-78fb-b96d-a9e709e205ba","0198c493-061b-72b6-9f09-7b914e79ecc0","2025-08-27_15h07.36.709",NA,NA,306.5214,306.5214,306.5214,306.8711,NA,NA,NA,NA,NA,NA,NA,TRUE,2,1.9873,303.522,306.5212,0,70,70,75,1,90,40,NA,NA,NA,NA,NA,1,71,"likert"
"1F6D14219DB14F748F80AE9837CEEDF0",1,"0198eced-5950-78fb-b96d-a9e709e205ba","0198c493-061b-72b6-9f09-7b914e79ecc0","2025-08-27_15h07.36.709",NA,NA,309.8714,309.8714,309.8714,310.2211,NA,NA,NA,NA,NA,NA,NA,TRUE,1,1.9509,306.872,309.8713,0,71,71,25,1,21,27,NA,NA,NA,NA,NA,1,72,"likert"
"1F6D14219DB14F748F80AE9837CEEDF0",1,"0198eced-5950-78fb-b96d-a9e709e205ba","0198c493-061b-72b6-9f09-7b914e79ecc0","2025-08-27_15h07.36.709",NA,NA,313.2213,313.2213,313.2213,313.5711,NA,NA,NA,NA,NA,NA,NA,TRUE,2,1.9684,310.222,313.2211,0,72,72,86,1,100,38,NA,NA,NA,NA,NA,1,73,"likert"
"1F6D14219DB14F748F80AE9837CEEDF0",1,"0198eced-5950-78fb-b96d-a9e709e205ba","0198c493-061b-72b6-9f09-7b914e79ecc0","2025-08-27_15h07.36.709",NA,NA,316.5713,316.5713,316.5713,316.921,NA,NA,NA,NA,NA,NA,NA,TRUE,2,1.583,313.572,316.5712,0,73,73,38,1,28,32,NA,NA,NA,NA,NA,1,74,"likert"
"1F6D14219DB14F748F80AE9837CEEDF0",1,"0198eced-5950-78fb-b96d-a9e709e205ba","0198c493-061b-72b6-9f09-7b914e79ecc0","2025-08-27_15h07.36.709",NA,NA,319.9213,319.9213,319.9213,320.2711,NA,NA,NA,NA,NA,NA,NA,TRUE,3,2.1848,316.9216,319.9211,0,74,74,53,1,40,54,NA,NA,NA,NA,NA,1,75,"likert"
"1F6D14219DB14F748F80AE9837CEEDF0",1,"0198eced-5950-78fb-b96d-a9e709e205ba","0198c493-061b-72b6-9f09-7b914e79ecc0","2025-08-27_15h07.36.709",NA,NA,323.2713,323.2714,323.2714,323.6212,NA,NA,NA,NA,NA,NA,NA,TRUE,3,1.4328,320.2719,323.2712,0,75,75,52,1,40,47,NA,NA,NA,NA,NA,1,76,"likert"
"1F6D14219DB14F748F80AE9837CEEDF0",1,"0198eced-5950-78fb-b96d-a9e709e205ba","0198c493-061b-72b6-9f09-7b914e79ecc0","2025-08-27_15h07.36.709",NA,NA,326.6211,326.6211,326.6211,326.9711,NA,NA,NA,NA,NA,NA,NA,TRUE,2,1.6369,323.6222,326.621,0,76,76,82,1,95,47,NA,NA,NA,NA,NA,1,77,"likert"
"1F6D14219DB14F748F80AE9837CEEDF0",1,"0198eced-5950-78fb-b96d-a9e709e205ba","0198c493-061b-72b6-9f09-7b914e79ecc0","2025-08-27_15h07.36.709",NA,NA,329.9793,329.9794,329.9794,330.3211,NA,NA,NA,NA,NA,NA,NA,TRUE,2,1.9481,326.9719,329.9792,0,77,77,81,1,95,40,NA,NA,NA,NA,NA,1,78,"likert"
"1F6D14219DB14F748F80AE9837CEEDF0",1,"0198eced-5950-78fb-b96d-a9e709e205ba","0198c493-061b-72b6-9f09-7b914e79ecc0","2025-08-27_15h07.36.709",NA,NA,333.3111,333.3111,333.3111,333.6607,NA,NA,NA,NA,NA,NA,NA,TRUE,1,1.6666,330.3217,333.311,0,78,78,54,1,45,26,NA,NA,NA,NA,NA,1,79,"likert"
"1F6D14219DB14F748F80AE9837CEEDF0",1,"0198eced-5950-78fb-b96d-a9e709e205ba","0198c493-061b-72b6-9f09-7b914e79ecc0","2025-08-27_15h07.36.709",NA,NA,336.672,336.6721,336.6722,337.0212,NA,NA,NA,NA,NA,NA,NA,TRUE,3,2.1744,333.6616,336.6715,0,79,79,106,1,200,47,NA,NA,NA,NA,NA,1,80,"likert"
"1F6D14219DB14F748F80AE9837CEEDF0",1,"0198eced-5950-78fb-b96d-a9e709e205ba","0198c493-061b-72b6-9f09-7b914e79ecc0","2025-08-27_15h07.36.709",NA,NA,340.013,340.013,340.013,340.3606,NA,NA,NA,NA,NA,NA,NA,TRUE,1,2.1832,337.0233,340.0129,0,80,80,67,1,60,33,NA,NA,NA,NA,NA,1,81,"likert"
"1F6D14219DB14F748F80AE9837CEEDF0",1,"0198eced-5950-78fb-b96d-a9e709e205ba","0198c493-061b-72b6-9f09-7b914e79ecc0","2025-08-27_15h07.36.709",NA,NA,343.372,343.3721,343.3721,343.7218,NA,NA,NA,NA,NA,NA,NA,TRUE,3,1.8571,340.3619,343.3719,0,81,81,77,1,90,54,NA,NA,NA,NA,NA,1,82,"likert"
"1F6D14219DB14F748F80AE9837CEEDF0",1,"0198eced-5950-78fb-b96d-a9e709e205ba","0198c493-061b-72b6-9f09-7b914e79ecc0","2025-08-27_15h07.36.709",NA,NA,346.726,346.726,346.726,347.0716,NA,NA,NA,NA,NA,NA,NA,TRUE,1,1.3421,343.7228,346.7259,0,82,82,0,1,7,25,NA,NA,NA,NA,NA,1,83,"likert"
"1F6D14219DB14F748F80AE9837CEEDF0",1,"0198eced-5950-78fb-b96d-a9e709e205ba","0198c493-061b-72b6-9f09-7b914e79ecc0","2025-08-27_15h07.36.709",NA,NA,350.0717,350.0718,350.0718,350.4214,NA,NA,NA,NA,NA,NA,NA,TRUE,2,1.4514,347.0723,350.0716,0,83,83,100,1,180,46,NA,NA,NA,NA,NA,1,84,"likert"
"1F6D14219DB14F748F80AE9837CEEDF0",1,"0198eced-5950-78fb-b96d-a9e709e205ba","0198c493-061b-72b6-9f09-7b914e79ecc0","2025-08-27_15h07.36.709",NA,NA,353.4214,353.4215,353.4215,353.7712,NA,NA,NA,NA,NA,NA,NA,TRUE,1,1.8361,350.4224,353.4212,0,84,84,40,1,28,39,NA,NA,NA,NA,NA,1,85,"likert"
"1F6D14219DB14F748F80AE9837CEEDF0",1,"0198eced-5950-78fb-b96d-a9e709e205ba","0198c493-061b-72b6-9f09-7b914e79ecc0","2025-08-27_15h07.36.709",NA,NA,356.7711,356.7711,356.7711,357.121,NA,NA,NA,NA,NA,NA,NA,TRUE,1,2.5367,353.7725,356.771,0,85,85,39,1,28,35,NA,NA,NA,NA,NA,1,86,"likert"
"1F6D14219DB14F748F80AE9837CEEDF0",1,"0198eced-5950-78fb-b96d-a9e709e205ba","0198c493-061b-72b6-9f09-7b914e79ecc0","2025-08-27_15h07.36.709",NA,NA,360.109,360.1091,360.1091,360.4711,NA,NA,NA,NA,NA,NA,NA,TRUE,1,1.9315,357.1215,360.1089,0,86,86,91,1,150,33,NA,NA,NA,NA,NA,1,87,"likert"
"1F6D14219DB14F748F80AE9837CEEDF0",1,"0198eced-5950-78fb-b96d-a9e709e205ba","0198c493-061b-72b6-9f09-7b914e79ecc0","2025-08-27_15h07.36.709",NA,NA,363.4712,363.4712,363.4713,363.8211,NA,NA,NA,NA,NA,NA,NA,TRUE,5,2.5762,360.472,363.4711,0,87,87,65,1,50,54,NA,NA,NA,NA,NA,1,88,"likert"
"1F6D14219DB14F748F80AE9837CEEDF0",1,"0198eced-5950-78fb-b96d-a9e709e205ba","0198c493-061b-72b6-9f09-7b914e79ecc0","2025-08-27_15h07.36.709",NA,NA,366.8213,366.8213,366.8214,367.1712,NA,NA,NA,NA,NA,NA,NA,TRUE,1,1.354,363.822,366.8213,0,88,88,19,1,14,26,NA,NA,NA,NA,NA,1,89,"likert"
"1F6D14219DB14F748F80AE9837CEEDF0",1,"0198eced-5950-78fb-b96d-a9e709e205ba","0198c493-061b-72b6-9f09-7b914e79ecc0","2025-08-27_15h07.36.709",NA,NA,370.1715,370.1715,370.1715,370.522,NA,NA,NA,NA,NA,NA,NA,TRUE,3,1.9908,367.1722,370.1713,0,89,89,89,1,100,54,NA,NA,NA,NA,NA,1,90,"likert"
"1F6D14219DB14F748F80AE9837CEEDF0",1,"0198eced-5950-78fb-b96d-a9e709e205ba","0198c493-061b-72b6-9f09-7b914e79ecc0","2025-08-27_15h07.36.709",NA,NA,373.5217,373.5217,373.5218,373.8712,NA,NA,NA,NA,NA,NA,NA,TRUE,1,1.5266,370.5241,373.5215,0,90,90,18,1,14,25,NA,NA,NA,NA,NA,1,91,"likert"
"1F6D14219DB14F748F80AE9837CEEDF0",1,"0198eced-5950-78fb-b96d-a9e709e205ba","0198c493-061b-72b6-9f09-7b914e79ecc0","2025-08-27_15h07.36.709",NA,NA,376.8713,376.8713,376.8713,377.2212,NA,NA,NA,NA,NA,NA,NA,TRUE,2,1.3381,373.8722,376.8712,0,91,91,9,1,10,29,NA,NA,NA,NA,NA,1,92,"likert"
"1F6D14219DB14F748F80AE9837CEEDF0",1,"0198eced-5950-78fb-b96d-a9e709e205ba","0198c493-061b-72b6-9f09-7b914e79ecc0","2025-08-27_15h07.36.709",NA,NA,380.2214,380.2216,380.2216,380.5713,NA,NA,NA,NA,NA,NA,NA,TRUE,3,2.1193,377.2222,380.2213,0,92,92,34,1,25,35,NA,NA,NA,NA,NA,1,93,"likert"
"1F6D14219DB14F748F80AE9837CEEDF0",1,"0198eced-5950-78fb-b96d-a9e709e205ba","0198c493-061b-72b6-9f09-7b914e79ecc0","2025-08-27_15h07.36.709",NA,NA,383.5714,383.5714,383.5714,383.9212,NA,NA,NA,NA,NA,NA,NA,TRUE,4,1.5249,380.5723,383.5712,0,93,93,15,1,12,31,NA,NA,NA,NA,NA,1,94,"likert"
"1F6D14219DB14F748F80AE9837CEEDF0",1,"0198eced-5950-78fb-b96d-a9e709e205ba","0198c493-061b-72b6-9f09-7b914e79ecc0","2025-08-27_15h07.36.709",NA,NA,386.9213,386.9216,386.9216,387.271,NA,NA,NA,NA,NA,NA,NA,TRUE,2,2.2304,383.9221,386.9213,0,94,94,80,1,95,35,NA,NA,NA,NA,NA,1,95,"likert"
"1F6D14219DB14F748F80AE9837CEEDF0",1,"0198eced-5950-78fb-b96d-a9e709e205ba","0198c493-061b-72b6-9f09-7b914e79ecc0","2025-08-27_15h07.36.709",NA,NA,390.2738,390.2738,390.2739,390.6213,NA,NA,NA,NA,NA,NA,NA,TRUE,5,2.0842,387.2722,390.2733,0,95,95,35,1,25,46,NA,NA,NA,NA,NA,1,96,"likert"
"1F6D14219DB14F748F80AE9837CEEDF0",1,"0198eced-5950-78fb-b96d-a9e709e205ba","0198c493-061b-72b6-9f09-7b914e79ecc0","2025-08-27_15h07.36.709",NA,NA,393.6213,393.6213,393.6213,393.9712,NA,NA,NA,NA,NA,NA,NA,TRUE,1,1.2079,390.6224,393.6211,0,96,96,12,1,12,25,NA,NA,NA,NA,NA,1,97,"likert"
"1F6D14219DB14F748F80AE9837CEEDF0",1,"0198eced-5950-78fb-b96d-a9e709e205ba","0198c493-061b-72b6-9f09-7b914e79ecc0","2025-08-27_15h07.36.709",NA,NA,396.9833,396.9834,396.9834,397.3212,NA,NA,NA,NA,NA,NA,NA,TRUE,2,2.5337,393.9722,396.9832,0,97,97,45,1,30,30,NA,NA,NA,NA,NA,1,98,"likert"
"1F6D14219DB14F748F80AE9837CEEDF0",1,"0198eced-5950-78fb-b96d-a9e709e205ba","0198c493-061b-72b6-9f09-7b914e79ecc0","2025-08-27_15h07.36.709",NA,NA,400.3252,400.3252,400.3252,400.6713,NA,NA,NA,NA,NA,NA,NA,TRUE,3,2.1837,397.3217,400.325,0,98,98,17,1,12,35,NA,NA,NA,NA,NA,1,99,"likert"
"1F6D14219DB14F748F80AE9837CEEDF0",1,"0198eced-5950-78fb-b96d-a9e709e205ba","0198c493-061b-72b6-9f09-7b914e79ecc0","2025-08-27_15h07.36.709",NA,NA,403.6712,403.6712,403.6712,404.021,NA,NA,NA,NA,NA,NA,NA,TRUE,1,1.3999,400.6724,403.6711,0,99,99,37,1,28,28,NA,NA,NA,NA,NA,1,100,"likert"
"1F6D14219DB14F748F80AE9837CEEDF0",1,"0198eced-5950-78fb-b96d-a9e709e205ba","0198c493-061b-72b6-9f09-7b914e79ecc0","2025-08-27_15h07.36.709",NA,NA,407.0212,407.0212,407.0213,407.3712,NA,NA,NA,NA,NA,NA,NA,TRUE,2,2.8671,404.0221,407.0211,0,100,100,11,1,10,32,NA,NA,NA,NA,NA,1,101,"likert"
"1F6D14219DB14F748F80AE9837CEEDF0",1,"0198eced-5950-78fb-b96d-a9e709e205ba","0198c493-061b-72b6-9f09-7b914e79ecc0","2025-08-27_15h07.36.709",NA,NA,410.3713,410.3714,410.3715,410.735,NA,NA,NA,NA,NA,NA,NA,TRUE,1,1.3551,407.3724,410.3713,0,101,101,24,1,21,26,NA,NA,NA,NA,NA,1,102,"likert"
"1F6D14219DB14F748F80AE9837CEEDF0",1,"0198eced-5950-78fb-b96d-a9e709e205ba","0198c493-061b-72b6-9f09-7b914e79ecc0","2025-08-27_15h07.36.709",NA,NA,413.7215,413.7216,413.7217,414.0712,NA,NA,NA,NA,NA,NA,NA,TRUE,2,1.5677,410.7364,413.7212,0,102,102,23,1,14,39,NA,NA,NA,NA,NA,1,103,"likert"
"1F6D14219DB14F748F80AE9837CEEDF0",1,"0198eced-5950-78fb-b96d-a9e709e205ba","0198c493-061b-72b6-9f09-7b914e79ecc0","2025-08-27_15h07.36.709",NA,NA,417.0714,417.0715,417.0715,417.4211,NA,NA,NA,NA,NA,NA,NA,TRUE,3,0.7762,414.072,417.0712,0,103,103,55,1,45,29,NA,NA,NA,NA,NA,1,104,"likert"
"1F6D14219DB14F748F80AE9837CEEDF0",1,"0198eced-5950-78fb-b96d-a9e709e205ba","0198c493-061b-72b6-9f09-7b914e79ecc0","2025-08-27_15h07.36.709",NA,NA,420.4223,420.4223,420.4223,420.7716,NA,NA,NA,NA,NA,NA,NA,TRUE,3,1.4788,417.4218,420.4221,0,104,104,83,1,95,54,NA,NA,NA,NA,NA,1,105,"likert"
"1F6D14219DB14F748F80AE9837CEEDF0",1,"0198eced-5950-78fb-b96d-a9e709e205ba","0198c493-061b-72b6-9f09-7b914e79ecc0","2025-08-27_15h07.36.709",NA,NA,423.7713,423.7715,423.7715,424.1211,NA,NA,NA,NA,NA,NA,NA,TRUE,1,2.0353,420.7728,423.7712,0,105,105,60,1,50,27,NA,NA,NA,NA,NA,1,106,"likert"
"1F6D14219DB14F748F80AE9837CEEDF0",1,"0198eced-5950-78fb-b96d-a9e709e205ba","0198c493-061b-72b6-9f09-7b914e79ecc0","2025-08-27_15h07.36.709",NA,NA,427.1212,427.1212,427.1212,427.4712,NA,NA,NA,NA,NA,NA,NA,TRUE,5,2.2486,424.122,427.121,0,106,106,76,1,90,46,NA,NA,NA,NA,NA,1,107,"likert"
"1F6D14219DB14F748F80AE9837CEEDF0",1,"0198eced-5950-78fb-b96d-a9e709e205ba","0198c493-061b-72b6-9f09-7b914e79ecc0","2025-08-27_15h07.36.709",NA,NA,430.4674,430.4674,430.4674,430.8158,NA,NA,NA,NA,NA,NA,NA,TRUE,1,1.8998,427.4722,430.4672,0,107,107,3,1,7,30,NA,NA,NA,NA,NA,1,108,"likert"
"1F6D14219DB14F748F80AE9837CEEDF0",1,"0198eced-5950-78fb-b96d-a9e709e205ba","0198c493-061b-72b6-9f09-7b914e79ecc0","2025-08-27_15h07.36.709",NA,NA,453.1464,453.3879,453.3879,453.488,NA,NA,NA,NA,NA,NA,NA,FALSE,NA,NA,450.1454,453.1463,NA,NA,NA,NA,NA,12,33,0,0,0,16,1,2,1,"likert"
"1F6D14219DB14F748F80AE9837CEEDF0",1,"0198eced-5950-78fb-b96d-a9e709e205ba","0198c493-061b-72b6-9f09-7b914e79ecc0","2025-08-27_15h07.36.709",NA,NA,456.4882,456.4882,456.4882,456.8378,NA,NA,NA,NA,NA,NA,NA,TRUE,1,0.0066,453.4904,456.4879,NA,NA,NA,NA,NA,95,31,0,1,1,78,1,2,2,"likert"
"1F6D14219DB14F748F80AE9837CEEDF0",1,"0198eced-5950-78fb-b96d-a9e709e205ba","0198c493-061b-72b6-9f09-7b914e79ecc0","2025-08-27_15h07.36.709",NA,NA,459.8378,459.8379,459.8379,460.1877,NA,NA,NA,NA,NA,NA,NA,TRUE,2,0.5094,456.84,459.8378,NA,NA,NA,NA,NA,7,25,0,2,2,0,1,2,3,"likert"
"1F6D14219DB14F748F80AE9837CEEDF0",1,"0198eced-5950-78fb-b96d-a9e709e205ba","0198c493-061b-72b6-9f09-7b914e79ecc0","2025-08-27_15h07.36.709",NA,NA,463.1789,463.1789,463.1789,463.5774,NA,NA,NA,NA,NA,NA,NA,TRUE,2,1.0893,460.19,463.1788,NA,NA,NA,NA,NA,60,40,0,3,3,69,1,2,4,"likert"
"1F6D14219DB14F748F80AE9837CEEDF0",1,"0198eced-5950-78fb-b96d-a9e709e205ba","0198c493-061b-72b6-9f09-7b914e79ecc0","2025-08-27_15h07.36.709",NA,NA,466.5377,466.5378,466.5378,466.889,NA,NA,NA,NA,NA,NA,NA,TRUE,3,0.4145,463.5788,466.5377,NA,NA,NA,NA,NA,90,54,0,4,4,77,1,2,5,"likert"
"1F6D14219DB14F748F80AE9837CEEDF0",1,"0198eced-5950-78fb-b96d-a9e709e205ba","0198c493-061b-72b6-9f09-7b914e79ecc0","2025-08-27_15h07.36.709",NA,NA,469.8892,469.8892,469.8892,470.2395,NA,NA,NA,NA,NA,NA,NA,TRUE,5,0.4845,466.8901,469.8891,NA,NA,NA,NA,NA,25,35,0,5,5,34,1,2,6,"likert"
"1F6D14219DB14F748F80AE9837CEEDF0",1,"0198eced-5950-78fb-b96d-a9e709e205ba","0198c493-061b-72b6-9f09-7b914e79ecc0","2025-08-27_15h07.36.709",NA,NA,473.2392,473.2393,473.2393,473.6096,NA,NA,NA,NA,NA,NA,NA,TRUE,1,0.018,470.2432,473.2391,NA,NA,NA,NA,NA,45,31,0,6,6,56,1,2,7,"likert"
"1F6D14219DB14F748F80AE9837CEEDF0",1,"0198eced-5950-78fb-b96d-a9e709e205ba","0198c493-061b-72b6-9f09-7b914e79ecc0","2025-08-27_15h07.36.709",NA,NA,476.5882,476.5883,476.5883,476.9382,NA,NA,NA,NA,NA,NA,NA,TRUE,4,0.1237,473.6107,476.5881,NA,NA,NA,NA,NA,10,26,0,7,7,7,1,2,8,"likert"
"1F6D14219DB14F748F80AE9837CEEDF0",1,"0198eced-5950-78fb-b96d-a9e709e205ba","0198c493-061b-72b6-9f09-7b914e79ecc0","2025-08-27_15h07.36.709",NA,NA,479.9338,479.9338,479.9338,480.2829,NA,NA,NA,NA,NA,NA,NA,TRUE,1,0.2839,476.9392,479.9337,NA,NA,NA,NA,NA,25,46,0,8,8,35,1,2,9,"likert"
"1F6D14219DB14F748F80AE9837CEEDF0",1,"0198eced-5950-78fb-b96d-a9e709e205ba","0198c493-061b-72b6-9f09-7b914e79ecc0","2025-08-27_15h07.36.709",NA,NA,483.2781,483.2782,483.2782,483.6388,NA,NA,NA,NA,NA,NA,NA,TRUE,1,1.7341,480.2838,483.278,NA,NA,NA,NA,NA,12,26,0,9,9,13,1,2,10,"likert"
"1F6D14219DB14F748F80AE9837CEEDF0",1,"0198eced-5950-78fb-b96d-a9e709e205ba","0198c493-061b-72b6-9f09-7b914e79ecc0","2025-08-27_15h07.36.709",NA,NA,486.6382,486.6382,486.6382,486.9878,NA,NA,NA,NA,NA,NA,NA,TRUE,1,2.0857,483.6403,486.638,NA,NA,NA,NA,NA,25,29,0,10,10,31,1,2,11,"likert"
"1F6D14219DB14F748F80AE9837CEEDF0",1,"0198eced-5950-78fb-b96d-a9e709e205ba","0198c493-061b-72b6-9f09-7b914e79ecc0","2025-08-27_15h07.36.709",NA,NA,489.9881,489.9882,489.9882,490.3378,NA,NA,NA,NA,NA,NA,NA,TRUE,4,2.7714,486.9885,489.9878,NA,NA,NA,NA,NA,150,40,0,11,11,93,1,2,12,"likert"
"1F6D14219DB14F748F80AE9837CEEDF0",1,"0198eced-5950-78fb-b96d-a9e709e205ba","0198c493-061b-72b6-9f09-7b914e79ecc0","2025-08-27_15h07.36.709",NA,NA,493.3382,493.3382,493.3382,493.6879,NA,NA,NA,NA,NA,NA,NA,TRUE,4,2.4701,490.3387,493.338,NA,NA,NA,NA,NA,200,47,0,12,12,106,1,2,13,"likert"
"1F6D14219DB14F748F80AE9837CEEDF0",1,"0198eced-5950-78fb-b96d-a9e709e205ba","0198c493-061b-72b6-9f09-7b914e79ecc0","2025-08-27_15h07.36.709",NA,NA,496.6879,496.6879,496.6879,497.0377,NA,NA,NA,NA,NA,NA,NA,TRUE,1,1.1365,493.6888,496.6878,NA,NA,NA,NA,NA,14,26,0,13,13,19,1,2,14,"likert"
"1F6D14219DB14F748F80AE9837CEEDF0",1,"0198eced-5950-78fb-b96d-a9e709e205ba","0198c493-061b-72b6-9f09-7b914e79ecc0","2025-08-27_15h07.36.709",NA,NA,500.0382,500.0382,500.0382,500.388,NA,NA,NA,NA,NA,NA,NA,TRUE,1,1.3537,497.0385,500.038,NA,NA,NA,NA,NA,45,29,0,14,14,55,1,2,15,"likert"
"1F6D14219DB14F748F80AE9837CEEDF0",1,"0198eced-5950-78fb-b96d-a9e709e205ba","0198c493-061b-72b6-9f09-7b914e79ecc0","2025-08-27_15h07.36.709",NA,NA,503.3879,503.388,503.388,503.7377,NA,NA,NA,NA,NA,NA,NA,TRUE,1,1.4957,500.389,503.3878,NA,NA,NA,NA,NA,30,30,0,15,15,45,1,2,16,"likert"
"1F6D14219DB14F748F80AE9837CEEDF0",1,"0198eced-5950-78fb-b96d-a9e709e205ba","0198c493-061b-72b6-9f09-7b914e79ecc0","2025-08-27_15h07.36.709",NA,NA,506.7389,506.7389,506.7389,507.0886,NA,NA,NA,NA,NA,NA,NA,TRUE,4,1.9747,503.7396,506.7387,NA,NA,NA,NA,NA,50,54,0,16,16,65,1,2,17,"likert"
"1F6D14219DB14F748F80AE9837CEEDF0",1,"0198eced-5950-78fb-b96d-a9e709e205ba","0198c493-061b-72b6-9f09-7b914e79ecc0","2025-08-27_15h07.36.709",NA,NA,510.0887,510.0887,510.0887,510.4394,NA,NA,NA,NA,NA,NA,NA,TRUE,4,1.1005,507.0896,510.0884,NA,NA,NA,NA,NA,28,39,0,17,17,40,1,2,18,"likert"
"1F6D14219DB14F748F80AE9837CEEDF0",1,"0198eced-5950-78fb-b96d-a9e709e205ba","0198c493-061b-72b6-9f09-7b914e79ecc0","2025-08-27_15h07.36.709",NA,NA,513.4397,513.4397,513.4397,513.7878,NA,NA,NA,NA,NA,NA,NA,TRUE,4,1.4344,510.4402,513.4394,NA,NA,NA,NA,NA,30,38,0,18,18,47,1,2,19,"likert"
"1F6D14219DB14F748F80AE9837CEEDF0",1,"0198eced-5950-78fb-b96d-a9e709e205ba","0198c493-061b-72b6-9f09-7b914e79ecc0","2025-08-27_15h07.36.709",NA,NA,516.7878,516.7879,516.7879,517.1376,NA,NA,NA,NA,NA,NA,NA,TRUE,5,1.7808,513.7888,516.7878,NA,NA,NA,NA,NA,10,32,0,19,19,11,1,2,20,"likert"
"1F6D14219DB14F748F80AE9837CEEDF0",1,"0198eced-5950-78fb-b96d-a9e709e205ba","0198c493-061b-72b6-9f09-7b914e79ecc0","2025-08-27_15h07.36.709",NA,NA,520.1392,520.1393,520.1393,520.4863,NA,NA,NA,NA,NA,NA,NA,TRUE,1,1.4001,517.1383,520.1389,NA,NA,NA,NA,NA,7,28,0,20,20,2,1,2,21,"likert"
"1F6D14219DB14F748F80AE9837CEEDF0",1,"0198eced-5950-78fb-b96d-a9e709e205ba","0198c493-061b-72b6-9f09-7b914e79ecc0","2025-08-27_15h07.36.709",NA,NA,523.4881,523.4882,523.4882,523.8382,NA,NA,NA,NA,NA,NA,NA,TRUE,2,1.5618,520.4871,523.488,NA,NA,NA,NA,NA,28,28,0,21,21,37,1,2,22,"likert"
"1F6D14219DB14F748F80AE9837CEEDF0",1,"0198eced-5950-78fb-b96d-a9e709e205ba","0198c493-061b-72b6-9f09-7b914e79ecc0","2025-08-27_15h07.36.709",NA,NA,526.8379,526.838,526.838,527.1879,NA,NA,NA,NA,NA,NA,NA,TRUE,2,1.3506,523.8395,526.8378,NA,NA,NA,NA,NA,28,35,0,22,22,39,1,2,23,"likert"
"1F6D14219DB14F748F80AE9837CEEDF0",1,"0198eced-5950-78fb-b96d-a9e709e205ba","0198c493-061b-72b6-9f09-7b914e79ecc0","2025-08-27_15h07.36.709",NA,NA,530.1879,530.1879,530.1879,530.5377,NA,NA,NA,NA,NA,NA,NA,TRUE,1,0.9169,527.189,530.1878,NA,NA,NA,NA,NA,30,27,0,23,23,43,1,2,24,"likert"
"1F6D14219DB14F748F80AE9837CEEDF0",1,"0198eced-5950-78fb-b96d-a9e709e205ba","0198c493-061b-72b6-9f09-7b914e79ecc0","2025-08-27_15h07.36.709",NA,NA,533.5528,533.5529,533.553,533.8878,NA,NA,NA,NA,NA,NA,NA,TRUE,3,1.4675,530.5384,533.5527,NA,NA,NA,NA,NA,10,29,0,24,24,9,1,2,25,"likert"
"1F6D14219DB14F748F80AE9837CEEDF0",1,"0198eced-5950-78fb-b96d-a9e709e205ba","0198c493-061b-72b6-9f09-7b914e79ecc0","2025-08-27_15h07.36.709",NA,NA,536.8879,536.8879,536.8879,537.2377,NA,NA,NA,NA,NA,NA,NA,TRUE,5,1.886,533.8889,536.8878,NA,NA,NA,NA,NA,150,54,0,25,25,95,1,2,26,"likert"
"1F6D14219DB14F748F80AE9837CEEDF0",1,"0198eced-5950-78fb-b96d-a9e709e205ba","0198c493-061b-72b6-9f09-7b914e79ecc0","2025-08-27_15h07.36.709",NA,NA,540.238,540.2381,540.2381,540.5877,NA,NA,NA,NA,NA,NA,NA,TRUE,3,1.2329,537.2386,540.2379,NA,NA,NA,NA,NA,40,40,0,26,26,51,1,2,27,"likert"
"1F6D14219DB14F748F80AE9837CEEDF0",1,"0198eced-5950-78fb-b96d-a9e709e205ba","0198c493-061b-72b6-9f09-7b914e79ecc0","2025-08-27_15h07.36.709",NA,NA,543.5881,543.5881,543.5881,543.9379,NA,NA,NA,NA,NA,NA,NA,TRUE,2,2.3175,540.5886,543.588,NA,NA,NA,NA,NA,150,47,0,27,27,94,1,2,28,"likert"
"1F6D14219DB14F748F80AE9837CEEDF0",1,"0198eced-5950-78fb-b96d-a9e709e205ba","0198c493-061b-72b6-9f09-7b914e79ecc0","2025-08-27_15h07.36.709",NA,NA,546.9383,546.9383,546.9384,547.2835,NA,NA,NA,NA,NA,NA,NA,TRUE,1,2.2175,543.9387,546.9381,NA,NA,NA,NA,NA,150,33,0,28,28,91,1,2,29,"likert"
"1F6D14219DB14F748F80AE9837CEEDF0",1,"0198eced-5950-78fb-b96d-a9e709e205ba","0198c493-061b-72b6-9f09-7b914e79ecc0","2025-08-27_15h07.36.709",NA,NA,550.2837,550.2837,550.2837,550.6324,NA,NA,NA,NA,NA,NA,NA,TRUE,4,1.6673,547.2846,550.2836,NA,NA,NA,NA,NA,40,47,0,29,29,52,1,2,30,"likert"
"1F6D14219DB14F748F80AE9837CEEDF0",1,"0198eced-5950-78fb-b96d-a9e709e205ba","0198c493-061b-72b6-9f09-7b914e79ecc0","2025-08-27_15h07.36.709",NA,NA,553.6383,553.6384,553.6384,553.9878,NA,NA,NA,NA,NA,NA,NA,TRUE,3,2.1816,550.6334,553.6381,NA,NA,NA,NA,NA,14,32,0,30,30,21,1,2,31,"likert"
"1F6D14219DB14F748F80AE9837CEEDF0",1,"0198eced-5950-78fb-b96d-a9e709e205ba","0198c493-061b-72b6-9f09-7b914e79ecc0","2025-08-27_15h07.36.709",NA,NA,556.988,556.988,556.988,557.3378,NA,NA,NA,NA,NA,NA,NA,TRUE,1,2.1176,553.9887,556.9879,NA,NA,NA,NA,NA,180,27,0,31,31,96,1,2,32,"likert"
"1F6D14219DB14F748F80AE9837CEEDF0",1,"0198eced-5950-78fb-b96d-a9e709e205ba","0198c493-061b-72b6-9f09-7b914e79ecc0","2025-08-27_15h07.36.709",NA,NA,560.3379,560.3379,560.338,560.6877,NA,NA,NA,NA,NA,NA,NA,TRUE,2,1.7525,557.3387,560.3378,NA,NA,NA,NA,NA,100,38,0,32,32,86,1,2,33,"likert"
"1F6D14219DB14F748F80AE9837CEEDF0",1,"0198eced-5950-78fb-b96d-a9e709e205ba","0198c493-061b-72b6-9f09-7b914e79ecc0","2025-08-27_15h07.36.709",NA,NA,563.6884,563.6884,563.6885,564.0379,NA,NA,NA,NA,NA,NA,NA,TRUE,5,1.217,560.6884,563.6882,NA,NA,NA,NA,NA,30,29,0,33,33,44,1,2,34,"likert"
"1F6D14219DB14F748F80AE9837CEEDF0",1,"0198eced-5950-78fb-b96d-a9e709e205ba","0198c493-061b-72b6-9f09-7b914e79ecc0","2025-08-27_15h07.36.709",NA,NA,567.038,567.0381,567.0381,567.3879,NA,NA,NA,NA,NA,NA,NA,TRUE,1,1.7895,564.0389,567.0379,NA,NA,NA,NA,NA,10,25,0,34,34,6,1,2,35,"likert"
"1F6D14219DB14F748F80AE9837CEEDF0",1,"0198eced-5950-78fb-b96d-a9e709e205ba","0198c493-061b-72b6-9f09-7b914e79ecc0","2025-08-27_15h07.36.709",NA,NA,570.381,570.381,570.381,570.7302,NA,NA,NA,NA,NA,NA,NA,TRUE,2,1.9322,567.3889,570.3808,NA,NA,NA,NA,NA,12,31,0,35,35,15,1,2,36,"likert"
"1F6D14219DB14F748F80AE9837CEEDF0",1,"0198eced-5950-78fb-b96d-a9e709e205ba","0198c493-061b-72b6-9f09-7b914e79ecc0","2025-08-27_15h07.36.709",NA,NA,573.738,573.7381,573.7381,574.0878,NA,NA,NA,NA,NA,NA,NA,TRUE,3,1.9159,570.7317,573.7378,NA,NA,NA,NA,NA,21,30,0,36,36,27,1,2,37,"likert"
"1F6D14219DB14F748F80AE9837CEEDF0",1,"0198eced-5950-78fb-b96d-a9e709e205ba","0198c493-061b-72b6-9f09-7b914e79ecc0","2025-08-27_15h07.36.709",NA,NA,577.0882,577.0882,577.0882,577.4044,NA,NA,NA,NA,NA,NA,NA,TRUE,4,2.1002,574.0891,577.088,NA,NA,NA,NA,NA,28,46,0,37,37,41,1,2,38,"likert"
"1F6D14219DB14F748F80AE9837CEEDF0",1,"0198eced-5950-78fb-b96d-a9e709e205ba","0198c493-061b-72b6-9f09-7b914e79ecc0","2025-08-27_15h07.36.709",NA,NA,580.4379,580.4379,580.4379,580.7878,NA,NA,NA,NA,NA,NA,NA,TRUE,2,2.1495,577.4052,580.4378,NA,NA,NA,NA,NA,90,30,0,38,38,73,1,2,39,"likert"
"1F6D14219DB14F748F80AE9837CEEDF0",1,"0198eced-5950-78fb-b96d-a9e709e205ba","0198c493-061b-72b6-9f09-7b914e79ecc0","2025-08-27_15h07.36.709",NA,NA,583.7883,583.7883,583.7883,584.1377,NA,NA,NA,NA,NA,NA,NA,TRUE,3,1.7848,580.7885,583.7881,NA,NA,NA,NA,NA,21,32,0,39,39,28,1,2,40,"likert"
"1F6D14219DB14F748F80AE9837CEEDF0",1,"0198eced-5950-78fb-b96d-a9e709e205ba","0198c493-061b-72b6-9f09-7b914e79ecc0","2025-08-27_15h07.36.709",NA,NA,587.1413,587.1413,587.1413,587.4878,NA,NA,NA,NA,NA,NA,NA,TRUE,2,2.1826,584.1388,587.1411,NA,NA,NA,NA,NA,95,33,0,40,40,79,1,2,41,"likert"
"1F6D14219DB14F748F80AE9837CEEDF0",1,"0198eced-5950-78fb-b96d-a9e709e205ba","0198c493-061b-72b6-9f09-7b914e79ecc0","2025-08-27_15h07.36.709",NA,NA,590.4879,590.4879,590.4879,590.8378,NA,NA,NA,NA,NA,NA,NA,TRUE,1,1.5172,587.4887,590.4878,NA,NA,NA,NA,NA,7,30,0,41,41,3,1,2,42,"likert"
"1F6D14219DB14F748F80AE9837CEEDF0",1,"0198eced-5950-78fb-b96d-a9e709e205ba","0198c493-061b-72b6-9f09-7b914e79ecc0","2025-08-27_15h07.36.709",NA,NA,593.838,593.838,593.838,594.1877,NA,NA,NA,NA,NA,NA,NA,TRUE,1,1.7496,590.8386,593.8379,NA,NA,NA,NA,NA,7,26,0,42,42,1,1,2,43,"likert"
"1F6D14219DB14F748F80AE9837CEEDF0",1,"0198eced-5950-78fb-b96d-a9e709e205ba","0198c493-061b-72b6-9f09-7b914e79ecc0","2025-08-27_15h07.36.709",NA,NA,597.1886,597.1887,597.1888,597.5379,NA,NA,NA,NA,NA,NA,NA,TRUE,1,2.2865,594.1889,597.1879,NA,NA,NA,NA,NA,12,28,0,43,43,14,1,2,44,"likert"
"1F6D14219DB14F748F80AE9837CEEDF0",1,"0198eced-5950-78fb-b96d-a9e709e205ba","0198c493-061b-72b6-9f09-7b914e79ecc0","2025-08-27_15h07.36.709",NA,NA,600.5388,600.5389,600.5389,600.8887,NA,NA,NA,NA,NA,NA,NA,TRUE,2,1.5061,597.5396,600.5387,NA,NA,NA,NA,NA,45,40,0,44,44,58,1,2,45,"likert"
"1F6D14219DB14F748F80AE9837CEEDF0",1,"0198eced-5950-78fb-b96d-a9e709e205ba","0198c493-061b-72b6-9f09-7b914e79ecc0","2025-08-27_15h07.36.709",NA,NA,603.8928,603.8928,603.8928,604.2386,NA,NA,NA,NA,NA,NA,NA,TRUE,1,1.0435,600.8897,603.8928,NA,NA,NA,NA,NA,25,33,0,45,45,33,1,2,46,"likert"
"1F6D14219DB14F748F80AE9837CEEDF0",1,"0198eced-5950-78fb-b96d-a9e709e205ba","0198c493-061b-72b6-9f09-7b914e79ecc0","2025-08-27_15h07.36.709",NA,NA,607.2382,607.2382,607.2382,607.5883,NA,NA,NA,NA,NA,NA,NA,TRUE,2,1.1922,604.2396,607.238,NA,NA,NA,NA,NA,7,32,0,46,46,4,1,2,47,"likert"
"1F6D14219DB14F748F80AE9837CEEDF0",1,"0198eced-5950-78fb-b96d-a9e709e205ba","0198c493-061b-72b6-9f09-7b914e79ecc0","2025-08-27_15h07.36.709",NA,NA,610.588,610.588,610.588,610.9387,NA,NA,NA,NA,NA,NA,NA,TRUE,1,1.9002,607.5893,610.5879,NA,NA,NA,NA,NA,28,26,0,47,47,36,1,2,48,"likert"
"1F6D14219DB14F748F80AE9837CEEDF0",1,"0198eced-5950-78fb-b96d-a9e709e205ba","0198c493-061b-72b6-9f09-7b914e79ecc0","2025-08-27_15h07.36.709",NA,NA,613.9379,613.938,613.938,614.2877,NA,NA,NA,NA,NA,NA,NA,TRUE,1,1.1129,610.9413,613.9378,NA,NA,NA,NA,NA,180,35,0,48,48,98,1,2,49,"likert"
"1F6D14219DB14F748F80AE9837CEEDF0",1,"0198eced-5950-78fb-b96d-a9e709e205ba","0198c493-061b-72b6-9f09-7b914e79ecc0","2025-08-27_15h07.36.709",NA,NA,617.288,617.288,617.288,617.6377,NA,NA,NA,NA,NA,NA,NA,TRUE,2,2.3883,614.2885,617.2878,NA,NA,NA,NA,NA,95,40,0,49,49,81,1,2,50,"likert"
"1F6D14219DB14F748F80AE9837CEEDF0",1,"0198eced-5950-78fb-b96d-a9e709e205ba","0198c493-061b-72b6-9f09-7b914e79ecc0","2025-08-27_15h07.36.709",NA,NA,620.6379,620.6379,620.638,620.9877,NA,NA,NA,NA,NA,NA,NA,TRUE,1,1.6555,617.6389,620.6378,NA,NA,NA,NA,NA,25,31,0,50,50,32,1,2,51,"likert"
"1F6D14219DB14F748F80AE9837CEEDF0",1,"0198eced-5950-78fb-b96d-a9e709e205ba","0198c493-061b-72b6-9f09-7b914e79ecc0","2025-08-27_15h07.36.709",NA,NA,623.9881,623.9881,623.9881,624.3378,NA,NA,NA,NA,NA,NA,NA,TRUE,3,1.9736,620.9886,623.9879,NA,NA,NA,NA,NA,95,35,0,51,51,80,1,2,52,"likert"
"1F6D14219DB14F748F80AE9837CEEDF0",1,"0198eced-5950-78fb-b96d-a9e709e205ba","0198c493-061b-72b6-9f09-7b914e79ecc0","2025-08-27_15h07.36.709",NA,NA,627.3381,627.3381,627.3381,627.6879,NA,NA,NA,NA,NA,NA,NA,TRUE,2,1.3708,624.3387,627.3379,NA,NA,NA,NA,NA,60,29,0,52,52,66,1,2,53,"likert"
"1F6D14219DB14F748F80AE9837CEEDF0",1,"0198eced-5950-78fb-b96d-a9e709e205ba","0198c493-061b-72b6-9f09-7b914e79ecc0","2025-08-27_15h07.36.709",NA,NA,630.688,630.6881,630.6881,631.0377,NA,NA,NA,NA,NA,NA,NA,TRUE,2,1.5336,627.6891,630.6879,NA,NA,NA,NA,NA,90,46,0,53,53,76,1,2,54,"likert"
"1F6D14219DB14F748F80AE9837CEEDF0",1,"0198eced-5950-78fb-b96d-a9e709e205ba","0198c493-061b-72b6-9f09-7b914e79ecc0","2025-08-27_15h07.36.709",NA,NA,634.0382,634.0383,634.0383,634.3879,NA,NA,NA,NA,NA,NA,NA,TRUE,2,0.6924,631.0383,634.0381,NA,NA,NA,NA,NA,200,28,0,54,54,103,1,2,55,"likert"
"1F6D14219DB14F748F80AE9837CEEDF0",1,"0198eced-5950-78fb-b96d-a9e709e205ba","0198c493-061b-72b6-9f09-7b914e79ecc0","2025-08-27_15h07.36.709",NA,NA,637.3713,637.3713,637.3713,637.7378,NA,NA,NA,NA,NA,NA,NA,TRUE,3,0.7931,634.3889,637.3711,NA,NA,NA,NA,NA,40,33,0,55,55,49,1,2,56,"likert"
"1F6D14219DB14F748F80AE9837CEEDF0",1,"0198eced-5950-78fb-b96d-a9e709e205ba","0198c493-061b-72b6-9f09-7b914e79ecc0","2025-08-27_15h07.36.709",NA,NA,640.7377,640.7377,640.7377,641.0878,NA,NA,NA,NA,NA,NA,NA,TRUE,3,0.8884,637.739,640.7377,NA,NA,NA,NA,NA,10,30,0,56,56,10,1,2,57,"likert"
"1F6D14219DB14F748F80AE9837CEEDF0",1,"0198eced-5950-78fb-b96d-a9e709e205ba","0198c493-061b-72b6-9f09-7b914e79ecc0","2025-08-27_15h07.36.709",NA,NA,644.0882,644.0882,644.0882,644.422,NA,NA,NA,NA,NA,NA,NA,TRUE,4,1.7066,641.0886,644.0881,NA,NA,NA,NA,NA,60,54,0,57,57,71,1,2,58,"likert"
"1F6D14219DB14F748F80AE9837CEEDF0",1,"0198eced-5950-78fb-b96d-a9e709e205ba","0198c493-061b-72b6-9f09-7b914e79ecc0","2025-08-27_15h07.36.709",NA,NA,647.4362,647.4363,647.4364,647.7939,NA,NA,NA,NA,NA,NA,NA,TRUE,2,1.6933,644.4228,647.4356,NA,NA,NA,NA,NA,21,27,0,58,58,25,1,2,59,"likert"
"1F6D14219DB14F748F80AE9837CEEDF0",1,"0198eced-5950-78fb-b96d-a9e709e205ba","0198c493-061b-72b6-9f09-7b914e79ecc0","2025-08-27_15h07.36.709",NA,NA,650.7879,650.7879,650.7879,651.1377,NA,NA,NA,NA,NA,NA,NA,TRUE,3,2.3669,647.7948,650.7878,NA,NA,NA,NA,NA,60,35,0,59,59,68,1,2,60,"likert"
"1F6D14219DB14F748F80AE9837CEEDF0",1,"0198eced-5950-78fb-b96d-a9e709e205ba","0198c493-061b-72b6-9f09-7b914e79ecc0","2025-08-27_15h07.36.709",NA,NA,654.1387,654.1387,654.1387,654.4878,NA,NA,NA,NA,NA,NA,NA,TRUE,3,0.9638,651.1386,654.1384,NA,NA,NA,NA,NA,21,29,0,60,60,26,1,2,61,"likert"
"1F6D14219DB14F748F80AE9837CEEDF0",1,"0198eced-5950-78fb-b96d-a9e709e205ba","0198c493-061b-72b6-9f09-7b914e79ecc0","2025-08-27_15h07.36.709",NA,NA,657.4881,657.4882,657.4882,657.8377,NA,NA,NA,NA,NA,NA,NA,TRUE,1,1.1567,654.4887,657.4879,NA,NA,NA,NA,NA,10,27,0,61,61,8,1,2,62,"likert"
"1F6D14219DB14F748F80AE9837CEEDF0",1,"0198eced-5950-78fb-b96d-a9e709e205ba","0198c493-061b-72b6-9f09-7b914e79ecc0","2025-08-27_15h07.36.709",NA,NA,660.8379,660.8379,660.8379,661.1877,NA,NA,NA,NA,NA,NA,NA,TRUE,2,1.685,657.8385,660.8378,NA,NA,NA,NA,NA,50,35,0,62,62,62,1,2,63,"likert"
"1F6D14219DB14F748F80AE9837CEEDF0",1,"0198eced-5950-78fb-b96d-a9e709e205ba","0198c493-061b-72b6-9f09-7b914e79ecc0","2025-08-27_15h07.36.709",NA,NA,664.1887,664.1888,664.1888,664.538,NA,NA,NA,NA,NA,NA,NA,TRUE,2,1.8997,661.1884,664.1885,NA,NA,NA,NA,NA,28,32,0,63,63,38,1,2,64,"likert"
"1F6D14219DB14F748F80AE9837CEEDF0",1,"0198eced-5950-78fb-b96d-a9e709e205ba","0198c493-061b-72b6-9f09-7b914e79ecc0","2025-08-27_15h07.36.709",NA,NA,667.5525,667.5525,667.5525,667.8848,NA,NA,NA,NA,NA,NA,NA,TRUE,4,1.9302,664.5401,667.5523,NA,NA,NA,NA,NA,95,54,0,64,64,83,1,2,65,"likert"
"1F6D14219DB14F748F80AE9837CEEDF0",1,"0198eced-5950-78fb-b96d-a9e709e205ba","0198c493-061b-72b6-9f09-7b914e79ecc0","2025-08-27_15h07.36.709",NA,NA,670.9015,670.9015,670.9016,671.2378,NA,NA,NA,NA,NA,NA,NA,TRUE,3,1.9846,667.886,670.9013,NA,NA,NA,NA,NA,12,35,0,65,65,17,1,2,66,"likert"
"1F6D14219DB14F748F80AE9837CEEDF0",1,"0198eced-5950-78fb-b96d-a9e709e205ba","0198c493-061b-72b6-9f09-7b914e79ecc0","2025-08-27_15h07.36.709",NA,NA,674.2339,674.2339,674.2339,674.583,NA,NA,NA,NA,NA,NA,NA,TRUE,1,1.419,671.2389,674.2338,NA,NA,NA,NA,NA,21,26,0,66,66,24,1,2,67,"likert"
"1F6D14219DB14F748F80AE9837CEEDF0",1,"0198eced-5950-78fb-b96d-a9e709e205ba","0198c493-061b-72b6-9f09-7b914e79ecc0","2025-08-27_15h07.36.709",NA,NA,677.588,677.5881,677.5882,677.938,NA,NA,NA,NA,NA,NA,NA,TRUE,3,1.9177,674.5836,677.588,NA,NA,NA,NA,NA,90,40,0,67,67,75,1,2,68,"likert"
"1F6D14219DB14F748F80AE9837CEEDF0",1,"0198eced-5950-78fb-b96d-a9e709e205ba","0198c493-061b-72b6-9f09-7b914e79ecc0","2025-08-27_15h07.36.709",NA,NA,680.9379,680.9379,680.9379,681.2877,NA,NA,NA,NA,NA,NA,NA,TRUE,3,1.383,677.9394,680.9377,NA,NA,NA,NA,NA,45,46,0,68,68,59,1,2,69,"likert"
"1F6D14219DB14F748F80AE9837CEEDF0",1,"0198eced-5950-78fb-b96d-a9e709e205ba","0198c493-061b-72b6-9f09-7b914e79ecc0","2025-08-27_15h07.36.709",NA,NA,684.2718,684.2718,684.2718,684.6327,NA,NA,NA,NA,NA,NA,NA,TRUE,1,1.6183,681.2882,684.2717,NA,NA,NA,NA,NA,14,28,0,69,69,20,1,2,70,"likert"
"1F6D14219DB14F748F80AE9837CEEDF0",1,"0198eced-5950-78fb-b96d-a9e709e205ba","0198c493-061b-72b6-9f09-7b914e79ecc0","2025-08-27_15h07.36.709",NA,NA,687.6381,687.6381,687.6381,687.9881,NA,NA,NA,NA,NA,NA,NA,TRUE,3,1.9805,684.6343,687.6379,NA,NA,NA,NA,NA,50,40,0,70,70,63,1,2,71,"likert"
"1F6D14219DB14F748F80AE9837CEEDF0",1,"0198eced-5950-78fb-b96d-a9e709e205ba","0198c493-061b-72b6-9f09-7b914e79ecc0","2025-08-27_15h07.36.709",NA,NA,690.9878,690.9879,690.9879,691.3376,NA,NA,NA,NA,NA,NA,NA,TRUE,2,2.1289,687.9891,690.9877,NA,NA,NA,NA,NA,100,31,0,71,71,85,1,2,72,"likert"
"1F6D14219DB14F748F80AE9837CEEDF0",1,"0198eced-5950-78fb-b96d-a9e709e205ba","0198c493-061b-72b6-9f09-7b914e79ecc0","2025-08-27_15h07.36.709",NA,NA,694.3378,694.3378,694.3378,694.6877,NA,NA,NA,NA,NA,NA,NA,TRUE,4,2.1684,691.3383,694.3377,NA,NA,NA,NA,NA,14,39,0,72,72,23,1,2,73,"likert"
"1F6D14219DB14F748F80AE9837CEEDF0",1,"0198eced-5950-78fb-b96d-a9e709e205ba","0198c493-061b-72b6-9f09-7b914e79ecc0","2025-08-27_15h07.36.709",NA,NA,697.6878,697.6878,697.6878,698.0378,NA,NA,NA,NA,NA,NA,NA,TRUE,2,2.2027,694.6884,697.6877,NA,NA,NA,NA,NA,150,35,0,73,73,92,1,2,74,"likert"
"1F6D14219DB14F748F80AE9837CEEDF0",1,"0198eced-5950-78fb-b96d-a9e709e205ba","0198c493-061b-72b6-9f09-7b914e79ecc0","2025-08-27_15h07.36.709",NA,NA,701.0378,701.0379,701.0379,701.3877,NA,NA,NA,NA,NA,NA,NA,TRUE,1,2.3339,698.0387,701.0377,NA,NA,NA,NA,NA,7,35,0,74,74,5,1,2,75,"likert"
"1F6D14219DB14F748F80AE9837CEEDF0",1,"0198eced-5950-78fb-b96d-a9e709e205ba","0198c493-061b-72b6-9f09-7b914e79ecc0","2025-08-27_15h07.36.709",NA,NA,704.3879,704.388,704.388,704.7377,NA,NA,NA,NA,NA,NA,NA,TRUE,2,1.85,701.3883,704.3878,NA,NA,NA,NA,NA,95,47,0,75,75,82,1,2,76,"likert"
"1F6D14219DB14F748F80AE9837CEEDF0",1,"0198eced-5950-78fb-b96d-a9e709e205ba","0198c493-061b-72b6-9f09-7b914e79ecc0","2025-08-27_15h07.36.709",NA,NA,707.738,707.738,707.738,708.0878,NA,NA,NA,NA,NA,NA,NA,TRUE,2,2.0324,704.7385,707.7379,NA,NA,NA,NA,NA,60,33,0,76,76,67,1,2,77,"likert"
"1F6D14219DB14F748F80AE9837CEEDF0",1,"0198eced-5950-78fb-b96d-a9e709e205ba","0198c493-061b-72b6-9f09-7b914e79ecc0","2025-08-27_15h07.36.709",NA,NA,711.088,711.0881,711.0882,711.4378,NA,NA,NA,NA,NA,NA,NA,TRUE,1,2.055,708.0888,711.0878,NA,NA,NA,NA,NA,200,26,0,77,77,102,1,2,78,"likert"
"1F6D14219DB14F748F80AE9837CEEDF0",1,"0198eced-5950-78fb-b96d-a9e709e205ba","0198c493-061b-72b6-9f09-7b914e79ecc0","2025-08-27_15h07.36.709",NA,NA,714.4379,714.4379,714.4379,714.7877,NA,NA,NA,NA,NA,NA,NA,TRUE,1,1.4668,711.4383,714.4378,NA,NA,NA,NA,NA,200,39,0,78,78,105,1,2,79,"likert"
"1F6D14219DB14F748F80AE9837CEEDF0",1,"0198eced-5950-78fb-b96d-a9e709e205ba","0198c493-061b-72b6-9f09-7b914e79ecc0","2025-08-27_15h07.36.709",NA,NA,717.7881,717.7882,717.7882,718.1403,NA,NA,NA,NA,NA,NA,NA,TRUE,2,1.7689,714.7883,717.788,NA,NA,NA,NA,NA,90,33,0,79,79,74,1,2,80,"likert"
"1F6D14219DB14F748F80AE9837CEEDF0",1,"0198eced-5950-78fb-b96d-a9e709e205ba","0198c493-061b-72b6-9f09-7b914e79ecc0","2025-08-27_15h07.36.709",NA,NA,721.138,721.1381,721.1381,721.4878,NA,NA,NA,NA,NA,NA,NA,TRUE,3,2.6851,718.1426,721.1379,NA,NA,NA,NA,NA,40,35,0,80,80,50,1,2,81,"likert"
"1F6D14219DB14F748F80AE9837CEEDF0",1,"0198eced-5950-78fb-b96d-a9e709e205ba","0198c493-061b-72b6-9f09-7b914e79ecc0","2025-08-27_15h07.36.709",NA,NA,724.4878,724.4879,724.4879,724.8377,NA,NA,NA,NA,NA,NA,NA,TRUE,2,1.7858,721.489,724.4877,NA,NA,NA,NA,NA,180,39,0,81,81,99,1,2,82,"likert"
"1F6D14219DB14F748F80AE9837CEEDF0",1,"0198eced-5950-78fb-b96d-a9e709e205ba","0198c493-061b-72b6-9f09-7b914e79ecc0","2025-08-27_15h07.36.709",NA,NA,727.8389,727.8392,727.8393,728.1878,NA,NA,NA,NA,NA,NA,NA,TRUE,4,2.3029,724.8396,727.8381,NA,NA,NA,NA,NA,100,46,0,82,82,88,1,2,83,"likert"
"1F6D14219DB14F748F80AE9837CEEDF0",1,"0198eced-5950-78fb-b96d-a9e709e205ba","0198c493-061b-72b6-9f09-7b914e79ecc0","2025-08-27_15h07.36.709",NA,NA,731.1777,731.1777,731.1777,731.539,NA,NA,NA,NA,NA,NA,NA,TRUE,1,2.0227,728.1898,731.1776,NA,NA,NA,NA,NA,100,39,0,83,83,87,1,2,84,"likert"
"1F6D14219DB14F748F80AE9837CEEDF0",1,"0198eced-5950-78fb-b96d-a9e709e205ba","0198c493-061b-72b6-9f09-7b914e79ecc0","2025-08-27_15h07.36.709",NA,NA,734.539,734.539,734.539,734.8882,NA,NA,NA,NA,NA,NA,NA,TRUE,1,1.0019,731.5408,734.5388,NA,NA,NA,NA,NA,25,27,0,84,84,30,1,2,85,"likert"
"1F6D14219DB14F748F80AE9837CEEDF0",1,"0198eced-5950-78fb-b96d-a9e709e205ba","0198c493-061b-72b6-9f09-7b914e79ecc0","2025-08-27_15h07.36.709",NA,NA,737.8889,737.8889,737.889,738.2387,NA,NA,NA,NA,NA,NA,NA,TRUE,5,2.0185,734.8893,737.8888,NA,NA,NA,NA,NA,21,38,0,85,85,29,1,2,86,"likert"
"1F6D14219DB14F748F80AE9837CEEDF0",1,"0198eced-5950-78fb-b96d-a9e709e205ba","0198c493-061b-72b6-9f09-7b914e79ecc0","2025-08-27_15h07.36.709",NA,NA,741.238,741.2381,741.2381,741.5879,NA,NA,NA,NA,NA,NA,NA,TRUE,1,1.4409,738.2404,741.2379,NA,NA,NA,NA,NA,45,26,0,86,86,54,1,2,87,"likert"
"1F6D14219DB14F748F80AE9837CEEDF0",1,"0198eced-5950-78fb-b96d-a9e709e205ba","0198c493-061b-72b6-9f09-7b914e79ecc0","2025-08-27_15h07.36.709",NA,NA,744.5881,744.5881,744.5881,744.9377,NA,NA,NA,NA,NA,NA,NA,TRUE,3,2.3031,741.5888,744.5879,NA,NA,NA,NA,NA,100,54,0,87,87,89,1,2,88,"likert"
"1F6D14219DB14F748F80AE9837CEEDF0",1,"0198eced-5950-78fb-b96d-a9e709e205ba","0198c493-061b-72b6-9f09-7b914e79ecc0","2025-08-27_15h07.36.709",NA,NA,747.9383,747.9383,747.9383,748.288,NA,NA,NA,NA,NA,NA,NA,TRUE,1,0.9478,744.9388,747.9381,NA,NA,NA,NA,NA,50,27,0,88,88,60,1,2,89,"likert"
"1F6D14219DB14F748F80AE9837CEEDF0",1,"0198eced-5950-78fb-b96d-a9e709e205ba","0198c493-061b-72b6-9f09-7b914e79ecc0","2025-08-27_15h07.36.709",NA,NA,751.288,751.288,751.288,751.6377,NA,NA,NA,NA,NA,NA,NA,TRUE,1,2.0689,748.2892,751.2879,NA,NA,NA,NA,NA,180,54,0,89,89,101,1,2,90,"likert"
"1F6D14219DB14F748F80AE9837CEEDF0",1,"0198eced-5950-78fb-b96d-a9e709e205ba","0198c493-061b-72b6-9f09-7b914e79ecc0","2025-08-27_15h07.36.709",NA,NA,754.638,754.6382,754.6382,754.9879,NA,NA,NA,NA,NA,NA,NA,TRUE,1,1.4019,751.6385,754.6379,NA,NA,NA,NA,NA,14,25,0,90,90,18,1,2,91,"likert"
"1F6D14219DB14F748F80AE9837CEEDF0",1,"0198eced-5950-78fb-b96d-a9e709e205ba","0198c493-061b-72b6-9f09-7b914e79ecc0","2025-08-27_15h07.36.709",NA,NA,757.9881,757.9881,757.9881,758.3378,NA,NA,NA,NA,NA,NA,NA,TRUE,1,1.1752,754.9888,757.988,NA,NA,NA,NA,NA,200,35,0,91,91,104,1,2,92,"likert"
"1F6D14219DB14F748F80AE9837CEEDF0",1,"0198eced-5950-78fb-b96d-a9e709e205ba","0198c493-061b-72b6-9f09-7b914e79ecc0","2025-08-27_15h07.36.709",NA,NA,761.3379,761.338,761.338,761.6884,NA,NA,NA,NA,NA,NA,NA,TRUE,1,0.8852,758.3385,761.3378,NA,NA,NA,NA,NA,30,26,0,92,92,42,1,2,93,"likert"
"1F6D14219DB14F748F80AE9837CEEDF0",1,"0198eced-5950-78fb-b96d-a9e709e205ba","0198c493-061b-72b6-9f09-7b914e79ecc0","2025-08-27_15h07.36.709",NA,NA,764.6881,764.6883,764.6883,765.0377,NA,NA,NA,NA,NA,NA,NA,TRUE,4,1.9397,761.6895,764.688,NA,NA,NA,NA,NA,14,35,0,93,93,22,1,2,94,"likert"
"1F6D14219DB14F748F80AE9837CEEDF0",1,"0198eced-5950-78fb-b96d-a9e709e205ba","0198c493-061b-72b6-9f09-7b914e79ecc0","2025-08-27_15h07.36.709",NA,NA,768.0382,768.0383,768.0383,768.388,NA,NA,NA,NA,NA,NA,NA,TRUE,1,0.9229,765.0385,768.0381,NA,NA,NA,NA,NA,12,25,0,94,94,12,1,2,95,"likert"
"1F6D14219DB14F748F80AE9837CEEDF0",1,"0198eced-5950-78fb-b96d-a9e709e205ba","0198c493-061b-72b6-9f09-7b914e79ecc0","2025-08-27_15h07.36.709",NA,NA,771.3884,771.3887,771.3887,771.7051,NA,NA,NA,NA,NA,NA,NA,TRUE,1,1.7882,768.3891,771.3882,NA,NA,NA,NA,NA,40,27,0,95,95,48,1,2,96,"likert"
"1F6D14219DB14F748F80AE9837CEEDF0",1,"0198eced-5950-78fb-b96d-a9e709e205ba","0198c493-061b-72b6-9f09-7b914e79ecc0","2025-08-27_15h07.36.709",NA,NA,774.7381,774.7381,774.7382,775.0879,NA,NA,NA,NA,NA,NA,NA,TRUE,4,1.7492,771.7062,774.738,NA,NA,NA,NA,NA,40,54,0,96,96,53,1,2,97,"likert"
"1F6D14219DB14F748F80AE9837CEEDF0",1,"0198eced-5950-78fb-b96d-a9e709e205ba","0198c493-061b-72b6-9f09-7b914e79ecc0","2025-08-27_15h07.36.709",NA,NA,778.0881,778.0882,778.0882,778.4382,NA,NA,NA,NA,NA,NA,NA,TRUE,3,1.9174,775.0889,778.088,NA,NA,NA,NA,NA,45,35,0,97,97,57,1,2,98,"likert"
"1F6D14219DB14F748F80AE9837CEEDF0",1,"0198eced-5950-78fb-b96d-a9e709e205ba","0198c493-061b-72b6-9f09-7b914e79ecc0","2025-08-27_15h07.36.709",NA,NA,781.4382,781.4382,781.4382,781.7878,NA,NA,NA,NA,NA,NA,NA,TRUE,5,1.182,778.4395,781.438,NA,NA,NA,NA,NA,60,47,0,98,98,70,1,2,99,"likert"
"1F6D14219DB14F748F80AE9837CEEDF0",1,"0198eced-5950-78fb-b96d-a9e709e205ba","0198c493-061b-72b6-9f09-7b914e79ecc0","2025-08-27_15h07.36.709",NA,NA,784.7994,784.7995,784.7995,785.1379,NA,NA,NA,NA,NA,NA,NA,TRUE,1,1.1195,781.7886,784.7992,NA,NA,NA,NA,NA,180,31,0,99,99,97,1,2,100,"likert"
"1F6D14219DB14F748F80AE9837CEEDF0",1,"0198eced-5950-78fb-b96d-a9e709e205ba","0198c493-061b-72b6-9f09-7b914e79ecc0","2025-08-27_15h07.36.709",NA,NA,788.1381,788.1381,788.1381,788.488,NA,NA,NA,NA,NA,NA,NA,TRUE,1,1.2502,785.139,788.1379,NA,NA,NA,NA,NA,50,30,0,100,100,61,1,2,101,"likert"
"1F6D14219DB14F748F80AE9837CEEDF0",1,"0198eced-5950-78fb-b96d-a9e709e205ba","0198c493-061b-72b6-9f09-7b914e79ecc0","2025-08-27_15h07.36.709",NA,NA,791.4883,791.4884,791.4884,791.8384,NA,NA,NA,NA,NA,NA,NA,TRUE,2,1.4336,788.4889,791.4883,NA,NA,NA,NA,NA,30,32,0,101,101,46,1,2,102,"likert"
"1F6D14219DB14F748F80AE9837CEEDF0",1,"0198eced-5950-78fb-b96d-a9e709e205ba","0198c493-061b-72b6-9f09-7b914e79ecc0","2025-08-27_15h07.36.709",NA,NA,794.8351,794.8352,794.8352,795.1858,NA,NA,NA,NA,NA,NA,NA,TRUE,1,1.1186,791.8398,794.835,NA,NA,NA,NA,NA,90,26,0,102,102,72,1,2,103,"likert"
"1F6D14219DB14F748F80AE9837CEEDF0",1,"0198eced-5950-78fb-b96d-a9e709e205ba","0198c493-061b-72b6-9f09-7b914e79ecc0","2025-08-27_15h07.36.709",NA,NA,798.188,798.1881,798.1881,798.5377,NA,NA,NA,NA,NA,NA,NA,TRUE,2,2.0137,795.1868,798.1879,NA,NA,NA,NA,NA,150,31,0,103,103,90,1,2,104,"likert"
"1F6D14219DB14F748F80AE9837CEEDF0",1,"0198eced-5950-78fb-b96d-a9e709e205ba","0198c493-061b-72b6-9f09-7b914e79ecc0","2025-08-27_15h07.36.709",NA,NA,801.5348,801.5348,801.5348,801.884,NA,NA,NA,NA,NA,NA,NA,TRUE,1,1.2304,798.5386,801.5347,NA,NA,NA,NA,NA,100,26,0,104,104,84,1,2,105,"likert"
"1F6D14219DB14F748F80AE9837CEEDF0",1,"0198eced-5950-78fb-b96d-a9e709e205ba","0198c493-061b-72b6-9f09-7b914e79ecc0","2025-08-27_15h07.36.709",NA,NA,804.8882,804.8883,804.8883,805.2382,NA,NA,NA,NA,NA,NA,NA,TRUE,3,2.0969,801.8851,804.888,NA,NA,NA,NA,NA,200,54,0,105,105,107,1,2,106,"likert"
"1F6D14219DB14F748F80AE9837CEEDF0",1,"0198eced-5950-78fb-b96d-a9e709e205ba","0198c493-061b-72b6-9f09-7b914e79ecc0","2025-08-27_15h07.36.709",NA,NA,808.2381,808.2381,808.2381,808.588,NA,NA,NA,NA,NA,NA,NA,TRUE,5,2.1991,805.2404,808.238,NA,NA,NA,NA,NA,50,46,0,106,106,64,1,2,107,"likert"
"1F6D14219DB14F748F80AE9837CEEDF0",1,"0198eced-5950-78fb-b96d-a9e709e205ba","0198c493-061b-72b6-9f09-7b914e79ecc0","2025-08-27_15h07.36.709",NA,NA,811.5879,811.5879,811.588,811.9376,NA,NA,NA,NA,NA,NA,NA,TRUE,2,2.085,808.5891,811.5878,NA,NA,NA,NA,NA,180,46,0,107,107,100,1,2,108,"likert"
