"participant","session","assignmentId","projectId","date","practiceTrial.started","practiceTrial.stopped","tooLate.started","tooLate.stopped","blank.started","blank.stopped","trials_pract.thisRepN","trials_pract.thisTrialN","trials_pract.thisN","trials_pract.thisIndex","trials_pract.ran","delay_pract","amount_pract","responseMade","key","rt","trial.started","trial.stopped","trials.thisRepN","trials.thisTrialN","trials.thisN","trials.thisIndex","trials.ran","delay","amount","trials_2.thisRepN","trials_2.thisTrialN","trials_2.thisN","trials_2.thisIndex","trials_2.ran","block","trial","taskType"
"1F8FAFCF5442455CAF4C9CFF8620AB7E",1,"0198f77d-0caf-714c-bd50-e924762dae4f","0198f768-e4d2-711c-944b-6f03c09216de","2025-08-29_15h20.40.118",22.4364,25.4184,25.4205,25.6683,25.6685,25.7684,0,0,0,2,1,14,45,FALSE,NA,NA,NA,NA,NA,NA,NA,NA,NA,NA,NA,NA,NA,NA,NA,NA,0,1,"likert"
"1F8FAFCF5442455CAF4C9CFF8620AB7E",1,"0198f77d-0caf-714c-bd50-e924762dae4f","0198f768-e4d2-711c-944b-6f03c09216de","2025-08-29_15h20.40.118",25.7711,28.7554,28.7559,28.756,28.7561,29.1052,0,1,1,4,1,30,40,TRUE,4,1.8463,NA,NA,NA,NA,NA,NA,NA,NA,NA,NA,NA,NA,NA,NA,0,2,"likert"
"1F8FAFCF5442455CAF4C9CFF8620AB7E",1,"0198f77d-0caf-714c-bd50-e924762dae4f","0198f768-e4d2-711c-944b-6f03c09216de","2025-08-29_15h20.40.118",29.1079,32.1086,32.1087,32.1088,32.1088,32.459,0,2,2,0,1,7,30,TRUE,1,1.0558,NA,NA,NA,NA,NA,NA,NA,NA,NA,NA,NA,NA,NA,NA,0,3,"likert"
"1F8FAFCF5442455CAF4C9CFF8620AB7E",1,"0198f77d-0caf-714c-bd50-e924762dae4f","0198f768-e4d2-711c-944b-6f03c09216de","2025-08-29_15h20.40.118",32.4613,35.4624,35.4625,35.4626,35.4626,35.8128,0,3,3,3,1,3,27,TRUE,1,1.5191,NA,NA,NA,NA,NA,NA,NA,NA,NA,NA,NA,NA,NA,NA,0,4,"likert"
"1F8FAFCF5442455CAF4C9CFF8620AB7E",1,"0198f77d-0caf-714c-bd50-e924762dae4f","0198f768-e4d2-711c-944b-6f03c09216de","2025-08-29_15h20.40.118",35.8151,38.8159,38.8162,38.8163,38.8163,39.1664,0,4,4,1,1,100,50,TRUE,2,1.9395,NA,NA,NA,NA,NA,NA,NA,NA,NA,NA,NA,NA,NA,NA,0,5,"likert"
"1F8FAFCF5442455CAF4C9CFF8620AB7E",1,"0198f77d-0caf-714c-bd50-e924762dae4f","0198f768-e4d2-711c-944b-6f03c09216de","2025-08-29_15h20.40.118",NA,NA,61.341,61.341,61.3412,61.6913,NA,NA,NA,NA,NA,NA,NA,TRUE,1,1.0912,58.3534,61.3408,0,0,0,61,1,50,30,NA,NA,NA,NA,NA,1,1,"likert"
"1F8FAFCF5442455CAF4C9CFF8620AB7E",1,"0198f77d-0caf-714c-bd50-e924762dae4f","0198f768-e4d2-711c-944b-6f03c09216de","2025-08-29_15h20.40.118",NA,NA,64.6779,64.6779,64.6779,65.0281,NA,NA,NA,NA,NA,NA,NA,TRUE,1,1.0637,61.6918,64.6778,0,1,1,62,1,50,35,NA,NA,NA,NA,NA,1,2,"likert"
"1F8FAFCF5442455CAF4C9CFF8620AB7E",1,"0198f77d-0caf-714c-bd50-e924762dae4f","0198f768-e4d2-711c-944b-6f03c09216de","2025-08-29_15h20.40.118",NA,NA,68.0316,68.0316,68.0316,68.3818,NA,NA,NA,NA,NA,NA,NA,TRUE,1,0.8138,65.029,68.0315,0,2,2,88,1,100,46,NA,NA,NA,NA,NA,1,3,"likert"
"1F8FAFCF5442455CAF4C9CFF8620AB7E",1,"0198f77d-0caf-714c-bd50-e924762dae4f","0198f768-e4d2-711c-944b-6f03c09216de","2025-08-29_15h20.40.118",NA,NA,71.3852,71.3852,71.3852,71.7355,NA,NA,NA,NA,NA,NA,NA,TRUE,1,1.2811,68.3827,71.3852,0,3,3,2,1,7,28,NA,NA,NA,NA,NA,1,4,"likert"
"1F8FAFCF5442455CAF4C9CFF8620AB7E",1,"0198f77d-0caf-714c-bd50-e924762dae4f","0198f768-e4d2-711c-944b-6f03c09216de","2025-08-29_15h20.40.118",NA,NA,74.7389,74.7389,74.739,75.0891,NA,NA,NA,NA,NA,NA,NA,TRUE,1,1.1645,71.7362,74.7387,0,4,4,16,1,12,33,NA,NA,NA,NA,NA,1,5,"likert"
"1F8FAFCF5442455CAF4C9CFF8620AB7E",1,"0198f77d-0caf-714c-bd50-e924762dae4f","0198f768-e4d2-711c-944b-6f03c09216de","2025-08-29_15h20.40.118",NA,NA,78.076,78.076,78.076,78.4263,NA,NA,NA,NA,NA,NA,NA,TRUE,1,0.8468,75.0898,78.0759,0,5,5,45,1,30,30,NA,NA,NA,NA,NA,1,6,"likert"
"1F8FAFCF5442455CAF4C9CFF8620AB7E",1,"0198f77d-0caf-714c-bd50-e924762dae4f","0198f768-e4d2-711c-944b-6f03c09216de","2025-08-29_15h20.40.118",NA,NA,81.4295,81.4295,81.4296,81.7799,NA,NA,NA,NA,NA,NA,NA,TRUE,1,0.9895,78.4274,81.4294,0,6,6,105,1,200,39,NA,NA,NA,NA,NA,1,7,"likert"
"1F8FAFCF5442455CAF4C9CFF8620AB7E",1,"0198f77d-0caf-714c-bd50-e924762dae4f","0198f768-e4d2-711c-944b-6f03c09216de","2025-08-29_15h20.40.118",NA,NA,84.7833,84.7834,84.7835,85.1335,NA,NA,NA,NA,NA,NA,NA,TRUE,1,0.8518,81.7805,84.7833,0,7,7,27,1,21,30,NA,NA,NA,NA,NA,1,8,"likert"
"1F8FAFCF5442455CAF4C9CFF8620AB7E",1,"0198f77d-0caf-714c-bd50-e924762dae4f","0198f768-e4d2-711c-944b-6f03c09216de","2025-08-29_15h20.40.118",NA,NA,88.137,88.137,88.137,88.4872,NA,NA,NA,NA,NA,NA,NA,TRUE,1,1.5145,85.1341,88.1369,0,8,8,99,1,180,39,NA,NA,NA,NA,NA,1,9,"likert"
"1F8FAFCF5442455CAF4C9CFF8620AB7E",1,"0198f77d-0caf-714c-bd50-e924762dae4f","0198f768-e4d2-711c-944b-6f03c09216de","2025-08-29_15h20.40.118",NA,NA,91.4907,91.4908,91.4908,91.8409,NA,NA,NA,NA,NA,NA,NA,TRUE,1,0.8748,88.4877,91.4906,0,9,9,59,1,45,46,NA,NA,NA,NA,NA,1,10,"likert"
"1F8FAFCF5442455CAF4C9CFF8620AB7E",1,"0198f77d-0caf-714c-bd50-e924762dae4f","0198f768-e4d2-711c-944b-6f03c09216de","2025-08-29_15h20.40.118",NA,NA,94.8277,94.8277,94.8277,95.1779,NA,NA,NA,NA,NA,NA,NA,TRUE,1,1.0469,91.8416,94.8277,0,10,10,1,1,7,26,NA,NA,NA,NA,NA,1,11,"likert"
"1F8FAFCF5442455CAF4C9CFF8620AB7E",1,"0198f77d-0caf-714c-bd50-e924762dae4f","0198f768-e4d2-711c-944b-6f03c09216de","2025-08-29_15h20.40.118",NA,NA,98.1813,98.1813,98.1813,98.5316,NA,NA,NA,NA,NA,NA,NA,TRUE,2,1.5848,95.1785,98.1812,0,11,11,3,1,7,30,NA,NA,NA,NA,NA,1,12,"likert"
"1F8FAFCF5442455CAF4C9CFF8620AB7E",1,"0198f77d-0caf-714c-bd50-e924762dae4f","0198f768-e4d2-711c-944b-6f03c09216de","2025-08-29_15h20.40.118",NA,NA,101.5349,101.5349,101.535,101.8853,NA,NA,NA,NA,NA,NA,NA,TRUE,1,2.0583,98.5325,101.5349,0,12,12,65,1,50,54,NA,NA,NA,NA,NA,1,13,"likert"
"1F8FAFCF5442455CAF4C9CFF8620AB7E",1,"0198f77d-0caf-714c-bd50-e924762dae4f","0198f768-e4d2-711c-944b-6f03c09216de","2025-08-29_15h20.40.118",NA,NA,104.8886,104.8886,104.8887,105.2391,NA,NA,NA,NA,NA,NA,NA,TRUE,2,2.1571,101.8873,104.8886,0,13,13,49,1,40,33,NA,NA,NA,NA,NA,1,14,"likert"
"1F8FAFCF5442455CAF4C9CFF8620AB7E",1,"0198f77d-0caf-714c-bd50-e924762dae4f","0198f768-e4d2-711c-944b-6f03c09216de","2025-08-29_15h20.40.118",NA,NA,108.226,108.226,108.2261,108.5759,NA,NA,NA,NA,NA,NA,NA,TRUE,1,2.2552,105.2416,108.2257,0,14,14,14,1,12,28,NA,NA,NA,NA,NA,1,15,"likert"
"1F8FAFCF5442455CAF4C9CFF8620AB7E",1,"0198f77d-0caf-714c-bd50-e924762dae4f","0198f768-e4d2-711c-944b-6f03c09216de","2025-08-29_15h20.40.118",NA,NA,111.5798,111.5799,111.5799,111.9296,NA,NA,NA,NA,NA,NA,NA,TRUE,1,1.3718,108.578,111.5794,0,15,15,37,1,28,28,NA,NA,NA,NA,NA,1,16,"likert"
"1F8FAFCF5442455CAF4C9CFF8620AB7E",1,"0198f77d-0caf-714c-bd50-e924762dae4f","0198f768-e4d2-711c-944b-6f03c09216de","2025-08-29_15h20.40.118",NA,NA,114.933,114.933,114.933,115.2834,NA,NA,NA,NA,NA,NA,NA,TRUE,2,1.6528,111.9316,114.933,0,16,16,10,1,10,30,NA,NA,NA,NA,NA,1,17,"likert"
"1F8FAFCF5442455CAF4C9CFF8620AB7E",1,"0198f77d-0caf-714c-bd50-e924762dae4f","0198f768-e4d2-711c-944b-6f03c09216de","2025-08-29_15h20.40.118",NA,NA,118.287,118.2871,118.2871,118.6371,NA,NA,NA,NA,NA,NA,NA,TRUE,4,2.7575,115.2858,118.2867,0,17,17,35,1,25,46,NA,NA,NA,NA,NA,1,18,"likert"
"1F8FAFCF5442455CAF4C9CFF8620AB7E",1,"0198f77d-0caf-714c-bd50-e924762dae4f","0198f768-e4d2-711c-944b-6f03c09216de","2025-08-29_15h20.40.118",NA,NA,121.6406,121.6408,121.6408,121.9909,NA,NA,NA,NA,NA,NA,NA,TRUE,1,1.9074,118.6391,121.6404,0,18,18,79,1,95,33,NA,NA,NA,NA,NA,1,19,"likert"
"1F8FAFCF5442455CAF4C9CFF8620AB7E",1,"0198f77d-0caf-714c-bd50-e924762dae4f","0198f768-e4d2-711c-944b-6f03c09216de","2025-08-29_15h20.40.118",NA,NA,124.9774,124.9774,124.9775,125.3277,NA,NA,NA,NA,NA,NA,NA,TRUE,1,0.9676,121.9933,124.9773,0,19,19,13,1,12,26,NA,NA,NA,NA,NA,1,20,"likert"
"1F8FAFCF5442455CAF4C9CFF8620AB7E",1,"0198f77d-0caf-714c-bd50-e924762dae4f","0198f768-e4d2-711c-944b-6f03c09216de","2025-08-29_15h20.40.118",NA,NA,128.3314,128.3315,128.3315,128.6814,NA,NA,NA,NA,NA,NA,NA,TRUE,1,0.9875,125.3297,128.3312,0,20,20,78,1,95,31,NA,NA,NA,NA,NA,1,21,"likert"
"1F8FAFCF5442455CAF4C9CFF8620AB7E",1,"0198f77d-0caf-714c-bd50-e924762dae4f","0198f768-e4d2-711c-944b-6f03c09216de","2025-08-29_15h20.40.118",NA,NA,131.6852,131.6852,131.6853,132.035,NA,NA,NA,NA,NA,NA,NA,TRUE,1,1.3061,128.6839,131.6848,0,21,21,96,1,180,27,NA,NA,NA,NA,NA,1,22,"likert"
"1F8FAFCF5442455CAF4C9CFF8620AB7E",1,"0198f77d-0caf-714c-bd50-e924762dae4f","0198f768-e4d2-711c-944b-6f03c09216de","2025-08-29_15h20.40.118",NA,NA,135.0387,135.0389,135.039,135.3887,NA,NA,NA,NA,NA,NA,NA,TRUE,1,1.5922,132.0376,135.0384,0,22,22,101,1,180,54,NA,NA,NA,NA,NA,1,23,"likert"
"1F8FAFCF5442455CAF4C9CFF8620AB7E",1,"0198f77d-0caf-714c-bd50-e924762dae4f","0198f768-e4d2-711c-944b-6f03c09216de","2025-08-29_15h20.40.118",NA,NA,138.3755,138.3755,138.3756,138.7257,NA,NA,NA,NA,NA,NA,NA,TRUE,1,1.1628,135.3907,138.3754,0,23,23,42,1,30,26,NA,NA,NA,NA,NA,1,24,"likert"
"1F8FAFCF5442455CAF4C9CFF8620AB7E",1,"0198f77d-0caf-714c-bd50-e924762dae4f","0198f768-e4d2-711c-944b-6f03c09216de","2025-08-29_15h20.40.118",NA,NA,141.7293,141.7294,141.7294,142.0795,NA,NA,NA,NA,NA,NA,NA,TRUE,1,1.2186,138.7277,141.7291,0,24,24,81,1,95,40,NA,NA,NA,NA,NA,1,25,"likert"
"1F8FAFCF5442455CAF4C9CFF8620AB7E",1,"0198f77d-0caf-714c-bd50-e924762dae4f","0198f768-e4d2-711c-944b-6f03c09216de","2025-08-29_15h20.40.118",NA,NA,145.0828,145.0828,145.0828,145.4331,NA,NA,NA,NA,NA,NA,NA,TRUE,1,1.3363,142.0817,145.0827,0,25,25,74,1,90,33,NA,NA,NA,NA,NA,1,26,"likert"
"1F8FAFCF5442455CAF4C9CFF8620AB7E",1,"0198f77d-0caf-714c-bd50-e924762dae4f","0198f768-e4d2-711c-944b-6f03c09216de","2025-08-29_15h20.40.118",NA,NA,148.4365,148.4365,148.4365,148.7869,NA,NA,NA,NA,NA,NA,NA,TRUE,1,1.0029,145.4353,148.4365,0,26,26,18,1,14,25,NA,NA,NA,NA,NA,1,27,"likert"
"1F8FAFCF5442455CAF4C9CFF8620AB7E",1,"0198f77d-0caf-714c-bd50-e924762dae4f","0198f768-e4d2-711c-944b-6f03c09216de","2025-08-29_15h20.40.118",NA,NA,151.7902,151.7903,151.7903,152.1405,NA,NA,NA,NA,NA,NA,NA,TRUE,2,2.2625,148.7893,151.7901,0,27,27,41,1,28,46,NA,NA,NA,NA,NA,1,28,"likert"
"1F8FAFCF5442455CAF4C9CFF8620AB7E",1,"0198f77d-0caf-714c-bd50-e924762dae4f","0198f768-e4d2-711c-944b-6f03c09216de","2025-08-29_15h20.40.118",NA,NA,155.1277,155.1277,155.1277,155.4774,NA,NA,NA,NA,NA,NA,NA,TRUE,2,2.9209,152.1428,155.1274,0,28,28,83,1,95,54,NA,NA,NA,NA,NA,1,29,"likert"
"1F8FAFCF5442455CAF4C9CFF8620AB7E",1,"0198f77d-0caf-714c-bd50-e924762dae4f","0198f768-e4d2-711c-944b-6f03c09216de","2025-08-29_15h20.40.118",NA,NA,158.4808,158.4808,158.4808,158.8311,NA,NA,NA,NA,NA,NA,NA,TRUE,1,2.1196,155.4792,158.4808,0,29,29,20,1,14,28,NA,NA,NA,NA,NA,1,30,"likert"
"1F8FAFCF5442455CAF4C9CFF8620AB7E",1,"0198f77d-0caf-714c-bd50-e924762dae4f","0198f768-e4d2-711c-944b-6f03c09216de","2025-08-29_15h20.40.118",NA,NA,161.8347,161.8348,161.8348,162.1849,NA,NA,NA,NA,NA,NA,NA,TRUE,1,1.3186,158.8329,161.8346,0,30,30,26,1,21,29,NA,NA,NA,NA,NA,1,31,"likert"
"1F8FAFCF5442455CAF4C9CFF8620AB7E",1,"0198f77d-0caf-714c-bd50-e924762dae4f","0198f768-e4d2-711c-944b-6f03c09216de","2025-08-29_15h20.40.118",NA,NA,165.1883,165.1883,165.1883,165.5385,NA,NA,NA,NA,NA,NA,NA,TRUE,1,1.2546,162.1868,165.1882,0,31,31,7,1,10,26,NA,NA,NA,NA,NA,1,32,"likert"
"1F8FAFCF5442455CAF4C9CFF8620AB7E",1,"0198f77d-0caf-714c-bd50-e924762dae4f","0198f768-e4d2-711c-944b-6f03c09216de","2025-08-29_15h20.40.118",NA,NA,168.5254,168.5255,168.5256,168.8756,NA,NA,NA,NA,NA,NA,NA,TRUE,1,1.5205,165.5407,168.5252,0,32,32,73,1,90,30,NA,NA,NA,NA,NA,1,33,"likert"
"1F8FAFCF5442455CAF4C9CFF8620AB7E",1,"0198f77d-0caf-714c-bd50-e924762dae4f","0198f768-e4d2-711c-944b-6f03c09216de","2025-08-29_15h20.40.118",NA,NA,171.8792,171.8792,171.8792,172.2291,NA,NA,NA,NA,NA,NA,NA,TRUE,2,2.0531,168.8779,171.8789,0,33,33,9,1,10,29,NA,NA,NA,NA,NA,1,34,"likert"
"1F8FAFCF5442455CAF4C9CFF8620AB7E",1,"0198f77d-0caf-714c-bd50-e924762dae4f","0198f768-e4d2-711c-944b-6f03c09216de","2025-08-29_15h20.40.118",NA,NA,175.2329,175.2329,175.2329,175.5831,NA,NA,NA,NA,NA,NA,NA,TRUE,1,1.2239,172.231,175.2327,0,34,34,24,1,21,26,NA,NA,NA,NA,NA,1,35,"likert"
"1F8FAFCF5442455CAF4C9CFF8620AB7E",1,"0198f77d-0caf-714c-bd50-e924762dae4f","0198f768-e4d2-711c-944b-6f03c09216de","2025-08-29_15h20.40.118",NA,NA,178.5866,178.5866,178.5867,178.9366,NA,NA,NA,NA,NA,NA,NA,TRUE,2,2.5769,175.5853,178.5864,0,35,35,57,1,45,35,NA,NA,NA,NA,NA,1,36,"likert"
"1F8FAFCF5442455CAF4C9CFF8620AB7E",1,"0198f77d-0caf-714c-bd50-e924762dae4f","0198f768-e4d2-711c-944b-6f03c09216de","2025-08-29_15h20.40.118",NA,NA,181.9401,181.9403,181.9403,182.2903,NA,NA,NA,NA,NA,NA,NA,TRUE,3,2.6043,178.9388,181.9398,0,36,36,52,1,40,47,NA,NA,NA,NA,NA,1,37,"likert"
"1F8FAFCF5442455CAF4C9CFF8620AB7E",1,"0198f77d-0caf-714c-bd50-e924762dae4f","0198f768-e4d2-711c-944b-6f03c09216de","2025-08-29_15h20.40.118",NA,NA,185.2772,185.2773,185.2773,185.6273,NA,NA,NA,NA,NA,NA,NA,TRUE,1,1.9065,182.2922,185.277,0,37,37,84,1,100,26,NA,NA,NA,NA,NA,1,38,"likert"
"1F8FAFCF5442455CAF4C9CFF8620AB7E",1,"0198f77d-0caf-714c-bd50-e924762dae4f","0198f768-e4d2-711c-944b-6f03c09216de","2025-08-29_15h20.40.118",NA,NA,188.6309,188.631,188.631,188.9809,NA,NA,NA,NA,NA,NA,NA,TRUE,1,0.9684,185.6293,188.6307,0,38,38,55,1,45,29,NA,NA,NA,NA,NA,1,39,"likert"
"1F8FAFCF5442455CAF4C9CFF8620AB7E",1,"0198f77d-0caf-714c-bd50-e924762dae4f","0198f768-e4d2-711c-944b-6f03c09216de","2025-08-29_15h20.40.118",NA,NA,191.9843,191.9843,191.9843,192.3348,NA,NA,NA,NA,NA,NA,NA,TRUE,1,1.068,188.9837,191.9843,0,39,39,0,1,7,25,NA,NA,NA,NA,NA,1,40,"likert"
"1F8FAFCF5442455CAF4C9CFF8620AB7E",1,"0198f77d-0caf-714c-bd50-e924762dae4f","0198f768-e4d2-711c-944b-6f03c09216de","2025-08-29_15h20.40.118",NA,NA,195.3382,195.3382,195.3383,195.6884,NA,NA,NA,NA,NA,NA,NA,TRUE,1,0.8861,192.3371,195.3379,0,40,40,48,1,40,27,NA,NA,NA,NA,NA,1,41,"likert"
"1F8FAFCF5442455CAF4C9CFF8620AB7E",1,"0198f77d-0caf-714c-bd50-e924762dae4f","0198f768-e4d2-711c-944b-6f03c09216de","2025-08-29_15h20.40.118",NA,NA,198.6754,198.6755,198.6755,199.0254,NA,NA,NA,NA,NA,NA,NA,TRUE,2,2.1805,195.6907,198.6752,0,41,41,29,1,21,38,NA,NA,NA,NA,NA,1,42,"likert"
"1F8FAFCF5442455CAF4C9CFF8620AB7E",1,"0198f77d-0caf-714c-bd50-e924762dae4f","0198f768-e4d2-711c-944b-6f03c09216de","2025-08-29_15h20.40.118",NA,NA,202.0287,202.0287,202.0288,202.3791,NA,NA,NA,NA,NA,NA,NA,TRUE,2,2.1528,199.0273,202.0287,0,42,42,47,1,30,38,NA,NA,NA,NA,NA,1,43,"likert"
"1F8FAFCF5442455CAF4C9CFF8620AB7E",1,"0198f77d-0caf-714c-bd50-e924762dae4f","0198f768-e4d2-711c-944b-6f03c09216de","2025-08-29_15h20.40.118",NA,NA,205.3824,205.3824,205.3824,205.7328,NA,NA,NA,NA,NA,NA,NA,TRUE,1,1.0525,202.3813,205.3823,0,43,43,6,1,10,25,NA,NA,NA,NA,NA,1,44,"likert"
"1F8FAFCF5442455CAF4C9CFF8620AB7E",1,"0198f77d-0caf-714c-bd50-e924762dae4f","0198f768-e4d2-711c-944b-6f03c09216de","2025-08-29_15h20.40.118",NA,NA,208.7361,208.7362,208.7363,209.0864,NA,NA,NA,NA,NA,NA,NA,TRUE,1,1.0022,205.735,208.736,0,44,44,54,1,45,26,NA,NA,NA,NA,NA,1,45,"likert"
"1F8FAFCF5442455CAF4C9CFF8620AB7E",1,"0198f77d-0caf-714c-bd50-e924762dae4f","0198f768-e4d2-711c-944b-6f03c09216de","2025-08-29_15h20.40.118",NA,NA,212.0897,212.0897,212.0897,212.4401,NA,NA,NA,NA,NA,NA,NA,TRUE,3,1.8262,209.0889,212.0897,0,45,45,17,1,12,35,NA,NA,NA,NA,NA,1,46,"likert"
"1F8FAFCF5442455CAF4C9CFF8620AB7E",1,"0198f77d-0caf-714c-bd50-e924762dae4f","0198f768-e4d2-711c-944b-6f03c09216de","2025-08-29_15h20.40.118",NA,NA,215.4268,215.4268,215.4268,215.7771,NA,NA,NA,NA,NA,NA,NA,TRUE,1,1.3524,212.4423,215.4267,0,46,46,87,1,100,39,NA,NA,NA,NA,NA,1,47,"likert"
"1F8FAFCF5442455CAF4C9CFF8620AB7E",1,"0198f77d-0caf-714c-bd50-e924762dae4f","0198f768-e4d2-711c-944b-6f03c09216de","2025-08-29_15h20.40.118",NA,NA,218.7805,218.7806,218.7806,219.1309,NA,NA,NA,NA,NA,NA,NA,TRUE,2,2.0374,215.7791,218.7804,0,47,47,21,1,14,32,NA,NA,NA,NA,NA,1,48,"likert"
"1F8FAFCF5442455CAF4C9CFF8620AB7E",1,"0198f77d-0caf-714c-bd50-e924762dae4f","0198f768-e4d2-711c-944b-6f03c09216de","2025-08-29_15h20.40.118",NA,NA,222.1341,222.1342,222.1342,222.4845,NA,NA,NA,NA,NA,NA,NA,TRUE,1,1.3522,219.1332,222.1341,0,48,48,46,1,30,32,NA,NA,NA,NA,NA,1,49,"likert"
"1F8FAFCF5442455CAF4C9CFF8620AB7E",1,"0198f77d-0caf-714c-bd50-e924762dae4f","0198f768-e4d2-711c-944b-6f03c09216de","2025-08-29_15h20.40.118",NA,NA,225.4878,225.488,225.488,225.8381,NA,NA,NA,NA,NA,NA,NA,TRUE,1,1.3745,222.4866,225.4878,0,49,49,68,1,60,35,NA,NA,NA,NA,NA,1,50,"likert"
"1F8FAFCF5442455CAF4C9CFF8620AB7E",1,"0198f77d-0caf-714c-bd50-e924762dae4f","0198f768-e4d2-711c-944b-6f03c09216de","2025-08-29_15h20.40.118",NA,NA,228.8415,228.8416,228.8416,229.1753,NA,NA,NA,NA,NA,NA,NA,TRUE,1,1.0519,225.8399,228.8415,0,50,50,104,1,200,35,NA,NA,NA,NA,NA,1,51,"likert"
"1F8FAFCF5442455CAF4C9CFF8620AB7E",1,"0198f77d-0caf-714c-bd50-e924762dae4f","0198f768-e4d2-711c-944b-6f03c09216de","2025-08-29_15h20.40.118",NA,NA,232.1786,232.1787,232.1788,232.5289,NA,NA,NA,NA,NA,NA,NA,TRUE,1,1.1906,229.1775,232.1784,0,51,51,64,1,50,46,NA,NA,NA,NA,NA,1,52,"likert"
"1F8FAFCF5442455CAF4C9CFF8620AB7E",1,"0198f77d-0caf-714c-bd50-e924762dae4f","0198f768-e4d2-711c-944b-6f03c09216de","2025-08-29_15h20.40.118",NA,NA,235.5328,235.5328,235.5328,235.8827,NA,NA,NA,NA,NA,NA,NA,TRUE,1,1.026,232.5313,235.5324,0,52,52,31,1,25,29,NA,NA,NA,NA,NA,1,53,"likert"
"1F8FAFCF5442455CAF4C9CFF8620AB7E",1,"0198f77d-0caf-714c-bd50-e924762dae4f","0198f768-e4d2-711c-944b-6f03c09216de","2025-08-29_15h20.40.118",NA,NA,238.8862,238.8863,238.8863,239.2362,NA,NA,NA,NA,NA,NA,NA,TRUE,1,1.187,235.885,238.8859,0,53,53,39,1,28,35,NA,NA,NA,NA,NA,1,54,"likert"
"1F8FAFCF5442455CAF4C9CFF8620AB7E",1,"0198f77d-0caf-714c-bd50-e924762dae4f","0198f768-e4d2-711c-944b-6f03c09216de","2025-08-29_15h20.40.118",NA,NA,242.2399,242.2401,242.2402,242.5899,NA,NA,NA,NA,NA,NA,NA,TRUE,1,2.0365,239.2386,242.2397,0,54,54,15,1,12,31,NA,NA,NA,NA,NA,1,55,"likert"
"1F8FAFCF5442455CAF4C9CFF8620AB7E",1,"0198f77d-0caf-714c-bd50-e924762dae4f","0198f768-e4d2-711c-944b-6f03c09216de","2025-08-29_15h20.40.118",NA,NA,245.577,245.577,245.577,245.9269,NA,NA,NA,NA,NA,NA,NA,TRUE,1,1.2022,242.5922,245.5767,0,55,55,56,1,45,31,NA,NA,NA,NA,NA,1,56,"likert"
"1F8FAFCF5442455CAF4C9CFF8620AB7E",1,"0198f77d-0caf-714c-bd50-e924762dae4f","0198f768-e4d2-711c-944b-6f03c09216de","2025-08-29_15h20.40.118",NA,NA,248.9303,248.9304,248.9304,249.2805,NA,NA,NA,NA,NA,NA,NA,TRUE,1,1.5693,245.9289,248.9302,0,56,56,33,1,25,33,NA,NA,NA,NA,NA,1,57,"likert"
"1F8FAFCF5442455CAF4C9CFF8620AB7E",1,"0198f77d-0caf-714c-bd50-e924762dae4f","0198f768-e4d2-711c-944b-6f03c09216de","2025-08-29_15h20.40.118",NA,NA,252.284,252.284,252.284,252.6342,NA,NA,NA,NA,NA,NA,NA,TRUE,1,0.7182,249.2826,252.2839,0,57,57,102,1,200,26,NA,NA,NA,NA,NA,1,58,"likert"
"1F8FAFCF5442455CAF4C9CFF8620AB7E",1,"0198f77d-0caf-714c-bd50-e924762dae4f","0198f768-e4d2-711c-944b-6f03c09216de","2025-08-29_15h20.40.118",NA,NA,255.6378,255.638,255.638,255.9879,NA,NA,NA,NA,NA,NA,NA,TRUE,1,0.96,252.6364,255.6376,0,58,58,98,1,180,35,NA,NA,NA,NA,NA,1,59,"likert"
"1F8FAFCF5442455CAF4C9CFF8620AB7E",1,"0198f77d-0caf-714c-bd50-e924762dae4f","0198f768-e4d2-711c-944b-6f03c09216de","2025-08-29_15h20.40.118",NA,NA,258.9914,258.9915,258.9915,259.325,NA,NA,NA,NA,NA,NA,NA,TRUE,1,0.9014,255.9898,258.9913,0,59,59,85,1,100,31,NA,NA,NA,NA,NA,1,60,"likert"
"1F8FAFCF5442455CAF4C9CFF8620AB7E",1,"0198f77d-0caf-714c-bd50-e924762dae4f","0198f768-e4d2-711c-944b-6f03c09216de","2025-08-29_15h20.40.118",NA,NA,262.3285,262.3287,262.3287,262.6786,NA,NA,NA,NA,NA,NA,NA,TRUE,2,1.9879,259.3276,262.3283,0,60,60,95,1,150,54,NA,NA,NA,NA,NA,1,61,"likert"
"1F8FAFCF5442455CAF4C9CFF8620AB7E",1,"0198f77d-0caf-714c-bd50-e924762dae4f","0198f768-e4d2-711c-944b-6f03c09216de","2025-08-29_15h20.40.118",NA,NA,265.6821,265.6821,265.6821,266.0324,NA,NA,NA,NA,NA,NA,NA,TRUE,2,1.9048,262.6804,265.682,0,61,61,28,1,21,32,NA,NA,NA,NA,NA,1,62,"likert"
"1F8FAFCF5442455CAF4C9CFF8620AB7E",1,"0198f77d-0caf-714c-bd50-e924762dae4f","0198f768-e4d2-711c-944b-6f03c09216de","2025-08-29_15h20.40.118",NA,NA,269.0359,269.036,269.036,269.3861,NA,NA,NA,NA,NA,NA,NA,TRUE,1,1.0183,266.0345,269.0357,0,62,62,51,1,40,40,NA,NA,NA,NA,NA,1,63,"likert"
"1F8FAFCF5442455CAF4C9CFF8620AB7E",1,"0198f77d-0caf-714c-bd50-e924762dae4f","0198f768-e4d2-711c-944b-6f03c09216de","2025-08-29_15h20.40.118",NA,NA,272.3896,272.3896,272.3897,272.7398,NA,NA,NA,NA,NA,NA,NA,TRUE,1,1.5356,269.3884,272.3893,0,63,63,43,1,30,27,NA,NA,NA,NA,NA,1,64,"likert"
"1F8FAFCF5442455CAF4C9CFF8620AB7E",1,"0198f77d-0caf-714c-bd50-e924762dae4f","0198f768-e4d2-711c-944b-6f03c09216de","2025-08-29_15h20.40.118",NA,NA,275.7265,275.7266,275.7267,276.0767,NA,NA,NA,NA,NA,NA,NA,TRUE,1,1.0186,272.7421,275.7264,0,64,64,103,1,200,28,NA,NA,NA,NA,NA,1,65,"likert"
"1F8FAFCF5442455CAF4C9CFF8620AB7E",1,"0198f77d-0caf-714c-bd50-e924762dae4f","0198f768-e4d2-711c-944b-6f03c09216de","2025-08-29_15h20.40.118",NA,NA,279.0801,279.0801,279.0801,279.4305,NA,NA,NA,NA,NA,NA,NA,TRUE,4,1.5946,276.0786,279.0799,0,65,65,5,1,7,35,NA,NA,NA,NA,NA,1,66,"likert"
"1F8FAFCF5442455CAF4C9CFF8620AB7E",1,"0198f77d-0caf-714c-bd50-e924762dae4f","0198f768-e4d2-711c-944b-6f03c09216de","2025-08-29_15h20.40.118",NA,NA,282.4337,282.4338,282.4338,282.784,NA,NA,NA,NA,NA,NA,NA,TRUE,2,1.6022,279.4325,282.4337,0,66,66,50,1,40,35,NA,NA,NA,NA,NA,1,67,"likert"
"1F8FAFCF5442455CAF4C9CFF8620AB7E",1,"0198f77d-0caf-714c-bd50-e924762dae4f","0198f768-e4d2-711c-944b-6f03c09216de","2025-08-29_15h20.40.118",NA,NA,285.7875,285.7875,285.7876,286.1378,NA,NA,NA,NA,NA,NA,NA,TRUE,2,1.8695,282.7866,285.7874,0,67,67,70,1,60,47,NA,NA,NA,NA,NA,1,68,"likert"
"1F8FAFCF5442455CAF4C9CFF8620AB7E",1,"0198f77d-0caf-714c-bd50-e924762dae4f","0198f768-e4d2-711c-944b-6f03c09216de","2025-08-29_15h20.40.118",NA,NA,289.1412,289.1412,289.1413,289.4914,NA,NA,NA,NA,NA,NA,NA,TRUE,3,2.1261,286.1401,289.1411,0,68,68,23,1,14,39,NA,NA,NA,NA,NA,1,69,"likert"
"1F8FAFCF5442455CAF4C9CFF8620AB7E",1,"0198f77d-0caf-714c-bd50-e924762dae4f","0198f768-e4d2-711c-944b-6f03c09216de","2025-08-29_15h20.40.118",NA,NA,292.4786,292.4787,292.4787,292.8284,NA,NA,NA,NA,NA,NA,NA,TRUE,2,2.82,289.4934,292.4784,0,69,69,76,1,90,46,NA,NA,NA,NA,NA,1,70,"likert"
"1F8FAFCF5442455CAF4C9CFF8620AB7E",1,"0198f77d-0caf-714c-bd50-e924762dae4f","0198f768-e4d2-711c-944b-6f03c09216de","2025-08-29_15h20.40.118",NA,NA,295.8318,295.8318,295.8318,296.1821,NA,NA,NA,NA,NA,NA,NA,TRUE,1,1.9241,292.8302,295.8317,0,70,70,75,1,90,40,NA,NA,NA,NA,NA,1,71,"likert"
"1F8FAFCF5442455CAF4C9CFF8620AB7E",1,"0198f77d-0caf-714c-bd50-e924762dae4f","0198f768-e4d2-711c-944b-6f03c09216de","2025-08-29_15h20.40.118",NA,NA,299.1858,299.1858,299.1858,299.5359,NA,NA,NA,NA,NA,NA,NA,TRUE,3,2.3446,296.1842,299.1855,0,71,71,53,1,40,54,NA,NA,NA,NA,NA,1,72,"likert"
"1F8FAFCF5442455CAF4C9CFF8620AB7E",1,"0198f77d-0caf-714c-bd50-e924762dae4f","0198f768-e4d2-711c-944b-6f03c09216de","2025-08-29_15h20.40.118",NA,NA,302.5395,302.5397,302.5397,302.8896,NA,NA,NA,NA,NA,NA,NA,TRUE,4,1.7561,299.5384,302.5393,0,72,72,40,1,28,39,NA,NA,NA,NA,NA,1,73,"likert"
"1F8FAFCF5442455CAF4C9CFF8620AB7E",1,"0198f77d-0caf-714c-bd50-e924762dae4f","0198f768-e4d2-711c-944b-6f03c09216de","2025-08-29_15h20.40.118",NA,NA,305.8763,306.1264,306.1264,306.2266,NA,NA,NA,NA,NA,NA,NA,FALSE,NA,NA,302.8921,305.8762,0,73,73,58,1,45,40,NA,NA,NA,NA,NA,1,74,"likert"
"1F8FAFCF5442455CAF4C9CFF8620AB7E",1,"0198f77d-0caf-714c-bd50-e924762dae4f","0198f768-e4d2-711c-944b-6f03c09216de","2025-08-29_15h20.40.118",NA,NA,309.2303,309.2304,309.2304,309.5802,NA,NA,NA,NA,NA,NA,NA,TRUE,3,0.0055,306.2289,309.23,0,74,74,67,1,60,33,NA,NA,NA,NA,NA,1,75,"likert"
"1F8FAFCF5442455CAF4C9CFF8620AB7E",1,"0198f77d-0caf-714c-bd50-e924762dae4f","0198f768-e4d2-711c-944b-6f03c09216de","2025-08-29_15h20.40.118",NA,NA,312.5835,312.5835,312.5836,312.9338,NA,NA,NA,NA,NA,NA,NA,TRUE,1,0.9189,309.5828,312.5835,0,75,75,97,1,180,31,NA,NA,NA,NA,NA,1,76,"likert"
"1F8FAFCF5442455CAF4C9CFF8620AB7E",1,"0198f77d-0caf-714c-bd50-e924762dae4f","0198f768-e4d2-711c-944b-6f03c09216de","2025-08-29_15h20.40.118",NA,NA,315.9372,315.9372,315.9372,316.2875,NA,NA,NA,NA,NA,NA,NA,TRUE,1,1.4942,312.9357,315.9371,0,76,76,94,1,150,47,NA,NA,NA,NA,NA,1,77,"likert"
"1F8FAFCF5442455CAF4C9CFF8620AB7E",1,"0198f77d-0caf-714c-bd50-e924762dae4f","0198f768-e4d2-711c-944b-6f03c09216de","2025-08-29_15h20.40.118",NA,NA,319.2908,319.2909,319.2909,319.6413,NA,NA,NA,NA,NA,NA,NA,TRUE,1,1.3558,316.2895,319.2908,0,77,77,19,1,14,26,NA,NA,NA,NA,NA,1,78,"likert"
"1F8FAFCF5442455CAF4C9CFF8620AB7E",1,"0198f77d-0caf-714c-bd50-e924762dae4f","0198f768-e4d2-711c-944b-6f03c09216de","2025-08-29_15h20.40.118",NA,NA,322.6282,322.6282,322.6282,322.9782,NA,NA,NA,NA,NA,NA,NA,TRUE,2,1.4372,319.6432,322.628,0,78,78,32,1,25,31,NA,NA,NA,NA,NA,1,79,"likert"
"1F8FAFCF5442455CAF4C9CFF8620AB7E",1,"0198f77d-0caf-714c-bd50-e924762dae4f","0198f768-e4d2-711c-944b-6f03c09216de","2025-08-29_15h20.40.118",NA,NA,325.9816,325.9816,325.9816,326.332,NA,NA,NA,NA,NA,NA,NA,TRUE,1,1.0735,322.9804,325.9815,0,79,79,91,1,150,33,NA,NA,NA,NA,NA,1,80,"likert"
"1F8FAFCF5442455CAF4C9CFF8620AB7E",1,"0198f77d-0caf-714c-bd50-e924762dae4f","0198f768-e4d2-711c-944b-6f03c09216de","2025-08-29_15h20.40.118",NA,NA,329.3355,329.3357,329.3357,329.6856,NA,NA,NA,NA,NA,NA,NA,TRUE,1,0.7576,326.3342,329.3353,0,80,80,36,1,28,26,NA,NA,NA,NA,NA,1,81,"likert"
"1F8FAFCF5442455CAF4C9CFF8620AB7E",1,"0198f77d-0caf-714c-bd50-e924762dae4f","0198f768-e4d2-711c-944b-6f03c09216de","2025-08-29_15h20.40.118",NA,NA,332.6893,332.6893,332.6894,333.0394,NA,NA,NA,NA,NA,NA,NA,TRUE,1,0.9414,329.6877,332.689,0,81,81,25,1,21,27,NA,NA,NA,NA,NA,1,82,"likert"
"1F8FAFCF5442455CAF4C9CFF8620AB7E",1,"0198f77d-0caf-714c-bd50-e924762dae4f","0198f768-e4d2-711c-944b-6f03c09216de","2025-08-29_15h20.40.118",NA,NA,336.0268,336.027,336.027,336.3763,NA,NA,NA,NA,NA,NA,NA,TRUE,2,1.3522,333.0416,336.0261,0,82,82,92,1,150,35,NA,NA,NA,NA,NA,1,83,"likert"
"1F8FAFCF5442455CAF4C9CFF8620AB7E",1,"0198f77d-0caf-714c-bd50-e924762dae4f","0198f768-e4d2-711c-944b-6f03c09216de","2025-08-29_15h20.40.118",NA,NA,339.3799,339.3799,339.3799,339.7299,NA,NA,NA,NA,NA,NA,NA,TRUE,1,1.6231,336.3784,339.3797,0,83,83,107,1,200,54,NA,NA,NA,NA,NA,1,84,"likert"
"1F8FAFCF5442455CAF4C9CFF8620AB7E",1,"0198f77d-0caf-714c-bd50-e924762dae4f","0198f768-e4d2-711c-944b-6f03c09216de","2025-08-29_15h20.40.118",NA,NA,342.7333,342.7334,342.7334,343.0837,NA,NA,NA,NA,NA,NA,NA,TRUE,1,1.0187,339.7325,342.7333,0,84,84,44,1,30,29,NA,NA,NA,NA,NA,1,85,"likert"
"1F8FAFCF5442455CAF4C9CFF8620AB7E",1,"0198f77d-0caf-714c-bd50-e924762dae4f","0198f768-e4d2-711c-944b-6f03c09216de","2025-08-29_15h20.40.118",NA,NA,346.0872,346.0873,346.0874,346.4374,NA,NA,NA,NA,NA,NA,NA,TRUE,2,1.5197,343.0858,346.087,0,85,85,86,1,100,38,NA,NA,NA,NA,NA,1,86,"likert"
"1F8FAFCF5442455CAF4C9CFF8620AB7E",1,"0198f77d-0caf-714c-bd50-e924762dae4f","0198f768-e4d2-711c-944b-6f03c09216de","2025-08-29_15h20.40.118",NA,NA,349.4411,349.4412,349.4414,349.791,NA,NA,NA,NA,NA,NA,NA,TRUE,1,1.0773,346.4399,349.4408,0,86,86,12,1,12,25,NA,NA,NA,NA,NA,1,87,"likert"
"1F8FAFCF5442455CAF4C9CFF8620AB7E",1,"0198f77d-0caf-714c-bd50-e924762dae4f","0198f768-e4d2-711c-944b-6f03c09216de","2025-08-29_15h20.40.118",NA,NA,352.7778,352.7778,352.7778,353.128,NA,NA,NA,NA,NA,NA,NA,TRUE,2,1.1688,349.7929,352.7777,0,87,87,22,1,14,35,NA,NA,NA,NA,NA,1,88,"likert"
"1F8FAFCF5442455CAF4C9CFF8620AB7E",1,"0198f77d-0caf-714c-bd50-e924762dae4f","0198f768-e4d2-711c-944b-6f03c09216de","2025-08-29_15h20.40.118",NA,NA,356.1314,356.1314,356.1314,356.4818,NA,NA,NA,NA,NA,NA,NA,TRUE,1,0.8066,353.1296,356.1313,0,88,88,66,1,60,29,NA,NA,NA,NA,NA,1,89,"likert"
"1F8FAFCF5442455CAF4C9CFF8620AB7E",1,"0198f77d-0caf-714c-bd50-e924762dae4f","0198f768-e4d2-711c-944b-6f03c09216de","2025-08-29_15h20.40.118",NA,NA,359.4851,359.4852,359.4852,359.8354,NA,NA,NA,NA,NA,NA,NA,TRUE,1,1.5087,356.4841,359.485,0,89,89,34,1,25,35,NA,NA,NA,NA,NA,1,90,"likert"
"1F8FAFCF5442455CAF4C9CFF8620AB7E",1,"0198f77d-0caf-714c-bd50-e924762dae4f","0198f768-e4d2-711c-944b-6f03c09216de","2025-08-29_15h20.40.118",NA,NA,362.8388,362.8388,362.8388,363.189,NA,NA,NA,NA,NA,NA,NA,TRUE,1,1.1855,359.8373,362.8386,0,90,90,38,1,28,32,NA,NA,NA,NA,NA,1,91,"likert"
"1F8FAFCF5442455CAF4C9CFF8620AB7E",1,"0198f77d-0caf-714c-bd50-e924762dae4f","0198f768-e4d2-711c-944b-6f03c09216de","2025-08-29_15h20.40.118",NA,NA,366.1759,366.1759,366.1759,366.526,NA,NA,NA,NA,NA,NA,NA,TRUE,1,1.6617,363.1916,366.1757,0,91,91,100,1,180,46,NA,NA,NA,NA,NA,1,92,"likert"
"1F8FAFCF5442455CAF4C9CFF8620AB7E",1,"0198f77d-0caf-714c-bd50-e924762dae4f","0198f768-e4d2-711c-944b-6f03c09216de","2025-08-29_15h20.40.118",NA,NA,369.5294,369.5295,369.5295,369.8799,NA,NA,NA,NA,NA,NA,NA,TRUE,1,0.7886,366.5277,369.5294,0,92,92,72,1,90,26,NA,NA,NA,NA,NA,1,93,"likert"
"1F8FAFCF5442455CAF4C9CFF8620AB7E",1,"0198f77d-0caf-714c-bd50-e924762dae4f","0198f768-e4d2-711c-944b-6f03c09216de","2025-08-29_15h20.40.118",NA,NA,372.8831,372.8831,372.8832,373.2335,NA,NA,NA,NA,NA,NA,NA,TRUE,3,1.6909,369.8821,372.883,0,93,93,71,1,60,54,NA,NA,NA,NA,NA,1,94,"likert"
"1F8FAFCF5442455CAF4C9CFF8620AB7E",1,"0198f77d-0caf-714c-bd50-e924762dae4f","0198f768-e4d2-711c-944b-6f03c09216de","2025-08-29_15h20.40.118",NA,NA,376.2369,376.2369,376.2369,376.5872,NA,NA,NA,NA,NA,NA,NA,TRUE,1,1.2191,373.2354,376.2368,0,94,94,93,1,150,40,NA,NA,NA,NA,NA,1,95,"likert"
"1F8FAFCF5442455CAF4C9CFF8620AB7E",1,"0198f77d-0caf-714c-bd50-e924762dae4f","0198f768-e4d2-711c-944b-6f03c09216de","2025-08-29_15h20.40.118",NA,NA,379.5907,379.5908,379.5909,379.9408,NA,NA,NA,NA,NA,NA,NA,TRUE,2,1.7886,376.5892,379.5905,0,95,95,63,1,50,40,NA,NA,NA,NA,NA,1,96,"likert"
"1F8FAFCF5442455CAF4C9CFF8620AB7E",1,"0198f77d-0caf-714c-bd50-e924762dae4f","0198f768-e4d2-711c-944b-6f03c09216de","2025-08-29_15h20.40.118",NA,NA,382.9275,382.9275,382.9275,383.2779,NA,NA,NA,NA,NA,NA,NA,TRUE,1,1.8087,379.9426,382.9275,0,96,96,8,1,10,27,NA,NA,NA,NA,NA,1,97,"likert"
"1F8FAFCF5442455CAF4C9CFF8620AB7E",1,"0198f77d-0caf-714c-bd50-e924762dae4f","0198f768-e4d2-711c-944b-6f03c09216de","2025-08-29_15h20.40.118",NA,NA,386.2812,386.2812,386.2812,386.6317,NA,NA,NA,NA,NA,NA,NA,TRUE,4,1.6969,383.2798,386.2812,0,97,97,4,1,7,32,NA,NA,NA,NA,NA,1,98,"likert"
"1F8FAFCF5442455CAF4C9CFF8620AB7E",1,"0198f77d-0caf-714c-bd50-e924762dae4f","0198f768-e4d2-711c-944b-6f03c09216de","2025-08-29_15h20.40.118",NA,NA,389.6351,389.6352,389.6352,389.9853,NA,NA,NA,NA,NA,NA,NA,TRUE,1,1.136,386.6338,389.6349,0,98,98,30,1,25,27,NA,NA,NA,NA,NA,1,99,"likert"
"1F8FAFCF5442455CAF4C9CFF8620AB7E",1,"0198f77d-0caf-714c-bd50-e924762dae4f","0198f768-e4d2-711c-944b-6f03c09216de","2025-08-29_15h20.40.118",NA,NA,392.9886,392.9889,392.9889,393.3388,NA,NA,NA,NA,NA,NA,NA,TRUE,2,1.4627,389.9878,392.9885,0,99,99,69,1,60,40,NA,NA,NA,NA,NA,1,100,"likert"
"1F8FAFCF5442455CAF4C9CFF8620AB7E",1,"0198f77d-0caf-714c-bd50-e924762dae4f","0198f768-e4d2-711c-944b-6f03c09216de","2025-08-29_15h20.40.118",NA,NA,396.3259,396.3259,396.3259,396.6758,NA,NA,NA,NA,NA,NA,NA,TRUE,2,2.2531,393.341,396.3256,0,100,100,82,1,95,47,NA,NA,NA,NA,NA,1,101,"likert"
"1F8FAFCF5442455CAF4C9CFF8620AB7E",1,"0198f77d-0caf-714c-bd50-e924762dae4f","0198f768-e4d2-711c-944b-6f03c09216de","2025-08-29_15h20.40.118",NA,NA,399.6795,399.6796,399.6797,400.0296,NA,NA,NA,NA,NA,NA,NA,TRUE,1,1.6121,396.6778,399.6793,0,101,101,90,1,150,31,NA,NA,NA,NA,NA,1,102,"likert"
"1F8FAFCF5442455CAF4C9CFF8620AB7E",1,"0198f77d-0caf-714c-bd50-e924762dae4f","0198f768-e4d2-711c-944b-6f03c09216de","2025-08-29_15h20.40.118",NA,NA,403.0331,403.0332,403.0332,403.3833,NA,NA,NA,NA,NA,NA,NA,TRUE,1,1.1405,400.0323,403.033,0,102,102,106,1,200,47,NA,NA,NA,NA,NA,1,103,"likert"
"1F8FAFCF5442455CAF4C9CFF8620AB7E",1,"0198f77d-0caf-714c-bd50-e924762dae4f","0198f768-e4d2-711c-944b-6f03c09216de","2025-08-29_15h20.40.118",NA,NA,406.3869,406.3869,406.3869,406.737,NA,NA,NA,NA,NA,NA,NA,TRUE,3,1.6861,403.3854,406.3866,0,103,103,89,1,100,54,NA,NA,NA,NA,NA,1,104,"likert"
"1F8FAFCF5442455CAF4C9CFF8620AB7E",1,"0198f77d-0caf-714c-bd50-e924762dae4f","0198f768-e4d2-711c-944b-6f03c09216de","2025-08-29_15h20.40.118",NA,NA,409.7407,409.7408,409.7408,410.0906,NA,NA,NA,NA,NA,NA,NA,TRUE,1,1.0018,406.739,409.7403,0,104,104,80,1,95,35,NA,NA,NA,NA,NA,1,105,"likert"
"1F8FAFCF5442455CAF4C9CFF8620AB7E",1,"0198f77d-0caf-714c-bd50-e924762dae4f","0198f768-e4d2-711c-944b-6f03c09216de","2025-08-29_15h20.40.118",NA,NA,413.0772,413.0773,413.0773,413.4277,NA,NA,NA,NA,NA,NA,NA,TRUE,3,2.4058,410.0932,413.0772,0,105,105,11,1,10,32,NA,NA,NA,NA,NA,1,106,"likert"
"1F8FAFCF5442455CAF4C9CFF8620AB7E",1,"0198f77d-0caf-714c-bd50-e924762dae4f","0198f768-e4d2-711c-944b-6f03c09216de","2025-08-29_15h20.40.118",NA,NA,416.4311,416.4311,416.4312,416.7813,NA,NA,NA,NA,NA,NA,NA,TRUE,1,1.378,413.43,416.431,0,106,106,77,1,90,54,NA,NA,NA,NA,NA,1,107,"likert"
"1F8FAFCF5442455CAF4C9CFF8620AB7E",1,"0198f77d-0caf-714c-bd50-e924762dae4f","0198f768-e4d2-711c-944b-6f03c09216de","2025-08-29_15h20.40.118",NA,NA,419.7851,419.7851,419.7852,420.1351,NA,NA,NA,NA,NA,NA,NA,TRUE,1,1.8738,416.7832,419.7848,0,107,107,60,1,50,27,NA,NA,NA,NA,NA,1,108,"likert"
"1F8FAFCF5442455CAF4C9CFF8620AB7E",1,"0198f77d-0caf-714c-bd50-e924762dae4f","0198f768-e4d2-711c-944b-6f03c09216de","2025-08-29_15h20.40.118",NA,NA,426.6256,426.6257,426.6257,426.9759,NA,NA,NA,NA,NA,NA,NA,TRUE,1,1.035,423.6345,426.6254,NA,NA,NA,NA,NA,14,26,0,0,0,19,1,2,1,"likert"
"1F8FAFCF5442455CAF4C9CFF8620AB7E",1,"0198f77d-0caf-714c-bd50-e924762dae4f","0198f768-e4d2-711c-944b-6f03c09216de","2025-08-29_15h20.40.118",NA,NA,429.9632,429.9633,429.9634,430.3128,NA,NA,NA,NA,NA,NA,NA,TRUE,1,1.1187,426.9783,429.9629,NA,NA,NA,NA,NA,25,35,0,1,1,34,1,2,2,"likert"
"1F8FAFCF5442455CAF4C9CFF8620AB7E",1,"0198f77d-0caf-714c-bd50-e924762dae4f","0198f768-e4d2-711c-944b-6f03c09216de","2025-08-29_15h20.40.118",NA,NA,433.3162,433.3162,433.3162,433.6666,NA,NA,NA,NA,NA,NA,NA,TRUE,1,1.0065,430.3146,433.3161,NA,NA,NA,NA,NA,45,31,0,2,2,56,1,2,3,"likert"
"1F8FAFCF5442455CAF4C9CFF8620AB7E",1,"0198f77d-0caf-714c-bd50-e924762dae4f","0198f768-e4d2-711c-944b-6f03c09216de","2025-08-29_15h20.40.118",NA,NA,436.6704,436.6705,436.6705,437.0202,NA,NA,NA,NA,NA,NA,NA,TRUE,1,0.8038,433.6686,436.67,NA,NA,NA,NA,NA,180,39,0,3,3,99,1,2,4,"likert"
"1F8FAFCF5442455CAF4C9CFF8620AB7E",1,"0198f77d-0caf-714c-bd50-e924762dae4f","0198f768-e4d2-711c-944b-6f03c09216de","2025-08-29_15h20.40.118",NA,NA,440.0238,440.0239,440.0239,440.374,NA,NA,NA,NA,NA,NA,NA,TRUE,1,0.7378,437.0227,440.0236,NA,NA,NA,NA,NA,50,27,0,4,4,60,1,2,5,"likert"
"1F8FAFCF5442455CAF4C9CFF8620AB7E",1,"0198f77d-0caf-714c-bd50-e924762dae4f","0198f768-e4d2-711c-944b-6f03c09216de","2025-08-29_15h20.40.118",NA,NA,443.3606,443.3606,443.3606,443.711,NA,NA,NA,NA,NA,NA,NA,TRUE,1,0.7426,440.3763,443.3605,NA,NA,NA,NA,NA,150,33,0,5,5,91,1,2,6,"likert"
"1F8FAFCF5442455CAF4C9CFF8620AB7E",1,"0198f77d-0caf-714c-bd50-e924762dae4f","0198f768-e4d2-711c-944b-6f03c09216de","2025-08-29_15h20.40.118",NA,NA,446.7144,446.7145,446.7145,447.0647,NA,NA,NA,NA,NA,NA,NA,TRUE,1,1.8622,443.7131,446.7142,NA,NA,NA,NA,NA,30,30,0,6,6,45,1,2,7,"likert"
"1F8FAFCF5442455CAF4C9CFF8620AB7E",1,"0198f77d-0caf-714c-bd50-e924762dae4f","0198f768-e4d2-711c-944b-6f03c09216de","2025-08-29_15h20.40.118",NA,NA,450.0679,450.068,450.0681,450.4183,NA,NA,NA,NA,NA,NA,NA,TRUE,1,0.6679,447.0667,450.0679,NA,NA,NA,NA,NA,180,27,0,7,7,96,1,2,8,"likert"
"1F8FAFCF5442455CAF4C9CFF8620AB7E",1,"0198f77d-0caf-714c-bd50-e924762dae4f","0198f768-e4d2-711c-944b-6f03c09216de","2025-08-29_15h20.40.118",NA,NA,453.4216,453.4216,453.4216,453.772,NA,NA,NA,NA,NA,NA,NA,TRUE,2,1.4365,450.4202,453.4215,NA,NA,NA,NA,NA,50,40,0,8,8,63,1,2,9,"likert"
"1F8FAFCF5442455CAF4C9CFF8620AB7E",1,"0198f77d-0caf-714c-bd50-e924762dae4f","0198f768-e4d2-711c-944b-6f03c09216de","2025-08-29_15h20.40.118",NA,NA,456.7753,456.7753,456.7753,457.1257,NA,NA,NA,NA,NA,NA,NA,TRUE,2,1.5522,453.7738,456.7752,NA,NA,NA,NA,NA,21,38,0,9,9,29,1,2,10,"likert"
"1F8FAFCF5442455CAF4C9CFF8620AB7E",1,"0198f77d-0caf-714c-bd50-e924762dae4f","0198f768-e4d2-711c-944b-6f03c09216de","2025-08-29_15h20.40.118",NA,NA,460.1126,460.1126,460.1126,460.4626,NA,NA,NA,NA,NA,NA,NA,TRUE,1,1.9694,457.1281,460.1124,NA,NA,NA,NA,NA,150,47,0,10,10,94,1,2,11,"likert"
"1F8FAFCF5442455CAF4C9CFF8620AB7E",1,"0198f77d-0caf-714c-bd50-e924762dae4f","0198f768-e4d2-711c-944b-6f03c09216de","2025-08-29_15h20.40.118",NA,NA,463.466,463.466,463.466,463.8163,NA,NA,NA,NA,NA,NA,NA,TRUE,2,2.1965,460.4644,463.4659,NA,NA,NA,NA,NA,50,46,0,11,11,64,1,2,12,"likert"
"1F8FAFCF5442455CAF4C9CFF8620AB7E",1,"0198f77d-0caf-714c-bd50-e924762dae4f","0198f768-e4d2-711c-944b-6f03c09216de","2025-08-29_15h20.40.118",NA,NA,466.8197,466.8197,466.8198,467.17,NA,NA,NA,NA,NA,NA,NA,TRUE,3,2.0034,463.8182,466.8197,NA,NA,NA,NA,NA,90,54,0,12,12,77,1,2,13,"likert"
"1F8FAFCF5442455CAF4C9CFF8620AB7E",1,"0198f77d-0caf-714c-bd50-e924762dae4f","0198f768-e4d2-711c-944b-6f03c09216de","2025-08-29_15h20.40.118",NA,NA,470.1734,470.1734,470.1735,470.5237,NA,NA,NA,NA,NA,NA,NA,TRUE,1,1.5429,467.1719,470.1733,NA,NA,NA,NA,NA,14,28,0,13,13,20,1,2,14,"likert"
"1F8FAFCF5442455CAF4C9CFF8620AB7E",1,"0198f77d-0caf-714c-bd50-e924762dae4f","0198f768-e4d2-711c-944b-6f03c09216de","2025-08-29_15h20.40.118",NA,NA,473.5104,473.5104,473.5104,473.8609,NA,NA,NA,NA,NA,NA,NA,TRUE,1,1.0287,470.5261,473.5103,NA,NA,NA,NA,NA,100,38,0,14,14,86,1,2,15,"likert"
"1F8FAFCF5442455CAF4C9CFF8620AB7E",1,"0198f77d-0caf-714c-bd50-e924762dae4f","0198f768-e4d2-711c-944b-6f03c09216de","2025-08-29_15h20.40.118",NA,NA,476.8642,476.8643,476.8643,477.2144,NA,NA,NA,NA,NA,NA,NA,TRUE,2,1.5524,473.8631,476.8641,NA,NA,NA,NA,NA,12,33,0,15,15,16,1,2,16,"likert"
"1F8FAFCF5442455CAF4C9CFF8620AB7E",1,"0198f77d-0caf-714c-bd50-e924762dae4f","0198f768-e4d2-711c-944b-6f03c09216de","2025-08-29_15h20.40.118",NA,NA,480.2177,480.2177,480.2177,480.5682,NA,NA,NA,NA,NA,NA,NA,TRUE,3,1.9739,477.2163,480.2177,NA,NA,NA,NA,NA,7,30,0,16,16,3,1,2,17,"likert"
"1F8FAFCF5442455CAF4C9CFF8620AB7E",1,"0198f77d-0caf-714c-bd50-e924762dae4f","0198f768-e4d2-711c-944b-6f03c09216de","2025-08-29_15h20.40.118",NA,NA,483.5714,483.5714,483.5714,483.9218,NA,NA,NA,NA,NA,NA,NA,TRUE,1,0.9579,480.5704,483.5714,NA,NA,NA,NA,NA,14,25,0,17,17,18,1,2,18,"likert"
"1F8FAFCF5442455CAF4C9CFF8620AB7E",1,"0198f77d-0caf-714c-bd50-e924762dae4f","0198f768-e4d2-711c-944b-6f03c09216de","2025-08-29_15h20.40.118",NA,NA,486.9254,486.9255,486.9255,487.2756,NA,NA,NA,NA,NA,NA,NA,TRUE,1,1.3528,483.924,486.9252,NA,NA,NA,NA,NA,40,33,0,18,18,49,1,2,19,"likert"
"1F8FAFCF5442455CAF4C9CFF8620AB7E",1,"0198f77d-0caf-714c-bd50-e924762dae4f","0198f768-e4d2-711c-944b-6f03c09216de","2025-08-29_15h20.40.118",NA,NA,490.2626,490.2627,490.2627,490.6128,NA,NA,NA,NA,NA,NA,NA,TRUE,1,1.5608,487.278,490.2623,NA,NA,NA,NA,NA,150,31,0,19,19,90,1,2,20,"likert"
"1F8FAFCF5442455CAF4C9CFF8620AB7E",1,"0198f77d-0caf-714c-bd50-e924762dae4f","0198f768-e4d2-711c-944b-6f03c09216de","2025-08-29_15h20.40.118",NA,NA,493.6161,493.6162,493.6163,493.9661,NA,NA,NA,NA,NA,NA,NA,TRUE,1,1.4102,490.6152,493.6159,NA,NA,NA,NA,NA,28,39,0,20,20,40,1,2,21,"likert"
"1F8FAFCF5442455CAF4C9CFF8620AB7E",1,"0198f77d-0caf-714c-bd50-e924762dae4f","0198f768-e4d2-711c-944b-6f03c09216de","2025-08-29_15h20.40.118",NA,NA,496.9697,496.9698,496.9698,497.3199,NA,NA,NA,NA,NA,NA,NA,TRUE,1,1.4208,493.9681,496.9695,NA,NA,NA,NA,NA,60,33,0,21,21,67,1,2,22,"likert"
"1F8FAFCF5442455CAF4C9CFF8620AB7E",1,"0198f77d-0caf-714c-bd50-e924762dae4f","0198f768-e4d2-711c-944b-6f03c09216de","2025-08-29_15h20.40.118",NA,NA,500.3234,500.3235,500.3236,500.6735,NA,NA,NA,NA,NA,NA,NA,TRUE,2,1.792,497.3222,500.3232,NA,NA,NA,NA,NA,95,54,0,22,22,83,1,2,23,"likert"
"1F8FAFCF5442455CAF4C9CFF8620AB7E",1,"0198f77d-0caf-714c-bd50-e924762dae4f","0198f768-e4d2-711c-944b-6f03c09216de","2025-08-29_15h20.40.118",NA,NA,503.6605,503.6606,503.6606,504.0106,NA,NA,NA,NA,NA,NA,NA,TRUE,3,2.1761,500.676,503.6602,NA,NA,NA,NA,NA,14,39,0,23,23,23,1,2,24,"likert"
"1F8FAFCF5442455CAF4C9CFF8620AB7E",1,"0198f77d-0caf-714c-bd50-e924762dae4f","0198f768-e4d2-711c-944b-6f03c09216de","2025-08-29_15h20.40.118",NA,NA,507.014,507.014,507.014,507.3642,NA,NA,NA,NA,NA,NA,NA,TRUE,1,0.8944,504.0135,507.0138,NA,NA,NA,NA,NA,200,28,0,24,24,103,1,2,25,"likert"
"1F8FAFCF5442455CAF4C9CFF8620AB7E",1,"0198f77d-0caf-714c-bd50-e924762dae4f","0198f768-e4d2-711c-944b-6f03c09216de","2025-08-29_15h20.40.118",NA,NA,510.3676,510.3676,510.3676,510.718,NA,NA,NA,NA,NA,NA,NA,TRUE,4,1.2855,507.3661,510.3675,NA,NA,NA,NA,NA,12,35,0,25,25,17,1,2,26,"likert"
"1F8FAFCF5442455CAF4C9CFF8620AB7E",1,"0198f77d-0caf-714c-bd50-e924762dae4f","0198f768-e4d2-711c-944b-6f03c09216de","2025-08-29_15h20.40.118",NA,NA,513.7213,513.7214,513.7214,514.0716,NA,NA,NA,NA,NA,NA,NA,TRUE,1,0.6348,510.7206,513.7212,NA,NA,NA,NA,NA,200,26,0,26,26,102,1,2,27,"likert"
"1F8FAFCF5442455CAF4C9CFF8620AB7E",1,"0198f77d-0caf-714c-bd50-e924762dae4f","0198f768-e4d2-711c-944b-6f03c09216de","2025-08-29_15h20.40.118",NA,NA,517.0753,517.0754,517.0754,517.4252,NA,NA,NA,NA,NA,NA,NA,TRUE,1,1.4522,514.0738,517.0749,NA,NA,NA,NA,NA,21,29,0,27,27,26,1,2,28,"likert"
"1F8FAFCF5442455CAF4C9CFF8620AB7E",1,"0198f77d-0caf-714c-bd50-e924762dae4f","0198f768-e4d2-711c-944b-6f03c09216de","2025-08-29_15h20.40.118",NA,NA,520.4119,520.4119,520.4119,520.7622,NA,NA,NA,NA,NA,NA,NA,TRUE,1,2.3212,517.4279,520.4119,NA,NA,NA,NA,NA,50,30,0,28,28,61,1,2,29,"likert"
"1F8FAFCF5442455CAF4C9CFF8620AB7E",1,"0198f77d-0caf-714c-bd50-e924762dae4f","0198f768-e4d2-711c-944b-6f03c09216de","2025-08-29_15h20.40.118",NA,NA,523.7656,523.7656,523.7656,524.1159,NA,NA,NA,NA,NA,NA,NA,TRUE,1,0.8234,520.7638,523.7656,NA,NA,NA,NA,NA,30,29,0,29,29,44,1,2,30,"likert"
"1F8FAFCF5442455CAF4C9CFF8620AB7E",1,"0198f77d-0caf-714c-bd50-e924762dae4f","0198f768-e4d2-711c-944b-6f03c09216de","2025-08-29_15h20.40.118",NA,NA,527.1193,527.1193,527.1193,527.4697,NA,NA,NA,NA,NA,NA,NA,TRUE,4,2.57,524.1178,527.1192,NA,NA,NA,NA,NA,25,46,0,30,30,35,1,2,31,"likert"
"1F8FAFCF5442455CAF4C9CFF8620AB7E",1,"0198f77d-0caf-714c-bd50-e924762dae4f","0198f768-e4d2-711c-944b-6f03c09216de","2025-08-29_15h20.40.118",NA,NA,530.4732,530.4733,530.4733,530.8233,NA,NA,NA,NA,NA,NA,NA,TRUE,1,1.4907,527.4724,530.473,NA,NA,NA,NA,NA,10,26,0,31,31,7,1,2,32,"likert"
"1F8FAFCF5442455CAF4C9CFF8620AB7E",1,"0198f77d-0caf-714c-bd50-e924762dae4f","0198f768-e4d2-711c-944b-6f03c09216de","2025-08-29_15h20.40.118",NA,NA,533.8267,533.8267,533.8268,534.1602,NA,NA,NA,NA,NA,NA,NA,TRUE,1,1.786,530.8255,533.8266,NA,NA,NA,NA,NA,10,27,0,32,32,8,1,2,33,"likert"
"1F8FAFCF5442455CAF4C9CFF8620AB7E",1,"0198f77d-0caf-714c-bd50-e924762dae4f","0198f768-e4d2-711c-944b-6f03c09216de","2025-08-29_15h20.40.118",NA,NA,537.1637,537.1637,537.1637,537.514,NA,NA,NA,NA,NA,NA,NA,TRUE,3,1.5858,534.1621,537.1636,NA,NA,NA,NA,NA,40,47,0,33,33,52,1,2,34,"likert"
"1F8FAFCF5442455CAF4C9CFF8620AB7E",1,"0198f77d-0caf-714c-bd50-e924762dae4f","0198f768-e4d2-711c-944b-6f03c09216de","2025-08-29_15h20.40.118",NA,NA,540.5174,540.5174,540.5174,540.8676,NA,NA,NA,NA,NA,NA,NA,TRUE,2,2.1607,537.5159,540.5173,NA,NA,NA,NA,NA,45,35,0,34,34,57,1,2,35,"likert"
"1F8FAFCF5442455CAF4C9CFF8620AB7E",1,"0198f77d-0caf-714c-bd50-e924762dae4f","0198f768-e4d2-711c-944b-6f03c09216de","2025-08-29_15h20.40.118",NA,NA,543.8714,543.8715,543.8715,544.2215,NA,NA,NA,NA,NA,NA,NA,TRUE,1,0.905,540.8696,543.8711,NA,NA,NA,NA,NA,180,54,0,35,35,101,1,2,36,"likert"
"1F8FAFCF5442455CAF4C9CFF8620AB7E",1,"0198f77d-0caf-714c-bd50-e924762dae4f","0198f768-e4d2-711c-944b-6f03c09216de","2025-08-29_15h20.40.118",NA,NA,547.2247,547.2247,547.2247,547.575,NA,NA,NA,NA,NA,NA,NA,TRUE,1,0.9737,544.2236,547.2247,NA,NA,NA,NA,NA,150,35,0,36,36,92,1,2,37,"likert"
"1F8FAFCF5442455CAF4C9CFF8620AB7E",1,"0198f77d-0caf-714c-bd50-e924762dae4f","0198f768-e4d2-711c-944b-6f03c09216de","2025-08-29_15h20.40.118",NA,NA,550.5621,550.5622,550.5622,550.9121,NA,NA,NA,NA,NA,NA,NA,TRUE,1,1.4915,547.5772,550.5619,NA,NA,NA,NA,NA,7,25,0,37,37,0,1,2,38,"likert"
"1F8FAFCF5442455CAF4C9CFF8620AB7E",1,"0198f77d-0caf-714c-bd50-e924762dae4f","0198f768-e4d2-711c-944b-6f03c09216de","2025-08-29_15h20.40.118",NA,NA,553.9157,553.9157,553.9158,554.2658,NA,NA,NA,NA,NA,NA,NA,TRUE,1,1.2081,550.9141,553.9154,NA,NA,NA,NA,NA,200,39,0,38,38,105,1,2,39,"likert"
"1F8FAFCF5442455CAF4C9CFF8620AB7E",1,"0198f77d-0caf-714c-bd50-e924762dae4f","0198f768-e4d2-711c-944b-6f03c09216de","2025-08-29_15h20.40.118",NA,NA,557.2691,557.2692,557.2692,557.6195,NA,NA,NA,NA,NA,NA,NA,TRUE,1,0.7723,554.2679,557.269,NA,NA,NA,NA,NA,60,29,0,39,39,66,1,2,40,"likert"
"1F8FAFCF5442455CAF4C9CFF8620AB7E",1,"0198f77d-0caf-714c-bd50-e924762dae4f","0198f768-e4d2-711c-944b-6f03c09216de","2025-08-29_15h20.40.118",NA,NA,560.6227,560.6228,560.6228,560.9731,NA,NA,NA,NA,NA,NA,NA,TRUE,2,1.235,557.6219,560.6227,NA,NA,NA,NA,NA,60,40,0,40,40,69,1,2,41,"likert"
"1F8FAFCF5442455CAF4C9CFF8620AB7E",1,"0198f77d-0caf-714c-bd50-e924762dae4f","0198f768-e4d2-711c-944b-6f03c09216de","2025-08-29_15h20.40.118",NA,NA,563.9765,563.9765,563.9766,564.3101,NA,NA,NA,NA,NA,NA,NA,TRUE,1,1.4026,560.975,563.9764,NA,NA,NA,NA,NA,21,26,0,41,41,24,1,2,42,"likert"
"1F8FAFCF5442455CAF4C9CFF8620AB7E",1,"0198f77d-0caf-714c-bd50-e924762dae4f","0198f768-e4d2-711c-944b-6f03c09216de","2025-08-29_15h20.40.118",NA,NA,567.3135,567.3135,567.3135,567.6638,NA,NA,NA,NA,NA,NA,NA,TRUE,1,1.0184,564.3122,567.3134,NA,NA,NA,NA,NA,200,35,0,42,42,104,1,2,43,"likert"
"1F8FAFCF5442455CAF4C9CFF8620AB7E",1,"0198f77d-0caf-714c-bd50-e924762dae4f","0198f768-e4d2-711c-944b-6f03c09216de","2025-08-29_15h20.40.118",NA,NA,570.6674,570.6674,570.6674,571.0175,NA,NA,NA,NA,NA,NA,NA,TRUE,1,0.9353,567.6656,570.6672,NA,NA,NA,NA,NA,95,31,0,43,43,78,1,2,44,"likert"
"1F8FAFCF5442455CAF4C9CFF8620AB7E",1,"0198f77d-0caf-714c-bd50-e924762dae4f","0198f768-e4d2-711c-944b-6f03c09216de","2025-08-29_15h20.40.118",NA,NA,574.021,574.021,574.021,574.3711,NA,NA,NA,NA,NA,NA,NA,TRUE,1,1.1706,571.0196,574.0208,NA,NA,NA,NA,NA,90,33,0,44,44,74,1,2,45,"likert"
"1F8FAFCF5442455CAF4C9CFF8620AB7E",1,"0198f77d-0caf-714c-bd50-e924762dae4f","0198f768-e4d2-711c-944b-6f03c09216de","2025-08-29_15h20.40.118",NA,NA,577.3745,577.3745,577.3745,577.7249,NA,NA,NA,NA,NA,NA,NA,TRUE,1,1.0062,574.3732,577.3744,NA,NA,NA,NA,NA,90,30,0,45,45,73,1,2,46,"likert"
"1F8FAFCF5442455CAF4C9CFF8620AB7E",1,"0198f77d-0caf-714c-bd50-e924762dae4f","0198f768-e4d2-711c-944b-6f03c09216de","2025-08-29_15h20.40.118",NA,NA,580.7116,580.7116,580.7116,581.0619,NA,NA,NA,NA,NA,NA,NA,TRUE,1,0.8182,577.7273,580.7115,NA,NA,NA,NA,NA,7,28,0,46,46,2,1,2,47,"likert"
"1F8FAFCF5442455CAF4C9CFF8620AB7E",1,"0198f77d-0caf-714c-bd50-e924762dae4f","0198f768-e4d2-711c-944b-6f03c09216de","2025-08-29_15h20.40.118",NA,NA,584.0652,584.0653,584.0653,584.4156,NA,NA,NA,NA,NA,NA,NA,TRUE,2,2.162,581.0638,584.0651,NA,NA,NA,NA,NA,100,46,0,47,47,88,1,2,48,"likert"
"1F8FAFCF5442455CAF4C9CFF8620AB7E",1,"0198f77d-0caf-714c-bd50-e924762dae4f","0198f768-e4d2-711c-944b-6f03c09216de","2025-08-29_15h20.40.118",NA,NA,587.4189,587.4189,587.4189,587.7693,NA,NA,NA,NA,NA,NA,NA,TRUE,1,1.1204,584.4177,587.4188,NA,NA,NA,NA,NA,28,26,0,48,48,36,1,2,49,"likert"
"1F8FAFCF5442455CAF4C9CFF8620AB7E",1,"0198f77d-0caf-714c-bd50-e924762dae4f","0198f768-e4d2-711c-944b-6f03c09216de","2025-08-29_15h20.40.118",NA,NA,590.7725,590.7726,590.7726,591.1229,NA,NA,NA,NA,NA,NA,NA,TRUE,1,1.6767,587.7712,590.7725,NA,NA,NA,NA,NA,100,39,0,49,49,87,1,2,50,"likert"
"1F8FAFCF5442455CAF4C9CFF8620AB7E",1,"0198f77d-0caf-714c-bd50-e924762dae4f","0198f768-e4d2-711c-944b-6f03c09216de","2025-08-29_15h20.40.118",NA,NA,594.1267,594.1268,594.1268,594.4767,NA,NA,NA,NA,NA,NA,NA,TRUE,1,1.3893,591.1247,594.1264,NA,NA,NA,NA,NA,150,40,0,50,50,93,1,2,51,"likert"
"1F8FAFCF5442455CAF4C9CFF8620AB7E",1,"0198f77d-0caf-714c-bd50-e924762dae4f","0198f768-e4d2-711c-944b-6f03c09216de","2025-08-29_15h20.40.118",NA,NA,597.4633,597.4633,597.4633,597.8136,NA,NA,NA,NA,NA,NA,NA,TRUE,1,0.9017,594.4791,597.4632,NA,NA,NA,NA,NA,7,26,0,51,51,1,1,2,52,"likert"
"1F8FAFCF5442455CAF4C9CFF8620AB7E",1,"0198f77d-0caf-714c-bd50-e924762dae4f","0198f768-e4d2-711c-944b-6f03c09216de","2025-08-29_15h20.40.118",NA,NA,600.8172,600.8173,600.8173,601.1673,NA,NA,NA,NA,NA,NA,NA,TRUE,1,0.5348,597.8157,600.817,NA,NA,NA,NA,NA,30,27,0,52,52,43,1,2,53,"likert"
"1F8FAFCF5442455CAF4C9CFF8620AB7E",1,"0198f77d-0caf-714c-bd50-e924762dae4f","0198f768-e4d2-711c-944b-6f03c09216de","2025-08-29_15h20.40.118",NA,NA,604.1707,604.1707,604.1707,604.521,NA,NA,NA,NA,NA,NA,NA,TRUE,1,0.5904,601.1697,604.1706,NA,NA,NA,NA,NA,180,35,0,53,53,98,1,2,54,"likert"
"1F8FAFCF5442455CAF4C9CFF8620AB7E",1,"0198f77d-0caf-714c-bd50-e924762dae4f","0198f768-e4d2-711c-944b-6f03c09216de","2025-08-29_15h20.40.118",NA,NA,607.5243,607.5244,607.5244,607.8747,NA,NA,NA,NA,NA,NA,NA,TRUE,1,1.2373,604.5231,607.5242,NA,NA,NA,NA,NA,200,54,0,54,54,107,1,2,55,"likert"
"1F8FAFCF5442455CAF4C9CFF8620AB7E",1,"0198f77d-0caf-714c-bd50-e924762dae4f","0198f768-e4d2-711c-944b-6f03c09216de","2025-08-29_15h20.40.118",NA,NA,610.8614,610.8615,610.8615,611.2117,NA,NA,NA,NA,NA,NA,NA,TRUE,1,1.3401,607.8764,610.8613,NA,NA,NA,NA,NA,95,35,0,55,55,80,1,2,56,"likert"
"1F8FAFCF5442455CAF4C9CFF8620AB7E",1,"0198f77d-0caf-714c-bd50-e924762dae4f","0198f768-e4d2-711c-944b-6f03c09216de","2025-08-29_15h20.40.118",NA,NA,614.215,614.215,614.215,614.5654,NA,NA,NA,NA,NA,NA,NA,TRUE,1,0.7183,611.2142,614.215,NA,NA,NA,NA,NA,100,54,0,56,56,89,1,2,57,"likert"
"1F8FAFCF5442455CAF4C9CFF8620AB7E",1,"0198f77d-0caf-714c-bd50-e924762dae4f","0198f768-e4d2-711c-944b-6f03c09216de","2025-08-29_15h20.40.118",NA,NA,617.5687,617.5687,617.5687,617.919,NA,NA,NA,NA,NA,NA,NA,TRUE,1,2.0115,614.5681,617.5686,NA,NA,NA,NA,NA,12,26,0,57,57,13,1,2,58,"likert"
"1F8FAFCF5442455CAF4C9CFF8620AB7E",1,"0198f77d-0caf-714c-bd50-e924762dae4f","0198f768-e4d2-711c-944b-6f03c09216de","2025-08-29_15h20.40.118",NA,NA,620.9224,620.9224,620.9224,621.2726,NA,NA,NA,NA,NA,NA,NA,TRUE,5,1.5559,617.9214,620.9223,NA,NA,NA,NA,NA,7,35,0,58,58,5,1,2,59,"likert"
"1F8FAFCF5442455CAF4C9CFF8620AB7E",1,"0198f77d-0caf-714c-bd50-e924762dae4f","0198f768-e4d2-711c-944b-6f03c09216de","2025-08-29_15h20.40.118",NA,NA,624.2761,624.2763,624.2764,624.6265,NA,NA,NA,NA,NA,NA,NA,TRUE,1,0.6555,621.2743,624.276,NA,NA,NA,NA,NA,180,46,0,59,59,100,1,2,60,"likert"
"1F8FAFCF5442455CAF4C9CFF8620AB7E",1,"0198f77d-0caf-714c-bd50-e924762dae4f","0198f768-e4d2-711c-944b-6f03c09216de","2025-08-29_15h20.40.118",NA,NA,627.6133,627.6133,627.6133,627.9633,NA,NA,NA,NA,NA,NA,NA,TRUE,2,2.0887,624.6286,627.6131,NA,NA,NA,NA,NA,30,38,0,60,60,47,1,2,61,"likert"
"1F8FAFCF5442455CAF4C9CFF8620AB7E",1,"0198f77d-0caf-714c-bd50-e924762dae4f","0198f768-e4d2-711c-944b-6f03c09216de","2025-08-29_15h20.40.118",NA,NA,630.9668,630.9668,630.9668,631.317,NA,NA,NA,NA,NA,NA,NA,TRUE,2,2.0862,627.9652,630.9667,NA,NA,NA,NA,NA,10,30,0,61,61,10,1,2,62,"likert"
"1F8FAFCF5442455CAF4C9CFF8620AB7E",1,"0198f77d-0caf-714c-bd50-e924762dae4f","0198f768-e4d2-711c-944b-6f03c09216de","2025-08-29_15h20.40.118",NA,NA,634.3207,634.3208,634.3208,634.6708,NA,NA,NA,NA,NA,NA,NA,TRUE,1,0.9874,631.3193,634.3205,NA,NA,NA,NA,NA,100,31,0,62,62,85,1,2,63,"likert"
"1F8FAFCF5442455CAF4C9CFF8620AB7E",1,"0198f77d-0caf-714c-bd50-e924762dae4f","0198f768-e4d2-711c-944b-6f03c09216de","2025-08-29_15h20.40.118",NA,NA,637.6742,637.6742,637.6742,638.0245,NA,NA,NA,NA,NA,NA,NA,TRUE,1,1.3247,634.6724,637.6741,NA,NA,NA,NA,NA,95,33,0,63,63,79,1,2,64,"likert"
"1F8FAFCF5442455CAF4C9CFF8620AB7E",1,"0198f77d-0caf-714c-bd50-e924762dae4f","0198f768-e4d2-711c-944b-6f03c09216de","2025-08-29_15h20.40.118",NA,NA,641.0111,641.0111,641.0111,641.3615,NA,NA,NA,NA,NA,NA,NA,TRUE,4,1.8858,638.0272,641.0111,NA,NA,NA,NA,NA,28,46,0,64,64,41,1,2,65,"likert"
"1F8FAFCF5442455CAF4C9CFF8620AB7E",1,"0198f77d-0caf-714c-bd50-e924762dae4f","0198f768-e4d2-711c-944b-6f03c09216de","2025-08-29_15h20.40.118",NA,NA,644.365,644.6151,644.6151,644.7152,NA,NA,NA,NA,NA,NA,NA,FALSE,NA,NA,641.3636,644.3649,NA,NA,NA,NA,NA,45,46,0,65,65,59,1,2,66,"likert"
"1F8FAFCF5442455CAF4C9CFF8620AB7E",1,"0198f77d-0caf-714c-bd50-e924762dae4f","0198f768-e4d2-711c-944b-6f03c09216de","2025-08-29_15h20.40.118",NA,NA,647.719,647.719,647.719,648.0689,NA,NA,NA,NA,NA,NA,NA,TRUE,1,1.5526,644.7174,647.7187,NA,NA,NA,NA,NA,25,33,0,66,66,33,1,2,67,"likert"
"1F8FAFCF5442455CAF4C9CFF8620AB7E",1,"0198f77d-0caf-714c-bd50-e924762dae4f","0198f768-e4d2-711c-944b-6f03c09216de","2025-08-29_15h20.40.118",NA,NA,651.0721,651.0722,651.0722,651.4225,NA,NA,NA,NA,NA,NA,NA,TRUE,2,1.5775,648.0711,651.0721,NA,NA,NA,NA,NA,40,35,0,67,67,50,1,2,68,"likert"
"1F8FAFCF5442455CAF4C9CFF8620AB7E",1,"0198f77d-0caf-714c-bd50-e924762dae4f","0198f768-e4d2-711c-944b-6f03c09216de","2025-08-29_15h20.40.118",NA,NA,654.426,654.4262,654.4263,654.7761,NA,NA,NA,NA,NA,NA,NA,TRUE,1,2.0053,651.4243,654.4259,NA,NA,NA,NA,NA,10,29,0,68,68,9,1,2,69,"likert"
"1F8FAFCF5442455CAF4C9CFF8620AB7E",1,"0198f77d-0caf-714c-bd50-e924762dae4f","0198f768-e4d2-711c-944b-6f03c09216de","2025-08-29_15h20.40.118",NA,NA,657.7629,657.7629,657.7629,658.1132,NA,NA,NA,NA,NA,NA,NA,TRUE,2,1.5578,654.7783,657.7628,NA,NA,NA,NA,NA,28,32,0,69,69,38,1,2,70,"likert"
"1F8FAFCF5442455CAF4C9CFF8620AB7E",1,"0198f77d-0caf-714c-bd50-e924762dae4f","0198f768-e4d2-711c-944b-6f03c09216de","2025-08-29_15h20.40.118",NA,NA,661.1165,661.1165,661.1165,661.4669,NA,NA,NA,NA,NA,NA,NA,TRUE,1,0.8624,658.1152,661.1164,NA,NA,NA,NA,NA,90,40,0,70,70,75,1,2,71,"likert"
"1F8FAFCF5442455CAF4C9CFF8620AB7E",1,"0198f77d-0caf-714c-bd50-e924762dae4f","0198f768-e4d2-711c-944b-6f03c09216de","2025-08-29_15h20.40.118",NA,NA,664.4702,664.4702,664.4702,664.8207,NA,NA,NA,NA,NA,NA,NA,TRUE,1,0.6884,661.4689,664.4701,NA,NA,NA,NA,NA,25,27,0,71,71,30,1,2,72,"likert"
"1F8FAFCF5442455CAF4C9CFF8620AB7E",1,"0198f77d-0caf-714c-bd50-e924762dae4f","0198f768-e4d2-711c-944b-6f03c09216de","2025-08-29_15h20.40.118",NA,NA,667.8239,667.824,667.824,668.1743,NA,NA,NA,NA,NA,NA,NA,TRUE,1,0.9041,664.8227,667.8239,NA,NA,NA,NA,NA,45,26,0,72,72,54,1,2,73,"likert"
"1F8FAFCF5442455CAF4C9CFF8620AB7E",1,"0198f77d-0caf-714c-bd50-e924762dae4f","0198f768-e4d2-711c-944b-6f03c09216de","2025-08-29_15h20.40.118",NA,NA,671.1609,671.4112,671.4112,671.5113,NA,NA,NA,NA,NA,NA,NA,FALSE,NA,NA,668.1765,671.1609,NA,NA,NA,NA,NA,25,29,0,73,73,31,1,2,74,"likert"
"1F8FAFCF5442455CAF4C9CFF8620AB7E",1,"0198f77d-0caf-714c-bd50-e924762dae4f","0198f768-e4d2-711c-944b-6f03c09216de","2025-08-29_15h20.40.118",NA,NA,674.5149,674.515,674.515,674.8649,NA,NA,NA,NA,NA,NA,NA,TRUE,4,1.4701,671.5136,674.5146,NA,NA,NA,NA,NA,7,32,0,74,74,4,1,2,75,"likert"
"1F8FAFCF5442455CAF4C9CFF8620AB7E",1,"0198f77d-0caf-714c-bd50-e924762dae4f","0198f768-e4d2-711c-944b-6f03c09216de","2025-08-29_15h20.40.118",NA,NA,677.8685,677.8686,677.8686,678.2185,NA,NA,NA,NA,NA,NA,NA,TRUE,1,1.2562,674.8671,677.8684,NA,NA,NA,NA,NA,14,35,0,75,75,22,1,2,76,"likert"
"1F8FAFCF5442455CAF4C9CFF8620AB7E",1,"0198f77d-0caf-714c-bd50-e924762dae4f","0198f768-e4d2-711c-944b-6f03c09216de","2025-08-29_15h20.40.118",NA,NA,681.2223,681.2224,681.2224,681.5723,NA,NA,NA,NA,NA,NA,NA,TRUE,2,2.153,678.2203,681.222,NA,NA,NA,NA,NA,95,47,0,76,76,82,1,2,77,"likert"
"1F8FAFCF5442455CAF4C9CFF8620AB7E",1,"0198f77d-0caf-714c-bd50-e924762dae4f","0198f768-e4d2-711c-944b-6f03c09216de","2025-08-29_15h20.40.118",NA,NA,684.5757,684.5757,684.5757,684.926,NA,NA,NA,NA,NA,NA,NA,TRUE,1,1.235,681.5753,684.5756,NA,NA,NA,NA,NA,30,26,0,77,77,42,1,2,78,"likert"
"1F8FAFCF5442455CAF4C9CFF8620AB7E",1,"0198f77d-0caf-714c-bd50-e924762dae4f","0198f768-e4d2-711c-944b-6f03c09216de","2025-08-29_15h20.40.118",NA,NA,687.9127,687.9127,687.9127,688.2631,NA,NA,NA,NA,NA,NA,NA,TRUE,1,1.7874,684.9278,687.9126,NA,NA,NA,NA,NA,50,54,0,78,78,65,1,2,79,"likert"
"1F8FAFCF5442455CAF4C9CFF8620AB7E",1,"0198f77d-0caf-714c-bd50-e924762dae4f","0198f768-e4d2-711c-944b-6f03c09216de","2025-08-29_15h20.40.118",NA,NA,691.2665,691.2665,691.2665,691.6166,NA,NA,NA,NA,NA,NA,NA,TRUE,1,1.1027,688.2652,691.2664,NA,NA,NA,NA,NA,12,25,0,79,79,12,1,2,80,"likert"
"1F8FAFCF5442455CAF4C9CFF8620AB7E",1,"0198f77d-0caf-714c-bd50-e924762dae4f","0198f768-e4d2-711c-944b-6f03c09216de","2025-08-29_15h20.40.118",NA,NA,694.62,694.62,694.62,694.9705,NA,NA,NA,NA,NA,NA,NA,TRUE,1,1.1872,691.6184,694.62,NA,NA,NA,NA,NA,60,35,0,80,80,68,1,2,81,"likert"
"1F8FAFCF5442455CAF4C9CFF8620AB7E",1,"0198f77d-0caf-714c-bd50-e924762dae4f","0198f768-e4d2-711c-944b-6f03c09216de","2025-08-29_15h20.40.118",NA,NA,697.9741,697.9742,697.9743,698.3242,NA,NA,NA,NA,NA,NA,NA,TRUE,2,1.1368,694.9728,697.9738,NA,NA,NA,NA,NA,12,31,0,81,81,15,1,2,82,"likert"
"1F8FAFCF5442455CAF4C9CFF8620AB7E",1,"0198f77d-0caf-714c-bd50-e924762dae4f","0198f768-e4d2-711c-944b-6f03c09216de","2025-08-29_15h20.40.118",NA,NA,701.311,701.311,701.311,701.661,NA,NA,NA,NA,NA,NA,NA,TRUE,1,1.0192,698.3264,701.3107,NA,NA,NA,NA,NA,90,46,0,82,82,76,1,2,83,"likert"
"1F8FAFCF5442455CAF4C9CFF8620AB7E",1,"0198f77d-0caf-714c-bd50-e924762dae4f","0198f768-e4d2-711c-944b-6f03c09216de","2025-08-29_15h20.40.118",NA,NA,704.6644,704.6644,704.6645,705.0147,NA,NA,NA,NA,NA,NA,NA,TRUE,1,2.9537,701.6628,704.6643,NA,NA,NA,NA,NA,50,35,0,83,83,62,1,2,84,"likert"
"1F8FAFCF5442455CAF4C9CFF8620AB7E",1,"0198f77d-0caf-714c-bd50-e924762dae4f","0198f768-e4d2-711c-944b-6f03c09216de","2025-08-29_15h20.40.118",NA,NA,708.0183,708.0184,708.0184,708.3685,NA,NA,NA,NA,NA,NA,NA,TRUE,1,0.8187,705.0166,708.0181,NA,NA,NA,NA,NA,28,28,0,84,84,37,1,2,85,"likert"
"1F8FAFCF5442455CAF4C9CFF8620AB7E",1,"0198f77d-0caf-714c-bd50-e924762dae4f","0198f768-e4d2-711c-944b-6f03c09216de","2025-08-29_15h20.40.118",NA,NA,711.3728,711.373,711.373,711.7221,NA,NA,NA,NA,NA,NA,NA,TRUE,1,1.136,708.3704,711.3724,NA,NA,NA,NA,NA,21,27,0,85,85,25,1,2,86,"likert"
"1F8FAFCF5442455CAF4C9CFF8620AB7E",1,"0198f77d-0caf-714c-bd50-e924762dae4f","0198f768-e4d2-711c-944b-6f03c09216de","2025-08-29_15h20.40.118",NA,NA,714.7255,714.7255,714.7255,715.0758,NA,NA,NA,NA,NA,NA,NA,TRUE,1,1.3355,711.724,714.7253,NA,NA,NA,NA,NA,12,28,0,86,86,14,1,2,87,"likert"
"1F8FAFCF5442455CAF4C9CFF8620AB7E",1,"0198f77d-0caf-714c-bd50-e924762dae4f","0198f768-e4d2-711c-944b-6f03c09216de","2025-08-29_15h20.40.118",NA,NA,718.0625,718.0625,718.0625,718.4129,NA,NA,NA,NA,NA,NA,NA,TRUE,2,1.2855,715.0784,718.0624,NA,NA,NA,NA,NA,60,47,0,87,87,70,1,2,88,"likert"
"1F8FAFCF5442455CAF4C9CFF8620AB7E",1,"0198f77d-0caf-714c-bd50-e924762dae4f","0198f768-e4d2-711c-944b-6f03c09216de","2025-08-29_15h20.40.118",NA,NA,721.4161,721.4162,721.4162,721.7665,NA,NA,NA,NA,NA,NA,NA,TRUE,1,1.246,718.415,721.416,NA,NA,NA,NA,NA,40,40,0,88,88,51,1,2,89,"likert"
"1F8FAFCF5442455CAF4C9CFF8620AB7E",1,"0198f77d-0caf-714c-bd50-e924762dae4f","0198f768-e4d2-711c-944b-6f03c09216de","2025-08-29_15h20.40.118",NA,NA,724.7698,724.7698,724.7698,725.1201,NA,NA,NA,NA,NA,NA,NA,TRUE,3,2.1272,721.7686,724.7698,NA,NA,NA,NA,NA,60,54,0,89,89,71,1,2,90,"likert"
"1F8FAFCF5442455CAF4C9CFF8620AB7E",1,"0198f77d-0caf-714c-bd50-e924762dae4f","0198f768-e4d2-711c-944b-6f03c09216de","2025-08-29_15h20.40.118",NA,NA,728.1236,728.1236,728.1236,728.4739,NA,NA,NA,NA,NA,NA,NA,TRUE,1,1.1684,725.122,728.1234,NA,NA,NA,NA,NA,10,25,0,90,90,6,1,2,91,"likert"
"1F8FAFCF5442455CAF4C9CFF8620AB7E",1,"0198f77d-0caf-714c-bd50-e924762dae4f","0198f768-e4d2-711c-944b-6f03c09216de","2025-08-29_15h20.40.118",NA,NA,731.4614,731.4616,731.4616,731.8109,NA,NA,NA,NA,NA,NA,NA,TRUE,3,1.4559,728.4763,731.461,NA,NA,NA,NA,NA,40,54,0,91,91,53,1,2,92,"likert"
"1F8FAFCF5442455CAF4C9CFF8620AB7E",1,"0198f77d-0caf-714c-bd50-e924762dae4f","0198f768-e4d2-711c-944b-6f03c09216de","2025-08-29_15h20.40.118",NA,NA,734.8143,734.8143,734.8144,735.1645,NA,NA,NA,NA,NA,NA,NA,TRUE,2,2.2711,731.8133,734.8142,NA,NA,NA,NA,NA,28,35,0,92,92,39,1,2,93,"likert"
"1F8FAFCF5442455CAF4C9CFF8620AB7E",1,"0198f77d-0caf-714c-bd50-e924762dae4f","0198f768-e4d2-711c-944b-6f03c09216de","2025-08-29_15h20.40.118",NA,NA,738.1681,738.1681,738.1682,738.5182,NA,NA,NA,NA,NA,NA,NA,TRUE,1,1.7234,735.1665,738.1679,NA,NA,NA,NA,NA,45,29,0,93,93,55,1,2,94,"likert"
"1F8FAFCF5442455CAF4C9CFF8620AB7E",1,"0198f77d-0caf-714c-bd50-e924762dae4f","0198f768-e4d2-711c-944b-6f03c09216de","2025-08-29_15h20.40.118",NA,NA,741.5218,741.5218,741.5218,741.8719,NA,NA,NA,NA,NA,NA,NA,TRUE,1,0.5781,738.5198,741.5216,NA,NA,NA,NA,NA,21,32,0,94,94,28,1,2,95,"likert"
"1F8FAFCF5442455CAF4C9CFF8620AB7E",1,"0198f77d-0caf-714c-bd50-e924762dae4f","0198f768-e4d2-711c-944b-6f03c09216de","2025-08-29_15h20.40.118",NA,NA,744.8755,744.8755,744.8756,745.2256,NA,NA,NA,NA,NA,NA,NA,TRUE,1,1.6539,741.8746,744.8753,NA,NA,NA,NA,NA,200,47,0,95,95,106,1,2,96,"likert"
"1F8FAFCF5442455CAF4C9CFF8620AB7E",1,"0198f77d-0caf-714c-bd50-e924762dae4f","0198f768-e4d2-711c-944b-6f03c09216de","2025-08-29_15h20.40.118",NA,NA,748.2127,748.2128,748.2128,748.5626,NA,NA,NA,NA,NA,NA,NA,TRUE,1,1.819,745.2282,748.2124,NA,NA,NA,NA,NA,95,40,0,96,96,81,1,2,97,"likert"
"1F8FAFCF5442455CAF4C9CFF8620AB7E",1,"0198f77d-0caf-714c-bd50-e924762dae4f","0198f768-e4d2-711c-944b-6f03c09216de","2025-08-29_15h20.40.118",NA,NA,751.566,751.566,751.566,751.9163,NA,NA,NA,NA,NA,NA,NA,TRUE,1,1.0183,748.5647,751.5659,NA,NA,NA,NA,NA,150,54,0,97,97,95,1,2,98,"likert"
"1F8FAFCF5442455CAF4C9CFF8620AB7E",1,"0198f77d-0caf-714c-bd50-e924762dae4f","0198f768-e4d2-711c-944b-6f03c09216de","2025-08-29_15h20.40.118",NA,NA,754.92,754.9201,754.9201,755.2701,NA,NA,NA,NA,NA,NA,NA,TRUE,1,1.1024,751.919,754.9197,NA,NA,NA,NA,NA,180,31,0,98,98,97,1,2,99,"likert"
"1F8FAFCF5442455CAF4C9CFF8620AB7E",1,"0198f77d-0caf-714c-bd50-e924762dae4f","0198f768-e4d2-711c-944b-6f03c09216de","2025-08-29_15h20.40.118",NA,NA,758.2733,758.2734,758.2734,758.6236,NA,NA,NA,NA,NA,NA,NA,TRUE,3,1.7895,755.2725,758.2733,NA,NA,NA,NA,NA,45,40,0,99,99,58,1,2,100,"likert"
"1F8FAFCF5442455CAF4C9CFF8620AB7E",1,"0198f77d-0caf-714c-bd50-e924762dae4f","0198f768-e4d2-711c-944b-6f03c09216de","2025-08-29_15h20.40.118",NA,NA,761.6115,761.6116,761.6116,761.9606,NA,NA,NA,NA,NA,NA,NA,TRUE,1,1.1017,758.6262,761.6112,NA,NA,NA,NA,NA,21,30,0,100,100,27,1,2,101,"likert"
"1F8FAFCF5442455CAF4C9CFF8620AB7E",1,"0198f77d-0caf-714c-bd50-e924762dae4f","0198f768-e4d2-711c-944b-6f03c09216de","2025-08-29_15h20.40.118",NA,NA,764.9641,764.9641,764.9641,765.3145,NA,NA,NA,NA,NA,NA,NA,TRUE,1,0.7849,761.9624,764.964,NA,NA,NA,NA,NA,25,31,0,101,101,32,1,2,102,"likert"
"1F8FAFCF5442455CAF4C9CFF8620AB7E",1,"0198f77d-0caf-714c-bd50-e924762dae4f","0198f768-e4d2-711c-944b-6f03c09216de","2025-08-29_15h20.40.118",NA,NA,768.3179,768.318,768.318,768.6681,NA,NA,NA,NA,NA,NA,NA,TRUE,1,0.8518,765.3167,768.3177,NA,NA,NA,NA,NA,100,26,0,102,102,84,1,2,103,"likert"
"1F8FAFCF5442455CAF4C9CFF8620AB7E",1,"0198f77d-0caf-714c-bd50-e924762dae4f","0198f768-e4d2-711c-944b-6f03c09216de","2025-08-29_15h20.40.118",NA,NA,771.6715,771.6715,771.6715,772.0218,NA,NA,NA,NA,NA,NA,NA,TRUE,1,1.5355,768.67,771.6714,NA,NA,NA,NA,NA,30,32,0,103,103,46,1,2,104,"likert"
"1F8FAFCF5442455CAF4C9CFF8620AB7E",1,"0198f77d-0caf-714c-bd50-e924762dae4f","0198f768-e4d2-711c-944b-6f03c09216de","2025-08-29_15h20.40.118",NA,NA,775.0252,775.0253,775.0253,775.3777,NA,NA,NA,NA,NA,NA,NA,TRUE,1,0.9562,772.0239,775.0251,NA,NA,NA,NA,NA,90,26,0,104,104,72,1,2,105,"likert"
"1F8FAFCF5442455CAF4C9CFF8620AB7E",1,"0198f77d-0caf-714c-bd50-e924762dae4f","0198f768-e4d2-711c-944b-6f03c09216de","2025-08-29_15h20.40.118",NA,NA,778.3629,778.3629,778.363,778.7124,NA,NA,NA,NA,NA,NA,NA,TRUE,1,0.725,775.3791,778.3624,NA,NA,NA,NA,NA,40,27,0,105,105,48,1,2,106,"likert"
"1F8FAFCF5442455CAF4C9CFF8620AB7E",1,"0198f77d-0caf-714c-bd50-e924762dae4f","0198f768-e4d2-711c-944b-6f03c09216de","2025-08-29_15h20.40.118",NA,NA,781.7157,781.7157,781.7157,782.066,NA,NA,NA,NA,NA,NA,NA,TRUE,2,1.4691,778.7142,781.7157,NA,NA,NA,NA,NA,10,32,0,106,106,11,1,2,107,"likert"
"1F8FAFCF5442455CAF4C9CFF8620AB7E",1,"0198f77d-0caf-714c-bd50-e924762dae4f","0198f768-e4d2-711c-944b-6f03c09216de","2025-08-29_15h20.40.118",NA,NA,785.0694,785.0694,785.0695,785.4197,NA,NA,NA,NA,NA,NA,NA,TRUE,2,1.5113,782.0686,785.0694,NA,NA,NA,NA,NA,14,32,0,107,107,21,1,2,108,"likert"
