"participant","session","assignmentId","projectId","date","practiceTrial.started","practiceTrial.stopped","tooLate.started","tooLate.stopped","blank.started","blank.stopped","trials_pract.thisRepN","trials_pract.thisTrialN","trials_pract.thisN","trials_pract.thisIndex","trials_pract.ran","delay_pract","amount_pract","responseMade","key","rt","trial.started","trial.stopped","trials.thisRepN","trials.thisTrialN","trials.thisN","trials.thisIndex","trials.ran","delay","amount","trials_2.thisRepN","trials_2.thisTrialN","trials_2.thisN","trials_2.thisIndex","trials_2.ran","block","trial","taskType"
"1F9B17C1B86646F4AAA96705205F46AE",1,"01990a98-c9a2-7ebb-843c-942f6ac8049e","01990a84-c4ee-73c2-a87b-ff46a7d3dde5","2025-09-02_06h25.20.752",712.485,715.349,715.357,715.661,715.662,715.812,0,0,0,1,1,100,50,FALSE,NA,NA,NA,NA,NA,NA,NA,NA,NA,NA,NA,NA,NA,NA,NA,NA,0,1,"likert"
"1F9B17C1B86646F4AAA96705205F46AE",1,"01990a98-c9a2-7ebb-843c-942f6ac8049e","01990a84-c4ee-73c2-a87b-ff46a7d3dde5","2025-09-02_06h25.20.752",715.813,718.794,718.794,718.794,718.794,719.094,0,1,1,3,1,3,27,TRUE,3,0.677,NA,NA,NA,NA,NA,NA,NA,NA,NA,NA,NA,NA,NA,NA,0,2,"likert"
"1F9B17C1B86646F4AAA96705205F46AE",1,"01990a98-c9a2-7ebb-843c-942f6ac8049e","01990a84-c4ee-73c2-a87b-ff46a7d3dde5","2025-09-02_06h25.20.752",719.095,722.061,722.061,722.365,722.365,722.511,0,2,2,0,1,7,30,FALSE,NA,NA,NA,NA,NA,NA,NA,NA,NA,NA,NA,NA,NA,NA,NA,NA,0,3,"likert"
"1F9B17C1B86646F4AAA96705205F46AE",1,"01990a98-c9a2-7ebb-843c-942f6ac8049e","01990a84-c4ee-73c2-a87b-ff46a7d3dde5","2025-09-02_06h25.20.752",722.519,725.398,725.399,725.399,725.399,725.839,0,3,3,4,1,30,40,TRUE,1,0.981,NA,NA,NA,NA,NA,NA,NA,NA,NA,NA,NA,NA,NA,NA,0,4,"likert"
"1F9B17C1B86646F4AAA96705205F46AE",1,"01990a98-c9a2-7ebb-843c-942f6ac8049e","01990a84-c4ee-73c2-a87b-ff46a7d3dde5","2025-09-02_06h25.20.752",725.84,728.861,728.861,729.008,729.008,729.16,0,4,4,2,1,14,45,FALSE,NA,NA,NA,NA,NA,NA,NA,NA,NA,NA,NA,NA,NA,NA,NA,NA,0,5,"likert"
"1F9B17C1B86646F4AAA96705205F46AE",1,"01990a98-c9a2-7ebb-843c-942f6ac8049e","01990a84-c4ee-73c2-a87b-ff46a7d3dde5","2025-09-02_06h25.20.752",NA,NA,817.94,817.94,817.94,818.298,NA,NA,NA,NA,NA,NA,NA,TRUE,1,1.835,814.968,817.94,0,0,0,10,1,10,30,NA,NA,NA,NA,NA,1,1,"likert"
"1F9B17C1B86646F4AAA96705205F46AE",1,"01990a98-c9a2-7ebb-843c-942f6ac8049e","01990a84-c4ee-73c2-a87b-ff46a7d3dde5","2025-09-02_06h25.20.752",NA,NA,821.233,821.233,821.233,821.59,NA,NA,NA,NA,NA,NA,NA,TRUE,1,2.182,818.299,821.233,0,1,1,61,1,50,30,NA,NA,NA,NA,NA,1,2,"likert"
"1F9B17C1B86646F4AAA96705205F46AE",1,"01990a98-c9a2-7ebb-843c-942f6ac8049e","01990a84-c4ee-73c2-a87b-ff46a7d3dde5","2025-09-02_06h25.20.752",NA,NA,824.649,824.891,824.891,825.006,NA,NA,NA,NA,NA,NA,NA,FALSE,NA,NA,821.598,824.648,0,2,2,68,1,60,35,NA,NA,NA,NA,NA,1,3,"likert"
"1F9B17C1B86646F4AAA96705205F46AE",1,"01990a98-c9a2-7ebb-843c-942f6ac8049e","01990a84-c4ee-73c2-a87b-ff46a7d3dde5","2025-09-02_06h25.20.752",NA,NA,827.96,827.96,827.96,828.323,NA,NA,NA,NA,NA,NA,NA,TRUE,5,0.67,825.014,827.96,0,3,3,58,1,45,40,NA,NA,NA,NA,NA,1,4,"likert"
"1F9B17C1B86646F4AAA96705205F46AE",1,"01990a98-c9a2-7ebb-843c-942f6ac8049e","01990a84-c4ee-73c2-a87b-ff46a7d3dde5","2025-09-02_06h25.20.752",NA,NA,831.285,831.285,831.285,831.64,NA,NA,NA,NA,NA,NA,NA,TRUE,5,2.209,828.324,831.284,0,4,4,16,1,12,33,NA,NA,NA,NA,NA,1,5,"likert"
"1F9B17C1B86646F4AAA96705205F46AE",1,"01990a98-c9a2-7ebb-843c-942f6ac8049e","01990a84-c4ee-73c2-a87b-ff46a7d3dde5","2025-09-02_06h25.20.752",NA,NA,834.656,834.899,834.899,835.017,NA,NA,NA,NA,NA,NA,NA,FALSE,NA,NA,831.648,834.656,0,5,5,39,1,28,35,NA,NA,NA,NA,NA,1,6,"likert"
"1F9B17C1B86646F4AAA96705205F46AE",1,"01990a98-c9a2-7ebb-843c-942f6ac8049e","01990a84-c4ee-73c2-a87b-ff46a7d3dde5","2025-09-02_06h25.20.752",NA,NA,838.023,838.023,838.023,838.399,NA,NA,NA,NA,NA,NA,NA,TRUE,2,1.72,835.019,838.023,0,6,6,72,1,90,26,NA,NA,NA,NA,NA,1,7,"likert"
"1F9B17C1B86646F4AAA96705205F46AE",1,"01990a98-c9a2-7ebb-843c-942f6ac8049e","01990a84-c4ee-73c2-a87b-ff46a7d3dde5","2025-09-02_06h25.20.752",NA,NA,841.295,841.295,841.295,841.662,NA,NA,NA,NA,NA,NA,NA,TRUE,2,1.196,838.407,841.294,0,7,7,86,1,100,38,NA,NA,NA,NA,NA,1,8,"likert"
"1F9B17C1B86646F4AAA96705205F46AE",1,"01990a98-c9a2-7ebb-843c-942f6ac8049e","01990a84-c4ee-73c2-a87b-ff46a7d3dde5","2025-09-02_06h25.20.752",NA,NA,844.692,844.692,844.692,845.043,NA,NA,NA,NA,NA,NA,NA,TRUE,2,1.085,841.663,844.692,0,8,8,98,1,180,35,NA,NA,NA,NA,NA,1,9,"likert"
"1F9B17C1B86646F4AAA96705205F46AE",1,"01990a98-c9a2-7ebb-843c-942f6ac8049e","01990a84-c4ee-73c2-a87b-ff46a7d3dde5","2025-09-02_06h25.20.752",NA,NA,848.109,848.109,848.109,848.465,NA,NA,NA,NA,NA,NA,NA,TRUE,2,1.89,845.051,848.109,0,9,9,89,1,100,54,NA,NA,NA,NA,NA,1,10,"likert"
"1F9B17C1B86646F4AAA96705205F46AE",1,"01990a98-c9a2-7ebb-843c-942f6ac8049e","01990a84-c4ee-73c2-a87b-ff46a7d3dde5","2025-09-02_06h25.20.752",NA,NA,851.43,851.43,851.43,851.789,NA,NA,NA,NA,NA,NA,NA,TRUE,2,0.896,848.467,851.43,0,10,10,0,1,7,25,NA,NA,NA,NA,NA,1,11,"likert"
"1F9B17C1B86646F4AAA96705205F46AE",1,"01990a98-c9a2-7ebb-843c-942f6ac8049e","01990a84-c4ee-73c2-a87b-ff46a7d3dde5","2025-09-02_06h25.20.752",NA,NA,854.767,854.767,854.767,855.123,NA,NA,NA,NA,NA,NA,NA,TRUE,2,0.797,851.797,854.767,0,11,11,91,1,150,33,NA,NA,NA,NA,NA,1,12,"likert"
"1F9B17C1B86646F4AAA96705205F46AE",1,"01990a98-c9a2-7ebb-843c-942f6ac8049e","01990a84-c4ee-73c2-a87b-ff46a7d3dde5","2025-09-02_06h25.20.752",NA,NA,858.172,858.172,858.172,858.408,NA,NA,NA,NA,NA,NA,NA,TRUE,1,0.76,855.125,858.172,0,12,12,1,1,7,26,NA,NA,NA,NA,NA,1,13,"likert"
"1F9B17C1B86646F4AAA96705205F46AE",1,"01990a98-c9a2-7ebb-843c-942f6ac8049e","01990a84-c4ee-73c2-a87b-ff46a7d3dde5","2025-09-02_06h25.20.752",NA,NA,861.398,861.398,861.398,861.865,NA,NA,NA,NA,NA,NA,NA,TRUE,5,2.487,858.415,861.398,0,13,13,56,1,45,31,NA,NA,NA,NA,NA,1,14,"likert"
"1F9B17C1B86646F4AAA96705205F46AE",1,"01990a98-c9a2-7ebb-843c-942f6ac8049e","01990a84-c4ee-73c2-a87b-ff46a7d3dde5","2025-09-02_06h25.20.752",NA,NA,864.809,864.809,864.809,865.154,NA,NA,NA,NA,NA,NA,NA,TRUE,5,1.668,861.872,864.808,0,14,14,43,1,30,27,NA,NA,NA,NA,NA,1,15,"likert"
"1F9B17C1B86646F4AAA96705205F46AE",1,"01990a98-c9a2-7ebb-843c-942f6ac8049e","01990a84-c4ee-73c2-a87b-ff46a7d3dde5","2025-09-02_06h25.20.752",NA,NA,868.208,868.208,868.208,868.577,NA,NA,NA,NA,NA,NA,NA,TRUE,4,0.806,865.155,868.208,0,15,15,54,1,45,26,NA,NA,NA,NA,NA,1,16,"likert"
"1F9B17C1B86646F4AAA96705205F46AE",1,"01990a98-c9a2-7ebb-843c-942f6ac8049e","01990a84-c4ee-73c2-a87b-ff46a7d3dde5","2025-09-02_06h25.20.752",NA,NA,871.472,871.473,871.473,871.83,NA,NA,NA,NA,NA,NA,NA,TRUE,4,0.776,868.585,871.472,0,16,16,93,1,150,40,NA,NA,NA,NA,NA,1,17,"likert"
"1F9B17C1B86646F4AAA96705205F46AE",1,"01990a98-c9a2-7ebb-843c-942f6ac8049e","01990a84-c4ee-73c2-a87b-ff46a7d3dde5","2025-09-02_06h25.20.752",NA,NA,874.863,874.863,874.863,875.214,NA,NA,NA,NA,NA,NA,NA,TRUE,4,0.006,871.831,874.862,0,17,17,96,1,180,27,NA,NA,NA,NA,NA,1,18,"likert"
"1F9B17C1B86646F4AAA96705205F46AE",1,"01990a98-c9a2-7ebb-843c-942f6ac8049e","01990a84-c4ee-73c2-a87b-ff46a7d3dde5","2025-09-02_06h25.20.752",NA,NA,878.178,878.178,878.178,878.558,NA,NA,NA,NA,NA,NA,NA,TRUE,4,1.047,875.222,878.178,0,18,18,29,1,21,38,NA,NA,NA,NA,NA,1,19,"likert"
"1F9B17C1B86646F4AAA96705205F46AE",1,"01990a98-c9a2-7ebb-843c-942f6ac8049e","01990a84-c4ee-73c2-a87b-ff46a7d3dde5","2025-09-02_06h25.20.752",NA,NA,881.599,881.732,881.732,881.855,NA,NA,NA,NA,NA,NA,NA,FALSE,NA,NA,878.559,881.598,0,19,19,55,1,45,29,NA,NA,NA,NA,NA,1,20,"likert"
"1F9B17C1B86646F4AAA96705205F46AE",1,"01990a98-c9a2-7ebb-843c-942f6ac8049e","01990a84-c4ee-73c2-a87b-ff46a7d3dde5","2025-09-02_06h25.20.752",NA,NA,884.854,884.854,884.854,885.215,NA,NA,NA,NA,NA,NA,NA,TRUE,4,1.447,881.863,884.854,0,20,20,105,1,200,39,NA,NA,NA,NA,NA,1,21,"likert"
"1F9B17C1B86646F4AAA96705205F46AE",1,"01990a98-c9a2-7ebb-843c-942f6ac8049e","01990a84-c4ee-73c2-a87b-ff46a7d3dde5","2025-09-02_06h25.20.752",NA,NA,888.293,888.293,888.293,888.663,NA,NA,NA,NA,NA,NA,NA,TRUE,5,0.796,885.223,888.293,0,21,21,85,1,100,31,NA,NA,NA,NA,NA,1,22,"likert"
"1F9B17C1B86646F4AAA96705205F46AE",1,"01990a98-c9a2-7ebb-843c-942f6ac8049e","01990a84-c4ee-73c2-a87b-ff46a7d3dde5","2025-09-02_06h25.20.752",NA,NA,891.666,891.666,891.666,891.912,NA,NA,NA,NA,NA,NA,NA,TRUE,5,0.791,888.664,891.666,0,22,22,63,1,50,40,NA,NA,NA,NA,NA,1,23,"likert"
"1F9B17C1B86646F4AAA96705205F46AE",1,"01990a98-c9a2-7ebb-843c-942f6ac8049e","01990a84-c4ee-73c2-a87b-ff46a7d3dde5","2025-09-02_06h25.20.752",NA,NA,894.997,894.997,894.998,895.357,NA,NA,NA,NA,NA,NA,NA,TRUE,1,0.931,891.92,894.997,0,23,23,82,1,95,47,NA,NA,NA,NA,NA,1,24,"likert"
"1F9B17C1B86646F4AAA96705205F46AE",1,"01990a98-c9a2-7ebb-843c-942f6ac8049e","01990a84-c4ee-73c2-a87b-ff46a7d3dde5","2025-09-02_06h25.20.752",NA,NA,898.366,898.366,898.366,898.723,NA,NA,NA,NA,NA,NA,NA,TRUE,1,1.276,895.358,898.366,0,24,24,42,1,30,26,NA,NA,NA,NA,NA,1,25,"likert"
"1F9B17C1B86646F4AAA96705205F46AE",1,"01990a98-c9a2-7ebb-843c-942f6ac8049e","01990a84-c4ee-73c2-a87b-ff46a7d3dde5","2025-09-02_06h25.20.752",NA,NA,901.636,901.636,901.636,901.989,NA,NA,NA,NA,NA,NA,NA,TRUE,5,1.277,898.73,901.636,0,25,25,26,1,21,29,NA,NA,NA,NA,NA,1,26,"likert"
"1F9B17C1B86646F4AAA96705205F46AE",1,"01990a98-c9a2-7ebb-843c-942f6ac8049e","01990a84-c4ee-73c2-a87b-ff46a7d3dde5","2025-09-02_06h25.20.752",NA,NA,904.961,904.961,904.961,905.324,NA,NA,NA,NA,NA,NA,NA,TRUE,4,0.659,901.997,904.96,0,26,26,45,1,30,30,NA,NA,NA,NA,NA,1,27,"likert"
"1F9B17C1B86646F4AAA96705205F46AE",1,"01990a98-c9a2-7ebb-843c-942f6ac8049e","01990a84-c4ee-73c2-a87b-ff46a7d3dde5","2025-09-02_06h25.20.752",NA,NA,908.402,908.402,908.402,908.756,NA,NA,NA,NA,NA,NA,NA,TRUE,3,0.669,905.325,908.402,0,27,27,79,1,95,33,NA,NA,NA,NA,NA,1,28,"likert"
"1F9B17C1B86646F4AAA96705205F46AE",1,"01990a98-c9a2-7ebb-843c-942f6ac8049e","01990a84-c4ee-73c2-a87b-ff46a7d3dde5","2025-09-02_06h25.20.752",NA,NA,911.719,911.719,911.719,912.072,NA,NA,NA,NA,NA,NA,NA,TRUE,3,0.798,908.764,911.719,0,28,28,88,1,100,46,NA,NA,NA,NA,NA,1,29,"likert"
"1F9B17C1B86646F4AAA96705205F46AE",1,"01990a98-c9a2-7ebb-843c-942f6ac8049e","01990a84-c4ee-73c2-a87b-ff46a7d3dde5","2025-09-02_06h25.20.752",NA,NA,915.058,915.058,915.058,915.426,NA,NA,NA,NA,NA,NA,NA,TRUE,3,1.705,912.074,915.057,0,29,29,81,1,95,40,NA,NA,NA,NA,NA,1,30,"likert"
"1F9B17C1B86646F4AAA96705205F46AE",1,"01990a98-c9a2-7ebb-843c-942f6ac8049e","01990a84-c4ee-73c2-a87b-ff46a7d3dde5","2025-09-02_06h25.20.752",NA,NA,918.378,918.378,918.379,918.746,NA,NA,NA,NA,NA,NA,NA,TRUE,3,0.265,915.434,918.378,0,30,30,102,1,200,26,NA,NA,NA,NA,NA,1,31,"likert"
"1F9B17C1B86646F4AAA96705205F46AE",1,"01990a98-c9a2-7ebb-843c-942f6ac8049e","01990a84-c4ee-73c2-a87b-ff46a7d3dde5","2025-09-02_06h25.20.752",NA,NA,921.82,921.82,921.82,922.081,NA,NA,NA,NA,NA,NA,NA,TRUE,3,0.775,918.747,921.82,0,31,31,35,1,25,46,NA,NA,NA,NA,NA,1,32,"likert"
"1F9B17C1B86646F4AAA96705205F46AE",1,"01990a98-c9a2-7ebb-843c-942f6ac8049e","01990a84-c4ee-73c2-a87b-ff46a7d3dde5","2025-09-02_06h25.20.752",NA,NA,925.087,925.087,925.087,925.455,NA,NA,NA,NA,NA,NA,NA,TRUE,3,0.562,922.089,925.086,0,32,32,60,1,50,27,NA,NA,NA,NA,NA,1,33,"likert"
"1F9B17C1B86646F4AAA96705205F46AE",1,"01990a98-c9a2-7ebb-843c-942f6ac8049e","01990a84-c4ee-73c2-a87b-ff46a7d3dde5","2025-09-02_06h25.20.752",NA,NA,928.46,928.46,928.46,928.838,NA,NA,NA,NA,NA,NA,NA,TRUE,2,0.397,925.457,928.459,0,33,33,87,1,100,39,NA,NA,NA,NA,NA,1,34,"likert"
"1F9B17C1B86646F4AAA96705205F46AE",1,"01990a98-c9a2-7ebb-843c-942f6ac8049e","01990a84-c4ee-73c2-a87b-ff46a7d3dde5","2025-09-02_06h25.20.752",NA,NA,931.831,931.831,931.832,932.198,NA,NA,NA,NA,NA,NA,NA,TRUE,2,0.798,928.846,931.831,0,34,34,36,1,28,26,NA,NA,NA,NA,NA,1,35,"likert"
"1F9B17C1B86646F4AAA96705205F46AE",1,"01990a98-c9a2-7ebb-843c-942f6ac8049e","01990a84-c4ee-73c2-a87b-ff46a7d3dde5","2025-09-02_06h25.20.752",NA,NA,935.156,935.156,935.156,935.547,NA,NA,NA,NA,NA,NA,NA,TRUE,2,2.847,932.207,935.155,0,35,35,62,1,50,35,NA,NA,NA,NA,NA,1,36,"likert"
"1F9B17C1B86646F4AAA96705205F46AE",1,"01990a98-c9a2-7ebb-843c-942f6ac8049e","01990a84-c4ee-73c2-a87b-ff46a7d3dde5","2025-09-02_06h25.20.752",NA,NA,938.458,938.458,938.458,938.811,NA,NA,NA,NA,NA,NA,NA,TRUE,2,0.9,935.549,938.457,0,36,36,74,1,90,33,NA,NA,NA,NA,NA,1,37,"likert"
"1F9B17C1B86646F4AAA96705205F46AE",1,"01990a98-c9a2-7ebb-843c-942f6ac8049e","01990a84-c4ee-73c2-a87b-ff46a7d3dde5","2025-09-02_06h25.20.752",NA,NA,941.905,941.905,941.905,942.258,NA,NA,NA,NA,NA,NA,NA,TRUE,3,0.421,938.819,941.905,0,37,37,94,1,150,47,NA,NA,NA,NA,NA,1,38,"likert"
"1F9B17C1B86646F4AAA96705205F46AE",1,"01990a98-c9a2-7ebb-843c-942f6ac8049e","01990a84-c4ee-73c2-a87b-ff46a7d3dde5","2025-09-02_06h25.20.752",NA,NA,945.208,945.208,945.208,945.569,NA,NA,NA,NA,NA,NA,NA,TRUE,3,1.834,942.259,945.207,0,38,38,50,1,40,35,NA,NA,NA,NA,NA,1,39,"likert"
"1F9B17C1B86646F4AAA96705205F46AE",1,"01990a98-c9a2-7ebb-843c-942f6ac8049e","01990a84-c4ee-73c2-a87b-ff46a7d3dde5","2025-09-02_06h25.20.752",NA,NA,948.512,948.513,948.513,948.868,NA,NA,NA,NA,NA,NA,NA,TRUE,3,0.924,945.577,948.512,0,39,39,64,1,50,46,NA,NA,NA,NA,NA,1,40,"likert"
"1F9B17C1B86646F4AAA96705205F46AE",1,"01990a98-c9a2-7ebb-843c-942f6ac8049e","01990a84-c4ee-73c2-a87b-ff46a7d3dde5","2025-09-02_06h25.20.752",NA,NA,951.967,951.967,951.967,952.318,NA,NA,NA,NA,NA,NA,NA,TRUE,3,0.384,948.869,951.967,0,40,40,40,1,28,39,NA,NA,NA,NA,NA,1,41,"likert"
"1F9B17C1B86646F4AAA96705205F46AE",1,"01990a98-c9a2-7ebb-843c-942f6ac8049e","01990a84-c4ee-73c2-a87b-ff46a7d3dde5","2025-09-02_06h25.20.752",NA,NA,955.218,955.218,955.218,955.568,NA,NA,NA,NA,NA,NA,NA,TRUE,3,1.287,952.325,955.218,0,41,41,20,1,14,28,NA,NA,NA,NA,NA,1,42,"likert"
"1F9B17C1B86646F4AAA96705205F46AE",1,"01990a98-c9a2-7ebb-843c-942f6ac8049e","01990a84-c4ee-73c2-a87b-ff46a7d3dde5","2025-09-02_06h25.20.752",NA,NA,958.686,958.686,958.686,958.952,NA,NA,NA,NA,NA,NA,NA,TRUE,3,0.39,955.575,958.685,0,42,42,65,1,50,54,NA,NA,NA,NA,NA,1,43,"likert"
"1F9B17C1B86646F4AAA96705205F46AE",1,"01990a98-c9a2-7ebb-843c-942f6ac8049e","01990a84-c4ee-73c2-a87b-ff46a7d3dde5","2025-09-02_06h25.20.752",NA,NA,962.006,962.006,962.006,962.251,NA,NA,NA,NA,NA,NA,NA,TRUE,3,1.545,958.953,962.006,0,43,43,100,1,180,46,NA,NA,NA,NA,NA,1,44,"likert"
"1F9B17C1B86646F4AAA96705205F46AE",1,"01990a98-c9a2-7ebb-843c-942f6ac8049e","01990a84-c4ee-73c2-a87b-ff46a7d3dde5","2025-09-02_06h25.20.752",NA,NA,965.297,965.297,965.297,965.668,NA,NA,NA,NA,NA,NA,NA,TRUE,3,0.395,962.26,965.297,0,44,44,80,1,95,35,NA,NA,NA,NA,NA,1,45,"likert"
"1F9B17C1B86646F4AAA96705205F46AE",1,"01990a98-c9a2-7ebb-843c-942f6ac8049e","01990a84-c4ee-73c2-a87b-ff46a7d3dde5","2025-09-02_06h25.20.752",NA,NA,968.602,968.602,968.602,968.968,NA,NA,NA,NA,NA,NA,NA,TRUE,3,1.926,965.669,968.601,0,45,45,75,1,90,40,NA,NA,NA,NA,NA,1,46,"likert"
"1F9B17C1B86646F4AAA96705205F46AE",1,"01990a98-c9a2-7ebb-843c-942f6ac8049e","01990a84-c4ee-73c2-a87b-ff46a7d3dde5","2025-09-02_06h25.20.752",NA,NA,971.984,971.984,971.984,972.336,NA,NA,NA,NA,NA,NA,NA,TRUE,3,0.51,968.976,971.984,0,46,46,23,1,14,39,NA,NA,NA,NA,NA,1,47,"likert"
"1F9B17C1B86646F4AAA96705205F46AE",1,"01990a98-c9a2-7ebb-843c-942f6ac8049e","01990a84-c4ee-73c2-a87b-ff46a7d3dde5","2025-09-02_06h25.20.752",NA,NA,975.342,975.342,975.342,975.685,NA,NA,NA,NA,NA,NA,NA,TRUE,3,0.002,972.337,975.341,0,47,47,103,1,200,28,NA,NA,NA,NA,NA,1,48,"likert"
"1F9B17C1B86646F4AAA96705205F46AE",1,"01990a98-c9a2-7ebb-843c-942f6ac8049e","01990a84-c4ee-73c2-a87b-ff46a7d3dde5","2025-09-02_06h25.20.752",NA,NA,978.71,978.71,978.71,979.057,NA,NA,NA,NA,NA,NA,NA,TRUE,3,1.038,975.692,978.71,0,48,48,34,1,25,35,NA,NA,NA,NA,NA,1,49,"likert"
"1F9B17C1B86646F4AAA96705205F46AE",1,"01990a98-c9a2-7ebb-843c-942f6ac8049e","01990a84-c4ee-73c2-a87b-ff46a7d3dde5","2025-09-02_06h25.20.752",NA,NA,982.035,982.035,982.035,982.38,NA,NA,NA,NA,NA,NA,NA,TRUE,3,0.377,979.065,982.035,0,49,49,7,1,10,26,NA,NA,NA,NA,NA,1,50,"likert"
"1F9B17C1B86646F4AAA96705205F46AE",1,"01990a98-c9a2-7ebb-843c-942f6ac8049e","01990a84-c4ee-73c2-a87b-ff46a7d3dde5","2025-09-02_06h25.20.752",NA,NA,985.45,985.45,985.45,985.801,NA,NA,NA,NA,NA,NA,NA,TRUE,3,2.458,982.381,985.449,0,50,50,12,1,12,25,NA,NA,NA,NA,NA,1,51,"likert"
"1F9B17C1B86646F4AAA96705205F46AE",1,"01990a98-c9a2-7ebb-843c-942f6ac8049e","01990a84-c4ee-73c2-a87b-ff46a7d3dde5","2025-09-02_06h25.20.752",NA,NA,988.726,988.726,988.726,989.074,NA,NA,NA,NA,NA,NA,NA,TRUE,3,1.09,985.809,988.726,0,51,51,77,1,90,54,NA,NA,NA,NA,NA,1,52,"likert"
"1F9B17C1B86646F4AAA96705205F46AE",1,"01990a98-c9a2-7ebb-843c-942f6ac8049e","01990a84-c4ee-73c2-a87b-ff46a7d3dde5","2025-09-02_06h25.20.752",NA,NA,992.134,992.134,992.134,992.488,NA,NA,NA,NA,NA,NA,NA,TRUE,4,0.892,989.075,992.133,0,52,52,15,1,12,31,NA,NA,NA,NA,NA,1,53,"likert"
"1F9B17C1B86646F4AAA96705205F46AE",1,"01990a98-c9a2-7ebb-843c-942f6ac8049e","01990a84-c4ee-73c2-a87b-ff46a7d3dde5","2025-09-02_06h25.20.752",NA,NA,995.417,995.417,995.417,995.793,NA,NA,NA,NA,NA,NA,NA,TRUE,4,1.663,992.495,995.417,0,53,53,33,1,25,33,NA,NA,NA,NA,NA,1,54,"likert"
"1F9B17C1B86646F4AAA96705205F46AE",1,"01990a98-c9a2-7ebb-843c-942f6ac8049e","01990a84-c4ee-73c2-a87b-ff46a7d3dde5","2025-09-02_06h25.20.752",NA,NA,998.85,998.85,998.85,999.204,NA,NA,NA,NA,NA,NA,NA,TRUE,3,1.165,995.794,998.849,0,54,54,14,1,12,28,NA,NA,NA,NA,NA,1,55,"likert"
"1F9B17C1B86646F4AAA96705205F46AE",1,"01990a98-c9a2-7ebb-843c-942f6ac8049e","01990a84-c4ee-73c2-a87b-ff46a7d3dde5","2025-09-02_06h25.20.752",NA,NA,1002.189,1002.19,1002.19,1002.56,NA,NA,NA,NA,NA,NA,NA,TRUE,3,0.005,999.212,1002.189,0,55,55,92,1,150,35,NA,NA,NA,NA,NA,1,56,"likert"
"1F9B17C1B86646F4AAA96705205F46AE",1,"01990a98-c9a2-7ebb-843c-942f6ac8049e","01990a84-c4ee-73c2-a87b-ff46a7d3dde5","2025-09-02_06h25.20.752",NA,NA,1005.532,1005.532,1005.532,1005.932,NA,NA,NA,NA,NA,NA,NA,TRUE,3,0.391,1002.568,1005.532,0,56,56,70,1,60,47,NA,NA,NA,NA,NA,1,57,"likert"
"1F9B17C1B86646F4AAA96705205F46AE",1,"01990a98-c9a2-7ebb-843c-942f6ac8049e","01990a84-c4ee-73c2-a87b-ff46a7d3dde5","2025-09-02_06h25.20.752",NA,NA,1008.819,1008.82,1008.82,1009.198,NA,NA,NA,NA,NA,NA,NA,TRUE,3,0.842,1005.933,1008.819,0,57,57,47,1,30,38,NA,NA,NA,NA,NA,1,58,"likert"
"1F9B17C1B86646F4AAA96705205F46AE",1,"01990a98-c9a2-7ebb-843c-942f6ac8049e","01990a84-c4ee-73c2-a87b-ff46a7d3dde5","2025-09-02_06h25.20.752",NA,NA,1012.2,1012.2,1012.2,1012.554,NA,NA,NA,NA,NA,NA,NA,TRUE,3,0.79,1009.206,1012.2,0,58,58,41,1,28,46,NA,NA,NA,NA,NA,1,59,"likert"
"1F9B17C1B86646F4AAA96705205F46AE",1,"01990a98-c9a2-7ebb-843c-942f6ac8049e","01990a84-c4ee-73c2-a87b-ff46a7d3dde5","2025-09-02_06h25.20.752",NA,NA,1015.501,1015.501,1015.501,1015.966,NA,NA,NA,NA,NA,NA,NA,TRUE,3,0.393,1012.555,1015.501,0,59,59,6,1,10,25,NA,NA,NA,NA,NA,1,60,"likert"
"1F9B17C1B86646F4AAA96705205F46AE",1,"01990a98-c9a2-7ebb-843c-942f6ac8049e","01990a84-c4ee-73c2-a87b-ff46a7d3dde5","2025-09-02_06h25.20.752",NA,NA,1018.907,1018.907,1018.907,1019.266,NA,NA,NA,NA,NA,NA,NA,TRUE,3,0.938,1015.974,1018.906,0,60,60,3,1,7,30,NA,NA,NA,NA,NA,1,61,"likert"
"1F9B17C1B86646F4AAA96705205F46AE",1,"01990a98-c9a2-7ebb-843c-942f6ac8049e","01990a84-c4ee-73c2-a87b-ff46a7d3dde5","2025-09-02_06h25.20.752",NA,NA,1022.305,1022.305,1022.305,1022.554,NA,NA,NA,NA,NA,NA,NA,TRUE,3,2.237,1019.268,1022.304,0,61,61,66,1,60,29,NA,NA,NA,NA,NA,1,62,"likert"
"1F9B17C1B86646F4AAA96705205F46AE",1,"01990a98-c9a2-7ebb-843c-942f6ac8049e","01990a84-c4ee-73c2-a87b-ff46a7d3dde5","2025-09-02_06h25.20.752",NA,NA,1025.548,1025.548,1025.548,1025.915,NA,NA,NA,NA,NA,NA,NA,TRUE,3,0.557,1022.561,1025.548,0,62,62,27,1,21,30,NA,NA,NA,NA,NA,1,63,"likert"
"1F9B17C1B86646F4AAA96705205F46AE",1,"01990a98-c9a2-7ebb-843c-942f6ac8049e","01990a84-c4ee-73c2-a87b-ff46a7d3dde5","2025-09-02_06h25.20.752",NA,NA,1028.995,1028.995,1028.995,1029.351,NA,NA,NA,NA,NA,NA,NA,TRUE,3,0.926,1025.916,1028.994,0,63,63,84,1,100,26,NA,NA,NA,NA,NA,1,64,"likert"
"1F9B17C1B86646F4AAA96705205F46AE",1,"01990a98-c9a2-7ebb-843c-942f6ac8049e","01990a84-c4ee-73c2-a87b-ff46a7d3dde5","2025-09-02_06h25.20.752",NA,NA,1032.354,1032.354,1032.354,1032.707,NA,NA,NA,NA,NA,NA,NA,TRUE,2,0.382,1029.358,1032.353,0,64,64,4,1,7,32,NA,NA,NA,NA,NA,1,65,"likert"
"1F9B17C1B86646F4AAA96705205F46AE",1,"01990a98-c9a2-7ebb-843c-942f6ac8049e","01990a84-c4ee-73c2-a87b-ff46a7d3dde5","2025-09-02_06h25.20.752",NA,NA,1035.648,1035.648,1035.648,1035.999,NA,NA,NA,NA,NA,NA,NA,TRUE,3,1.544,1032.708,1035.647,0,65,65,95,1,150,54,NA,NA,NA,NA,NA,1,66,"likert"
"1F9B17C1B86646F4AAA96705205F46AE",1,"01990a98-c9a2-7ebb-843c-942f6ac8049e","01990a84-c4ee-73c2-a87b-ff46a7d3dde5","2025-09-02_06h25.20.752",NA,NA,1038.954,1038.954,1038.954,1039.322,NA,NA,NA,NA,NA,NA,NA,TRUE,3,0.544,1036.007,1038.954,0,66,66,8,1,10,27,NA,NA,NA,NA,NA,1,67,"likert"
"1F9B17C1B86646F4AAA96705205F46AE",1,"01990a98-c9a2-7ebb-843c-942f6ac8049e","01990a84-c4ee-73c2-a87b-ff46a7d3dde5","2025-09-02_06h25.20.752",NA,NA,1042.381,1042.381,1042.381,1042.749,NA,NA,NA,NA,NA,NA,NA,TRUE,3,0.006,1039.323,1042.381,0,67,67,51,1,40,40,NA,NA,NA,NA,NA,1,68,"likert"
"1F9B17C1B86646F4AAA96705205F46AE",1,"01990a98-c9a2-7ebb-843c-942f6ac8049e","01990a84-c4ee-73c2-a87b-ff46a7d3dde5","2025-09-02_06h25.20.752",NA,NA,1045.67,1045.67,1045.67,1046.05,NA,NA,NA,NA,NA,NA,NA,TRUE,3,0.517,1042.757,1045.67,0,68,68,49,1,40,33,NA,NA,NA,NA,NA,1,69,"likert"
"1F9B17C1B86646F4AAA96705205F46AE",1,"01990a98-c9a2-7ebb-843c-942f6ac8049e","01990a84-c4ee-73c2-a87b-ff46a7d3dde5","2025-09-02_06h25.20.752",NA,NA,1049.131,1049.131,1049.131,1049.368,NA,NA,NA,NA,NA,NA,NA,TRUE,3,0.937,1046.058,1049.131,0,69,69,5,1,7,35,NA,NA,NA,NA,NA,1,70,"likert"
"1F9B17C1B86646F4AAA96705205F46AE",1,"01990a98-c9a2-7ebb-843c-942f6ac8049e","01990a84-c4ee-73c2-a87b-ff46a7d3dde5","2025-09-02_06h25.20.752",NA,NA,1052.389,1052.39,1052.39,1052.748,NA,NA,NA,NA,NA,NA,NA,TRUE,3,1.022,1049.369,1052.389,0,70,70,11,1,10,32,NA,NA,NA,NA,NA,1,71,"likert"
"1F9B17C1B86646F4AAA96705205F46AE",1,"01990a98-c9a2-7ebb-843c-942f6ac8049e","01990a84-c4ee-73c2-a87b-ff46a7d3dde5","2025-09-02_06h25.20.752",NA,NA,1055.746,1055.746,1055.746,1056.099,NA,NA,NA,NA,NA,NA,NA,TRUE,3,0.009,1052.758,1055.746,0,71,71,22,1,14,35,NA,NA,NA,NA,NA,1,72,"likert"
"1F9B17C1B86646F4AAA96705205F46AE",1,"01990a98-c9a2-7ebb-843c-942f6ac8049e","01990a84-c4ee-73c2-a87b-ff46a7d3dde5","2025-09-02_06h25.20.752",NA,NA,1059.064,1059.064,1059.064,1059.418,NA,NA,NA,NA,NA,NA,NA,TRUE,3,0.695,1056.1,1059.063,0,72,72,73,1,90,30,NA,NA,NA,NA,NA,1,73,"likert"
"1F9B17C1B86646F4AAA96705205F46AE",1,"01990a98-c9a2-7ebb-843c-942f6ac8049e","01990a84-c4ee-73c2-a87b-ff46a7d3dde5","2025-09-02_06h25.20.752",NA,NA,1062.466,1062.466,1062.466,1062.83,NA,NA,NA,NA,NA,NA,NA,TRUE,3,0.905,1059.426,1062.466,0,73,73,97,1,180,31,NA,NA,NA,NA,NA,1,74,"likert"
"1F9B17C1B86646F4AAA96705205F46AE",1,"01990a98-c9a2-7ebb-843c-942f6ac8049e","01990a84-c4ee-73c2-a87b-ff46a7d3dde5","2025-09-02_06h25.20.752",NA,NA,1065.865,1065.865,1065.865,1066.147,NA,NA,NA,NA,NA,NA,NA,TRUE,3,0.828,1062.832,1065.865,0,74,74,106,1,200,47,NA,NA,NA,NA,NA,1,75,"likert"
"1F9B17C1B86646F4AAA96705205F46AE",1,"01990a98-c9a2-7ebb-843c-942f6ac8049e","01990a84-c4ee-73c2-a87b-ff46a7d3dde5","2025-09-02_06h25.20.752",NA,NA,1069.164,1069.164,1069.164,1069.533,NA,NA,NA,NA,NA,NA,NA,TRUE,3,0.796,1066.155,1069.164,0,75,75,46,1,30,32,NA,NA,NA,NA,NA,1,76,"likert"
"1F9B17C1B86646F4AAA96705205F46AE",1,"01990a98-c9a2-7ebb-843c-942f6ac8049e","01990a84-c4ee-73c2-a87b-ff46a7d3dde5","2025-09-02_06h25.20.752",NA,NA,1072.499,1072.499,1072.499,1072.869,NA,NA,NA,NA,NA,NA,NA,TRUE,3,1.176,1069.541,1072.498,0,76,76,44,1,30,29,NA,NA,NA,NA,NA,1,77,"likert"
"1F9B17C1B86646F4AAA96705205F46AE",1,"01990a98-c9a2-7ebb-843c-942f6ac8049e","01990a84-c4ee-73c2-a87b-ff46a7d3dde5","2025-09-02_06h25.20.752",NA,NA,1075.888,1075.888,1075.888,1076.252,NA,NA,NA,NA,NA,NA,NA,TRUE,3,1.359,1072.87,1075.888,0,77,77,37,1,28,28,NA,NA,NA,NA,NA,1,78,"likert"
"1F9B17C1B86646F4AAA96705205F46AE",1,"01990a98-c9a2-7ebb-843c-942f6ac8049e","01990a84-c4ee-73c2-a87b-ff46a7d3dde5","2025-09-02_06h25.20.752",NA,NA,1079.202,1079.202,1079.202,1079.579,NA,NA,NA,NA,NA,NA,NA,TRUE,3,1.667,1076.262,1079.202,0,78,78,13,1,12,26,NA,NA,NA,NA,NA,1,79,"likert"
"1F9B17C1B86646F4AAA96705205F46AE",1,"01990a98-c9a2-7ebb-843c-942f6ac8049e","01990a84-c4ee-73c2-a87b-ff46a7d3dde5","2025-09-02_06h25.20.752",NA,NA,1082.539,1082.539,1082.539,1082.908,NA,NA,NA,NA,NA,NA,NA,TRUE,4,0.005,1079.58,1082.539,0,79,79,2,1,7,28,NA,NA,NA,NA,NA,1,80,"likert"
"1F9B17C1B86646F4AAA96705205F46AE",1,"01990a98-c9a2-7ebb-843c-942f6ac8049e","01990a84-c4ee-73c2-a87b-ff46a7d3dde5","2025-09-02_06h25.20.752",NA,NA,1085.875,1085.875,1085.875,1086.247,NA,NA,NA,NA,NA,NA,NA,TRUE,4,0.937,1082.915,1085.874,0,80,80,71,1,60,54,NA,NA,NA,NA,NA,1,81,"likert"
"1F9B17C1B86646F4AAA96705205F46AE",1,"01990a98-c9a2-7ebb-843c-942f6ac8049e","01990a84-c4ee-73c2-a87b-ff46a7d3dde5","2025-09-02_06h25.20.752",NA,NA,1089.312,1089.558,1089.558,1089.558,NA,NA,NA,NA,NA,NA,NA,FALSE,NA,NA,1086.248,1089.312,0,81,81,24,1,21,26,NA,NA,NA,NA,NA,1,82,"likert"
"1F9B17C1B86646F4AAA96705205F46AE",1,"01990a98-c9a2-7ebb-843c-942f6ac8049e","01990a84-c4ee-73c2-a87b-ff46a7d3dde5","2025-09-02_06h25.20.752",NA,NA,1092.556,1092.556,1092.556,1092.937,NA,NA,NA,NA,NA,NA,NA,TRUE,5,2.371,1089.566,1092.556,0,82,82,53,1,40,54,NA,NA,NA,NA,NA,1,83,"likert"
"1F9B17C1B86646F4AAA96705205F46AE",1,"01990a98-c9a2-7ebb-843c-942f6ac8049e","01990a84-c4ee-73c2-a87b-ff46a7d3dde5","2025-09-02_06h25.20.752",NA,NA,1095.905,1095.905,1095.905,1096.264,NA,NA,NA,NA,NA,NA,NA,TRUE,5,0.943,1092.939,1095.905,0,83,83,9,1,10,29,NA,NA,NA,NA,NA,1,84,"likert"
"1F9B17C1B86646F4AAA96705205F46AE",1,"01990a98-c9a2-7ebb-843c-942f6ac8049e","01990a84-c4ee-73c2-a87b-ff46a7d3dde5","2025-09-02_06h25.20.752",NA,NA,1099.341,1099.341,1099.341,1099.689,NA,NA,NA,NA,NA,NA,NA,TRUE,5,1.294,1096.272,1099.341,0,84,84,48,1,40,27,NA,NA,NA,NA,NA,1,85,"likert"
"1F9B17C1B86646F4AAA96705205F46AE",1,"01990a98-c9a2-7ebb-843c-942f6ac8049e","01990a84-c4ee-73c2-a87b-ff46a7d3dde5","2025-09-02_06h25.20.752",NA,NA,1102.646,1102.646,1102.646,1103.007,NA,NA,NA,NA,NA,NA,NA,TRUE,4,0.4,1099.697,1102.646,0,85,85,30,1,25,27,NA,NA,NA,NA,NA,1,86,"likert"
"1F9B17C1B86646F4AAA96705205F46AE",1,"01990a98-c9a2-7ebb-843c-942f6ac8049e","01990a84-c4ee-73c2-a87b-ff46a7d3dde5","2025-09-02_06h25.20.752",NA,NA,1105.946,1105.946,1105.946,1106.312,NA,NA,NA,NA,NA,NA,NA,TRUE,4,0.27,1103.009,1105.946,0,86,86,107,1,200,54,NA,NA,NA,NA,NA,1,87,"likert"
"1F9B17C1B86646F4AAA96705205F46AE",1,"01990a98-c9a2-7ebb-843c-942f6ac8049e","01990a84-c4ee-73c2-a87b-ff46a7d3dde5","2025-09-02_06h25.20.752",NA,NA,1109.365,1109.365,1109.365,1109.729,NA,NA,NA,NA,NA,NA,NA,TRUE,4,1.062,1106.32,1109.364,0,87,87,67,1,60,33,NA,NA,NA,NA,NA,1,88,"likert"
"1F9B17C1B86646F4AAA96705205F46AE",1,"01990a98-c9a2-7ebb-843c-942f6ac8049e","01990a84-c4ee-73c2-a87b-ff46a7d3dde5","2025-09-02_06h25.20.752",NA,NA,1112.716,1112.716,1112.716,1113.09,NA,NA,NA,NA,NA,NA,NA,TRUE,4,0.673,1109.73,1112.715,0,88,88,25,1,21,27,NA,NA,NA,NA,NA,1,89,"likert"
"1F9B17C1B86646F4AAA96705205F46AE",1,"01990a98-c9a2-7ebb-843c-942f6ac8049e","01990a84-c4ee-73c2-a87b-ff46a7d3dde5","2025-09-02_06h25.20.752",NA,NA,1115.996,1115.997,1115.997,1116.464,NA,NA,NA,NA,NA,NA,NA,TRUE,3,0.837,1113.098,1115.996,0,89,89,52,1,40,47,NA,NA,NA,NA,NA,1,90,"likert"
"1F9B17C1B86646F4AAA96705205F46AE",1,"01990a98-c9a2-7ebb-843c-942f6ac8049e","01990a84-c4ee-73c2-a87b-ff46a7d3dde5","2025-09-02_06h25.20.752",NA,NA,1119.449,1119.449,1119.449,1119.805,NA,NA,NA,NA,NA,NA,NA,TRUE,3,1.192,1116.465,1119.449,0,90,90,99,1,180,39,NA,NA,NA,NA,NA,1,91,"likert"
"1F9B17C1B86646F4AAA96705205F46AE",1,"01990a98-c9a2-7ebb-843c-942f6ac8049e","01990a84-c4ee-73c2-a87b-ff46a7d3dde5","2025-09-02_06h25.20.752",NA,NA,1122.795,1122.795,1122.795,1123.164,NA,NA,NA,NA,NA,NA,NA,TRUE,3,1.345,1119.814,1122.795,0,91,91,31,1,25,29,NA,NA,NA,NA,NA,1,92,"likert"
"1F9B17C1B86646F4AAA96705205F46AE",1,"01990a98-c9a2-7ebb-843c-942f6ac8049e","01990a84-c4ee-73c2-a87b-ff46a7d3dde5","2025-09-02_06h25.20.752",NA,NA,1126.095,1126.095,1126.095,1126.445,NA,NA,NA,NA,NA,NA,NA,TRUE,3,0.138,1123.172,1126.095,0,92,92,32,1,25,31,NA,NA,NA,NA,NA,1,93,"likert"
"1F9B17C1B86646F4AAA96705205F46AE",1,"01990a98-c9a2-7ebb-843c-942f6ac8049e","01990a84-c4ee-73c2-a87b-ff46a7d3dde5","2025-09-02_06h25.20.752",NA,NA,1129.455,1129.455,1129.455,1129.83,NA,NA,NA,NA,NA,NA,NA,TRUE,3,0.682,1126.446,1129.455,0,93,93,78,1,95,31,NA,NA,NA,NA,NA,1,94,"likert"
"1F9B17C1B86646F4AAA96705205F46AE",1,"01990a98-c9a2-7ebb-843c-942f6ac8049e","01990a84-c4ee-73c2-a87b-ff46a7d3dde5","2025-09-02_06h25.20.752",NA,NA,1132.767,1132.767,1132.767,1133.115,NA,NA,NA,NA,NA,NA,NA,TRUE,3,2.733,1129.838,1132.767,0,94,94,90,1,150,31,NA,NA,NA,NA,NA,1,95,"likert"
"1F9B17C1B86646F4AAA96705205F46AE",1,"01990a98-c9a2-7ebb-843c-942f6ac8049e","01990a84-c4ee-73c2-a87b-ff46a7d3dde5","2025-09-02_06h25.20.752",NA,NA,1136.178,1136.178,1136.178,1136.54,NA,NA,NA,NA,NA,NA,NA,TRUE,3,1.286,1133.116,1136.178,0,95,95,59,1,45,46,NA,NA,NA,NA,NA,1,96,"likert"
"1F9B17C1B86646F4AAA96705205F46AE",1,"01990a98-c9a2-7ebb-843c-942f6ac8049e","01990a84-c4ee-73c2-a87b-ff46a7d3dde5","2025-09-02_06h25.20.752",NA,NA,1139.539,1139.539,1139.539,1139.896,NA,NA,NA,NA,NA,NA,NA,TRUE,3,0.546,1136.548,1139.539,0,96,96,18,1,14,25,NA,NA,NA,NA,NA,1,97,"likert"
"1F9B17C1B86646F4AAA96705205F46AE",1,"01990a98-c9a2-7ebb-843c-942f6ac8049e","01990a84-c4ee-73c2-a87b-ff46a7d3dde5","2025-09-02_06h25.20.752",NA,NA,1142.822,1142.822,1142.822,1143.178,NA,NA,NA,NA,NA,NA,NA,TRUE,3,0.514,1139.897,1142.821,0,97,97,76,1,90,46,NA,NA,NA,NA,NA,1,98,"likert"
"1F9B17C1B86646F4AAA96705205F46AE",1,"01990a98-c9a2-7ebb-843c-942f6ac8049e","01990a84-c4ee-73c2-a87b-ff46a7d3dde5","2025-09-02_06h25.20.752",NA,NA,1146.215,1146.215,1146.215,1146.579,NA,NA,NA,NA,NA,NA,NA,TRUE,4,1.138,1143.185,1146.215,0,98,98,19,1,14,26,NA,NA,NA,NA,NA,1,99,"likert"
"1F9B17C1B86646F4AAA96705205F46AE",1,"01990a98-c9a2-7ebb-843c-942f6ac8049e","01990a84-c4ee-73c2-a87b-ff46a7d3dde5","2025-09-02_06h25.20.752",NA,NA,1149.56,1149.56,1149.56,1149.91,NA,NA,NA,NA,NA,NA,NA,TRUE,4,0.398,1146.58,1149.56,0,99,99,17,1,12,35,NA,NA,NA,NA,NA,1,100,"likert"
"1F9B17C1B86646F4AAA96705205F46AE",1,"01990a98-c9a2-7ebb-843c-942f6ac8049e","01990a84-c4ee-73c2-a87b-ff46a7d3dde5","2025-09-02_06h25.20.752",NA,NA,1152.943,1152.943,1152.943,1153.294,NA,NA,NA,NA,NA,NA,NA,TRUE,3,0.643,1149.917,1152.943,0,100,100,104,1,200,35,NA,NA,NA,NA,NA,1,101,"likert"
"1F9B17C1B86646F4AAA96705205F46AE",1,"01990a98-c9a2-7ebb-843c-942f6ac8049e","01990a84-c4ee-73c2-a87b-ff46a7d3dde5","2025-09-02_06h25.20.752",NA,NA,1156.231,1156.231,1156.231,1156.579,NA,NA,NA,NA,NA,NA,NA,TRUE,3,0.509,1153.303,1156.23,0,101,101,28,1,21,32,NA,NA,NA,NA,NA,1,102,"likert"
"1F9B17C1B86646F4AAA96705205F46AE",1,"01990a98-c9a2-7ebb-843c-942f6ac8049e","01990a84-c4ee-73c2-a87b-ff46a7d3dde5","2025-09-02_06h25.20.752",NA,NA,1159.572,1159.572,1159.572,1159.923,NA,NA,NA,NA,NA,NA,NA,TRUE,3,0.773,1156.58,1159.571,0,102,102,57,1,45,35,NA,NA,NA,NA,NA,1,103,"likert"
"1F9B17C1B86646F4AAA96705205F46AE",1,"01990a98-c9a2-7ebb-843c-942f6ac8049e","01990a84-c4ee-73c2-a87b-ff46a7d3dde5","2025-09-02_06h25.20.752",NA,NA,1162.911,1162.911,1162.911,1163.261,NA,NA,NA,NA,NA,NA,NA,TRUE,2,0.136,1159.932,1162.91,0,103,103,69,1,60,40,NA,NA,NA,NA,NA,1,104,"likert"
"1F9B17C1B86646F4AAA96705205F46AE",1,"01990a98-c9a2-7ebb-843c-942f6ac8049e","01990a84-c4ee-73c2-a87b-ff46a7d3dde5","2025-09-02_06h25.20.752",NA,NA,1166.349,1166.349,1166.349,1166.614,NA,NA,NA,NA,NA,NA,NA,TRUE,3,0.004,1163.262,1166.349,0,104,104,38,1,28,32,NA,NA,NA,NA,NA,1,105,"likert"
"1F9B17C1B86646F4AAA96705205F46AE",1,"01990a98-c9a2-7ebb-843c-942f6ac8049e","01990a84-c4ee-73c2-a87b-ff46a7d3dde5","2025-09-02_06h25.20.752",NA,NA,1169.652,1169.652,1169.652,1170.01,NA,NA,NA,NA,NA,NA,NA,TRUE,3,0.942,1166.622,1169.652,0,105,105,101,1,180,54,NA,NA,NA,NA,NA,1,106,"likert"
"1F9B17C1B86646F4AAA96705205F46AE",1,"01990a98-c9a2-7ebb-843c-942f6ac8049e","01990a84-c4ee-73c2-a87b-ff46a7d3dde5","2025-09-02_06h25.20.752",NA,NA,1173.059,1173.059,1173.059,1173.414,NA,NA,NA,NA,NA,NA,NA,TRUE,3,0.901,1170.011,1173.059,0,106,106,83,1,95,54,NA,NA,NA,NA,NA,1,107,"likert"
"1F9B17C1B86646F4AAA96705205F46AE",1,"01990a98-c9a2-7ebb-843c-942f6ac8049e","01990a84-c4ee-73c2-a87b-ff46a7d3dde5","2025-09-02_06h25.20.752",NA,NA,1176.376,1176.376,1176.376,1176.751,NA,NA,NA,NA,NA,NA,NA,TRUE,3,0.898,1173.422,1176.376,0,107,107,21,1,14,32,NA,NA,NA,NA,NA,1,108,"likert"
"1F9B17C1B86646F4AAA96705205F46AE",1,"01990a98-c9a2-7ebb-843c-942f6ac8049e","01990a84-c4ee-73c2-a87b-ff46a7d3dde5","2025-09-02_06h25.20.752",NA,NA,1189.249,1189.249,1189.249,1189.613,NA,NA,NA,NA,NA,NA,NA,TRUE,3,2.641,1186.351,1189.249,NA,NA,NA,NA,NA,30,30,0,0,0,45,1,2,1,"likert"
"1F9B17C1B86646F4AAA96705205F46AE",1,"01990a98-c9a2-7ebb-843c-942f6ac8049e","01990a84-c4ee-73c2-a87b-ff46a7d3dde5","2025-09-02_06h25.20.752",NA,NA,1192.611,1192.612,1192.612,1192.977,NA,NA,NA,NA,NA,NA,NA,TRUE,3,1.089,1189.622,1192.611,NA,NA,NA,NA,NA,95,47,0,1,1,82,1,2,2,"likert"
"1F9B17C1B86646F4AAA96705205F46AE",1,"01990a98-c9a2-7ebb-843c-942f6ac8049e","01990a84-c4ee-73c2-a87b-ff46a7d3dde5","2025-09-02_06h25.20.752",NA,NA,1196.003,1196.003,1196.003,1196.365,NA,NA,NA,NA,NA,NA,NA,TRUE,4,2.737,1192.978,1196.003,NA,NA,NA,NA,NA,100,54,0,2,2,89,1,2,3,"likert"
"1F9B17C1B86646F4AAA96705205F46AE",1,"01990a98-c9a2-7ebb-843c-942f6ac8049e","01990a84-c4ee-73c2-a87b-ff46a7d3dde5","2025-09-02_06h25.20.752",NA,NA,1199.343,1199.343,1199.343,1199.693,NA,NA,NA,NA,NA,NA,NA,TRUE,2,0.005,1196.373,1199.343,NA,NA,NA,NA,NA,95,35,0,3,3,80,1,2,4,"likert"
"1F9B17C1B86646F4AAA96705205F46AE",1,"01990a98-c9a2-7ebb-843c-942f6ac8049e","01990a84-c4ee-73c2-a87b-ff46a7d3dde5","2025-09-02_06h25.20.752",NA,NA,1202.63,1202.63,1202.63,1203.099,NA,NA,NA,NA,NA,NA,NA,TRUE,2,0.667,1199.694,1202.63,NA,NA,NA,NA,NA,12,35,0,4,4,17,1,2,5,"likert"
"1F9B17C1B86646F4AAA96705205F46AE",1,"01990a98-c9a2-7ebb-843c-942f6ac8049e","01990a84-c4ee-73c2-a87b-ff46a7d3dde5","2025-09-02_06h25.20.752",NA,NA,1206.012,1206.012,1206.012,1206.376,NA,NA,NA,NA,NA,NA,NA,TRUE,2,2.694,1203.106,1206.011,NA,NA,NA,NA,NA,14,28,0,5,5,20,1,2,6,"likert"
"1F9B17C1B86646F4AAA96705205F46AE",1,"01990a98-c9a2-7ebb-843c-942f6ac8049e","01990a84-c4ee-73c2-a87b-ff46a7d3dde5","2025-09-02_06h25.20.752",NA,NA,1209.335,1209.695,1209.695,1209.695,NA,NA,NA,NA,NA,NA,NA,FALSE,NA,NA,1206.377,1209.335,NA,NA,NA,NA,NA,12,25,0,6,6,12,1,2,7,"likert"
"1F9B17C1B86646F4AAA96705205F46AE",1,"01990a98-c9a2-7ebb-843c-942f6ac8049e","01990a84-c4ee-73c2-a87b-ff46a7d3dde5","2025-09-02_06h25.20.752",NA,NA,1212.778,1212.778,1212.778,1213.141,NA,NA,NA,NA,NA,NA,NA,TRUE,3,2.435,1209.703,1212.778,NA,NA,NA,NA,NA,100,31,0,7,7,85,1,2,8,"likert"
"1F9B17C1B86646F4AAA96705205F46AE",1,"01990a98-c9a2-7ebb-843c-942f6ac8049e","01990a84-c4ee-73c2-a87b-ff46a7d3dde5","2025-09-02_06h25.20.752",NA,NA,1216.108,1216.108,1216.108,1216.479,NA,NA,NA,NA,NA,NA,NA,TRUE,2,1.709,1213.149,1216.108,NA,NA,NA,NA,NA,50,30,0,8,8,61,1,2,9,"likert"
"1F9B17C1B86646F4AAA96705205F46AE",1,"01990a98-c9a2-7ebb-843c-942f6ac8049e","01990a84-c4ee-73c2-a87b-ff46a7d3dde5","2025-09-02_06h25.20.752",NA,NA,1219.508,1219.508,1219.508,1219.749,NA,NA,NA,NA,NA,NA,NA,TRUE,2,0.273,1216.48,1219.508,NA,NA,NA,NA,NA,14,39,0,9,9,23,1,2,10,"likert"
"1F9B17C1B86646F4AAA96705205F46AE",1,"01990a98-c9a2-7ebb-843c-942f6ac8049e","01990a84-c4ee-73c2-a87b-ff46a7d3dde5","2025-09-02_06h25.20.752",NA,NA,1222.802,1222.802,1222.802,1223.162,NA,NA,NA,NA,NA,NA,NA,TRUE,3,0.795,1219.756,1222.802,NA,NA,NA,NA,NA,10,32,0,10,10,11,1,2,11,"likert"
"1F9B17C1B86646F4AAA96705205F46AE",1,"01990a98-c9a2-7ebb-843c-942f6ac8049e","01990a84-c4ee-73c2-a87b-ff46a7d3dde5","2025-09-02_06h25.20.752",NA,NA,1226.129,1226.129,1226.129,1226.5,NA,NA,NA,NA,NA,NA,NA,TRUE,3,0.661,1223.163,1226.128,NA,NA,NA,NA,NA,10,29,0,11,11,9,1,2,12,"likert"
"1F9B17C1B86646F4AAA96705205F46AE",1,"01990a98-c9a2-7ebb-843c-942f6ac8049e","01990a84-c4ee-73c2-a87b-ff46a7d3dde5","2025-09-02_06h25.20.752",NA,NA,1229.491,1229.491,1229.491,1229.867,NA,NA,NA,NA,NA,NA,NA,TRUE,3,0.694,1226.507,1229.491,NA,NA,NA,NA,NA,21,30,0,12,12,27,1,2,13,"likert"
"1F9B17C1B86646F4AAA96705205F46AE",1,"01990a98-c9a2-7ebb-843c-942f6ac8049e","01990a84-c4ee-73c2-a87b-ff46a7d3dde5","2025-09-02_06h25.20.752",NA,NA,1232.868,1232.868,1232.868,1233.234,NA,NA,NA,NA,NA,NA,NA,TRUE,2,0.647,1229.869,1232.868,NA,NA,NA,NA,NA,50,35,0,13,13,62,1,2,14,"likert"
"1F9B17C1B86646F4AAA96705205F46AE",1,"01990a98-c9a2-7ebb-843c-942f6ac8049e","01990a84-c4ee-73c2-a87b-ff46a7d3dde5","2025-09-02_06h25.20.752",NA,NA,1236.206,1236.206,1236.206,1236.573,NA,NA,NA,NA,NA,NA,NA,TRUE,1,1.56,1233.243,1236.206,NA,NA,NA,NA,NA,100,26,0,14,14,84,1,2,15,"likert"
"1F9B17C1B86646F4AAA96705205F46AE",1,"01990a98-c9a2-7ebb-843c-942f6ac8049e","01990a84-c4ee-73c2-a87b-ff46a7d3dde5","2025-09-02_06h25.20.752",NA,NA,1239.604,1239.604,1239.604,1239.839,NA,NA,NA,NA,NA,NA,NA,TRUE,1,0.393,1236.581,1239.603,NA,NA,NA,NA,NA,50,46,0,15,15,64,1,2,16,"likert"
"1F9B17C1B86646F4AAA96705205F46AE",1,"01990a98-c9a2-7ebb-843c-942f6ac8049e","01990a84-c4ee-73c2-a87b-ff46a7d3dde5","2025-09-02_06h25.20.752",NA,NA,1242.893,1242.893,1242.893,1243.242,NA,NA,NA,NA,NA,NA,NA,TRUE,1,2.901,1239.84,1242.893,NA,NA,NA,NA,NA,28,28,0,16,16,37,1,2,17,"likert"
"1F9B17C1B86646F4AAA96705205F46AE",1,"01990a98-c9a2-7ebb-843c-942f6ac8049e","01990a84-c4ee-73c2-a87b-ff46a7d3dde5","2025-09-02_06h25.20.752",NA,NA,1246.193,1246.193,1246.193,1246.547,NA,NA,NA,NA,NA,NA,NA,TRUE,2,0.136,1243.249,1246.193,NA,NA,NA,NA,NA,40,47,0,17,17,52,1,2,18,"likert"
"1F9B17C1B86646F4AAA96705205F46AE",1,"01990a98-c9a2-7ebb-843c-942f6ac8049e","01990a84-c4ee-73c2-a87b-ff46a7d3dde5","2025-09-02_06h25.20.752",NA,NA,1249.578,1249.578,1249.578,1249.943,NA,NA,NA,NA,NA,NA,NA,TRUE,2,0.385,1246.548,1249.578,NA,NA,NA,NA,NA,40,35,0,18,18,50,1,2,19,"likert"
"1F9B17C1B86646F4AAA96705205F46AE",1,"01990a98-c9a2-7ebb-843c-942f6ac8049e","01990a84-c4ee-73c2-a87b-ff46a7d3dde5","2025-09-02_06h25.20.752",NA,NA,1253.012,1253.012,1253.012,1253.261,NA,NA,NA,NA,NA,NA,NA,TRUE,3,0.533,1249.951,1253.012,NA,NA,NA,NA,NA,90,26,0,19,19,72,1,2,20,"likert"
"1F9B17C1B86646F4AAA96705205F46AE",1,"01990a98-c9a2-7ebb-843c-942f6ac8049e","01990a84-c4ee-73c2-a87b-ff46a7d3dde5","2025-09-02_06h25.20.752",NA,NA,1256.343,1256.343,1256.343,1256.611,NA,NA,NA,NA,NA,NA,NA,TRUE,3,0.273,1253.262,1256.342,NA,NA,NA,NA,NA,12,31,0,20,20,15,1,2,21,"likert"
"1F9B17C1B86646F4AAA96705205F46AE",1,"01990a98-c9a2-7ebb-843c-942f6ac8049e","01990a84-c4ee-73c2-a87b-ff46a7d3dde5","2025-09-02_06h25.20.752",NA,NA,1259.623,1259.623,1259.623,1259.983,NA,NA,NA,NA,NA,NA,NA,TRUE,5,1.043,1256.618,1259.623,NA,NA,NA,NA,NA,100,39,0,21,21,87,1,2,22,"likert"
"1F9B17C1B86646F4AAA96705205F46AE",1,"01990a98-c9a2-7ebb-843c-942f6ac8049e","01990a84-c4ee-73c2-a87b-ff46a7d3dde5","2025-09-02_06h25.20.752",NA,NA,1263.018,1263.018,1263.018,1263.39,NA,NA,NA,NA,NA,NA,NA,TRUE,5,0.968,1259.985,1263.017,NA,NA,NA,NA,NA,200,26,0,22,22,102,1,2,23,"likert"
"1F9B17C1B86646F4AAA96705205F46AE",1,"01990a98-c9a2-7ebb-843c-942f6ac8049e","01990a84-c4ee-73c2-a87b-ff46a7d3dde5","2025-09-02_06h25.20.752",NA,NA,1266.33,1266.33,1266.33,1266.691,NA,NA,NA,NA,NA,NA,NA,TRUE,5,1.634,1263.402,1266.33,NA,NA,NA,NA,NA,100,38,0,23,23,86,1,2,24,"likert"
"1F9B17C1B86646F4AAA96705205F46AE",1,"01990a98-c9a2-7ebb-843c-942f6ac8049e","01990a84-c4ee-73c2-a87b-ff46a7d3dde5","2025-09-02_06h25.20.752",NA,NA,1269.68,1269.68,1269.68,1270.033,NA,NA,NA,NA,NA,NA,NA,TRUE,5,1.088,1266.692,1269.679,NA,NA,NA,NA,NA,150,47,0,24,24,94,1,2,25,"likert"
"1F9B17C1B86646F4AAA96705205F46AE",1,"01990a98-c9a2-7ebb-843c-942f6ac8049e","01990a84-c4ee-73c2-a87b-ff46a7d3dde5","2025-09-02_06h25.20.752",NA,NA,1273.105,1273.105,1273.105,1273.455,NA,NA,NA,NA,NA,NA,NA,TRUE,5,0.005,1270.04,1273.105,NA,NA,NA,NA,NA,30,29,0,25,25,44,1,2,26,"likert"
"1F9B17C1B86646F4AAA96705205F46AE",1,"01990a98-c9a2-7ebb-843c-942f6ac8049e","01990a84-c4ee-73c2-a87b-ff46a7d3dde5","2025-09-02_06h25.20.752",NA,NA,1276.372,1276.372,1276.372,1276.74,NA,NA,NA,NA,NA,NA,NA,TRUE,5,0.266,1273.463,1276.372,NA,NA,NA,NA,NA,25,35,0,26,26,34,1,2,27,"likert"
"1F9B17C1B86646F4AAA96705205F46AE",1,"01990a98-c9a2-7ebb-843c-942f6ac8049e","01990a84-c4ee-73c2-a87b-ff46a7d3dde5","2025-09-02_06h25.20.752",NA,NA,1279.807,1279.807,1279.807,1280.158,NA,NA,NA,NA,NA,NA,NA,TRUE,4,0.531,1276.741,1279.807,NA,NA,NA,NA,NA,25,33,0,27,27,33,1,2,28,"likert"
"1F9B17C1B86646F4AAA96705205F46AE",1,"01990a98-c9a2-7ebb-843c-942f6ac8049e","01990a84-c4ee-73c2-a87b-ff46a7d3dde5","2025-09-02_06h25.20.752",NA,NA,1283.125,1283.125,1283.125,1283.489,NA,NA,NA,NA,NA,NA,NA,TRUE,4,1.062,1280.166,1283.125,NA,NA,NA,NA,NA,200,35,0,28,28,104,1,2,29,"likert"
"1F9B17C1B86646F4AAA96705205F46AE",1,"01990a98-c9a2-7ebb-843c-942f6ac8049e","01990a84-c4ee-73c2-a87b-ff46a7d3dde5","2025-09-02_06h25.20.752",NA,NA,1286.438,1286.438,1286.438,1286.832,NA,NA,NA,NA,NA,NA,NA,TRUE,4,0.931,1283.49,1286.438,NA,NA,NA,NA,NA,7,32,0,29,29,4,1,2,30,"likert"
"1F9B17C1B86646F4AAA96705205F46AE",1,"01990a98-c9a2-7ebb-843c-942f6ac8049e","01990a84-c4ee-73c2-a87b-ff46a7d3dde5","2025-09-02_06h25.20.752",NA,NA,1289.815,1289.815,1289.815,1290.179,NA,NA,NA,NA,NA,NA,NA,TRUE,4,1.341,1286.84,1289.815,NA,NA,NA,NA,NA,14,32,0,30,30,21,1,2,31,"likert"
"1F9B17C1B86646F4AAA96705205F46AE",1,"01990a98-c9a2-7ebb-843c-942f6ac8049e","01990a84-c4ee-73c2-a87b-ff46a7d3dde5","2025-09-02_06h25.20.752",NA,NA,1293.093,1293.093,1293.093,1293.456,NA,NA,NA,NA,NA,NA,NA,TRUE,1,0.004,1290.187,1293.093,NA,NA,NA,NA,NA,14,35,0,31,31,22,1,2,32,"likert"
"1F9B17C1B86646F4AAA96705205F46AE",1,"01990a98-c9a2-7ebb-843c-942f6ac8049e","01990a84-c4ee-73c2-a87b-ff46a7d3dde5","2025-09-02_06h25.20.752",NA,NA,1296.548,1296.548,1296.548,1296.788,NA,NA,NA,NA,NA,NA,NA,TRUE,4,0.912,1293.457,1296.547,NA,NA,NA,NA,NA,200,39,0,32,32,105,1,2,33,"likert"
"1F9B17C1B86646F4AAA96705205F46AE",1,"01990a98-c9a2-7ebb-843c-942f6ac8049e","01990a84-c4ee-73c2-a87b-ff46a7d3dde5","2025-09-02_06h25.20.752",NA,NA,1299.865,1299.865,1299.865,1300.222,NA,NA,NA,NA,NA,NA,NA,TRUE,4,1.184,1296.796,1299.865,NA,NA,NA,NA,NA,25,31,0,33,33,32,1,2,34,"likert"
"1F9B17C1B86646F4AAA96705205F46AE",1,"01990a98-c9a2-7ebb-843c-942f6ac8049e","01990a84-c4ee-73c2-a87b-ff46a7d3dde5","2025-09-02_06h25.20.752",NA,NA,1303.253,1303.253,1303.253,1303.603,NA,NA,NA,NA,NA,NA,NA,TRUE,4,1.415,1300.223,1303.253,NA,NA,NA,NA,NA,180,27,0,34,34,96,1,2,35,"likert"
"1F9B17C1B86646F4AAA96705205F46AE",1,"01990a98-c9a2-7ebb-843c-942f6ac8049e","01990a84-c4ee-73c2-a87b-ff46a7d3dde5","2025-09-02_06h25.20.752",NA,NA,1306.537,1306.537,1306.537,1306.888,NA,NA,NA,NA,NA,NA,NA,TRUE,4,1.301,1303.611,1306.537,NA,NA,NA,NA,NA,45,40,0,35,35,58,1,2,36,"likert"
"1F9B17C1B86646F4AAA96705205F46AE",1,"01990a98-c9a2-7ebb-843c-942f6ac8049e","01990a84-c4ee-73c2-a87b-ff46a7d3dde5","2025-09-02_06h25.20.752",NA,NA,1309.924,1309.924,1309.924,1310.29,NA,NA,NA,NA,NA,NA,NA,TRUE,4,1.286,1306.889,1309.923,NA,NA,NA,NA,NA,150,33,0,36,36,91,1,2,37,"likert"
"1F9B17C1B86646F4AAA96705205F46AE",1,"01990a98-c9a2-7ebb-843c-942f6ac8049e","01990a84-c4ee-73c2-a87b-ff46a7d3dde5","2025-09-02_06h25.20.752",NA,NA,1313.221,1313.221,1313.221,1313.565,NA,NA,NA,NA,NA,NA,NA,TRUE,4,0.265,1310.298,1313.221,NA,NA,NA,NA,NA,95,40,0,37,37,81,1,2,38,"likert"
"1F9B17C1B86646F4AAA96705205F46AE",1,"01990a98-c9a2-7ebb-843c-942f6ac8049e","01990a84-c4ee-73c2-a87b-ff46a7d3dde5","2025-09-02_06h25.20.752",NA,NA,1316.607,1316.607,1316.607,1316.949,NA,NA,NA,NA,NA,NA,NA,TRUE,4,0.655,1313.566,1316.606,NA,NA,NA,NA,NA,14,26,0,38,38,19,1,2,39,"likert"
"1F9B17C1B86646F4AAA96705205F46AE",1,"01990a98-c9a2-7ebb-843c-942f6ac8049e","01990a84-c4ee-73c2-a87b-ff46a7d3dde5","2025-09-02_06h25.20.752",NA,NA,1320.01,1320.01,1320.01,1320.254,NA,NA,NA,NA,NA,NA,NA,TRUE,4,1.163,1316.957,1320.01,NA,NA,NA,NA,NA,90,46,0,39,39,76,1,2,40,"likert"
"1F9B17C1B86646F4AAA96705205F46AE",1,"01990a98-c9a2-7ebb-843c-942f6ac8049e","01990a84-c4ee-73c2-a87b-ff46a7d3dde5","2025-09-02_06h25.20.752",NA,NA,1323.323,1323.323,1323.323,1323.708,NA,NA,NA,NA,NA,NA,NA,TRUE,4,0.413,1320.262,1323.323,NA,NA,NA,NA,NA,12,28,0,40,40,14,1,2,41,"likert"
"1F9B17C1B86646F4AAA96705205F46AE",1,"01990a98-c9a2-7ebb-843c-942f6ac8049e","01990a84-c4ee-73c2-a87b-ff46a7d3dde5","2025-09-02_06h25.20.752",NA,NA,1326.703,1326.703,1326.703,1326.953,NA,NA,NA,NA,NA,NA,NA,TRUE,5,0.544,1323.71,1326.703,NA,NA,NA,NA,NA,21,27,0,41,41,25,1,2,42,"likert"
"1F9B17C1B86646F4AAA96705205F46AE",1,"01990a98-c9a2-7ebb-843c-942f6ac8049e","01990a84-c4ee-73c2-a87b-ff46a7d3dde5","2025-09-02_06h25.20.752",NA,NA,1329.957,1329.957,1329.957,1330.327,NA,NA,NA,NA,NA,NA,NA,TRUE,5,0.543,1326.961,1329.957,NA,NA,NA,NA,NA,150,35,0,42,42,92,1,2,43,"likert"
"1F9B17C1B86646F4AAA96705205F46AE",1,"01990a98-c9a2-7ebb-843c-942f6ac8049e","01990a84-c4ee-73c2-a87b-ff46a7d3dde5","2025-09-02_06h25.20.752",NA,NA,1333.37,1333.37,1333.37,1333.719,NA,NA,NA,NA,NA,NA,NA,TRUE,5,1.024,1330.328,1333.37,NA,NA,NA,NA,NA,90,33,0,43,43,74,1,2,44,"likert"
"1F9B17C1B86646F4AAA96705205F46AE",1,"01990a98-c9a2-7ebb-843c-942f6ac8049e","01990a84-c4ee-73c2-a87b-ff46a7d3dde5","2025-09-02_06h25.20.752",NA,NA,1336.771,1336.771,1336.771,1337.016,NA,NA,NA,NA,NA,NA,NA,TRUE,5,0.791,1333.727,1336.771,NA,NA,NA,NA,NA,90,54,0,44,44,77,1,2,45,"likert"
"1F9B17C1B86646F4AAA96705205F46AE",1,"01990a98-c9a2-7ebb-843c-942f6ac8049e","01990a84-c4ee-73c2-a87b-ff46a7d3dde5","2025-09-02_06h25.20.752",NA,NA,1340.071,1340.071,1340.071,1340.427,NA,NA,NA,NA,NA,NA,NA,TRUE,5,0.901,1337.017,1340.071,NA,NA,NA,NA,NA,21,38,0,45,45,29,1,2,46,"likert"
"1F9B17C1B86646F4AAA96705205F46AE",1,"01990a98-c9a2-7ebb-843c-942f6ac8049e","01990a84-c4ee-73c2-a87b-ff46a7d3dde5","2025-09-02_06h25.20.752",NA,NA,1343.431,1343.431,1343.431,1343.788,NA,NA,NA,NA,NA,NA,NA,TRUE,5,0.935,1340.435,1343.43,NA,NA,NA,NA,NA,60,47,0,46,46,70,1,2,47,"likert"
"1F9B17C1B86646F4AAA96705205F46AE",1,"01990a98-c9a2-7ebb-843c-942f6ac8049e","01990a84-c4ee-73c2-a87b-ff46a7d3dde5","2025-09-02_06h25.20.752",NA,NA,1346.739,1346.739,1346.739,1347.088,NA,NA,NA,NA,NA,NA,NA,TRUE,5,0.534,1343.795,1346.739,NA,NA,NA,NA,NA,45,31,0,47,47,56,1,2,48,"likert"
"1F9B17C1B86646F4AAA96705205F46AE",1,"01990a98-c9a2-7ebb-843c-942f6ac8049e","01990a84-c4ee-73c2-a87b-ff46a7d3dde5","2025-09-02_06h25.20.752",NA,NA,1350.072,1350.072,1350.072,1350.438,NA,NA,NA,NA,NA,NA,NA,TRUE,5,0.668,1347.089,1350.072,NA,NA,NA,NA,NA,12,33,0,48,48,16,1,2,49,"likert"
"1F9B17C1B86646F4AAA96705205F46AE",1,"01990a98-c9a2-7ebb-843c-942f6ac8049e","01990a84-c4ee-73c2-a87b-ff46a7d3dde5","2025-09-02_06h25.20.752",NA,NA,1353.503,1353.503,1353.503,1353.856,NA,NA,NA,NA,NA,NA,NA,TRUE,5,1.18,1350.448,1353.503,NA,NA,NA,NA,NA,12,26,0,49,49,13,1,2,50,"likert"
"1F9B17C1B86646F4AAA96705205F46AE",1,"01990a98-c9a2-7ebb-843c-942f6ac8049e","01990a84-c4ee-73c2-a87b-ff46a7d3dde5","2025-09-02_06h25.20.752",NA,NA,1356.847,1356.847,1356.847,1357.202,NA,NA,NA,NA,NA,NA,NA,TRUE,5,0.787,1353.857,1356.847,NA,NA,NA,NA,NA,10,26,0,50,50,7,1,2,51,"likert"
"1F9B17C1B86646F4AAA96705205F46AE",1,"01990a98-c9a2-7ebb-843c-942f6ac8049e","01990a84-c4ee-73c2-a87b-ff46a7d3dde5","2025-09-02_06h25.20.752",NA,NA,1360.195,1360.195,1360.195,1360.544,NA,NA,NA,NA,NA,NA,NA,TRUE,5,0.524,1357.209,1360.195,NA,NA,NA,NA,NA,25,29,0,51,51,31,1,2,52,"likert"
"1F9B17C1B86646F4AAA96705205F46AE",1,"01990a98-c9a2-7ebb-843c-942f6ac8049e","01990a84-c4ee-73c2-a87b-ff46a7d3dde5","2025-09-02_06h25.20.752",NA,NA,1363.555,1363.555,1363.556,1363.911,NA,NA,NA,NA,NA,NA,NA,TRUE,5,0.523,1360.545,1363.555,NA,NA,NA,NA,NA,7,28,0,52,52,2,1,2,53,"likert"
"1F9B17C1B86646F4AAA96705205F46AE",1,"01990a98-c9a2-7ebb-843c-942f6ac8049e","01990a84-c4ee-73c2-a87b-ff46a7d3dde5","2025-09-02_06h25.20.752",NA,NA,1366.793,1366.793,1366.793,1367.147,NA,NA,NA,NA,NA,NA,NA,TRUE,5,0.633,1363.918,1366.793,NA,NA,NA,NA,NA,21,32,0,53,53,28,1,2,54,"likert"
"1F9B17C1B86646F4AAA96705205F46AE",1,"01990a98-c9a2-7ebb-843c-942f6ac8049e","01990a84-c4ee-73c2-a87b-ff46a7d3dde5","2025-09-02_06h25.20.752",NA,NA,1370.168,1370.168,1370.168,1370.524,NA,NA,NA,NA,NA,NA,NA,TRUE,5,1.144,1367.148,1370.168,NA,NA,NA,NA,NA,45,35,0,54,54,57,1,2,55,"likert"
"1F9B17C1B86646F4AAA96705205F46AE",1,"01990a98-c9a2-7ebb-843c-942f6ac8049e","01990a84-c4ee-73c2-a87b-ff46a7d3dde5","2025-09-02_06h25.20.752",NA,NA,1373.544,1373.544,1373.544,1373.891,NA,NA,NA,NA,NA,NA,NA,TRUE,5,0.144,1370.531,1373.544,NA,NA,NA,NA,NA,30,38,0,55,55,47,1,2,56,"likert"
"1F9B17C1B86646F4AAA96705205F46AE",1,"01990a98-c9a2-7ebb-843c-942f6ac8049e","01990a84-c4ee-73c2-a87b-ff46a7d3dde5","2025-09-02_06h25.20.752",NA,NA,1376.843,1376.843,1376.843,1377.211,NA,NA,NA,NA,NA,NA,NA,TRUE,5,0.401,1373.893,1376.843,NA,NA,NA,NA,NA,28,46,0,56,56,41,1,2,57,"likert"
"1F9B17C1B86646F4AAA96705205F46AE",1,"01990a98-c9a2-7ebb-843c-942f6ac8049e","01990a84-c4ee-73c2-a87b-ff46a7d3dde5","2025-09-02_06h25.20.752",NA,NA,1380.286,1380.286,1380.286,1380.643,NA,NA,NA,NA,NA,NA,NA,TRUE,5,0.92,1377.218,1380.286,NA,NA,NA,NA,NA,40,54,0,57,57,53,1,2,58,"likert"
"1F9B17C1B86646F4AAA96705205F46AE",1,"01990a98-c9a2-7ebb-843c-942f6ac8049e","01990a84-c4ee-73c2-a87b-ff46a7d3dde5","2025-09-02_06h25.20.752",NA,NA,1383.573,1383.573,1383.573,1383.927,NA,NA,NA,NA,NA,NA,NA,TRUE,5,1.043,1380.65,1383.573,NA,NA,NA,NA,NA,25,46,0,58,58,35,1,2,59,"likert"
"1F9B17C1B86646F4AAA96705205F46AE",1,"01990a98-c9a2-7ebb-843c-942f6ac8049e","01990a84-c4ee-73c2-a87b-ff46a7d3dde5","2025-09-02_06h25.20.752",NA,NA,1386.925,1386.925,1386.925,1387.286,NA,NA,NA,NA,NA,NA,NA,TRUE,5,1.044,1383.929,1386.924,NA,NA,NA,NA,NA,25,27,0,59,59,30,1,2,60,"likert"
"1F9B17C1B86646F4AAA96705205F46AE",1,"01990a98-c9a2-7ebb-843c-942f6ac8049e","01990a84-c4ee-73c2-a87b-ff46a7d3dde5","2025-09-02_06h25.20.752",NA,NA,1390.36,1390.36,1390.36,1390.601,NA,NA,NA,NA,NA,NA,NA,TRUE,5,0.771,1387.294,1390.359,NA,NA,NA,NA,NA,95,33,0,60,60,79,1,2,61,"likert"
"1F9B17C1B86646F4AAA96705205F46AE",1,"01990a98-c9a2-7ebb-843c-942f6ac8049e","01990a84-c4ee-73c2-a87b-ff46a7d3dde5","2025-09-02_06h25.20.752",NA,NA,1393.622,1393.622,1393.622,1393.99,NA,NA,NA,NA,NA,NA,NA,TRUE,5,0.809,1390.602,1393.621,NA,NA,NA,NA,NA,150,40,0,61,61,93,1,2,62,"likert"
"1F9B17C1B86646F4AAA96705205F46AE",1,"01990a98-c9a2-7ebb-843c-942f6ac8049e","01990a84-c4ee-73c2-a87b-ff46a7d3dde5","2025-09-02_06h25.20.752",NA,NA,1397.001,1397.001,1397.001,1397.359,NA,NA,NA,NA,NA,NA,NA,TRUE,5,1.591,1393.998,1397.001,NA,NA,NA,NA,NA,28,26,0,62,62,36,1,2,63,"likert"
"1F9B17C1B86646F4AAA96705205F46AE",1,"01990a98-c9a2-7ebb-843c-942f6ac8049e","01990a84-c4ee-73c2-a87b-ff46a7d3dde5","2025-09-02_06h25.20.752",NA,NA,1400.418,1400.418,1400.418,1400.695,NA,NA,NA,NA,NA,NA,NA,TRUE,5,0.786,1397.367,1400.417,NA,NA,NA,NA,NA,21,26,0,63,63,24,1,2,64,"likert"
"1F9B17C1B86646F4AAA96705205F46AE",1,"01990a98-c9a2-7ebb-843c-942f6ac8049e","01990a84-c4ee-73c2-a87b-ff46a7d3dde5","2025-09-02_06h25.20.752",NA,NA,1403.739,1403.739,1403.739,1403.999,NA,NA,NA,NA,NA,NA,NA,TRUE,5,0.886,1400.696,1403.738,NA,NA,NA,NA,NA,40,33,0,64,64,49,1,2,65,"likert"
"1F9B17C1B86646F4AAA96705205F46AE",1,"01990a98-c9a2-7ebb-843c-942f6ac8049e","01990a84-c4ee-73c2-a87b-ff46a7d3dde5","2025-09-02_06h25.20.752",NA,NA,1407.001,1407.001,1407.001,1407.4,NA,NA,NA,NA,NA,NA,NA,TRUE,5,0.851,1404.008,1407.001,NA,NA,NA,NA,NA,21,29,0,65,65,26,1,2,66,"likert"
"1F9B17C1B86646F4AAA96705205F46AE",1,"01990a98-c9a2-7ebb-843c-942f6ac8049e","01990a84-c4ee-73c2-a87b-ff46a7d3dde5","2025-09-02_06h25.20.752",NA,NA,1410.357,1410.358,1410.358,1410.784,NA,NA,NA,NA,NA,NA,NA,TRUE,5,1.413,1407.401,1410.357,NA,NA,NA,NA,NA,60,40,0,66,66,69,1,2,67,"likert"
"1F9B17C1B86646F4AAA96705205F46AE",1,"01990a98-c9a2-7ebb-843c-942f6ac8049e","01990a84-c4ee-73c2-a87b-ff46a7d3dde5","2025-09-02_06h25.20.752",NA,NA,1413.734,1413.734,1413.734,1414.123,NA,NA,NA,NA,NA,NA,NA,TRUE,5,0.004,1410.793,1413.734,NA,NA,NA,NA,NA,60,54,0,67,67,71,1,2,68,"likert"
"1F9B17C1B86646F4AAA96705205F46AE",1,"01990a98-c9a2-7ebb-843c-942f6ac8049e","01990a84-c4ee-73c2-a87b-ff46a7d3dde5","2025-09-02_06h25.20.752",NA,NA,1417.034,1417.034,1417.034,1417.416,NA,NA,NA,NA,NA,NA,NA,TRUE,5,1.391,1414.124,1417.033,NA,NA,NA,NA,NA,45,26,0,68,68,54,1,2,69,"likert"
"1F9B17C1B86646F4AAA96705205F46AE",1,"01990a98-c9a2-7ebb-843c-942f6ac8049e","01990a84-c4ee-73c2-a87b-ff46a7d3dde5","2025-09-02_06h25.20.752",NA,NA,1420.485,1420.485,1420.485,1420.87,NA,NA,NA,NA,NA,NA,NA,TRUE,5,1.232,1417.429,1420.485,NA,NA,NA,NA,NA,45,29,0,69,69,55,1,2,70,"likert"
"1F9B17C1B86646F4AAA96705205F46AE",1,"01990a98-c9a2-7ebb-843c-942f6ac8049e","01990a84-c4ee-73c2-a87b-ff46a7d3dde5","2025-09-02_06h25.20.752",NA,NA,1423.783,1423.783,1423.783,1424.165,NA,NA,NA,NA,NA,NA,NA,TRUE,4,1.208,1420.883,1423.783,NA,NA,NA,NA,NA,100,46,0,70,70,88,1,2,71,"likert"
"1F9B17C1B86646F4AAA96705205F46AE",1,"01990a98-c9a2-7ebb-843c-942f6ac8049e","01990a84-c4ee-73c2-a87b-ff46a7d3dde5","2025-09-02_06h25.20.752",NA,NA,1427.204,1427.204,1427.204,1427.483,NA,NA,NA,NA,NA,NA,NA,TRUE,4,1.111,1424.166,1427.204,NA,NA,NA,NA,NA,7,30,0,71,71,3,1,2,72,"likert"
"1F9B17C1B86646F4AAA96705205F46AE",1,"01990a98-c9a2-7ebb-843c-942f6ac8049e","01990a84-c4ee-73c2-a87b-ff46a7d3dde5","2025-09-02_06h25.20.752",NA,NA,1430.538,1430.538,1430.538,1430.911,NA,NA,NA,NA,NA,NA,NA,TRUE,4,1.378,1427.497,1430.538,NA,NA,NA,NA,NA,50,54,0,72,72,65,1,2,73,"likert"
"1F9B17C1B86646F4AAA96705205F46AE",1,"01990a98-c9a2-7ebb-843c-942f6ac8049e","01990a84-c4ee-73c2-a87b-ff46a7d3dde5","2025-09-02_06h25.20.752",NA,NA,1433.791,1433.791,1433.791,1434.171,NA,NA,NA,NA,NA,NA,NA,TRUE,4,1.916,1430.912,1433.785,NA,NA,NA,NA,NA,95,31,0,73,73,78,1,2,74,"likert"
"1F9B17C1B86646F4AAA96705205F46AE",1,"01990a98-c9a2-7ebb-843c-942f6ac8049e","01990a84-c4ee-73c2-a87b-ff46a7d3dde5","2025-09-02_06h25.20.752",NA,NA,1437.267,1437.267,1437.267,1437.536,NA,NA,NA,NA,NA,NA,NA,TRUE,4,1.342,1434.183,1437.267,NA,NA,NA,NA,NA,10,27,0,74,74,8,1,2,75,"likert"
"1F9B17C1B86646F4AAA96705205F46AE",1,"01990a98-c9a2-7ebb-843c-942f6ac8049e","01990a84-c4ee-73c2-a87b-ff46a7d3dde5","2025-09-02_06h25.20.752",NA,NA,1440.536,1440.536,1440.536,1440.952,NA,NA,NA,NA,NA,NA,NA,TRUE,4,1.154,1437.538,1440.535,NA,NA,NA,NA,NA,180,46,0,75,75,100,1,2,76,"likert"
"1F9B17C1B86646F4AAA96705205F46AE",1,"01990a98-c9a2-7ebb-843c-942f6ac8049e","01990a84-c4ee-73c2-a87b-ff46a7d3dde5","2025-09-02_06h25.20.752",NA,NA,1443.923,1443.923,1443.923,1444.217,NA,NA,NA,NA,NA,NA,NA,TRUE,4,0.281,1440.964,1443.922,NA,NA,NA,NA,NA,180,31,0,76,76,97,1,2,77,"likert"
"1F9B17C1B86646F4AAA96705205F46AE",1,"01990a98-c9a2-7ebb-843c-942f6ac8049e","01990a84-c4ee-73c2-a87b-ff46a7d3dde5","2025-09-02_06h25.20.752",NA,NA,1447.192,1447.192,1447.192,1447.574,NA,NA,NA,NA,NA,NA,NA,TRUE,4,2.827,1444.235,1447.192,NA,NA,NA,NA,NA,28,35,0,77,77,39,1,2,78,"likert"
"1F9B17C1B86646F4AAA96705205F46AE",1,"01990a98-c9a2-7ebb-843c-942f6ac8049e","01990a84-c4ee-73c2-a87b-ff46a7d3dde5","2025-09-02_06h25.20.752",NA,NA,1450.583,1450.583,1450.583,1450.988,NA,NA,NA,NA,NA,NA,NA,TRUE,4,1.529,1447.575,1450.583,NA,NA,NA,NA,NA,90,40,0,78,78,75,1,2,79,"likert"
"1F9B17C1B86646F4AAA96705205F46AE",1,"01990a98-c9a2-7ebb-843c-942f6ac8049e","01990a84-c4ee-73c2-a87b-ff46a7d3dde5","2025-09-02_06h25.20.752",NA,NA,1454.016,1454.016,1454.016,1454.283,NA,NA,NA,NA,NA,NA,NA,TRUE,4,0.427,1451,1454.016,NA,NA,NA,NA,NA,150,31,0,79,79,90,1,2,80,"likert"
"1F9B17C1B86646F4AAA96705205F46AE",1,"01990a98-c9a2-7ebb-843c-942f6ac8049e","01990a84-c4ee-73c2-a87b-ff46a7d3dde5","2025-09-02_06h25.20.752",NA,NA,1457.318,1457.318,1457.318,1457.589,NA,NA,NA,NA,NA,NA,NA,TRUE,4,1,1454.285,1457.317,NA,NA,NA,NA,NA,150,54,0,80,80,95,1,2,81,"likert"
"1F9B17C1B86646F4AAA96705205F46AE",1,"01990a98-c9a2-7ebb-843c-942f6ac8049e","01990a84-c4ee-73c2-a87b-ff46a7d3dde5","2025-09-02_06h25.20.752",NA,NA,1460.635,1460.635,1460.635,1461.025,NA,NA,NA,NA,NA,NA,NA,TRUE,5,0.005,1457.601,1460.635,NA,NA,NA,NA,NA,60,29,0,81,81,66,1,2,82,"likert"
"1F9B17C1B86646F4AAA96705205F46AE",1,"01990a98-c9a2-7ebb-843c-942f6ac8049e","01990a84-c4ee-73c2-a87b-ff46a7d3dde5","2025-09-02_06h25.20.752",NA,NA,1463.967,1463.967,1463.967,1464.353,NA,NA,NA,NA,NA,NA,NA,TRUE,4,0.586,1461.038,1463.966,NA,NA,NA,NA,NA,50,40,0,82,82,63,1,2,83,"likert"
"1F9B17C1B86646F4AAA96705205F46AE",1,"01990a98-c9a2-7ebb-843c-942f6ac8049e","01990a84-c4ee-73c2-a87b-ff46a7d3dde5","2025-09-02_06h25.20.752",NA,NA,1467.375,1467.375,1467.375,1467.747,NA,NA,NA,NA,NA,NA,NA,TRUE,4,1.014,1464.355,1467.374,NA,NA,NA,NA,NA,200,54,0,83,83,107,1,2,84,"likert"
"1F9B17C1B86646F4AAA96705205F46AE",1,"01990a98-c9a2-7ebb-843c-942f6ac8049e","01990a84-c4ee-73c2-a87b-ff46a7d3dde5","2025-09-02_06h25.20.752",NA,NA,1470.668,1470.668,1470.668,1471.064,NA,NA,NA,NA,NA,NA,NA,TRUE,5,1.135,1467.758,1470.667,NA,NA,NA,NA,NA,180,39,0,84,84,99,1,2,85,"likert"
"1F9B17C1B86646F4AAA96705205F46AE",1,"01990a98-c9a2-7ebb-843c-942f6ac8049e","01990a84-c4ee-73c2-a87b-ff46a7d3dde5","2025-09-02_06h25.20.752",NA,NA,1474.008,1474.008,1474.008,1474.388,NA,NA,NA,NA,NA,NA,NA,TRUE,5,0.156,1471.065,1474.008,NA,NA,NA,NA,NA,10,25,0,85,85,6,1,2,86,"likert"
"1F9B17C1B86646F4AAA96705205F46AE",1,"01990a98-c9a2-7ebb-843c-942f6ac8049e","01990a84-c4ee-73c2-a87b-ff46a7d3dde5","2025-09-02_06h25.20.752",NA,NA,1477.398,1477.398,1477.398,1477.767,NA,NA,NA,NA,NA,NA,NA,TRUE,5,1.101,1474.399,1477.397,NA,NA,NA,NA,NA,60,33,0,86,86,67,1,2,87,"likert"
"1F9B17C1B86646F4AAA96705205F46AE",1,"01990a98-c9a2-7ebb-843c-942f6ac8049e","01990a84-c4ee-73c2-a87b-ff46a7d3dde5","2025-09-02_06h25.20.752",NA,NA,1480.682,1481.065,1481.065,1481.065,NA,NA,NA,NA,NA,NA,NA,FALSE,NA,NA,1477.769,1480.682,NA,NA,NA,NA,NA,7,25,0,87,87,0,1,2,88,"likert"
"1F9B17C1B86646F4AAA96705205F46AE",1,"01990a98-c9a2-7ebb-843c-942f6ac8049e","01990a84-c4ee-73c2-a87b-ff46a7d3dde5","2025-09-02_06h25.20.752",NA,NA,1484.055,1484.055,1484.055,1484.439,NA,NA,NA,NA,NA,NA,NA,TRUE,5,1.096,1481.077,1484.055,NA,NA,NA,NA,NA,180,54,0,88,88,101,1,2,89,"likert"
"1F9B17C1B86646F4AAA96705205F46AE",1,"01990a98-c9a2-7ebb-843c-942f6ac8049e","01990a84-c4ee-73c2-a87b-ff46a7d3dde5","2025-09-02_06h25.20.752",NA,NA,1487.436,1487.436,1487.436,1487.747,NA,NA,NA,NA,NA,NA,NA,TRUE,5,0.007,1484.453,1487.436,NA,NA,NA,NA,NA,30,27,0,89,89,43,1,2,90,"likert"
"1F9B17C1B86646F4AAA96705205F46AE",1,"01990a98-c9a2-7ebb-843c-942f6ac8049e","01990a84-c4ee-73c2-a87b-ff46a7d3dde5","2025-09-02_06h25.20.752",NA,NA,1490.75,1490.75,1490.75,1491.136,NA,NA,NA,NA,NA,NA,NA,TRUE,5,0.29,1487.748,1490.749,NA,NA,NA,NA,NA,90,30,0,90,90,73,1,2,91,"likert"
"1F9B17C1B86646F4AAA96705205F46AE",1,"01990a98-c9a2-7ebb-843c-942f6ac8049e","01990a84-c4ee-73c2-a87b-ff46a7d3dde5","2025-09-02_06h25.20.752",NA,NA,1494.199,1494.199,1494.199,1494.471,NA,NA,NA,NA,NA,NA,NA,TRUE,4,2.642,1491.147,1494.199,NA,NA,NA,NA,NA,40,40,0,91,91,51,1,2,92,"likert"
"1F9B17C1B86646F4AAA96705205F46AE",1,"01990a98-c9a2-7ebb-843c-942f6ac8049e","01990a84-c4ee-73c2-a87b-ff46a7d3dde5","2025-09-02_06h25.20.752",NA,NA,1497.538,1497.538,1497.538,1497.798,NA,NA,NA,NA,NA,NA,NA,TRUE,5,1.519,1494.473,1497.538,NA,NA,NA,NA,NA,95,54,0,92,92,83,1,2,93,"likert"
"1F9B17C1B86646F4AAA96705205F46AE",1,"01990a98-c9a2-7ebb-843c-942f6ac8049e","01990a84-c4ee-73c2-a87b-ff46a7d3dde5","2025-09-02_06h25.20.752",NA,NA,1500.898,1501.148,1501.148,1501.148,NA,NA,NA,NA,NA,NA,NA,FALSE,NA,NA,1497.809,1500.898,NA,NA,NA,NA,NA,28,32,0,93,93,38,1,2,94,"likert"
"1F9B17C1B86646F4AAA96705205F46AE",1,"01990a98-c9a2-7ebb-843c-942f6ac8049e","01990a84-c4ee-73c2-a87b-ff46a7d3dde5","2025-09-02_06h25.20.752",NA,NA,1504.147,1504.147,1504.148,1504.549,NA,NA,NA,NA,NA,NA,NA,TRUE,5,1.009,1501.149,1504.147,NA,NA,NA,NA,NA,45,46,0,94,94,59,1,2,95,"likert"
"1F9B17C1B86646F4AAA96705205F46AE",1,"01990a98-c9a2-7ebb-843c-942f6ac8049e","01990a84-c4ee-73c2-a87b-ff46a7d3dde5","2025-09-02_06h25.20.752",NA,NA,1507.558,1507.558,1507.558,1507.956,NA,NA,NA,NA,NA,NA,NA,TRUE,5,1.137,1504.563,1507.557,NA,NA,NA,NA,NA,28,39,0,95,95,40,1,2,96,"likert"
"1F9B17C1B86646F4AAA96705205F46AE",1,"01990a98-c9a2-7ebb-843c-942f6ac8049e","01990a84-c4ee-73c2-a87b-ff46a7d3dde5","2025-09-02_06h25.20.752",NA,NA,1510.907,1510.908,1510.908,1511.279,NA,NA,NA,NA,NA,NA,NA,TRUE,5,0.3,1507.968,1510.907,NA,NA,NA,NA,NA,30,32,0,96,96,46,1,2,97,"likert"
"1F9B17C1B86646F4AAA96705205F46AE",1,"01990a98-c9a2-7ebb-843c-942f6ac8049e","01990a84-c4ee-73c2-a87b-ff46a7d3dde5","2025-09-02_06h25.20.752",NA,NA,1514.317,1514.317,1514.317,1514.579,NA,NA,NA,NA,NA,NA,NA,TRUE,5,0.29,1511.28,1514.316,NA,NA,NA,NA,NA,14,25,0,97,97,18,1,2,98,"likert"
"1F9B17C1B86646F4AAA96705205F46AE",1,"01990a98-c9a2-7ebb-843c-942f6ac8049e","01990a84-c4ee-73c2-a87b-ff46a7d3dde5","2025-09-02_06h25.20.752",NA,NA,1517.514,1517.514,1517.514,1517.906,NA,NA,NA,NA,NA,NA,NA,TRUE,5,2.53,1514.588,1517.513,NA,NA,NA,NA,NA,7,26,0,98,98,1,1,2,99,"likert"
"1F9B17C1B86646F4AAA96705205F46AE",1,"01990a98-c9a2-7ebb-843c-942f6ac8049e","01990a84-c4ee-73c2-a87b-ff46a7d3dde5","2025-09-02_06h25.20.752",NA,NA,1520.955,1520.955,1520.955,1521.322,NA,NA,NA,NA,NA,NA,NA,TRUE,5,0.424,1517.907,1520.955,NA,NA,NA,NA,NA,7,35,0,99,99,5,1,2,100,"likert"
"1F9B17C1B86646F4AAA96705205F46AE",1,"01990a98-c9a2-7ebb-843c-942f6ac8049e","01990a84-c4ee-73c2-a87b-ff46a7d3dde5","2025-09-02_06h25.20.752",NA,NA,1524.25,1524.25,1524.25,1524.662,NA,NA,NA,NA,NA,NA,NA,TRUE,5,0.925,1521.332,1524.25,NA,NA,NA,NA,NA,200,47,0,100,100,106,1,2,101,"likert"
"1F9B17C1B86646F4AAA96705205F46AE",1,"01990a98-c9a2-7ebb-843c-942f6ac8049e","01990a84-c4ee-73c2-a87b-ff46a7d3dde5","2025-09-02_06h25.20.752",NA,NA,1527.695,1527.696,1527.696,1527.955,NA,NA,NA,NA,NA,NA,NA,TRUE,5,0.437,1524.663,1527.695,NA,NA,NA,NA,NA,180,35,0,101,101,98,1,2,102,"likert"
"1F9B17C1B86646F4AAA96705205F46AE",1,"01990a98-c9a2-7ebb-843c-942f6ac8049e","01990a84-c4ee-73c2-a87b-ff46a7d3dde5","2025-09-02_06h25.20.752",NA,NA,1530.95,1530.95,1530.95,1531.336,NA,NA,NA,NA,NA,NA,NA,TRUE,5,2.293,1527.964,1530.949,NA,NA,NA,NA,NA,40,27,0,102,102,48,1,2,103,"likert"
"1F9B17C1B86646F4AAA96705205F46AE",1,"01990a98-c9a2-7ebb-843c-942f6ac8049e","01990a84-c4ee-73c2-a87b-ff46a7d3dde5","2025-09-02_06h25.20.752",NA,NA,1534.291,1534.291,1534.291,1534.673,NA,NA,NA,NA,NA,NA,NA,TRUE,5,1.047,1531.337,1534.291,NA,NA,NA,NA,NA,60,35,0,103,103,68,1,2,104,"likert"
"1F9B17C1B86646F4AAA96705205F46AE",1,"01990a98-c9a2-7ebb-843c-942f6ac8049e","01990a84-c4ee-73c2-a87b-ff46a7d3dde5","2025-09-02_06h25.20.752",NA,NA,1537.7,1537.7,1537.7,1538.077,NA,NA,NA,NA,NA,NA,NA,TRUE,5,2.495,1534.681,1537.7,NA,NA,NA,NA,NA,10,30,0,104,104,10,1,2,105,"likert"
"1F9B17C1B86646F4AAA96705205F46AE",1,"01990a98-c9a2-7ebb-843c-942f6ac8049e","01990a84-c4ee-73c2-a87b-ff46a7d3dde5","2025-09-02_06h25.20.752",NA,NA,1541.005,1541.005,1541.005,1541.396,NA,NA,NA,NA,NA,NA,NA,TRUE,5,0.892,1538.086,1541.004,NA,NA,NA,NA,NA,30,26,0,105,105,42,1,2,106,"likert"
"1F9B17C1B86646F4AAA96705205F46AE",1,"01990a98-c9a2-7ebb-843c-942f6ac8049e","01990a84-c4ee-73c2-a87b-ff46a7d3dde5","2025-09-02_06h25.20.752",NA,NA,1544.381,1544.381,1544.381,1544.745,NA,NA,NA,NA,NA,NA,NA,TRUE,5,1.539,1541.397,1544.381,NA,NA,NA,NA,NA,50,27,0,106,106,60,1,2,107,"likert"
"1F9B17C1B86646F4AAA96705205F46AE",1,"01990a98-c9a2-7ebb-843c-942f6ac8049e","01990a84-c4ee-73c2-a87b-ff46a7d3dde5","2025-09-02_06h25.20.752",NA,NA,1547.754,1547.754,1547.754,1548.124,NA,NA,NA,NA,NA,NA,NA,TRUE,5,2.718,1544.754,1547.754,NA,NA,NA,NA,NA,200,28,0,107,107,103,1,2,108,"likert"
