"participant","session","assignmentId","projectId","date","practiceTrial.started","practiceTrial.stopped","tooLate.started","tooLate.stopped","blank.started","blank.stopped","trials_pract.thisRepN","trials_pract.thisTrialN","trials_pract.thisN","trials_pract.thisIndex","trials_pract.ran","delay_pract","amount_pract","responseMade","key","rt","trial.started","trial.stopped","trials.thisRepN","trials.thisTrialN","trials.thisN","trials.thisIndex","trials.ran","delay","amount","trials_2.thisRepN","trials_2.thisTrialN","trials_2.thisN","trials_2.thisIndex","trials_2.ran","block","trial","taskType"
"1FC94F7DD8044E74B009F03B525C6441",1,"0198f788-be95-76a9-997d-fc3d69db584c","0198f768-e4d2-711c-944b-6f03c09216de","2025-08-29_14h33.35.956",34.7229,37.6408,37.6422,37.6431,37.6434,37.9889,0,0,0,3,1,3,27,TRUE,3,2.3841,NA,NA,NA,NA,NA,NA,NA,NA,NA,NA,NA,NA,NA,NA,0,1,"likert"
"1FC94F7DD8044E74B009F03B525C6441",1,"0198f788-be95-76a9-997d-fc3d69db584c","0198f768-e4d2-711c-944b-6f03c09216de","2025-08-29_14h33.35.956",37.9916,40.9869,40.9872,41.2341,41.2342,41.3345,0,1,1,0,1,7,30,FALSE,NA,NA,NA,NA,NA,NA,NA,NA,NA,NA,NA,NA,NA,NA,NA,NA,0,2,"likert"
"1FC94F7DD8044E74B009F03B525C6441",1,"0198f788-be95-76a9-997d-fc3d69db584c","0198f768-e4d2-711c-944b-6f03c09216de","2025-08-29_14h33.35.956",41.3384,44.3363,44.3367,44.3368,44.3369,44.6839,0,2,2,1,1,100,50,TRUE,5,1.7526,NA,NA,NA,NA,NA,NA,NA,NA,NA,NA,NA,NA,NA,NA,0,3,"likert"
"1FC94F7DD8044E74B009F03B525C6441",1,"0198f788-be95-76a9-997d-fc3d69db584c","0198f768-e4d2-711c-944b-6f03c09216de","2025-08-29_14h33.35.956",44.6867,47.6943,47.6946,47.6946,47.6946,48.0415,0,3,3,4,1,30,40,TRUE,4,1.7986,NA,NA,NA,NA,NA,NA,NA,NA,NA,NA,NA,NA,NA,NA,0,4,"likert"
"1FC94F7DD8044E74B009F03B525C6441",1,"0198f788-be95-76a9-997d-fc3d69db584c","0198f768-e4d2-711c-944b-6f03c09216de","2025-08-29_14h33.35.956",48.0473,51.0387,51.039,51.0391,51.0391,51.3937,0,4,4,2,1,14,45,TRUE,5,2.4368,NA,NA,NA,NA,NA,NA,NA,NA,NA,NA,NA,NA,NA,NA,0,5,"likert"
"1FC94F7DD8044E74B009F03B525C6441",1,"0198f788-be95-76a9-997d-fc3d69db584c","0198f768-e4d2-711c-944b-6f03c09216de","2025-08-29_14h33.35.956",NA,NA,203.3156,203.317,203.3175,203.6618,NA,NA,NA,NA,NA,NA,NA,TRUE,4,2.0101,200.3914,203.3144,0,0,0,78,1,95,31,NA,NA,NA,NA,NA,1,1,"likert"
"1FC94F7DD8044E74B009F03B525C6441",1,"0198f788-be95-76a9-997d-fc3d69db584c","0198f768-e4d2-711c-944b-6f03c09216de","2025-08-29_14h33.35.956",NA,NA,206.6562,206.6564,206.6564,207.0053,NA,NA,NA,NA,NA,NA,NA,TRUE,4,1.7556,203.6649,206.6559,0,1,1,101,1,180,54,NA,NA,NA,NA,NA,1,2,"likert"
"1FC94F7DD8044E74B009F03B525C6441",1,"0198f788-be95-76a9-997d-fc3d69db584c","0198f768-e4d2-711c-944b-6f03c09216de","2025-08-29_14h33.35.956",NA,NA,210.0075,210.0076,210.0077,210.3638,NA,NA,NA,NA,NA,NA,NA,TRUE,5,1.3086,207.0084,210.0071,0,2,2,57,1,45,35,NA,NA,NA,NA,NA,1,3,"likert"
"1FC94F7DD8044E74B009F03B525C6441",1,"0198f788-be95-76a9-997d-fc3d69db584c","0198f768-e4d2-711c-944b-6f03c09216de","2025-08-29_14h33.35.956",NA,NA,213.364,213.3641,213.3641,213.7129,NA,NA,NA,NA,NA,NA,NA,TRUE,1,1.8333,210.3682,213.3637,0,3,3,18,1,14,25,NA,NA,NA,NA,NA,1,4,"likert"
"1FC94F7DD8044E74B009F03B525C6441",1,"0198f788-be95-76a9-997d-fc3d69db584c","0198f768-e4d2-711c-944b-6f03c09216de","2025-08-29_14h33.35.956",NA,NA,216.7197,216.7199,216.7199,217.0585,NA,NA,NA,NA,NA,NA,NA,TRUE,4,1.6607,213.7152,216.7194,0,4,4,11,1,10,32,NA,NA,NA,NA,NA,1,5,"likert"
"1FC94F7DD8044E74B009F03B525C6441",1,"0198f788-be95-76a9-997d-fc3d69db584c","0198f768-e4d2-711c-944b-6f03c09216de","2025-08-29_14h33.35.956",NA,NA,220.0631,220.0633,220.0633,220.4057,NA,NA,NA,NA,NA,NA,NA,TRUE,5,2.1218,217.0632,220.0629,0,5,5,61,1,50,30,NA,NA,NA,NA,NA,1,6,"likert"
"1FC94F7DD8044E74B009F03B525C6441",1,"0198f788-be95-76a9-997d-fc3d69db584c","0198f768-e4d2-711c-944b-6f03c09216de","2025-08-29_14h33.35.956",NA,NA,223.4036,223.4038,223.4039,223.7671,NA,NA,NA,NA,NA,NA,NA,TRUE,4,2.2363,220.4105,223.4033,0,6,6,42,1,30,26,NA,NA,NA,NA,NA,1,7,"likert"
"1FC94F7DD8044E74B009F03B525C6441",1,"0198f788-be95-76a9-997d-fc3d69db584c","0198f768-e4d2-711c-944b-6f03c09216de","2025-08-29_14h33.35.956",NA,NA,226.7624,226.7626,226.7627,227.1118,NA,NA,NA,NA,NA,NA,NA,TRUE,4,1.9225,223.7709,226.7621,0,7,7,9,1,10,29,NA,NA,NA,NA,NA,1,8,"likert"
"1FC94F7DD8044E74B009F03B525C6441",1,"0198f788-be95-76a9-997d-fc3d69db584c","0198f768-e4d2-711c-944b-6f03c09216de","2025-08-29_14h33.35.956",NA,NA,230.1111,230.1113,230.1114,230.4585,NA,NA,NA,NA,NA,NA,NA,TRUE,4,2.4983,227.1141,230.1105,0,8,8,31,1,25,29,NA,NA,NA,NA,NA,1,9,"likert"
"1FC94F7DD8044E74B009F03B525C6441",1,"0198f788-be95-76a9-997d-fc3d69db584c","0198f768-e4d2-711c-944b-6f03c09216de","2025-08-29_14h33.35.956",NA,NA,233.4533,233.4533,233.4534,233.8026,NA,NA,NA,NA,NA,NA,NA,TRUE,3,2.5214,230.4622,233.4531,0,9,9,19,1,14,26,NA,NA,NA,NA,NA,1,10,"likert"
"1FC94F7DD8044E74B009F03B525C6441",1,"0198f788-be95-76a9-997d-fc3d69db584c","0198f768-e4d2-711c-944b-6f03c09216de","2025-08-29_14h33.35.956",NA,NA,236.8174,236.8178,236.8179,237.1678,NA,NA,NA,NA,NA,NA,NA,TRUE,3,1.8565,233.8049,236.817,0,10,10,72,1,90,26,NA,NA,NA,NA,NA,1,11,"likert"
"1FC94F7DD8044E74B009F03B525C6441",1,"0198f788-be95-76a9-997d-fc3d69db584c","0198f768-e4d2-711c-944b-6f03c09216de","2025-08-29_14h33.35.956",NA,NA,240.1629,240.1629,240.1631,240.5109,NA,NA,NA,NA,NA,NA,NA,TRUE,5,1.7984,237.1715,240.1624,0,11,11,10,1,10,30,NA,NA,NA,NA,NA,1,12,"likert"
"1FC94F7DD8044E74B009F03B525C6441",1,"0198f788-be95-76a9-997d-fc3d69db584c","0198f768-e4d2-711c-944b-6f03c09216de","2025-08-29_14h33.35.956",NA,NA,243.5093,243.7574,243.7575,243.8557,NA,NA,NA,NA,NA,NA,NA,FALSE,NA,NA,240.5146,243.5088,0,12,12,104,1,200,35,NA,NA,NA,NA,NA,1,13,"likert"
"1FC94F7DD8044E74B009F03B525C6441",1,"0198f788-be95-76a9-997d-fc3d69db584c","0198f768-e4d2-711c-944b-6f03c09216de","2025-08-29_14h33.35.956",NA,NA,246.8694,246.8696,246.8698,247.2178,NA,NA,NA,NA,NA,NA,NA,TRUE,5,2.7197,243.858,246.8692,0,13,13,75,1,90,40,NA,NA,NA,NA,NA,1,14,"likert"
"1FC94F7DD8044E74B009F03B525C6441",1,"0198f788-be95-76a9-997d-fc3d69db584c","0198f768-e4d2-711c-944b-6f03c09216de","2025-08-29_14h33.35.956",NA,NA,250.2129,250.213,250.2131,250.5617,NA,NA,NA,NA,NA,NA,NA,TRUE,1,1.3919,247.2214,250.2127,0,14,14,0,1,7,25,NA,NA,NA,NA,NA,1,15,"likert"
"1FC94F7DD8044E74B009F03B525C6441",1,"0198f788-be95-76a9-997d-fc3d69db584c","0198f768-e4d2-711c-944b-6f03c09216de","2025-08-29_14h33.35.956",NA,NA,253.5632,253.5633,253.5634,253.9084,NA,NA,NA,NA,NA,NA,NA,TRUE,5,1.5602,250.5642,253.5628,0,15,15,46,1,30,32,NA,NA,NA,NA,NA,1,16,"likert"
"1FC94F7DD8044E74B009F03B525C6441",1,"0198f788-be95-76a9-997d-fc3d69db584c","0198f768-e4d2-711c-944b-6f03c09216de","2025-08-29_14h33.35.956",NA,NA,256.9046,256.9046,256.9046,257.256,NA,NA,NA,NA,NA,NA,NA,TRUE,5,2.3731,253.9109,256.9043,0,16,16,94,1,150,47,NA,NA,NA,NA,NA,1,17,"likert"
"1FC94F7DD8044E74B009F03B525C6441",1,"0198f788-be95-76a9-997d-fc3d69db584c","0198f768-e4d2-711c-944b-6f03c09216de","2025-08-29_14h33.35.956",NA,NA,260.2683,260.2685,260.2685,260.6183,NA,NA,NA,NA,NA,NA,NA,TRUE,5,2.6612,257.2585,260.2681,0,17,17,81,1,95,40,NA,NA,NA,NA,NA,1,18,"likert"
"1FC94F7DD8044E74B009F03B525C6441",1,"0198f788-be95-76a9-997d-fc3d69db584c","0198f768-e4d2-711c-944b-6f03c09216de","2025-08-29_14h33.35.956",NA,NA,263.6135,263.6136,263.6136,263.9622,NA,NA,NA,NA,NA,NA,NA,TRUE,5,1.7585,260.622,263.6131,0,18,18,50,1,40,35,NA,NA,NA,NA,NA,1,19,"likert"
"1FC94F7DD8044E74B009F03B525C6441",1,"0198f788-be95-76a9-997d-fc3d69db584c","0198f768-e4d2-711c-944b-6f03c09216de","2025-08-29_14h33.35.956",NA,NA,266.9587,266.9589,266.9593,267.3059,NA,NA,NA,NA,NA,NA,NA,TRUE,5,1.7456,263.9646,266.9583,0,19,19,51,1,40,40,NA,NA,NA,NA,NA,1,20,"likert"
"1FC94F7DD8044E74B009F03B525C6441",1,"0198f788-be95-76a9-997d-fc3d69db584c","0198f768-e4d2-711c-944b-6f03c09216de","2025-08-29_14h33.35.956",NA,NA,270.3204,270.3207,270.3208,270.6686,NA,NA,NA,NA,NA,NA,NA,TRUE,4,2.1277,267.3084,270.3199,0,20,20,60,1,50,27,NA,NA,NA,NA,NA,1,21,"likert"
"1FC94F7DD8044E74B009F03B525C6441",1,"0198f788-be95-76a9-997d-fc3d69db584c","0198f768-e4d2-711c-944b-6f03c09216de","2025-08-29_14h33.35.956",NA,NA,273.6663,273.6665,273.6666,274.0175,NA,NA,NA,NA,NA,NA,NA,TRUE,3,1.7551,270.6726,273.6661,0,21,21,103,1,200,28,NA,NA,NA,NA,NA,1,22,"likert"
"1FC94F7DD8044E74B009F03B525C6441",1,"0198f788-be95-76a9-997d-fc3d69db584c","0198f768-e4d2-711c-944b-6f03c09216de","2025-08-29_14h33.35.956",NA,NA,277.0042,277.0042,277.0042,277.3532,NA,NA,NA,NA,NA,NA,NA,TRUE,5,2.1606,274.0199,277.004,0,22,22,58,1,45,40,NA,NA,NA,NA,NA,1,23,"likert"
"1FC94F7DD8044E74B009F03B525C6441",1,"0198f788-be95-76a9-997d-fc3d69db584c","0198f768-e4d2-711c-944b-6f03c09216de","2025-08-29_14h33.35.956",NA,NA,280.3567,280.3568,280.3569,280.7047,NA,NA,NA,NA,NA,NA,NA,TRUE,5,1.5261,277.3569,280.3563,0,23,23,52,1,40,47,NA,NA,NA,NA,NA,1,24,"likert"
"1FC94F7DD8044E74B009F03B525C6441",1,"0198f788-be95-76a9-997d-fc3d69db584c","0198f768-e4d2-711c-944b-6f03c09216de","2025-08-29_14h33.35.956",NA,NA,283.7053,283.7054,283.7055,284.0656,NA,NA,NA,NA,NA,NA,NA,TRUE,5,1.1552,280.7073,283.7051,0,24,24,33,1,25,33,NA,NA,NA,NA,NA,1,25,"likert"
"1FC94F7DD8044E74B009F03B525C6441",1,"0198f788-be95-76a9-997d-fc3d69db584c","0198f768-e4d2-711c-944b-6f03c09216de","2025-08-29_14h33.35.956",NA,NA,287.0667,287.0669,287.0671,287.4108,NA,NA,NA,NA,NA,NA,NA,TRUE,5,2.0561,284.068,287.0661,0,25,25,40,1,28,39,NA,NA,NA,NA,NA,1,26,"likert"
"1FC94F7DD8044E74B009F03B525C6441",1,"0198f788-be95-76a9-997d-fc3d69db584c","0198f768-e4d2-711c-944b-6f03c09216de","2025-08-29_14h33.35.956",NA,NA,290.41,290.4101,290.4101,290.7587,NA,NA,NA,NA,NA,NA,NA,TRUE,5,1.3192,287.4132,290.4095,0,26,26,74,1,90,33,NA,NA,NA,NA,NA,1,27,"likert"
"1FC94F7DD8044E74B009F03B525C6441",1,"0198f788-be95-76a9-997d-fc3d69db584c","0198f768-e4d2-711c-944b-6f03c09216de","2025-08-29_14h33.35.956",NA,NA,293.7553,293.7556,293.7557,294.1035,NA,NA,NA,NA,NA,NA,NA,TRUE,4,2.2569,290.7627,293.755,0,27,27,95,1,150,54,NA,NA,NA,NA,NA,1,28,"likert"
"1FC94F7DD8044E74B009F03B525C6441",1,"0198f788-be95-76a9-997d-fc3d69db584c","0198f768-e4d2-711c-944b-6f03c09216de","2025-08-29_14h33.35.956",NA,NA,297.1183,297.1187,297.1189,297.4648,NA,NA,NA,NA,NA,NA,NA,TRUE,5,1.1582,294.106,297.1175,0,28,28,3,1,7,30,NA,NA,NA,NA,NA,1,29,"likert"
"1FC94F7DD8044E74B009F03B525C6441",1,"0198f788-be95-76a9-997d-fc3d69db584c","0198f768-e4d2-711c-944b-6f03c09216de","2025-08-29_14h33.35.956",NA,NA,300.4601,300.4603,300.4604,300.8089,NA,NA,NA,NA,NA,NA,NA,TRUE,5,0.9386,297.4689,300.4595,0,29,29,47,1,30,38,NA,NA,NA,NA,NA,1,30,"likert"
"1FC94F7DD8044E74B009F03B525C6441",1,"0198f788-be95-76a9-997d-fc3d69db584c","0198f768-e4d2-711c-944b-6f03c09216de","2025-08-29_14h33.35.956",NA,NA,303.8067,303.8068,303.8068,304.1558,NA,NA,NA,NA,NA,NA,NA,TRUE,3,2.4196,300.8113,303.8065,0,30,30,107,1,200,54,NA,NA,NA,NA,NA,1,31,"likert"
"1FC94F7DD8044E74B009F03B525C6441",1,"0198f788-be95-76a9-997d-fc3d69db584c","0198f768-e4d2-711c-944b-6f03c09216de","2025-08-29_14h33.35.956",NA,NA,307.1698,307.1699,307.17,307.5193,NA,NA,NA,NA,NA,NA,NA,TRUE,4,2.4257,304.1585,307.1695,0,31,31,89,1,100,54,NA,NA,NA,NA,NA,1,32,"likert"
"1FC94F7DD8044E74B009F03B525C6441",1,"0198f788-be95-76a9-997d-fc3d69db584c","0198f768-e4d2-711c-944b-6f03c09216de","2025-08-29_14h33.35.956",NA,NA,310.5203,310.5206,310.5207,310.8623,NA,NA,NA,NA,NA,NA,NA,TRUE,5,0.9728,307.5216,310.5199,0,32,32,26,1,21,29,NA,NA,NA,NA,NA,1,33,"likert"
"1FC94F7DD8044E74B009F03B525C6441",1,"0198f788-be95-76a9-997d-fc3d69db584c","0198f768-e4d2-711c-944b-6f03c09216de","2025-08-29_14h33.35.956",NA,NA,313.8578,313.8578,313.8579,314.2069,NA,NA,NA,NA,NA,NA,NA,TRUE,4,1.5425,310.8648,313.8575,0,33,33,98,1,180,35,NA,NA,NA,NA,NA,1,34,"likert"
"1FC94F7DD8044E74B009F03B525C6441",1,"0198f788-be95-76a9-997d-fc3d69db584c","0198f768-e4d2-711c-944b-6f03c09216de","2025-08-29_14h33.35.956",NA,NA,317.2111,317.2112,317.2112,317.5524,NA,NA,NA,NA,NA,NA,NA,TRUE,4,1.245,314.2093,317.2109,0,34,34,86,1,100,38,NA,NA,NA,NA,NA,1,35,"likert"
"1FC94F7DD8044E74B009F03B525C6441",1,"0198f788-be95-76a9-997d-fc3d69db584c","0198f768-e4d2-711c-944b-6f03c09216de","2025-08-29_14h33.35.956",NA,NA,320.568,320.5682,320.5682,320.9107,NA,NA,NA,NA,NA,NA,NA,TRUE,5,2.0765,317.5552,320.5678,0,35,35,2,1,7,28,NA,NA,NA,NA,NA,1,36,"likert"
"1FC94F7DD8044E74B009F03B525C6441",1,"0198f788-be95-76a9-997d-fc3d69db584c","0198f768-e4d2-711c-944b-6f03c09216de","2025-08-29_14h33.35.956",NA,NA,323.9114,323.9115,323.9117,324.2601,NA,NA,NA,NA,NA,NA,NA,TRUE,5,2.7064,320.9153,323.9108,0,36,36,25,1,21,27,NA,NA,NA,NA,NA,1,37,"likert"
"1FC94F7DD8044E74B009F03B525C6441",1,"0198f788-be95-76a9-997d-fc3d69db584c","0198f768-e4d2-711c-944b-6f03c09216de","2025-08-29_14h33.35.956",NA,NA,327.259,327.2591,327.2592,327.6079,NA,NA,NA,NA,NA,NA,NA,TRUE,5,1.5597,324.2647,327.2585,0,37,37,34,1,25,35,NA,NA,NA,NA,NA,1,38,"likert"
"1FC94F7DD8044E74B009F03B525C6441",1,"0198f788-be95-76a9-997d-fc3d69db584c","0198f768-e4d2-711c-944b-6f03c09216de","2025-08-29_14h33.35.956",NA,NA,330.6053,330.6054,330.6055,330.9538,NA,NA,NA,NA,NA,NA,NA,TRUE,5,1.64,327.612,330.6051,0,38,38,22,1,14,35,NA,NA,NA,NA,NA,1,39,"likert"
"1FC94F7DD8044E74B009F03B525C6441",1,"0198f788-be95-76a9-997d-fc3d69db584c","0198f768-e4d2-711c-944b-6f03c09216de","2025-08-29_14h33.35.956",NA,NA,333.9637,333.9638,333.9638,334.3126,NA,NA,NA,NA,NA,NA,NA,TRUE,3,2.0269,330.958,333.9633,0,39,39,84,1,100,26,NA,NA,NA,NA,NA,1,40,"likert"
"1FC94F7DD8044E74B009F03B525C6441",1,"0198f788-be95-76a9-997d-fc3d69db584c","0198f768-e4d2-711c-944b-6f03c09216de","2025-08-29_14h33.35.956",NA,NA,337.309,337.309,337.309,337.6578,NA,NA,NA,NA,NA,NA,NA,TRUE,5,2.2092,334.3154,337.3087,0,40,40,32,1,25,31,NA,NA,NA,NA,NA,1,41,"likert"
"1FC94F7DD8044E74B009F03B525C6441",1,"0198f788-be95-76a9-997d-fc3d69db584c","0198f768-e4d2-711c-944b-6f03c09216de","2025-08-29_14h33.35.956",NA,NA,340.6588,340.6589,340.659,341.003,NA,NA,NA,NA,NA,NA,NA,TRUE,5,1.571,337.6604,340.6581,0,41,41,49,1,40,33,NA,NA,NA,NA,NA,1,42,"likert"
"1FC94F7DD8044E74B009F03B525C6441",1,"0198f788-be95-76a9-997d-fc3d69db584c","0198f768-e4d2-711c-944b-6f03c09216de","2025-08-29_14h33.35.956",NA,NA,344.0172,344.0174,344.0174,344.3677,NA,NA,NA,NA,NA,NA,NA,TRUE,5,2.0218,341.0056,344.017,0,42,42,70,1,60,47,NA,NA,NA,NA,NA,1,43,"likert"
"1FC94F7DD8044E74B009F03B525C6441",1,"0198f788-be95-76a9-997d-fc3d69db584c","0198f768-e4d2-711c-944b-6f03c09216de","2025-08-29_14h33.35.956",NA,NA,347.3648,347.365,347.3651,347.7131,NA,NA,NA,NA,NA,NA,NA,TRUE,5,1.8394,344.3699,347.3644,0,43,43,1,1,7,26,NA,NA,NA,NA,NA,1,44,"likert"
"1FC94F7DD8044E74B009F03B525C6441",1,"0198f788-be95-76a9-997d-fc3d69db584c","0198f768-e4d2-711c-944b-6f03c09216de","2025-08-29_14h33.35.956",NA,NA,350.7083,350.7083,350.7084,351.0599,NA,NA,NA,NA,NA,NA,NA,TRUE,5,1.1384,347.7175,350.708,0,44,44,44,1,30,29,NA,NA,NA,NA,NA,1,45,"likert"
"1FC94F7DD8044E74B009F03B525C6441",1,"0198f788-be95-76a9-997d-fc3d69db584c","0198f768-e4d2-711c-944b-6f03c09216de","2025-08-29_14h33.35.956",NA,NA,354.0718,354.0719,354.0719,354.4178,NA,NA,NA,NA,NA,NA,NA,TRUE,5,1.1179,351.0625,354.0715,0,45,45,35,1,25,46,NA,NA,NA,NA,NA,1,46,"likert"
"1FC94F7DD8044E74B009F03B525C6441",1,"0198f788-be95-76a9-997d-fc3d69db584c","0198f768-e4d2-711c-944b-6f03c09216de","2025-08-29_14h33.35.956",NA,NA,357.4171,357.4174,357.4175,357.7656,NA,NA,NA,NA,NA,NA,NA,TRUE,5,2.3748,354.42,357.4166,0,46,46,66,1,60,29,NA,NA,NA,NA,NA,1,47,"likert"
"1FC94F7DD8044E74B009F03B525C6441",1,"0198f788-be95-76a9-997d-fc3d69db584c","0198f768-e4d2-711c-944b-6f03c09216de","2025-08-29_14h33.35.956",NA,NA,360.7618,360.762,360.762,361.1108,NA,NA,NA,NA,NA,NA,NA,TRUE,5,1.7354,357.7697,360.7614,0,47,47,82,1,95,47,NA,NA,NA,NA,NA,1,48,"likert"
"1FC94F7DD8044E74B009F03B525C6441",1,"0198f788-be95-76a9-997d-fc3d69db584c","0198f768-e4d2-711c-944b-6f03c09216de","2025-08-29_14h33.35.956",NA,NA,364.1071,364.1072,364.1073,364.4555,NA,NA,NA,NA,NA,NA,NA,TRUE,5,0.9388,361.1145,364.1069,0,48,48,27,1,21,30,NA,NA,NA,NA,NA,1,49,"likert"
"1FC94F7DD8044E74B009F03B525C6441",1,"0198f788-be95-76a9-997d-fc3d69db584c","0198f768-e4d2-711c-944b-6f03c09216de","2025-08-29_14h33.35.956",NA,NA,367.468,367.4681,367.4682,367.817,NA,NA,NA,NA,NA,NA,NA,TRUE,4,1.7194,364.458,367.4675,0,49,49,24,1,21,26,NA,NA,NA,NA,NA,1,50,"likert"
"1FC94F7DD8044E74B009F03B525C6441",1,"0198f788-be95-76a9-997d-fc3d69db584c","0198f768-e4d2-711c-944b-6f03c09216de","2025-08-29_14h33.35.956",NA,NA,370.8145,370.8146,370.8146,371.1574,NA,NA,NA,NA,NA,NA,NA,TRUE,3,1.9991,367.8201,370.8143,0,50,50,105,1,200,39,NA,NA,NA,NA,NA,1,51,"likert"
"1FC94F7DD8044E74B009F03B525C6441",1,"0198f788-be95-76a9-997d-fc3d69db584c","0198f768-e4d2-711c-944b-6f03c09216de","2025-08-29_14h33.35.956",NA,NA,374.1604,374.1604,374.1605,374.5084,NA,NA,NA,NA,NA,NA,NA,TRUE,5,1.031,371.1597,374.1601,0,51,51,67,1,60,33,NA,NA,NA,NA,NA,1,52,"likert"
"1FC94F7DD8044E74B009F03B525C6441",1,"0198f788-be95-76a9-997d-fc3d69db584c","0198f768-e4d2-711c-944b-6f03c09216de","2025-08-29_14h33.35.956",NA,NA,377.5098,377.7535,377.7536,377.8548,NA,NA,NA,NA,NA,NA,NA,FALSE,NA,NA,374.5109,377.5082,0,52,52,36,1,28,26,NA,NA,NA,NA,NA,1,53,"likert"
"1FC94F7DD8044E74B009F03B525C6441",1,"0198f788-be95-76a9-997d-fc3d69db584c","0198f768-e4d2-711c-944b-6f03c09216de","2025-08-29_14h33.35.956",NA,NA,380.8675,380.868,380.8681,381.2164,NA,NA,NA,NA,NA,NA,NA,TRUE,5,1.6934,377.8571,380.8671,0,53,53,53,1,40,54,NA,NA,NA,NA,NA,1,54,"likert"
"1FC94F7DD8044E74B009F03B525C6441",1,"0198f788-be95-76a9-997d-fc3d69db584c","0198f768-e4d2-711c-944b-6f03c09216de","2025-08-29_14h33.35.956",NA,NA,384.2112,384.2112,384.2113,384.5596,NA,NA,NA,NA,NA,NA,NA,TRUE,5,1.8207,381.2206,384.2109,0,54,54,62,1,50,35,NA,NA,NA,NA,NA,1,55,"likert"
"1FC94F7DD8044E74B009F03B525C6441",1,"0198f788-be95-76a9-997d-fc3d69db584c","0198f768-e4d2-711c-944b-6f03c09216de","2025-08-29_14h33.35.956",NA,NA,387.568,387.5681,387.5682,387.9113,NA,NA,NA,NA,NA,NA,NA,TRUE,5,2.3054,384.5617,387.5678,0,55,55,14,1,12,28,NA,NA,NA,NA,NA,1,56,"likert"
"1FC94F7DD8044E74B009F03B525C6441",1,"0198f788-be95-76a9-997d-fc3d69db584c","0198f768-e4d2-711c-944b-6f03c09216de","2025-08-29_14h33.35.956",NA,NA,390.904,390.9041,390.9041,391.2536,NA,NA,NA,NA,NA,NA,NA,TRUE,5,0.8988,387.9137,390.9036,0,56,56,28,1,21,32,NA,NA,NA,NA,NA,1,57,"likert"
"1FC94F7DD8044E74B009F03B525C6441",1,"0198f788-be95-76a9-997d-fc3d69db584c","0198f768-e4d2-711c-944b-6f03c09216de","2025-08-29_14h33.35.956",NA,NA,394.2671,394.2672,394.2672,394.6146,NA,NA,NA,NA,NA,NA,NA,TRUE,4,1.9187,391.2578,394.2667,0,57,57,96,1,180,27,NA,NA,NA,NA,NA,1,58,"likert"
"1FC94F7DD8044E74B009F03B525C6441",1,"0198f788-be95-76a9-997d-fc3d69db584c","0198f768-e4d2-711c-944b-6f03c09216de","2025-08-29_14h33.35.956",NA,NA,397.6082,397.6083,397.6083,397.9601,NA,NA,NA,NA,NA,NA,NA,TRUE,5,1.5689,394.6189,397.608,0,58,58,77,1,90,54,NA,NA,NA,NA,NA,1,59,"likert"
"1FC94F7DD8044E74B009F03B525C6441",1,"0198f788-be95-76a9-997d-fc3d69db584c","0198f768-e4d2-711c-944b-6f03c09216de","2025-08-29_14h33.35.956",NA,NA,400.9551,400.9552,400.9553,401.3032,NA,NA,NA,NA,NA,NA,NA,TRUE,5,1.8524,397.9634,400.9546,0,59,59,38,1,28,32,NA,NA,NA,NA,NA,1,60,"likert"
"1FC94F7DD8044E74B009F03B525C6441",1,"0198f788-be95-76a9-997d-fc3d69db584c","0198f768-e4d2-711c-944b-6f03c09216de","2025-08-29_14h33.35.956",NA,NA,404.3163,404.3164,404.3165,404.6649,NA,NA,NA,NA,NA,NA,NA,TRUE,5,2.0816,401.3056,404.316,0,60,60,73,1,90,30,NA,NA,NA,NA,NA,1,61,"likert"
"1FC94F7DD8044E74B009F03B525C6441",1,"0198f788-be95-76a9-997d-fc3d69db584c","0198f768-e4d2-711c-944b-6f03c09216de","2025-08-29_14h33.35.956",NA,NA,407.662,407.6621,407.6621,408.0111,NA,NA,NA,NA,NA,NA,NA,TRUE,5,1.6307,404.6674,407.6618,0,61,61,15,1,12,31,NA,NA,NA,NA,NA,1,62,"likert"
"1FC94F7DD8044E74B009F03B525C6441",1,"0198f788-be95-76a9-997d-fc3d69db584c","0198f768-e4d2-711c-944b-6f03c09216de","2025-08-29_14h33.35.956",NA,NA,411.0092,411.0093,411.0093,411.3623,NA,NA,NA,NA,NA,NA,NA,TRUE,5,2.7721,408.014,411.0087,0,62,62,76,1,90,46,NA,NA,NA,NA,NA,1,63,"likert"
"1FC94F7DD8044E74B009F03B525C6441",1,"0198f788-be95-76a9-997d-fc3d69db584c","0198f768-e4d2-711c-944b-6f03c09216de","2025-08-29_14h33.35.956",NA,NA,414.3549,414.6036,414.6037,414.7033,NA,NA,NA,NA,NA,NA,NA,FALSE,NA,NA,411.3646,414.3545,0,63,63,13,1,12,26,NA,NA,NA,NA,NA,1,64,"likert"
"1FC94F7DD8044E74B009F03B525C6441",1,"0198f788-be95-76a9-997d-fc3d69db584c","0198f768-e4d2-711c-944b-6f03c09216de","2025-08-29_14h33.35.956",NA,NA,417.7175,417.7178,417.7179,418.0652,NA,NA,NA,NA,NA,NA,NA,TRUE,5,1.5445,414.7072,417.7168,0,64,64,56,1,45,31,NA,NA,NA,NA,NA,1,65,"likert"
"1FC94F7DD8044E74B009F03B525C6441",1,"0198f788-be95-76a9-997d-fc3d69db584c","0198f768-e4d2-711c-944b-6f03c09216de","2025-08-29_14h33.35.956",NA,NA,421.0633,421.0634,421.0636,421.4089,NA,NA,NA,NA,NA,NA,NA,TRUE,5,0.6873,418.0695,421.0627,0,65,65,29,1,21,38,NA,NA,NA,NA,NA,1,66,"likert"
"1FC94F7DD8044E74B009F03B525C6441",1,"0198f788-be95-76a9-997d-fc3d69db584c","0198f768-e4d2-711c-944b-6f03c09216de","2025-08-29_14h33.35.956",NA,NA,424.4051,424.4053,424.4053,424.7539,NA,NA,NA,NA,NA,NA,NA,TRUE,4,1.9191,421.4113,424.4049,0,66,66,30,1,25,27,NA,NA,NA,NA,NA,1,67,"likert"
"1FC94F7DD8044E74B009F03B525C6441",1,"0198f788-be95-76a9-997d-fc3d69db584c","0198f768-e4d2-711c-944b-6f03c09216de","2025-08-29_14h33.35.956",NA,NA,427.7555,427.7555,427.7555,428.1175,NA,NA,NA,NA,NA,NA,NA,TRUE,5,1.5628,424.7565,427.7552,0,67,67,41,1,28,46,NA,NA,NA,NA,NA,1,68,"likert"
"1FC94F7DD8044E74B009F03B525C6441",1,"0198f788-be95-76a9-997d-fc3d69db584c","0198f768-e4d2-711c-944b-6f03c09216de","2025-08-29_14h33.35.956",NA,NA,431.1138,431.1139,431.1139,431.462,NA,NA,NA,NA,NA,NA,NA,TRUE,4,1.7413,428.1197,431.1136,0,68,68,106,1,200,47,NA,NA,NA,NA,NA,1,69,"likert"
"1FC94F7DD8044E74B009F03B525C6441",1,"0198f788-be95-76a9-997d-fc3d69db584c","0198f768-e4d2-711c-944b-6f03c09216de","2025-08-29_14h33.35.956",NA,NA,434.4576,434.4577,434.4577,434.8068,NA,NA,NA,NA,NA,NA,NA,TRUE,5,1.457,431.4643,434.4574,0,69,69,8,1,10,27,NA,NA,NA,NA,NA,1,70,"likert"
"1FC94F7DD8044E74B009F03B525C6441",1,"0198f788-be95-76a9-997d-fc3d69db584c","0198f768-e4d2-711c-944b-6f03c09216de","2025-08-29_14h33.35.956",NA,NA,437.8111,437.8112,437.8112,438.1548,NA,NA,NA,NA,NA,NA,NA,TRUE,5,1.4432,434.8096,437.8109,0,70,70,80,1,95,35,NA,NA,NA,NA,NA,1,71,"likert"
"1FC94F7DD8044E74B009F03B525C6441",1,"0198f788-be95-76a9-997d-fc3d69db584c","0198f768-e4d2-711c-944b-6f03c09216de","2025-08-29_14h33.35.956",NA,NA,441.1669,441.1674,441.1675,441.5169,NA,NA,NA,NA,NA,NA,NA,TRUE,4,1.7569,438.1572,441.1665,0,71,71,97,1,180,31,NA,NA,NA,NA,NA,1,72,"likert"
"1FC94F7DD8044E74B009F03B525C6441",1,"0198f788-be95-76a9-997d-fc3d69db584c","0198f768-e4d2-711c-944b-6f03c09216de","2025-08-29_14h33.35.956",NA,NA,444.5079,444.5081,444.5082,444.8624,NA,NA,NA,NA,NA,NA,NA,TRUE,5,2.5952,441.5194,444.5075,0,72,72,59,1,45,46,NA,NA,NA,NA,NA,1,73,"likert"
"1FC94F7DD8044E74B009F03B525C6441",1,"0198f788-be95-76a9-997d-fc3d69db584c","0198f768-e4d2-711c-944b-6f03c09216de","2025-08-29_14h33.35.956",NA,NA,447.8662,447.8665,447.8666,448.2074,NA,NA,NA,NA,NA,NA,NA,TRUE,4,2.0695,444.8663,447.8656,0,73,73,88,1,100,46,NA,NA,NA,NA,NA,1,74,"likert"
"1FC94F7DD8044E74B009F03B525C6441",1,"0198f788-be95-76a9-997d-fc3d69db584c","0198f768-e4d2-711c-944b-6f03c09216de","2025-08-29_14h33.35.956",NA,NA,451.2105,451.2106,451.2107,451.5674,NA,NA,NA,NA,NA,NA,NA,TRUE,5,0.7199,448.212,451.2103,0,74,74,48,1,40,27,NA,NA,NA,NA,NA,1,75,"likert"
"1FC94F7DD8044E74B009F03B525C6441",1,"0198f788-be95-76a9-997d-fc3d69db584c","0198f768-e4d2-711c-944b-6f03c09216de","2025-08-29_14h33.35.956",NA,NA,454.5645,454.5646,454.5646,454.9132,NA,NA,NA,NA,NA,NA,NA,TRUE,4,1.4629,451.5714,454.5643,0,75,75,93,1,150,40,NA,NA,NA,NA,NA,1,76,"likert"
"1FC94F7DD8044E74B009F03B525C6441",1,"0198f788-be95-76a9-997d-fc3d69db584c","0198f768-e4d2-711c-944b-6f03c09216de","2025-08-29_14h33.35.956",NA,NA,457.91,457.9101,457.9102,458.2592,NA,NA,NA,NA,NA,NA,NA,TRUE,5,1.3081,454.9157,457.9098,0,76,76,6,1,10,25,NA,NA,NA,NA,NA,1,77,"likert"
"1FC94F7DD8044E74B009F03B525C6441",1,"0198f788-be95-76a9-997d-fc3d69db584c","0198f768-e4d2-711c-944b-6f03c09216de","2025-08-29_14h33.35.956",NA,NA,461.2583,461.2585,461.2585,461.6066,NA,NA,NA,NA,NA,NA,NA,TRUE,5,1.3625,458.2619,461.258,0,77,77,23,1,14,39,NA,NA,NA,NA,NA,1,78,"likert"
"1FC94F7DD8044E74B009F03B525C6441",1,"0198f788-be95-76a9-997d-fc3d69db584c","0198f768-e4d2-711c-944b-6f03c09216de","2025-08-29_14h33.35.956",NA,NA,464.6196,464.6198,464.6198,464.9671,NA,NA,NA,NA,NA,NA,NA,TRUE,4,1.6111,461.6095,464.6191,0,78,78,85,1,100,31,NA,NA,NA,NA,NA,1,79,"likert"
"1FC94F7DD8044E74B009F03B525C6441",1,"0198f788-be95-76a9-997d-fc3d69db584c","0198f768-e4d2-711c-944b-6f03c09216de","2025-08-29_14h33.35.956",NA,NA,467.9627,467.9627,467.9628,468.3131,NA,NA,NA,NA,NA,NA,NA,TRUE,5,1.0925,464.9734,467.9624,0,79,79,7,1,10,26,NA,NA,NA,NA,NA,1,80,"likert"
"1FC94F7DD8044E74B009F03B525C6441",1,"0198f788-be95-76a9-997d-fc3d69db584c","0198f768-e4d2-711c-944b-6f03c09216de","2025-08-29_14h33.35.956",NA,NA,471.3028,471.3029,471.303,471.6568,NA,NA,NA,NA,NA,NA,NA,TRUE,5,1.9125,468.3155,471.3026,0,80,80,21,1,14,32,NA,NA,NA,NA,NA,1,81,"likert"
"1FC94F7DD8044E74B009F03B525C6441",1,"0198f788-be95-76a9-997d-fc3d69db584c","0198f768-e4d2-711c-944b-6f03c09216de","2025-08-29_14h33.35.956",NA,NA,474.653,474.6531,474.6531,475.0182,NA,NA,NA,NA,NA,NA,NA,TRUE,5,0.941,471.6592,474.6527,0,81,81,17,1,12,35,NA,NA,NA,NA,NA,1,82,"likert"
"1FC94F7DD8044E74B009F03B525C6441",1,"0198f788-be95-76a9-997d-fc3d69db584c","0198f768-e4d2-711c-944b-6f03c09216de","2025-08-29_14h33.35.956",NA,NA,478.0155,478.0157,478.0157,478.3659,NA,NA,NA,NA,NA,NA,NA,TRUE,5,0.7051,475.0222,478.0153,0,82,82,16,1,12,33,NA,NA,NA,NA,NA,1,83,"likert"
"1FC94F7DD8044E74B009F03B525C6441",1,"0198f788-be95-76a9-997d-fc3d69db584c","0198f768-e4d2-711c-944b-6f03c09216de","2025-08-29_14h33.35.956",NA,NA,481.362,481.3621,481.3621,481.7121,NA,NA,NA,NA,NA,NA,NA,TRUE,5,0.9067,478.3681,481.3618,0,83,83,4,1,7,32,NA,NA,NA,NA,NA,1,84,"likert"
"1FC94F7DD8044E74B009F03B525C6441",1,"0198f788-be95-76a9-997d-fc3d69db584c","0198f768-e4d2-711c-944b-6f03c09216de","2025-08-29_14h33.35.956",NA,NA,484.7072,484.7073,484.7073,485.0568,NA,NA,NA,NA,NA,NA,NA,TRUE,5,2.2699,481.7158,484.707,0,84,84,64,1,50,46,NA,NA,NA,NA,NA,1,85,"likert"
"1FC94F7DD8044E74B009F03B525C6441",1,"0198f788-be95-76a9-997d-fc3d69db584c","0198f768-e4d2-711c-944b-6f03c09216de","2025-08-29_14h33.35.956",NA,NA,488.0684,488.0685,488.0686,488.4182,NA,NA,NA,NA,NA,NA,NA,TRUE,5,1.5571,485.0593,488.0681,0,85,85,20,1,14,28,NA,NA,NA,NA,NA,1,86,"likert"
"1FC94F7DD8044E74B009F03B525C6441",1,"0198f788-be95-76a9-997d-fc3d69db584c","0198f768-e4d2-711c-944b-6f03c09216de","2025-08-29_14h33.35.956",NA,NA,491.4055,491.4055,491.4056,491.7645,NA,NA,NA,NA,NA,NA,NA,TRUE,3,2.2351,488.4219,491.4052,0,86,86,54,1,45,26,NA,NA,NA,NA,NA,1,87,"likert"
"1FC94F7DD8044E74B009F03B525C6441",1,"0198f788-be95-76a9-997d-fc3d69db584c","0198f768-e4d2-711c-944b-6f03c09216de","2025-08-29_14h33.35.956",NA,NA,494.7605,494.7606,494.7606,495.1068,NA,NA,NA,NA,NA,NA,NA,TRUE,5,1.5876,491.7682,494.7602,0,87,87,45,1,30,30,NA,NA,NA,NA,NA,1,88,"likert"
"1FC94F7DD8044E74B009F03B525C6441",1,"0198f788-be95-76a9-997d-fc3d69db584c","0198f768-e4d2-711c-944b-6f03c09216de","2025-08-29_14h33.35.956",NA,NA,498.1053,498.1054,498.1054,498.4548,NA,NA,NA,NA,NA,NA,NA,TRUE,4,1.4433,495.1093,498.1051,0,88,88,100,1,180,46,NA,NA,NA,NA,NA,1,89,"likert"
"1FC94F7DD8044E74B009F03B525C6441",1,"0198f788-be95-76a9-997d-fc3d69db584c","0198f768-e4d2-711c-944b-6f03c09216de","2025-08-29_14h33.35.956",NA,NA,501.4661,501.4662,501.4663,501.8185,NA,NA,NA,NA,NA,NA,NA,TRUE,4,1.1755,498.4586,501.4659,0,89,89,87,1,100,39,NA,NA,NA,NA,NA,1,90,"likert"
"1FC94F7DD8044E74B009F03B525C6441",1,"0198f788-be95-76a9-997d-fc3d69db584c","0198f768-e4d2-711c-944b-6f03c09216de","2025-08-29_14h33.35.956",NA,NA,504.8118,504.8119,504.8119,505.1617,NA,NA,NA,NA,NA,NA,NA,TRUE,1,2.3043,501.8211,504.8116,0,90,90,102,1,200,26,NA,NA,NA,NA,NA,1,91,"likert"
"1FC94F7DD8044E74B009F03B525C6441",1,"0198f788-be95-76a9-997d-fc3d69db584c","0198f768-e4d2-711c-944b-6f03c09216de","2025-08-29_14h33.35.956",NA,NA,508.1583,508.1585,508.1585,508.5074,NA,NA,NA,NA,NA,NA,NA,TRUE,5,1.426,505.1654,508.1582,0,91,91,63,1,50,40,NA,NA,NA,NA,NA,1,92,"likert"
"1FC94F7DD8044E74B009F03B525C6441",1,"0198f788-be95-76a9-997d-fc3d69db584c","0198f768-e4d2-711c-944b-6f03c09216de","2025-08-29_14h33.35.956",NA,NA,511.5202,511.5205,511.5206,511.8504,NA,NA,NA,NA,NA,NA,NA,TRUE,3,2.1256,508.5115,511.52,0,92,92,90,1,150,31,NA,NA,NA,NA,NA,1,93,"likert"
"1FC94F7DD8044E74B009F03B525C6441",1,"0198f788-be95-76a9-997d-fc3d69db584c","0198f768-e4d2-711c-944b-6f03c09216de","2025-08-29_14h33.35.956",NA,NA,514.8669,514.8671,514.8672,515.2127,NA,NA,NA,NA,NA,NA,NA,TRUE,5,1.3485,511.8529,514.8665,0,93,93,37,1,28,28,NA,NA,NA,NA,NA,1,94,"likert"
"1FC94F7DD8044E74B009F03B525C6441",1,"0198f788-be95-76a9-997d-fc3d69db584c","0198f768-e4d2-711c-944b-6f03c09216de","2025-08-29_14h33.35.956",NA,NA,518.2179,518.2181,518.2182,518.5526,NA,NA,NA,NA,NA,NA,NA,TRUE,5,1.6485,515.2171,518.2174,0,94,94,79,1,95,33,NA,NA,NA,NA,NA,1,95,"likert"
"1FC94F7DD8044E74B009F03B525C6441",1,"0198f788-be95-76a9-997d-fc3d69db584c","0198f768-e4d2-711c-944b-6f03c09216de","2025-08-29_14h33.35.956",NA,NA,521.5538,521.5539,521.554,521.9062,NA,NA,NA,NA,NA,NA,NA,TRUE,3,1.4573,518.5551,521.5534,0,95,95,43,1,30,27,NA,NA,NA,NA,NA,1,96,"likert"
"1FC94F7DD8044E74B009F03B525C6441",1,"0198f788-be95-76a9-997d-fc3d69db584c","0198f768-e4d2-711c-944b-6f03c09216de","2025-08-29_14h33.35.956",NA,NA,524.9178,524.918,524.9181,525.2666,NA,NA,NA,NA,NA,NA,NA,TRUE,5,1.0941,521.9089,524.9176,0,96,96,69,1,60,40,NA,NA,NA,NA,NA,1,97,"likert"
"1FC94F7DD8044E74B009F03B525C6441",1,"0198f788-be95-76a9-997d-fc3d69db584c","0198f768-e4d2-711c-944b-6f03c09216de","2025-08-29_14h33.35.956",NA,NA,528.2626,528.2627,528.2628,528.6137,NA,NA,NA,NA,NA,NA,NA,TRUE,5,0.8088,525.269,528.2623,0,97,97,5,1,7,35,NA,NA,NA,NA,NA,1,98,"likert"
"1FC94F7DD8044E74B009F03B525C6441",1,"0198f788-be95-76a9-997d-fc3d69db584c","0198f768-e4d2-711c-944b-6f03c09216de","2025-08-29_14h33.35.956",NA,NA,531.6086,531.6087,531.6088,531.9577,NA,NA,NA,NA,NA,NA,NA,TRUE,3,1.7529,528.616,531.6084,0,98,98,91,1,150,33,NA,NA,NA,NA,NA,1,99,"likert"
"1FC94F7DD8044E74B009F03B525C6441",1,"0198f788-be95-76a9-997d-fc3d69db584c","0198f768-e4d2-711c-944b-6f03c09216de","2025-08-29_14h33.35.956",NA,NA,534.9542,534.9542,534.9555,535.3191,NA,NA,NA,NA,NA,NA,NA,TRUE,5,2.2895,531.96,534.9539,0,99,99,39,1,28,35,NA,NA,NA,NA,NA,1,100,"likert"
"1FC94F7DD8044E74B009F03B525C6441",1,"0198f788-be95-76a9-997d-fc3d69db584c","0198f768-e4d2-711c-944b-6f03c09216de","2025-08-29_14h33.35.956",NA,NA,538.3163,538.3164,538.3165,538.6644,NA,NA,NA,NA,NA,NA,NA,TRUE,4,1.3256,535.3218,538.316,0,100,100,92,1,150,35,NA,NA,NA,NA,NA,1,101,"likert"
"1FC94F7DD8044E74B009F03B525C6441",1,"0198f788-be95-76a9-997d-fc3d69db584c","0198f768-e4d2-711c-944b-6f03c09216de","2025-08-29_14h33.35.956",NA,NA,541.6605,541.6607,541.6607,542.0112,NA,NA,NA,NA,NA,NA,NA,TRUE,5,0.8235,538.6684,541.6603,0,101,101,71,1,60,54,NA,NA,NA,NA,NA,1,102,"likert"
"1FC94F7DD8044E74B009F03B525C6441",1,"0198f788-be95-76a9-997d-fc3d69db584c","0198f768-e4d2-711c-944b-6f03c09216de","2025-08-29_14h33.35.956",NA,NA,545.0084,545.0085,545.0085,545.3553,NA,NA,NA,NA,NA,NA,NA,TRUE,5,1.9537,542.0151,545.0082,0,102,102,55,1,45,29,NA,NA,NA,NA,NA,1,103,"likert"
"1FC94F7DD8044E74B009F03B525C6441",1,"0198f788-be95-76a9-997d-fc3d69db584c","0198f768-e4d2-711c-944b-6f03c09216de","2025-08-29_14h33.35.956",NA,NA,548.3685,548.3687,548.3687,548.7189,NA,NA,NA,NA,NA,NA,NA,TRUE,3,1.4911,545.3576,548.3683,0,103,103,99,1,180,39,NA,NA,NA,NA,NA,1,104,"likert"
"1FC94F7DD8044E74B009F03B525C6441",1,"0198f788-be95-76a9-997d-fc3d69db584c","0198f768-e4d2-711c-944b-6f03c09216de","2025-08-29_14h33.35.956",NA,NA,551.7144,551.7144,551.7145,552.0651,NA,NA,NA,NA,NA,NA,NA,TRUE,5,1.1717,548.7227,551.7142,0,104,104,83,1,95,54,NA,NA,NA,NA,NA,1,105,"likert"
"1FC94F7DD8044E74B009F03B525C6441",1,"0198f788-be95-76a9-997d-fc3d69db584c","0198f768-e4d2-711c-944b-6f03c09216de","2025-08-29_14h33.35.956",NA,NA,555.0579,555.058,555.0581,555.4068,NA,NA,NA,NA,NA,NA,NA,TRUE,5,1.3476,552.0687,555.0576,0,105,105,12,1,12,25,NA,NA,NA,NA,NA,1,106,"likert"
"1FC94F7DD8044E74B009F03B525C6441",1,"0198f788-be95-76a9-997d-fc3d69db584c","0198f768-e4d2-711c-944b-6f03c09216de","2025-08-29_14h33.35.956",NA,NA,558.4034,558.4036,558.4036,558.7688,NA,NA,NA,NA,NA,NA,NA,TRUE,5,2.5356,555.4092,558.4028,0,106,106,68,1,60,35,NA,NA,NA,NA,NA,1,107,"likert"
"1FC94F7DD8044E74B009F03B525C6441",1,"0198f788-be95-76a9-997d-fc3d69db584c","0198f768-e4d2-711c-944b-6f03c09216de","2025-08-29_14h33.35.956",NA,NA,561.7668,561.767,561.767,562.1152,NA,NA,NA,NA,NA,NA,NA,TRUE,5,1.5027,558.7727,561.7666,0,107,107,65,1,50,54,NA,NA,NA,NA,NA,1,108,"likert"
"1FC94F7DD8044E74B009F03B525C6441",1,"0198f788-be95-76a9-997d-fc3d69db584c","0198f768-e4d2-711c-944b-6f03c09216de","2025-08-29_14h33.35.956",NA,NA,884.3197,884.3199,884.3199,884.6701,NA,NA,NA,NA,NA,NA,NA,TRUE,5,1.3521,881.3659,884.3195,NA,NA,NA,NA,NA,45,31,0,0,0,56,1,2,1,"likert"
"1FC94F7DD8044E74B009F03B525C6441",1,"0198f788-be95-76a9-997d-fc3d69db584c","0198f768-e4d2-711c-944b-6f03c09216de","2025-08-29_14h33.35.956",NA,NA,887.666,887.6661,887.6661,888.0135,NA,NA,NA,NA,NA,NA,NA,TRUE,5,1.4292,884.6727,887.6657,NA,NA,NA,NA,NA,28,46,0,1,1,41,1,2,2,"likert"
"1FC94F7DD8044E74B009F03B525C6441",1,"0198f788-be95-76a9-997d-fc3d69db584c","0198f768-e4d2-711c-944b-6f03c09216de","2025-08-29_14h33.35.956",NA,NA,891.0098,891.0098,891.0099,891.3594,NA,NA,NA,NA,NA,NA,NA,TRUE,3,1.8797,888.0159,891.0095,NA,NA,NA,NA,NA,45,26,0,2,2,54,1,2,3,"likert"
"1FC94F7DD8044E74B009F03B525C6441",1,"0198f788-be95-76a9-997d-fc3d69db584c","0198f768-e4d2-711c-944b-6f03c09216de","2025-08-29_14h33.35.956",NA,NA,894.3594,894.3594,894.36,894.721,NA,NA,NA,NA,NA,NA,NA,TRUE,5,1.221,891.3618,894.359,NA,NA,NA,NA,NA,7,35,0,3,3,5,1,2,4,"likert"
"1FC94F7DD8044E74B009F03B525C6441",1,"0198f788-be95-76a9-997d-fc3d69db584c","0198f768-e4d2-711c-944b-6f03c09216de","2025-08-29_14h33.35.956",NA,NA,897.7195,897.7197,897.7198,898.0675,NA,NA,NA,NA,NA,NA,NA,TRUE,5,1.3754,894.7235,897.7193,NA,NA,NA,NA,NA,21,27,0,4,4,25,1,2,5,"likert"
"1FC94F7DD8044E74B009F03B525C6441",1,"0198f788-be95-76a9-997d-fc3d69db584c","0198f768-e4d2-711c-944b-6f03c09216de","2025-08-29_14h33.35.956",NA,NA,901.0648,901.065,901.0651,901.4141,NA,NA,NA,NA,NA,NA,NA,TRUE,5,1.8046,898.0721,901.0644,NA,NA,NA,NA,NA,100,46,0,5,5,88,1,2,6,"likert"
"1FC94F7DD8044E74B009F03B525C6441",1,"0198f788-be95-76a9-997d-fc3d69db584c","0198f768-e4d2-711c-944b-6f03c09216de","2025-08-29_14h33.35.956",NA,NA,904.4104,904.4104,904.4105,904.7597,NA,NA,NA,NA,NA,NA,NA,TRUE,5,1.9038,901.4183,904.4099,NA,NA,NA,NA,NA,60,29,0,6,6,66,1,2,7,"likert"
"1FC94F7DD8044E74B009F03B525C6441",1,"0198f788-be95-76a9-997d-fc3d69db584c","0198f768-e4d2-711c-944b-6f03c09216de","2025-08-29_14h33.35.956",NA,NA,907.757,907.7572,907.7573,908.1212,NA,NA,NA,NA,NA,NA,NA,TRUE,5,1.6723,904.7634,907.7565,NA,NA,NA,NA,NA,100,54,0,7,7,89,1,2,8,"likert"
"1FC94F7DD8044E74B009F03B525C6441",1,"0198f788-be95-76a9-997d-fc3d69db584c","0198f768-e4d2-711c-944b-6f03c09216de","2025-08-29_14h33.35.956",NA,NA,911.1156,911.1156,911.1156,911.4642,NA,NA,NA,NA,NA,NA,NA,TRUE,5,1.8084,908.1251,911.1153,NA,NA,NA,NA,NA,30,29,0,8,8,44,1,2,9,"likert"
"1FC94F7DD8044E74B009F03B525C6441",1,"0198f788-be95-76a9-997d-fc3d69db584c","0198f768-e4d2-711c-944b-6f03c09216de","2025-08-29_14h33.35.956",NA,NA,914.4678,914.4679,914.4679,914.8119,NA,NA,NA,NA,NA,NA,NA,TRUE,5,2.0627,911.4666,914.4676,NA,NA,NA,NA,NA,7,26,0,9,9,1,1,2,10,"likert"
"1FC94F7DD8044E74B009F03B525C6441",1,"0198f788-be95-76a9-997d-fc3d69db584c","0198f768-e4d2-711c-944b-6f03c09216de","2025-08-29_14h33.35.956",NA,NA,917.8079,917.808,917.808,918.157,NA,NA,NA,NA,NA,NA,NA,TRUE,5,2.1652,914.8142,917.8077,NA,NA,NA,NA,NA,12,26,0,10,10,13,1,2,11,"likert"
"1FC94F7DD8044E74B009F03B525C6441",1,"0198f788-be95-76a9-997d-fc3d69db584c","0198f768-e4d2-711c-944b-6f03c09216de","2025-08-29_14h33.35.956",NA,NA,921.173,921.1733,921.1734,921.5194,NA,NA,NA,NA,NA,NA,NA,TRUE,3,2.3577,918.1594,921.1717,NA,NA,NA,NA,NA,200,26,0,11,11,102,1,2,12,"likert"
"1FC94F7DD8044E74B009F03B525C6441",1,"0198f788-be95-76a9-997d-fc3d69db584c","0198f768-e4d2-711c-944b-6f03c09216de","2025-08-29_14h33.35.956",NA,NA,924.5135,924.5136,924.5136,924.8629,NA,NA,NA,NA,NA,NA,NA,TRUE,5,0.8684,921.5234,924.5132,NA,NA,NA,NA,NA,60,33,0,12,12,67,1,2,13,"likert"
"1FC94F7DD8044E74B009F03B525C6441",1,"0198f788-be95-76a9-997d-fc3d69db584c","0198f768-e4d2-711c-944b-6f03c09216de","2025-08-29_14h33.35.956",NA,NA,927.8599,927.86,927.86,928.2079,NA,NA,NA,NA,NA,NA,NA,TRUE,5,1.463,924.8653,927.8597,NA,NA,NA,NA,NA,30,30,0,13,13,45,1,2,14,"likert"
"1FC94F7DD8044E74B009F03B525C6441",1,"0198f788-be95-76a9-997d-fc3d69db584c","0198f768-e4d2-711c-944b-6f03c09216de","2025-08-29_14h33.35.956",NA,NA,931.2075,931.2077,931.2078,931.5707,NA,NA,NA,NA,NA,NA,NA,TRUE,5,0.9241,928.2103,931.2071,NA,NA,NA,NA,NA,25,29,0,14,14,31,1,2,15,"likert"
"1FC94F7DD8044E74B009F03B525C6441",1,"0198f788-be95-76a9-997d-fc3d69db584c","0198f768-e4d2-711c-944b-6f03c09216de","2025-08-29_14h33.35.956",NA,NA,934.5679,934.5681,934.5682,934.9155,NA,NA,NA,NA,NA,NA,NA,TRUE,5,1.0653,931.5731,934.5675,NA,NA,NA,NA,NA,50,30,0,15,15,61,1,2,16,"likert"
"1FC94F7DD8044E74B009F03B525C6441",1,"0198f788-be95-76a9-997d-fc3d69db584c","0198f768-e4d2-711c-944b-6f03c09216de","2025-08-29_14h33.35.956",NA,NA,937.9181,937.9183,937.9183,938.2608,NA,NA,NA,NA,NA,NA,NA,TRUE,5,1.2408,934.9192,937.9179,NA,NA,NA,NA,NA,14,35,0,16,16,22,1,2,17,"likert"
"1FC94F7DD8044E74B009F03B525C6441",1,"0198f788-be95-76a9-997d-fc3d69db584c","0198f768-e4d2-711c-944b-6f03c09216de","2025-08-29_14h33.35.956",NA,NA,941.2589,941.259,941.259,941.6082,NA,NA,NA,NA,NA,NA,NA,TRUE,4,1.6156,938.2633,941.2587,NA,NA,NA,NA,NA,90,26,0,17,17,72,1,2,18,"likert"
"1FC94F7DD8044E74B009F03B525C6441",1,"0198f788-be95-76a9-997d-fc3d69db584c","0198f768-e4d2-711c-944b-6f03c09216de","2025-08-29_14h33.35.956",NA,NA,944.6261,944.6263,944.6264,944.9684,NA,NA,NA,NA,NA,NA,NA,TRUE,5,0.9452,941.6124,944.6259,NA,NA,NA,NA,NA,7,28,0,18,18,2,1,2,19,"likert"
"1FC94F7DD8044E74B009F03B525C6441",1,"0198f788-be95-76a9-997d-fc3d69db584c","0198f768-e4d2-711c-944b-6f03c09216de","2025-08-29_14h33.35.956",NA,NA,947.9705,947.9708,947.9708,948.3152,NA,NA,NA,NA,NA,NA,NA,TRUE,4,1.54,944.9714,947.9704,NA,NA,NA,NA,NA,200,28,0,19,19,103,1,2,20,"likert"
"1FC94F7DD8044E74B009F03B525C6441",1,"0198f788-be95-76a9-997d-fc3d69db584c","0198f768-e4d2-711c-944b-6f03c09216de","2025-08-29_14h33.35.956",NA,NA,951.3124,951.3125,951.3127,951.6603,NA,NA,NA,NA,NA,NA,NA,TRUE,5,0.7404,948.3175,951.3119,NA,NA,NA,NA,NA,40,33,0,20,20,49,1,2,21,"likert"
"1FC94F7DD8044E74B009F03B525C6441",1,"0198f788-be95-76a9-997d-fc3d69db584c","0198f768-e4d2-711c-944b-6f03c09216de","2025-08-29_14h33.35.956",NA,NA,954.6614,954.6615,954.6616,955.0059,NA,NA,NA,NA,NA,NA,NA,TRUE,5,1.1605,951.6625,954.6609,NA,NA,NA,NA,NA,12,33,0,21,21,16,1,2,22,"likert"
"1FC94F7DD8044E74B009F03B525C6441",1,"0198f788-be95-76a9-997d-fc3d69db584c","0198f768-e4d2-711c-944b-6f03c09216de","2025-08-29_14h33.35.956",NA,NA,958.018,958.0181,958.0182,958.3681,NA,NA,NA,NA,NA,NA,NA,TRUE,5,0.9252,955.0114,958.0178,NA,NA,NA,NA,NA,95,40,0,22,22,81,1,2,23,"likert"
"1FC94F7DD8044E74B009F03B525C6441",1,"0198f788-be95-76a9-997d-fc3d69db584c","0198f768-e4d2-711c-944b-6f03c09216de","2025-08-29_14h33.35.956",NA,NA,961.3657,961.3657,961.3659,961.7143,NA,NA,NA,NA,NA,NA,NA,TRUE,4,1.7036,958.3721,961.3652,NA,NA,NA,NA,NA,180,46,0,23,23,100,1,2,24,"likert"
"1FC94F7DD8044E74B009F03B525C6441",1,"0198f788-be95-76a9-997d-fc3d69db584c","0198f768-e4d2-711c-944b-6f03c09216de","2025-08-29_14h33.35.956",NA,NA,964.7093,964.7093,964.7094,965.0595,NA,NA,NA,NA,NA,NA,NA,TRUE,5,1.5235,961.7171,964.7091,NA,NA,NA,NA,NA,28,39,0,24,24,40,1,2,25,"likert"
"1FC94F7DD8044E74B009F03B525C6441",1,"0198f788-be95-76a9-997d-fc3d69db584c","0198f768-e4d2-711c-944b-6f03c09216de","2025-08-29_14h33.35.956",NA,NA,968.0718,968.0719,968.0719,968.4211,NA,NA,NA,NA,NA,NA,NA,TRUE,5,0.725,965.062,968.0715,NA,NA,NA,NA,NA,21,32,0,25,25,28,1,2,26,"likert"
"1FC94F7DD8044E74B009F03B525C6441",1,"0198f788-be95-76a9-997d-fc3d69db584c","0198f768-e4d2-711c-944b-6f03c09216de","2025-08-29_14h33.35.956",NA,NA,971.4152,971.4153,971.4153,971.7649,NA,NA,NA,NA,NA,NA,NA,TRUE,5,0.9891,968.4251,971.415,NA,NA,NA,NA,NA,12,25,0,26,26,12,1,2,27,"likert"
"1FC94F7DD8044E74B009F03B525C6441",1,"0198f788-be95-76a9-997d-fc3d69db584c","0198f768-e4d2-711c-944b-6f03c09216de","2025-08-29_14h33.35.956",NA,NA,974.7618,974.7618,974.7618,975.1115,NA,NA,NA,NA,NA,NA,NA,TRUE,5,1.3064,971.7687,974.7614,NA,NA,NA,NA,NA,25,35,0,27,27,34,1,2,28,"likert"
"1FC94F7DD8044E74B009F03B525C6441",1,"0198f788-be95-76a9-997d-fc3d69db584c","0198f768-e4d2-711c-944b-6f03c09216de","2025-08-29_14h33.35.956",NA,NA,978.1067,978.1069,978.1072,978.4718,NA,NA,NA,NA,NA,NA,NA,TRUE,5,1.0361,975.1195,978.1063,NA,NA,NA,NA,NA,95,47,0,28,28,82,1,2,29,"likert"
"1FC94F7DD8044E74B009F03B525C6441",1,"0198f788-be95-76a9-997d-fc3d69db584c","0198f768-e4d2-711c-944b-6f03c09216de","2025-08-29_14h33.35.956",NA,NA,981.4694,981.4696,981.4697,981.8197,NA,NA,NA,NA,NA,NA,NA,TRUE,4,1.2767,978.4744,981.4692,NA,NA,NA,NA,NA,100,39,0,29,29,87,1,2,30,"likert"
"1FC94F7DD8044E74B009F03B525C6441",1,"0198f788-be95-76a9-997d-fc3d69db584c","0198f768-e4d2-711c-944b-6f03c09216de","2025-08-29_14h33.35.956",NA,NA,984.817,984.8171,984.8171,985.1627,NA,NA,NA,NA,NA,NA,NA,TRUE,5,1.0896,981.822,984.8164,NA,NA,NA,NA,NA,60,47,0,30,30,70,1,2,31,"likert"
"1FC94F7DD8044E74B009F03B525C6441",1,"0198f788-be95-76a9-997d-fc3d69db584c","0198f768-e4d2-711c-944b-6f03c09216de","2025-08-29_14h33.35.956",NA,NA,988.1629,988.163,988.1631,988.5197,NA,NA,NA,NA,NA,NA,NA,TRUE,5,0.9261,985.1676,988.1624,NA,NA,NA,NA,NA,60,35,0,31,31,68,1,2,32,"likert"
"1FC94F7DD8044E74B009F03B525C6441",1,"0198f788-be95-76a9-997d-fc3d69db584c","0198f768-e4d2-711c-944b-6f03c09216de","2025-08-29_14h33.35.956",NA,NA,991.5067,991.5068,991.5069,991.857,NA,NA,NA,NA,NA,NA,NA,TRUE,5,1.2556,988.5221,991.5062,NA,NA,NA,NA,NA,21,29,0,32,32,26,1,2,33,"likert"
"1FC94F7DD8044E74B009F03B525C6441",1,"0198f788-be95-76a9-997d-fc3d69db584c","0198f768-e4d2-711c-944b-6f03c09216de","2025-08-29_14h33.35.956",NA,NA,994.8673,994.8674,994.8674,995.2203,NA,NA,NA,NA,NA,NA,NA,TRUE,5,0.6436,991.8611,994.8671,NA,NA,NA,NA,NA,12,28,0,33,33,14,1,2,34,"likert"
"1FC94F7DD8044E74B009F03B525C6441",1,"0198f788-be95-76a9-997d-fc3d69db584c","0198f768-e4d2-711c-944b-6f03c09216de","2025-08-29_14h33.35.956",NA,NA,998.2167,998.2168,998.2168,998.571,NA,NA,NA,NA,NA,NA,NA,TRUE,5,1.16,995.2243,998.2164,NA,NA,NA,NA,NA,90,40,0,34,34,75,1,2,35,"likert"
"1FC94F7DD8044E74B009F03B525C6441",1,"0198f788-be95-76a9-997d-fc3d69db584c","0198f768-e4d2-711c-944b-6f03c09216de","2025-08-29_14h33.35.956",NA,NA,1001.5573,1001.5574,1001.5575,1001.9084,NA,NA,NA,NA,NA,NA,NA,TRUE,5,0.6503,998.5801,1001.5569,NA,NA,NA,NA,NA,95,54,0,35,35,83,1,2,36,"likert"
"1FC94F7DD8044E74B009F03B525C6441",1,"0198f788-be95-76a9-997d-fc3d69db584c","0198f768-e4d2-711c-944b-6f03c09216de","2025-08-29_14h33.35.956",NA,NA,1004.9223,1004.9224,1004.9224,1005.2678,NA,NA,NA,NA,NA,NA,NA,TRUE,4,1.0901,1001.9118,1004.922,NA,NA,NA,NA,NA,180,27,0,36,36,96,1,2,37,"likert"
"1FC94F7DD8044E74B009F03B525C6441",1,"0198f788-be95-76a9-997d-fc3d69db584c","0198f768-e4d2-711c-944b-6f03c09216de","2025-08-29_14h33.35.956",NA,NA,1008.2691,1008.2692,1008.2692,1008.6148,NA,NA,NA,NA,NA,NA,NA,TRUE,5,1.7336,1005.2702,1008.2689,NA,NA,NA,NA,NA,21,26,0,37,37,24,1,2,38,"likert"
"1FC94F7DD8044E74B009F03B525C6441",1,"0198f788-be95-76a9-997d-fc3d69db584c","0198f768-e4d2-711c-944b-6f03c09216de","2025-08-29_14h33.35.956",NA,NA,1011.6112,1011.6113,1011.6115,1011.9601,NA,NA,NA,NA,NA,NA,NA,TRUE,5,0.913,1008.6171,1011.6107,NA,NA,NA,NA,NA,40,40,0,38,38,51,1,2,39,"likert"
"1FC94F7DD8044E74B009F03B525C6441",1,"0198f788-be95-76a9-997d-fc3d69db584c","0198f768-e4d2-711c-944b-6f03c09216de","2025-08-29_14h33.35.956",NA,NA,1014.9629,1014.963,1014.963,1015.3207,NA,NA,NA,NA,NA,NA,NA,TRUE,5,0.6453,1011.9624,1014.9626,NA,NA,NA,NA,NA,100,31,0,39,39,85,1,2,40,"likert"
"1FC94F7DD8044E74B009F03B525C6441",1,"0198f788-be95-76a9-997d-fc3d69db584c","0198f768-e4d2-711c-944b-6f03c09216de","2025-08-29_14h33.35.956",NA,NA,1018.3195,1018.3196,1018.3196,1018.6673,NA,NA,NA,NA,NA,NA,NA,TRUE,1,1.1672,1015.323,1018.3192,NA,NA,NA,NA,NA,10,25,0,40,40,6,1,2,41,"likert"
"1FC94F7DD8044E74B009F03B525C6441",1,"0198f788-be95-76a9-997d-fc3d69db584c","0198f768-e4d2-711c-944b-6f03c09216de","2025-08-29_14h33.35.956",NA,NA,1021.6695,1021.6698,1021.6699,1022.0126,NA,NA,NA,NA,NA,NA,NA,TRUE,3,1.6251,1018.6696,1021.6691,NA,NA,NA,NA,NA,100,26,0,41,41,84,1,2,42,"likert"
"1FC94F7DD8044E74B009F03B525C6441",1,"0198f788-be95-76a9-997d-fc3d69db584c","0198f768-e4d2-711c-944b-6f03c09216de","2025-08-29_14h33.35.956",NA,NA,1025.0102,1025.0103,1025.0104,1025.3578,NA,NA,NA,NA,NA,NA,NA,TRUE,5,0.5473,1022.0152,1025.0095,NA,NA,NA,NA,NA,40,47,0,42,42,52,1,2,43,"likert"
"1FC94F7DD8044E74B009F03B525C6441",1,"0198f788-be95-76a9-997d-fc3d69db584c","0198f768-e4d2-711c-944b-6f03c09216de","2025-08-29_14h33.35.956",NA,NA,1028.356,1028.3561,1028.3562,1028.7053,NA,NA,NA,NA,NA,NA,NA,TRUE,5,1.3233,1025.36,1028.3555,NA,NA,NA,NA,NA,28,28,0,43,43,37,1,2,44,"likert"
"1FC94F7DD8044E74B009F03B525C6441",1,"0198f788-be95-76a9-997d-fc3d69db584c","0198f768-e4d2-711c-944b-6f03c09216de","2025-08-29_14h33.35.956",NA,NA,1031.7194,1031.7195,1031.7196,1032.0668,NA,NA,NA,NA,NA,NA,NA,TRUE,3,1.4779,1028.7091,1031.7189,NA,NA,NA,NA,NA,200,54,0,44,44,107,1,2,45,"likert"
"1FC94F7DD8044E74B009F03B525C6441",1,"0198f788-be95-76a9-997d-fc3d69db584c","0198f768-e4d2-711c-944b-6f03c09216de","2025-08-29_14h33.35.956",NA,NA,1035.0651,1035.0652,1035.0653,1035.4099,NA,NA,NA,NA,NA,NA,NA,TRUE,5,0.9577,1032.0709,1035.0648,NA,NA,NA,NA,NA,28,32,0,45,45,38,1,2,46,"likert"
"1FC94F7DD8044E74B009F03B525C6441",1,"0198f788-be95-76a9-997d-fc3d69db584c","0198f768-e4d2-711c-944b-6f03c09216de","2025-08-29_14h33.35.956",NA,NA,1038.4085,1038.4086,1038.4087,1038.7553,NA,NA,NA,NA,NA,NA,NA,TRUE,4,2.3862,1035.4146,1038.4083,NA,NA,NA,NA,NA,180,54,0,46,46,101,1,2,47,"likert"
"1FC94F7DD8044E74B009F03B525C6441",1,"0198f788-be95-76a9-997d-fc3d69db584c","0198f768-e4d2-711c-944b-6f03c09216de","2025-08-29_14h33.35.956",NA,NA,1041.7681,1041.7682,1041.7683,1042.1211,NA,NA,NA,NA,NA,NA,NA,TRUE,5,1.5763,1038.7581,1041.7678,NA,NA,NA,NA,NA,30,38,0,47,47,47,1,2,48,"likert"
"1FC94F7DD8044E74B009F03B525C6441",1,"0198f788-be95-76a9-997d-fc3d69db584c","0198f768-e4d2-711c-944b-6f03c09216de","2025-08-29_14h33.35.956",NA,NA,1045.123,1045.1233,1045.1234,1045.4639,NA,NA,NA,NA,NA,NA,NA,TRUE,5,1.0448,1042.1236,1045.1225,NA,NA,NA,NA,NA,45,35,0,48,48,57,1,2,49,"likert"
"1FC94F7DD8044E74B009F03B525C6441",1,"0198f788-be95-76a9-997d-fc3d69db584c","0198f768-e4d2-711c-944b-6f03c09216de","2025-08-29_14h33.35.956",NA,NA,1048.4608,1048.4609,1048.4609,1048.8097,NA,NA,NA,NA,NA,NA,NA,TRUE,4,1.3393,1045.468,1048.4605,NA,NA,NA,NA,NA,150,31,0,49,49,90,1,2,50,"likert"
"1FC94F7DD8044E74B009F03B525C6441",1,"0198f788-be95-76a9-997d-fc3d69db584c","0198f768-e4d2-711c-944b-6f03c09216de","2025-08-29_14h33.35.956",NA,NA,1051.822,1051.8222,1051.8223,1052.1723,NA,NA,NA,NA,NA,NA,NA,TRUE,4,1.1317,1048.8135,1051.8219,NA,NA,NA,NA,NA,150,54,0,50,50,95,1,2,51,"likert"
"1FC94F7DD8044E74B009F03B525C6441",1,"0198f788-be95-76a9-997d-fc3d69db584c","0198f768-e4d2-711c-944b-6f03c09216de","2025-08-29_14h33.35.956",NA,NA,1055.1684,1055.1685,1055.1685,1055.5175,NA,NA,NA,NA,NA,NA,NA,TRUE,5,0.7244,1052.1759,1055.1681,NA,NA,NA,NA,NA,60,40,0,51,51,69,1,2,52,"likert"
"1FC94F7DD8044E74B009F03B525C6441",1,"0198f788-be95-76a9-997d-fc3d69db584c","0198f768-e4d2-711c-944b-6f03c09216de","2025-08-29_14h33.35.956",NA,NA,1058.5126,1058.5127,1058.5127,1058.8605,NA,NA,NA,NA,NA,NA,NA,TRUE,5,1.0865,1055.5213,1058.5124,NA,NA,NA,NA,NA,45,46,0,52,52,59,1,2,53,"likert"
"1FC94F7DD8044E74B009F03B525C6441",1,"0198f788-be95-76a9-997d-fc3d69db584c","0198f768-e4d2-711c-944b-6f03c09216de","2025-08-29_14h33.35.956",NA,NA,1061.8572,1061.8573,1061.8573,1062.2061,NA,NA,NA,NA,NA,NA,NA,TRUE,4,1.4731,1058.863,1061.8569,NA,NA,NA,NA,NA,180,31,0,53,53,97,1,2,54,"likert"
"1FC94F7DD8044E74B009F03B525C6441",1,"0198f788-be95-76a9-997d-fc3d69db584c","0198f768-e4d2-711c-944b-6f03c09216de","2025-08-29_14h33.35.956",NA,NA,1065.2196,1065.2197,1065.2197,1065.5558,NA,NA,NA,NA,NA,NA,NA,TRUE,5,1.1408,1062.2084,1065.2192,NA,NA,NA,NA,NA,12,31,0,54,54,15,1,2,55,"likert"
"1FC94F7DD8044E74B009F03B525C6441",1,"0198f788-be95-76a9-997d-fc3d69db584c","0198f768-e4d2-711c-944b-6f03c09216de","2025-08-29_14h33.35.956",NA,NA,1068.5655,1068.5656,1068.5658,1068.9136,NA,NA,NA,NA,NA,NA,NA,TRUE,5,1.2112,1065.5599,1068.5651,NA,NA,NA,NA,NA,30,27,0,55,55,43,1,2,56,"likert"
"1FC94F7DD8044E74B009F03B525C6441",1,"0198f788-be95-76a9-997d-fc3d69db584c","0198f768-e4d2-711c-944b-6f03c09216de","2025-08-29_14h33.35.956",NA,NA,1071.9122,1071.9123,1071.9125,1072.26,NA,NA,NA,NA,NA,NA,NA,TRUE,5,0.6455,1068.9161,1071.9118,NA,NA,NA,NA,NA,50,54,0,56,56,65,1,2,57,"likert"
"1FC94F7DD8044E74B009F03B525C6441",1,"0198f788-be95-76a9-997d-fc3d69db584c","0198f768-e4d2-711c-944b-6f03c09216de","2025-08-29_14h33.35.956",NA,NA,1075.2597,1075.2599,1075.2599,1075.6058,NA,NA,NA,NA,NA,NA,NA,TRUE,5,0.8038,1072.2631,1075.2588,NA,NA,NA,NA,NA,14,26,0,57,57,19,1,2,58,"likert"
"1FC94F7DD8044E74B009F03B525C6441",1,"0198f788-be95-76a9-997d-fc3d69db584c","0198f768-e4d2-711c-944b-6f03c09216de","2025-08-29_14h33.35.956",NA,NA,1078.619,1078.6191,1078.6191,1078.9676,NA,NA,NA,NA,NA,NA,NA,TRUE,5,0.7906,1075.6094,1078.6187,NA,NA,NA,NA,NA,25,27,0,58,58,30,1,2,59,"likert"
"1FC94F7DD8044E74B009F03B525C6441",1,"0198f788-be95-76a9-997d-fc3d69db584c","0198f768-e4d2-711c-944b-6f03c09216de","2025-08-29_14h33.35.956",NA,NA,1081.9654,1081.9655,1081.9657,1082.3148,NA,NA,NA,NA,NA,NA,NA,TRUE,5,1.0589,1078.97,1081.965,NA,NA,NA,NA,NA,50,46,0,59,59,64,1,2,60,"likert"
"1FC94F7DD8044E74B009F03B525C6441",1,"0198f788-be95-76a9-997d-fc3d69db584c","0198f768-e4d2-711c-944b-6f03c09216de","2025-08-29_14h33.35.956",NA,NA,1085.3077,1085.3077,1085.3078,1085.6575,NA,NA,NA,NA,NA,NA,NA,TRUE,4,1.2904,1082.3282,1085.3074,NA,NA,NA,NA,NA,200,35,0,60,60,104,1,2,61,"likert"
"1FC94F7DD8044E74B009F03B525C6441",1,"0198f788-be95-76a9-997d-fc3d69db584c","0198f768-e4d2-711c-944b-6f03c09216de","2025-08-29_14h33.35.956",NA,NA,1088.6718,1088.672,1088.672,1089.0213,NA,NA,NA,NA,NA,NA,NA,TRUE,5,1.2616,1085.6614,1088.6715,NA,NA,NA,NA,NA,95,35,0,61,61,80,1,2,62,"likert"
"1FC94F7DD8044E74B009F03B525C6441",1,"0198f788-be95-76a9-997d-fc3d69db584c","0198f768-e4d2-711c-944b-6f03c09216de","2025-08-29_14h33.35.956",NA,NA,1092.0165,1092.0168,1092.0169,1092.3642,NA,NA,NA,NA,NA,NA,NA,TRUE,5,0.8826,1089.0257,1092.0161,NA,NA,NA,NA,NA,28,35,0,62,62,39,1,2,63,"likert"
"1FC94F7DD8044E74B009F03B525C6441",1,"0198f788-be95-76a9-997d-fc3d69db584c","0198f768-e4d2-711c-944b-6f03c09216de","2025-08-29_14h33.35.956",NA,NA,1095.3627,1095.3629,1095.3629,1095.7114,NA,NA,NA,NA,NA,NA,NA,TRUE,5,1.5489,1092.3668,1095.3621,NA,NA,NA,NA,NA,7,30,0,63,63,3,1,2,64,"likert"
"1FC94F7DD8044E74B009F03B525C6441",1,"0198f788-be95-76a9-997d-fc3d69db584c","0198f768-e4d2-711c-944b-6f03c09216de","2025-08-29_14h33.35.956",NA,NA,1098.7107,1098.7108,1098.7108,1099.0579,NA,NA,NA,NA,NA,NA,NA,TRUE,5,1.5424,1095.714,1098.7105,NA,NA,NA,NA,NA,21,38,0,64,64,29,1,2,65,"likert"
"1FC94F7DD8044E74B009F03B525C6441",1,"0198f788-be95-76a9-997d-fc3d69db584c","0198f768-e4d2-711c-944b-6f03c09216de","2025-08-29_14h33.35.956",NA,NA,1102.0689,1102.069,1102.0691,1102.4187,NA,NA,NA,NA,NA,NA,NA,TRUE,5,1.4255,1099.062,1102.0687,NA,NA,NA,NA,NA,90,54,0,65,65,77,1,2,66,"likert"
"1FC94F7DD8044E74B009F03B525C6441",1,"0198f788-be95-76a9-997d-fc3d69db584c","0198f768-e4d2-711c-944b-6f03c09216de","2025-08-29_14h33.35.956",NA,NA,1105.4151,1105.4151,1105.4151,1105.7665,NA,NA,NA,NA,NA,NA,NA,TRUE,5,1.1917,1102.4229,1105.4148,NA,NA,NA,NA,NA,45,40,0,66,66,58,1,2,67,"likert"
"1FC94F7DD8044E74B009F03B525C6441",1,"0198f788-be95-76a9-997d-fc3d69db584c","0198f768-e4d2-711c-944b-6f03c09216de","2025-08-29_14h33.35.956",NA,NA,1108.759,1108.7591,1108.7592,1109.1077,NA,NA,NA,NA,NA,NA,NA,TRUE,5,0.7053,1105.7707,1108.7586,NA,NA,NA,NA,NA,25,31,0,67,67,32,1,2,68,"likert"
"1FC94F7DD8044E74B009F03B525C6441",1,"0198f788-be95-76a9-997d-fc3d69db584c","0198f768-e4d2-711c-944b-6f03c09216de","2025-08-29_14h33.35.956",NA,NA,1112.1207,1112.1209,1112.1209,1112.4551,NA,NA,NA,NA,NA,NA,NA,TRUE,4,1.1469,1109.1105,1112.1204,NA,NA,NA,NA,NA,180,39,0,68,68,99,1,2,69,"likert"
"1FC94F7DD8044E74B009F03B525C6441",1,"0198f788-be95-76a9-997d-fc3d69db584c","0198f768-e4d2-711c-944b-6f03c09216de","2025-08-29_14h33.35.956",NA,NA,1115.4685,1115.4686,1115.4688,1115.8164,NA,NA,NA,NA,NA,NA,NA,TRUE,5,1.6752,1112.4595,1115.4683,NA,NA,NA,NA,NA,28,26,0,69,69,36,1,2,70,"likert"
"1FC94F7DD8044E74B009F03B525C6441",1,"0198f788-be95-76a9-997d-fc3d69db584c","0198f768-e4d2-711c-944b-6f03c09216de","2025-08-29_14h33.35.956",NA,NA,1118.8244,1118.8244,1118.8246,1119.162,NA,NA,NA,NA,NA,NA,NA,TRUE,5,0.6494,1115.8188,1118.8241,NA,NA,NA,NA,NA,200,47,0,70,70,106,1,2,71,"likert"
"1FC94F7DD8044E74B009F03B525C6441",1,"0198f788-be95-76a9-997d-fc3d69db584c","0198f768-e4d2-711c-944b-6f03c09216de","2025-08-29_14h33.35.956",NA,NA,1122.1584,1122.1584,1122.1585,1122.507,NA,NA,NA,NA,NA,NA,NA,TRUE,5,0.7095,1119.1647,1122.1581,NA,NA,NA,NA,NA,21,30,0,71,71,27,1,2,72,"likert"
"1FC94F7DD8044E74B009F03B525C6441",1,"0198f788-be95-76a9-997d-fc3d69db584c","0198f768-e4d2-711c-944b-6f03c09216de","2025-08-29_14h33.35.956",NA,NA,1125.5219,1125.5221,1125.5222,1125.869,NA,NA,NA,NA,NA,NA,NA,TRUE,5,2.5563,1122.5091,1125.5217,NA,NA,NA,NA,NA,50,27,0,72,72,60,1,2,73,"likert"
"1FC94F7DD8044E74B009F03B525C6441",1,"0198f788-be95-76a9-997d-fc3d69db584c","0198f768-e4d2-711c-944b-6f03c09216de","2025-08-29_14h33.35.956",NA,NA,1128.8658,1128.866,1128.866,1129.217,NA,NA,NA,NA,NA,NA,NA,TRUE,5,1.8918,1125.8714,1128.8657,NA,NA,NA,NA,NA,10,27,0,73,73,8,1,2,74,"likert"
"1FC94F7DD8044E74B009F03B525C6441",1,"0198f788-be95-76a9-997d-fc3d69db584c","0198f768-e4d2-711c-944b-6f03c09216de","2025-08-29_14h33.35.956",NA,NA,1132.2138,1132.2141,1132.2143,1132.5601,NA,NA,NA,NA,NA,NA,NA,TRUE,5,1.1596,1129.221,1132.2134,NA,NA,NA,NA,NA,40,27,0,74,74,48,1,2,75,"likert"
"1FC94F7DD8044E74B009F03B525C6441",1,"0198f788-be95-76a9-997d-fc3d69db584c","0198f768-e4d2-711c-944b-6f03c09216de","2025-08-29_14h33.35.956",NA,NA,1135.5562,1135.5564,1135.5564,1135.9064,NA,NA,NA,NA,NA,NA,NA,TRUE,5,0.7415,1132.5623,1135.5561,NA,NA,NA,NA,NA,40,35,0,75,75,50,1,2,76,"likert"
"1FC94F7DD8044E74B009F03B525C6441",1,"0198f788-be95-76a9-997d-fc3d69db584c","0198f768-e4d2-711c-944b-6f03c09216de","2025-08-29_14h33.35.956",NA,NA,1138.9199,1138.9201,1138.9201,1139.2689,NA,NA,NA,NA,NA,NA,NA,TRUE,1,1.0769,1135.9101,1138.9196,NA,NA,NA,NA,NA,14,25,0,76,76,18,1,2,77,"likert"
"1FC94F7DD8044E74B009F03B525C6441",1,"0198f788-be95-76a9-997d-fc3d69db584c","0198f768-e4d2-711c-944b-6f03c09216de","2025-08-29_14h33.35.956",NA,NA,1142.2646,1142.2648,1142.2648,1142.6132,NA,NA,NA,NA,NA,NA,NA,TRUE,5,1.2927,1139.2714,1142.2644,NA,NA,NA,NA,NA,14,28,0,77,77,20,1,2,78,"likert"
"1FC94F7DD8044E74B009F03B525C6441",1,"0198f788-be95-76a9-997d-fc3d69db584c","0198f768-e4d2-711c-944b-6f03c09216de","2025-08-29_14h33.35.956",NA,NA,1145.6096,1145.6097,1145.6098,1145.9597,NA,NA,NA,NA,NA,NA,NA,TRUE,4,1.3031,1142.6173,1145.6092,NA,NA,NA,NA,NA,150,33,0,78,78,91,1,2,79,"likert"
"1FC94F7DD8044E74B009F03B525C6441",1,"0198f788-be95-76a9-997d-fc3d69db584c","0198f768-e4d2-711c-944b-6f03c09216de","2025-08-29_14h33.35.956",NA,NA,1148.9725,1148.973,1148.9731,1149.3205,NA,NA,NA,NA,NA,NA,NA,TRUE,4,1.3388,1145.9638,1148.972,NA,NA,NA,NA,NA,100,38,0,79,79,86,1,2,80,"likert"
"1FC94F7DD8044E74B009F03B525C6441",1,"0198f788-be95-76a9-997d-fc3d69db584c","0198f768-e4d2-711c-944b-6f03c09216de","2025-08-29_14h33.35.956",NA,NA,1152.3168,1152.3168,1152.3168,1152.6653,NA,NA,NA,NA,NA,NA,NA,TRUE,5,1.0271,1149.3228,1152.3165,NA,NA,NA,NA,NA,7,32,0,80,80,4,1,2,81,"likert"
"1FC94F7DD8044E74B009F03B525C6441",1,"0198f788-be95-76a9-997d-fc3d69db584c","0198f768-e4d2-711c-944b-6f03c09216de","2025-08-29_14h33.35.956",NA,NA,1155.6622,1155.6622,1155.6622,1156.0111,NA,NA,NA,NA,NA,NA,NA,TRUE,4,1.2059,1152.6674,1155.6619,NA,NA,NA,NA,NA,150,47,0,81,81,94,1,2,82,"likert"
"1FC94F7DD8044E74B009F03B525C6441",1,"0198f788-be95-76a9-997d-fc3d69db584c","0198f768-e4d2-711c-944b-6f03c09216de","2025-08-29_14h33.35.956",NA,NA,1159.0058,1159.0059,1159.0059,1159.3551,NA,NA,NA,NA,NA,NA,NA,TRUE,5,1.7293,1156.0134,1159.0053,NA,NA,NA,NA,NA,10,29,0,82,82,9,1,2,83,"likert"
"1FC94F7DD8044E74B009F03B525C6441",1,"0198f788-be95-76a9-997d-fc3d69db584c","0198f768-e4d2-711c-944b-6f03c09216de","2025-08-29_14h33.35.956",NA,NA,1162.3678,1162.3681,1162.3684,1162.7172,NA,NA,NA,NA,NA,NA,NA,TRUE,4,0.94,1159.3576,1162.3675,NA,NA,NA,NA,NA,150,35,0,83,83,92,1,2,84,"likert"
"1FC94F7DD8044E74B009F03B525C6441",1,"0198f788-be95-76a9-997d-fc3d69db584c","0198f768-e4d2-711c-944b-6f03c09216de","2025-08-29_14h33.35.956",NA,NA,1165.7204,1165.7205,1165.7206,1166.0634,NA,NA,NA,NA,NA,NA,NA,TRUE,5,0.8754,1162.7198,1165.7201,NA,NA,NA,NA,NA,10,32,0,84,84,11,1,2,85,"likert"
"1FC94F7DD8044E74B009F03B525C6441",1,"0198f788-be95-76a9-997d-fc3d69db584c","0198f768-e4d2-711c-944b-6f03c09216de","2025-08-29_14h33.35.956",NA,NA,1169.0615,1169.0617,1169.0618,1169.4092,NA,NA,NA,NA,NA,NA,NA,TRUE,5,1.0907,1166.0672,1169.0611,NA,NA,NA,NA,NA,45,29,0,85,85,55,1,2,86,"likert"
"1FC94F7DD8044E74B009F03B525C6441",1,"0198f788-be95-76a9-997d-fc3d69db584c","0198f768-e4d2-711c-944b-6f03c09216de","2025-08-29_14h33.35.956",NA,NA,1172.4121,1172.4122,1172.4122,1172.7577,NA,NA,NA,NA,NA,NA,NA,TRUE,5,0.86,1169.4118,1172.4119,NA,NA,NA,NA,NA,90,46,0,86,86,76,1,2,87,"likert"
"1FC94F7DD8044E74B009F03B525C6441",1,"0198f788-be95-76a9-997d-fc3d69db584c","0198f768-e4d2-711c-944b-6f03c09216de","2025-08-29_14h33.35.956",NA,NA,1175.77,1175.7702,1175.7703,1176.1174,NA,NA,NA,NA,NA,NA,NA,TRUE,5,1.0529,1172.7599,1175.7695,NA,NA,NA,NA,NA,95,31,0,87,87,78,1,2,88,"likert"
"1FC94F7DD8044E74B009F03B525C6441",1,"0198f788-be95-76a9-997d-fc3d69db584c","0198f768-e4d2-711c-944b-6f03c09216de","2025-08-29_14h33.35.956",NA,NA,1179.114,1179.1141,1179.1142,1179.4608,NA,NA,NA,NA,NA,NA,NA,TRUE,5,0.9173,1176.1214,1179.1135,NA,NA,NA,NA,NA,25,33,0,88,88,33,1,2,89,"likert"
"1FC94F7DD8044E74B009F03B525C6441",1,"0198f788-be95-76a9-997d-fc3d69db584c","0198f768-e4d2-711c-944b-6f03c09216de","2025-08-29_14h33.35.956",NA,NA,1182.4597,1182.4598,1182.46,1182.8085,NA,NA,NA,NA,NA,NA,NA,TRUE,5,1.225,1179.4631,1182.4593,NA,NA,NA,NA,NA,12,35,0,89,89,17,1,2,90,"likert"
"1FC94F7DD8044E74B009F03B525C6441",1,"0198f788-be95-76a9-997d-fc3d69db584c","0198f768-e4d2-711c-944b-6f03c09216de","2025-08-29_14h33.35.956",NA,NA,1185.8061,1185.8062,1185.8063,1186.1703,NA,NA,NA,NA,NA,NA,NA,TRUE,5,1.1114,1182.8124,1185.8058,NA,NA,NA,NA,NA,200,39,0,90,90,105,1,2,91,"likert"
"1FC94F7DD8044E74B009F03B525C6441",1,"0198f788-be95-76a9-997d-fc3d69db584c","0198f768-e4d2-711c-944b-6f03c09216de","2025-08-29_14h33.35.956",NA,NA,1189.169,1189.1693,1189.1694,1189.5167,NA,NA,NA,NA,NA,NA,NA,TRUE,5,1.772,1186.1734,1189.1686,NA,NA,NA,NA,NA,30,32,0,91,91,46,1,2,92,"likert"
"1FC94F7DD8044E74B009F03B525C6441",1,"0198f788-be95-76a9-997d-fc3d69db584c","0198f768-e4d2-711c-944b-6f03c09216de","2025-08-29_14h33.35.956",NA,NA,1192.5107,1192.5108,1192.511,1192.8591,NA,NA,NA,NA,NA,NA,NA,TRUE,5,1.2518,1189.5207,1192.5103,NA,NA,NA,NA,NA,10,30,0,92,92,10,1,2,93,"likert"
"1FC94F7DD8044E74B009F03B525C6441",1,"0198f788-be95-76a9-997d-fc3d69db584c","0198f768-e4d2-711c-944b-6f03c09216de","2025-08-29_14h33.35.956",NA,NA,1195.8582,1195.8583,1195.8585,1196.2059,NA,NA,NA,NA,NA,NA,NA,TRUE,5,1.1273,1192.8631,1195.8576,NA,NA,NA,NA,NA,50,40,0,93,93,63,1,2,94,"likert"
"1FC94F7DD8044E74B009F03B525C6441",1,"0198f788-be95-76a9-997d-fc3d69db584c","0198f768-e4d2-711c-944b-6f03c09216de","2025-08-29_14h33.35.956",NA,NA,1199.2172,1199.2172,1199.2172,1199.5677,NA,NA,NA,NA,NA,NA,NA,TRUE,5,1.0032,1196.2081,1199.2168,NA,NA,NA,NA,NA,90,33,0,94,94,74,1,2,95,"likert"
"1FC94F7DD8044E74B009F03B525C6441",1,"0198f788-be95-76a9-997d-fc3d69db584c","0198f768-e4d2-711c-944b-6f03c09216de","2025-08-29_14h33.35.956",NA,NA,1202.5633,1202.5633,1202.5633,1202.9122,NA,NA,NA,NA,NA,NA,NA,TRUE,1,1.0574,1199.5703,1202.5629,NA,NA,NA,NA,NA,7,25,0,95,95,0,1,2,96,"likert"
"1FC94F7DD8044E74B009F03B525C6441",1,"0198f788-be95-76a9-997d-fc3d69db584c","0198f768-e4d2-711c-944b-6f03c09216de","2025-08-29_14h33.35.956",NA,NA,1205.9073,1205.9074,1205.9074,1206.2569,NA,NA,NA,NA,NA,NA,NA,TRUE,4,1.0387,1202.9158,1205.9071,NA,NA,NA,NA,NA,180,35,0,96,96,98,1,2,97,"likert"
"1FC94F7DD8044E74B009F03B525C6441",1,"0198f788-be95-76a9-997d-fc3d69db584c","0198f768-e4d2-711c-944b-6f03c09216de","2025-08-29_14h33.35.956",NA,NA,1209.2706,1209.2707,1209.2708,1209.6189,NA,NA,NA,NA,NA,NA,NA,TRUE,5,1.0909,1206.2594,1209.2701,NA,NA,NA,NA,NA,10,26,0,97,97,7,1,2,98,"likert"
"1FC94F7DD8044E74B009F03B525C6441",1,"0198f788-be95-76a9-997d-fc3d69db584c","0198f768-e4d2-711c-944b-6f03c09216de","2025-08-29_14h33.35.956",NA,NA,1212.6151,1212.6152,1212.6153,1212.9659,NA,NA,NA,NA,NA,NA,NA,TRUE,5,0.6126,1209.6211,1212.6149,NA,NA,NA,NA,NA,60,54,0,98,98,71,1,2,99,"likert"
"1FC94F7DD8044E74B009F03B525C6441",1,"0198f788-be95-76a9-997d-fc3d69db584c","0198f768-e4d2-711c-944b-6f03c09216de","2025-08-29_14h33.35.956",NA,NA,1215.9632,1215.9633,1215.9634,1216.3114,NA,NA,NA,NA,NA,NA,NA,TRUE,5,1.1743,1212.9682,1215.9631,NA,NA,NA,NA,NA,50,35,0,99,99,62,1,2,100,"likert"
"1FC94F7DD8044E74B009F03B525C6441",1,"0198f788-be95-76a9-997d-fc3d69db584c","0198f768-e4d2-711c-944b-6f03c09216de","2025-08-29_14h33.35.956",NA,NA,1219.307,1219.307,1219.3071,1219.6583,NA,NA,NA,NA,NA,NA,NA,TRUE,5,0.9418,1216.3135,1219.3067,NA,NA,NA,NA,NA,25,46,0,100,100,35,1,2,101,"likert"
"1FC94F7DD8044E74B009F03B525C6441",1,"0198f788-be95-76a9-997d-fc3d69db584c","0198f768-e4d2-711c-944b-6f03c09216de","2025-08-29_14h33.35.956",NA,NA,1222.6578,1222.6579,1222.6579,1223.0213,NA,NA,NA,NA,NA,NA,NA,TRUE,5,0.6571,1219.6621,1222.6576,NA,NA,NA,NA,NA,14,32,0,101,101,21,1,2,102,"likert"
"1FC94F7DD8044E74B009F03B525C6441",1,"0198f788-be95-76a9-997d-fc3d69db584c","0198f768-e4d2-711c-944b-6f03c09216de","2025-08-29_14h33.35.956",NA,NA,1226.0157,1226.0158,1226.0159,1226.3646,NA,NA,NA,NA,NA,NA,NA,TRUE,5,0.6261,1223.0237,1226.0155,NA,NA,NA,NA,NA,14,39,0,102,102,23,1,2,103,"likert"
"1FC94F7DD8044E74B009F03B525C6441",1,"0198f788-be95-76a9-997d-fc3d69db584c","0198f768-e4d2-711c-944b-6f03c09216de","2025-08-29_14h33.35.956",NA,NA,1229.3627,1229.3627,1229.3629,1229.7103,NA,NA,NA,NA,NA,NA,NA,TRUE,4,1.0538,1226.3669,1229.3622,NA,NA,NA,NA,NA,150,40,0,103,103,93,1,2,104,"likert"
"1FC94F7DD8044E74B009F03B525C6441",1,"0198f788-be95-76a9-997d-fc3d69db584c","0198f768-e4d2-711c-944b-6f03c09216de","2025-08-29_14h33.35.956",NA,NA,1232.7234,1232.7235,1232.7235,1233.0557,NA,NA,NA,NA,NA,NA,NA,TRUE,5,0.6911,1229.7125,1232.7232,NA,NA,NA,NA,NA,95,33,0,104,104,79,1,2,105,"likert"
"1FC94F7DD8044E74B009F03B525C6441",1,"0198f788-be95-76a9-997d-fc3d69db584c","0198f768-e4d2-711c-944b-6f03c09216de","2025-08-29_14h33.35.956",NA,NA,1236.0678,1236.0678,1236.068,1236.4166,NA,NA,NA,NA,NA,NA,NA,TRUE,5,1.312,1233.058,1236.0675,NA,NA,NA,NA,NA,90,30,0,105,105,73,1,2,106,"likert"
"1FC94F7DD8044E74B009F03B525C6441",1,"0198f788-be95-76a9-997d-fc3d69db584c","0198f768-e4d2-711c-944b-6f03c09216de","2025-08-29_14h33.35.956",NA,NA,1239.4157,1239.4158,1239.4158,1239.7658,NA,NA,NA,NA,NA,NA,NA,TRUE,5,1.1658,1236.4205,1239.4154,NA,NA,NA,NA,NA,40,54,0,106,106,53,1,2,107,"likert"
"1FC94F7DD8044E74B009F03B525C6441",1,"0198f788-be95-76a9-997d-fc3d69db584c","0198f768-e4d2-711c-944b-6f03c09216de","2025-08-29_14h33.35.956",NA,NA,1242.7592,1242.7593,1242.7595,1243.1064,NA,NA,NA,NA,NA,NA,NA,TRUE,5,1.2639,1239.7684,1242.7588,NA,NA,NA,NA,NA,30,26,0,107,107,42,1,2,108,"likert"
