"participant","session","assignmentId","projectId","date","practiceTrial.started","practiceTrial.stopped","tooLate.started","tooLate.stopped","blank.started","blank.stopped","trials_pract.thisRepN","trials_pract.thisTrialN","trials_pract.thisN","trials_pract.thisIndex","trials_pract.ran","delay_pract","amount_pract","responseMade","key","rt","trial.started","trial.stopped","trials.thisRepN","trials.thisTrialN","trials.thisN","trials.thisIndex","trials.ran","delay","amount","trials_2.thisRepN","trials_2.thisTrialN","trials_2.thisN","trials_2.thisIndex","trials_2.ran","block","trial","taskType"
"23A12FF761D148A6BEEB143DD5E38AF1",1,"0198f77f-14cc-7f12-8997-ad69ac2fda28","0198f768-e4d2-711c-944b-6f03c09216de","2025-08-29_15h25.13.635",97.9543,100.9267,100.9276,101.1759,101.1762,101.2756,0,0,0,1,1,100,50,FALSE,NA,NA,NA,NA,NA,NA,NA,NA,NA,NA,NA,NA,NA,NA,NA,NA,0,1,"likert"
"23A12FF761D148A6BEEB143DD5E38AF1",1,"0198f77f-14cc-7f12-8997-ad69ac2fda28","0198f768-e4d2-711c-944b-6f03c09216de","2025-08-29_15h25.13.635",101.2773,104.2864,104.2867,104.2868,104.2868,104.6357,0,1,1,2,1,14,45,TRUE,5,2.0134,NA,NA,NA,NA,NA,NA,NA,NA,NA,NA,NA,NA,NA,NA,0,2,"likert"
"23A12FF761D148A6BEEB143DD5E38AF1",1,"0198f77f-14cc-7f12-8997-ad69ac2fda28","0198f768-e4d2-711c-944b-6f03c09216de","2025-08-29_15h25.13.635",104.6382,107.63,107.6305,107.6305,107.6305,107.9793,0,2,2,3,1,3,27,TRUE,5,1.3105,NA,NA,NA,NA,NA,NA,NA,NA,NA,NA,NA,NA,NA,NA,0,3,"likert"
"23A12FF761D148A6BEEB143DD5E38AF1",1,"0198f77f-14cc-7f12-8997-ad69ac2fda28","0198f768-e4d2-711c-944b-6f03c09216de","2025-08-29_15h25.13.635",107.9811,110.9735,110.974,110.9741,110.9741,111.3227,0,3,3,4,1,30,40,TRUE,5,1.4998,NA,NA,NA,NA,NA,NA,NA,NA,NA,NA,NA,NA,NA,NA,0,4,"likert"
"23A12FF761D148A6BEEB143DD5E38AF1",1,"0198f77f-14cc-7f12-8997-ad69ac2fda28","0198f768-e4d2-711c-944b-6f03c09216de","2025-08-29_15h25.13.635",111.3245,114.3336,114.3339,114.334,114.334,114.6828,0,4,4,0,1,7,30,TRUE,5,1.4451,NA,NA,NA,NA,NA,NA,NA,NA,NA,NA,NA,NA,NA,NA,0,5,"likert"
"23A12FF761D148A6BEEB143DD5E38AF1",1,"0198f77f-14cc-7f12-8997-ad69ac2fda28","0198f768-e4d2-711c-944b-6f03c09216de","2025-08-29_15h25.13.635",NA,NA,135.794,135.7941,135.7942,136.1503,NA,NA,NA,NA,NA,NA,NA,TRUE,1,2.2679,132.8207,135.7937,0,0,0,73,1,90,30,NA,NA,NA,NA,NA,1,1,"likert"
"23A12FF761D148A6BEEB143DD5E38AF1",1,"0198f77f-14cc-7f12-8997-ad69ac2fda28","0198f768-e4d2-711c-944b-6f03c09216de","2025-08-29_15h25.13.635",NA,NA,139.1426,139.1426,139.1426,139.4929,NA,NA,NA,NA,NA,NA,NA,TRUE,1,1.8297,136.1517,139.1422,0,1,1,37,1,28,28,NA,NA,NA,NA,NA,1,2,"likert"
"23A12FF761D148A6BEEB143DD5E38AF1",1,"0198f77f-14cc-7f12-8997-ad69ac2fda28","0198f768-e4d2-711c-944b-6f03c09216de","2025-08-29_15h25.13.635",NA,NA,142.4877,142.4877,142.4877,142.8365,NA,NA,NA,NA,NA,NA,NA,TRUE,5,1.7117,139.4941,142.4874,0,2,2,23,1,14,39,NA,NA,NA,NA,NA,1,3,"likert"
"23A12FF761D148A6BEEB143DD5E38AF1",1,"0198f77f-14cc-7f12-8997-ad69ac2fda28","0198f768-e4d2-711c-944b-6f03c09216de","2025-08-29_15h25.13.635",NA,NA,145.846,145.846,145.8461,146.1893,NA,NA,NA,NA,NA,NA,NA,TRUE,1,1.8142,142.8381,145.8447,0,3,3,42,1,30,26,NA,NA,NA,NA,NA,1,4,"likert"
"23A12FF761D148A6BEEB143DD5E38AF1",1,"0198f77f-14cc-7f12-8997-ad69ac2fda28","0198f768-e4d2-711c-944b-6f03c09216de","2025-08-29_15h25.13.635",NA,NA,149.2006,149.2007,149.2007,149.5488,NA,NA,NA,NA,NA,NA,NA,TRUE,1,1.6778,146.1903,149.2004,0,4,4,104,1,200,35,NA,NA,NA,NA,NA,1,5,"likert"
"23A12FF761D148A6BEEB143DD5E38AF1",1,"0198f77f-14cc-7f12-8997-ad69ac2fda28","0198f768-e4d2-711c-944b-6f03c09216de","2025-08-29_15h25.13.635",NA,NA,152.5431,152.5431,152.5431,152.8927,NA,NA,NA,NA,NA,NA,NA,TRUE,1,1.4775,149.5495,152.543,0,5,5,43,1,30,27,NA,NA,NA,NA,NA,1,6,"likert"
"23A12FF761D148A6BEEB143DD5E38AF1",1,"0198f77f-14cc-7f12-8997-ad69ac2fda28","0198f768-e4d2-711c-944b-6f03c09216de","2025-08-29_15h25.13.635",NA,NA,155.9033,155.9034,155.9034,156.2524,NA,NA,NA,NA,NA,NA,NA,TRUE,5,1.5818,152.8934,155.9032,0,6,6,4,1,7,32,NA,NA,NA,NA,NA,1,7,"likert"
"23A12FF761D148A6BEEB143DD5E38AF1",1,"0198f77f-14cc-7f12-8997-ad69ac2fda28","0198f768-e4d2-711c-944b-6f03c09216de","2025-08-29_15h25.13.635",NA,NA,159.2468,159.2468,159.2469,159.596,NA,NA,NA,NA,NA,NA,NA,TRUE,4,2.2598,156.2533,159.2466,0,7,7,88,1,100,46,NA,NA,NA,NA,NA,1,8,"likert"
"23A12FF761D148A6BEEB143DD5E38AF1",1,"0198f77f-14cc-7f12-8997-ad69ac2fda28","0198f768-e4d2-711c-944b-6f03c09216de","2025-08-29_15h25.13.635",NA,NA,162.5904,162.5905,162.5905,162.9399,NA,NA,NA,NA,NA,NA,NA,TRUE,4,1.9317,159.5967,162.5903,0,8,8,41,1,28,46,NA,NA,NA,NA,NA,1,9,"likert"
"23A12FF761D148A6BEEB143DD5E38AF1",1,"0198f77f-14cc-7f12-8997-ad69ac2fda28","0198f768-e4d2-711c-944b-6f03c09216de","2025-08-29_15h25.13.635",NA,NA,165.951,165.9511,165.9512,166.2996,NA,NA,NA,NA,NA,NA,NA,TRUE,3,2.743,162.9408,165.9509,0,9,9,85,1,100,31,NA,NA,NA,NA,NA,1,10,"likert"
"23A12FF761D148A6BEEB143DD5E38AF1",1,"0198f77f-14cc-7f12-8997-ad69ac2fda28","0198f768-e4d2-711c-944b-6f03c09216de","2025-08-29_15h25.13.635",NA,NA,169.2938,169.2938,169.2939,169.6434,NA,NA,NA,NA,NA,NA,NA,TRUE,4,2.1651,166.301,169.2937,0,10,10,26,1,21,29,NA,NA,NA,NA,NA,1,11,"likert"
"23A12FF761D148A6BEEB143DD5E38AF1",1,"0198f77f-14cc-7f12-8997-ad69ac2fda28","0198f768-e4d2-711c-944b-6f03c09216de","2025-08-29_15h25.13.635",NA,NA,172.6382,172.6382,172.6382,172.9869,NA,NA,NA,NA,NA,NA,NA,TRUE,4,1.3619,169.6443,172.6378,0,11,11,52,1,40,47,NA,NA,NA,NA,NA,1,12,"likert"
"23A12FF761D148A6BEEB143DD5E38AF1",1,"0198f77f-14cc-7f12-8997-ad69ac2fda28","0198f768-e4d2-711c-944b-6f03c09216de","2025-08-29_15h25.13.635",NA,NA,175.9976,175.9977,175.9977,176.3467,NA,NA,NA,NA,NA,NA,NA,TRUE,3,1.6049,172.9879,175.9976,0,12,12,75,1,90,40,NA,NA,NA,NA,NA,1,13,"likert"
"23A12FF761D148A6BEEB143DD5E38AF1",1,"0198f77f-14cc-7f12-8997-ad69ac2fda28","0198f768-e4d2-711c-944b-6f03c09216de","2025-08-29_15h25.13.635",NA,NA,179.3415,179.3415,179.3415,179.6903,NA,NA,NA,NA,NA,NA,NA,TRUE,4,1.4868,176.3475,179.3412,0,13,13,51,1,40,40,NA,NA,NA,NA,NA,1,14,"likert"
"23A12FF761D148A6BEEB143DD5E38AF1",1,"0198f77f-14cc-7f12-8997-ad69ac2fda28","0198f768-e4d2-711c-944b-6f03c09216de","2025-08-29_15h25.13.635",NA,NA,182.7012,182.7013,182.7013,183.0505,NA,NA,NA,NA,NA,NA,NA,TRUE,4,1.2661,179.6912,182.7011,0,14,14,64,1,50,46,NA,NA,NA,NA,NA,1,15,"likert"
"23A12FF761D148A6BEEB143DD5E38AF1",1,"0198f77f-14cc-7f12-8997-ad69ac2fda28","0198f768-e4d2-711c-944b-6f03c09216de","2025-08-29_15h25.13.635",NA,NA,186.0447,186.0447,186.045,186.3939,NA,NA,NA,NA,NA,NA,NA,TRUE,4,1.5289,183.0512,186.0446,0,15,15,33,1,25,33,NA,NA,NA,NA,NA,1,16,"likert"
"23A12FF761D148A6BEEB143DD5E38AF1",1,"0198f77f-14cc-7f12-8997-ad69ac2fda28","0198f768-e4d2-711c-944b-6f03c09216de","2025-08-29_15h25.13.635",NA,NA,189.3879,189.3879,189.388,189.7373,NA,NA,NA,NA,NA,NA,NA,TRUE,4,1.8284,186.3949,189.3877,0,16,16,40,1,28,39,NA,NA,NA,NA,NA,1,17,"likert"
"23A12FF761D148A6BEEB143DD5E38AF1",1,"0198f77f-14cc-7f12-8997-ad69ac2fda28","0198f768-e4d2-711c-944b-6f03c09216de","2025-08-29_15h25.13.635",NA,NA,192.7488,192.7488,192.7488,193.0979,NA,NA,NA,NA,NA,NA,NA,TRUE,2,2.6808,189.738,192.7486,0,17,17,19,1,14,26,NA,NA,NA,NA,NA,1,18,"likert"
"23A12FF761D148A6BEEB143DD5E38AF1",1,"0198f77f-14cc-7f12-8997-ad69ac2fda28","0198f768-e4d2-711c-944b-6f03c09216de","2025-08-29_15h25.13.635",NA,NA,196.0917,196.0918,196.0918,196.4409,NA,NA,NA,NA,NA,NA,NA,TRUE,4,1.8763,193.0989,196.0916,0,18,18,45,1,30,30,NA,NA,NA,NA,NA,1,19,"likert"
"23A12FF761D148A6BEEB143DD5E38AF1",1,"0198f77f-14cc-7f12-8997-ad69ac2fda28","0198f768-e4d2-711c-944b-6f03c09216de","2025-08-29_15h25.13.635",NA,NA,199.4519,199.452,199.452,199.8012,NA,NA,NA,NA,NA,NA,NA,TRUE,4,1.0981,196.4416,199.4518,0,19,19,29,1,21,38,NA,NA,NA,NA,NA,1,20,"likert"
"23A12FF761D148A6BEEB143DD5E38AF1",1,"0198f77f-14cc-7f12-8997-ad69ac2fda28","0198f768-e4d2-711c-944b-6f03c09216de","2025-08-29_15h25.13.635",NA,NA,202.7955,202.7956,202.7956,203.1449,NA,NA,NA,NA,NA,NA,NA,TRUE,2,2.1112,199.802,202.7954,0,20,20,99,1,180,39,NA,NA,NA,NA,NA,1,21,"likert"
"23A12FF761D148A6BEEB143DD5E38AF1",1,"0198f77f-14cc-7f12-8997-ad69ac2fda28","0198f768-e4d2-711c-944b-6f03c09216de","2025-08-29_15h25.13.635",NA,NA,206.1391,206.1391,206.1391,206.4883,NA,NA,NA,NA,NA,NA,NA,TRUE,5,1.5801,203.1461,206.139,0,21,21,2,1,7,28,NA,NA,NA,NA,NA,1,22,"likert"
"23A12FF761D148A6BEEB143DD5E38AF1",1,"0198f77f-14cc-7f12-8997-ad69ac2fda28","0198f768-e4d2-711c-944b-6f03c09216de","2025-08-29_15h25.13.635",NA,NA,209.4991,209.4992,209.4992,209.8483,NA,NA,NA,NA,NA,NA,NA,TRUE,5,1.5203,206.4891,209.4991,0,22,22,101,1,180,54,NA,NA,NA,NA,NA,1,23,"likert"
"23A12FF761D148A6BEEB143DD5E38AF1",1,"0198f77f-14cc-7f12-8997-ad69ac2fda28","0198f768-e4d2-711c-944b-6f03c09216de","2025-08-29_15h25.13.635",NA,NA,212.8425,212.8425,212.8425,213.1919,NA,NA,NA,NA,NA,NA,NA,TRUE,5,1.8695,209.849,212.8425,0,23,23,28,1,21,32,NA,NA,NA,NA,NA,1,24,"likert"
"23A12FF761D148A6BEEB143DD5E38AF1",1,"0198f77f-14cc-7f12-8997-ad69ac2fda28","0198f768-e4d2-711c-944b-6f03c09216de","2025-08-29_15h25.13.635",NA,NA,216.2026,216.2026,216.2027,216.5518,NA,NA,NA,NA,NA,NA,NA,TRUE,5,1.3318,213.1927,216.2025,0,24,24,11,1,10,32,NA,NA,NA,NA,NA,1,25,"likert"
"23A12FF761D148A6BEEB143DD5E38AF1",1,"0198f77f-14cc-7f12-8997-ad69ac2fda28","0198f768-e4d2-711c-944b-6f03c09216de","2025-08-29_15h25.13.635",NA,NA,219.5462,219.5462,219.5462,219.8955,NA,NA,NA,NA,NA,NA,NA,TRUE,4,1.63,216.5526,219.5461,0,25,25,61,1,50,30,NA,NA,NA,NA,NA,1,26,"likert"
"23A12FF761D148A6BEEB143DD5E38AF1",1,"0198f77f-14cc-7f12-8997-ad69ac2fda28","0198f768-e4d2-711c-944b-6f03c09216de","2025-08-29_15h25.13.635",NA,NA,222.8907,222.8907,222.8907,223.2392,NA,NA,NA,NA,NA,NA,NA,TRUE,5,1.3627,219.8963,222.8904,0,26,26,3,1,7,30,NA,NA,NA,NA,NA,1,27,"likert"
"23A12FF761D148A6BEEB143DD5E38AF1",1,"0198f77f-14cc-7f12-8997-ad69ac2fda28","0198f768-e4d2-711c-944b-6f03c09216de","2025-08-29_15h25.13.635",NA,NA,226.2498,226.2498,226.2499,226.5993,NA,NA,NA,NA,NA,NA,NA,TRUE,5,1.2954,223.2405,226.2497,0,27,27,50,1,40,35,NA,NA,NA,NA,NA,1,28,"likert"
"23A12FF761D148A6BEEB143DD5E38AF1",1,"0198f77f-14cc-7f12-8997-ad69ac2fda28","0198f768-e4d2-711c-944b-6f03c09216de","2025-08-29_15h25.13.635",NA,NA,229.5933,229.5933,229.5933,229.942,NA,NA,NA,NA,NA,NA,NA,TRUE,1,1.9684,226.6006,229.5932,0,28,28,36,1,28,26,NA,NA,NA,NA,NA,1,29,"likert"
"23A12FF761D148A6BEEB143DD5E38AF1",1,"0198f77f-14cc-7f12-8997-ad69ac2fda28","0198f768-e4d2-711c-944b-6f03c09216de","2025-08-29_15h25.13.635",NA,NA,232.937,232.9371,232.9371,233.3026,NA,NA,NA,NA,NA,NA,NA,TRUE,5,1.9607,229.9431,232.9369,0,29,29,67,1,60,33,NA,NA,NA,NA,NA,1,30,"likert"
"23A12FF761D148A6BEEB143DD5E38AF1",1,"0198f77f-14cc-7f12-8997-ad69ac2fda28","0198f768-e4d2-711c-944b-6f03c09216de","2025-08-29_15h25.13.635",NA,NA,236.2968,236.2969,236.2969,236.646,NA,NA,NA,NA,NA,NA,NA,TRUE,4,1.7768,233.3034,236.2967,0,30,30,30,1,25,27,NA,NA,NA,NA,NA,1,31,"likert"
"23A12FF761D148A6BEEB143DD5E38AF1",1,"0198f77f-14cc-7f12-8997-ad69ac2fda28","0198f768-e4d2-711c-944b-6f03c09216de","2025-08-29_15h25.13.635",NA,NA,239.6409,239.6409,239.6409,239.9897,NA,NA,NA,NA,NA,NA,NA,TRUE,5,1.3505,236.6468,239.6407,0,31,31,83,1,95,54,NA,NA,NA,NA,NA,1,32,"likert"
"23A12FF761D148A6BEEB143DD5E38AF1",1,"0198f77f-14cc-7f12-8997-ad69ac2fda28","0198f768-e4d2-711c-944b-6f03c09216de","2025-08-29_15h25.13.635",NA,NA,243.0011,243.0011,243.0011,243.3498,NA,NA,NA,NA,NA,NA,NA,TRUE,5,1.3002,239.9905,243.0009,0,32,32,86,1,100,38,NA,NA,NA,NA,NA,1,33,"likert"
"23A12FF761D148A6BEEB143DD5E38AF1",1,"0198f77f-14cc-7f12-8997-ad69ac2fda28","0198f768-e4d2-711c-944b-6f03c09216de","2025-08-29_15h25.13.635",NA,NA,246.3444,246.3444,246.3445,246.6931,NA,NA,NA,NA,NA,NA,NA,TRUE,5,1.763,243.3507,246.3444,0,33,33,68,1,60,35,NA,NA,NA,NA,NA,1,34,"likert"
"23A12FF761D148A6BEEB143DD5E38AF1",1,"0198f77f-14cc-7f12-8997-ad69ac2fda28","0198f768-e4d2-711c-944b-6f03c09216de","2025-08-29_15h25.13.635",NA,NA,249.688,249.688,249.6881,250.0367,NA,NA,NA,NA,NA,NA,NA,TRUE,4,1.9012,246.694,249.6879,0,34,34,97,1,180,31,NA,NA,NA,NA,NA,1,35,"likert"
"23A12FF761D148A6BEEB143DD5E38AF1",1,"0198f77f-14cc-7f12-8997-ad69ac2fda28","0198f768-e4d2-711c-944b-6f03c09216de","2025-08-29_15h25.13.635",NA,NA,253.0477,253.0477,253.0477,253.3964,NA,NA,NA,NA,NA,NA,NA,TRUE,4,1.7452,250.0374,253.0475,0,35,35,66,1,60,29,NA,NA,NA,NA,NA,1,36,"likert"
"23A12FF761D148A6BEEB143DD5E38AF1",1,"0198f77f-14cc-7f12-8997-ad69ac2fda28","0198f768-e4d2-711c-944b-6f03c09216de","2025-08-29_15h25.13.635",NA,NA,256.3912,256.3912,256.3912,256.7409,NA,NA,NA,NA,NA,NA,NA,TRUE,5,1.6794,253.3973,256.391,0,36,36,10,1,10,30,NA,NA,NA,NA,NA,1,37,"likert"
"23A12FF761D148A6BEEB143DD5E38AF1",1,"0198f77f-14cc-7f12-8997-ad69ac2fda28","0198f768-e4d2-711c-944b-6f03c09216de","2025-08-29_15h25.13.635",NA,NA,259.7513,259.7514,259.7514,260.1006,NA,NA,NA,NA,NA,NA,NA,TRUE,4,1.8478,256.7418,259.7512,0,37,37,90,1,150,31,NA,NA,NA,NA,NA,1,38,"likert"
"23A12FF761D148A6BEEB143DD5E38AF1",1,"0198f77f-14cc-7f12-8997-ad69ac2fda28","0198f768-e4d2-711c-944b-6f03c09216de","2025-08-29_15h25.13.635",NA,NA,263.0952,263.0952,263.0952,263.4445,NA,NA,NA,NA,NA,NA,NA,TRUE,5,1.5613,260.1015,263.0949,0,38,38,46,1,30,32,NA,NA,NA,NA,NA,1,39,"likert"
"23A12FF761D148A6BEEB143DD5E38AF1",1,"0198f77f-14cc-7f12-8997-ad69ac2fda28","0198f768-e4d2-711c-944b-6f03c09216de","2025-08-29_15h25.13.635",NA,NA,266.4387,266.4387,266.4387,266.7874,NA,NA,NA,NA,NA,NA,NA,TRUE,4,2.4452,263.4453,266.4385,0,39,39,25,1,21,27,NA,NA,NA,NA,NA,1,40,"likert"
"23A12FF761D148A6BEEB143DD5E38AF1",1,"0198f77f-14cc-7f12-8997-ad69ac2fda28","0198f768-e4d2-711c-944b-6f03c09216de","2025-08-29_15h25.13.635",NA,NA,269.7983,269.7983,269.7983,270.1476,NA,NA,NA,NA,NA,NA,NA,TRUE,5,1.6685,266.7882,269.7982,0,40,40,57,1,45,35,NA,NA,NA,NA,NA,1,41,"likert"
"23A12FF761D148A6BEEB143DD5E38AF1",1,"0198f77f-14cc-7f12-8997-ad69ac2fda28","0198f768-e4d2-711c-944b-6f03c09216de","2025-08-29_15h25.13.635",NA,NA,273.1418,273.1418,273.1419,273.4929,NA,NA,NA,NA,NA,NA,NA,TRUE,5,1.3289,270.1485,273.1418,0,41,41,16,1,12,33,NA,NA,NA,NA,NA,1,42,"likert"
"23A12FF761D148A6BEEB143DD5E38AF1",1,"0198f77f-14cc-7f12-8997-ad69ac2fda28","0198f768-e4d2-711c-944b-6f03c09216de","2025-08-29_15h25.13.635",NA,NA,276.502,276.502,276.5021,276.8507,NA,NA,NA,NA,NA,NA,NA,TRUE,5,1.3113,273.4936,276.5019,0,42,42,70,1,60,47,NA,NA,NA,NA,NA,1,43,"likert"
"23A12FF761D148A6BEEB143DD5E38AF1",1,"0198f77f-14cc-7f12-8997-ad69ac2fda28","0198f768-e4d2-711c-944b-6f03c09216de","2025-08-29_15h25.13.635",NA,NA,279.8455,279.8456,279.8456,280.1952,NA,NA,NA,NA,NA,NA,NA,TRUE,5,1.5992,276.8518,279.8454,0,43,43,38,1,28,32,NA,NA,NA,NA,NA,1,44,"likert"
"23A12FF761D148A6BEEB143DD5E38AF1",1,"0198f77f-14cc-7f12-8997-ad69ac2fda28","0198f768-e4d2-711c-944b-6f03c09216de","2025-08-29_15h25.13.635",NA,NA,283.189,283.189,283.189,283.5384,NA,NA,NA,NA,NA,NA,NA,TRUE,5,1.7486,280.196,283.1889,0,44,44,62,1,50,35,NA,NA,NA,NA,NA,1,45,"likert"
"23A12FF761D148A6BEEB143DD5E38AF1",1,"0198f77f-14cc-7f12-8997-ad69ac2fda28","0198f768-e4d2-711c-944b-6f03c09216de","2025-08-29_15h25.13.635",NA,NA,286.5498,286.5498,286.5498,286.8983,NA,NA,NA,NA,NA,NA,NA,TRUE,5,1.1877,283.5396,286.5495,0,45,45,69,1,60,40,NA,NA,NA,NA,NA,1,46,"likert"
"23A12FF761D148A6BEEB143DD5E38AF1",1,"0198f77f-14cc-7f12-8997-ad69ac2fda28","0198f768-e4d2-711c-944b-6f03c09216de","2025-08-29_15h25.13.635",NA,NA,289.8927,289.8927,289.8927,290.2418,NA,NA,NA,NA,NA,NA,NA,TRUE,5,1.4956,286.8991,289.8926,0,46,46,9,1,10,29,NA,NA,NA,NA,NA,1,47,"likert"
"23A12FF761D148A6BEEB143DD5E38AF1",1,"0198f77f-14cc-7f12-8997-ad69ac2fda28","0198f768-e4d2-711c-944b-6f03c09216de","2025-08-29_15h25.13.635",NA,NA,293.2527,293.2527,293.2528,293.602,NA,NA,NA,NA,NA,NA,NA,TRUE,1,2.0936,290.2425,293.2526,0,47,47,18,1,14,25,NA,NA,NA,NA,NA,1,48,"likert"
"23A12FF761D148A6BEEB143DD5E38AF1",1,"0198f77f-14cc-7f12-8997-ad69ac2fda28","0198f768-e4d2-711c-944b-6f03c09216de","2025-08-29_15h25.13.635",NA,NA,296.5962,296.5962,296.5963,296.9456,NA,NA,NA,NA,NA,NA,NA,TRUE,5,1.3952,293.6027,296.5961,0,48,48,82,1,95,47,NA,NA,NA,NA,NA,1,49,"likert"
"23A12FF761D148A6BEEB143DD5E38AF1",1,"0198f77f-14cc-7f12-8997-ad69ac2fda28","0198f768-e4d2-711c-944b-6f03c09216de","2025-08-29_15h25.13.635",NA,NA,299.9403,299.9403,299.9403,300.289,NA,NA,NA,NA,NA,NA,NA,TRUE,5,1.2508,296.9465,299.9401,0,49,49,58,1,45,40,NA,NA,NA,NA,NA,1,50,"likert"
"23A12FF761D148A6BEEB143DD5E38AF1",1,"0198f77f-14cc-7f12-8997-ad69ac2fda28","0198f768-e4d2-711c-944b-6f03c09216de","2025-08-29_15h25.13.635",NA,NA,303.3008,303.3008,303.3008,303.6493,NA,NA,NA,NA,NA,NA,NA,TRUE,5,1.1957,300.2898,303.3006,0,50,50,74,1,90,33,NA,NA,NA,NA,NA,1,51,"likert"
"23A12FF761D148A6BEEB143DD5E38AF1",1,"0198f77f-14cc-7f12-8997-ad69ac2fda28","0198f768-e4d2-711c-944b-6f03c09216de","2025-08-29_15h25.13.635",NA,NA,306.6435,306.6435,306.6435,306.9925,NA,NA,NA,NA,NA,NA,NA,TRUE,5,1.2132,303.6504,306.6433,0,51,51,22,1,14,35,NA,NA,NA,NA,NA,1,52,"likert"
"23A12FF761D148A6BEEB143DD5E38AF1",1,"0198f77f-14cc-7f12-8997-ad69ac2fda28","0198f768-e4d2-711c-944b-6f03c09216de","2025-08-29_15h25.13.635",NA,NA,309.987,309.987,309.9871,310.3365,NA,NA,NA,NA,NA,NA,NA,TRUE,5,1.3297,306.9933,309.9869,0,52,52,94,1,150,47,NA,NA,NA,NA,NA,1,53,"likert"
"23A12FF761D148A6BEEB143DD5E38AF1",1,"0198f77f-14cc-7f12-8997-ad69ac2fda28","0198f768-e4d2-711c-944b-6f03c09216de","2025-08-29_15h25.13.635",NA,NA,313.347,313.347,313.347,313.6967,NA,NA,NA,NA,NA,NA,NA,TRUE,5,1.1634,310.3375,313.347,0,53,53,87,1,100,39,NA,NA,NA,NA,NA,1,54,"likert"
"23A12FF761D148A6BEEB143DD5E38AF1",1,"0198f77f-14cc-7f12-8997-ad69ac2fda28","0198f768-e4d2-711c-944b-6f03c09216de","2025-08-29_15h25.13.635",NA,NA,316.6906,316.6907,316.6907,317.0398,NA,NA,NA,NA,NA,NA,NA,TRUE,1,1.9774,313.6976,316.6905,0,54,54,102,1,200,26,NA,NA,NA,NA,NA,1,55,"likert"
"23A12FF761D148A6BEEB143DD5E38AF1",1,"0198f77f-14cc-7f12-8997-ad69ac2fda28","0198f768-e4d2-711c-944b-6f03c09216de","2025-08-29_15h25.13.635",NA,NA,320.0508,320.0509,320.051,320.3998,NA,NA,NA,NA,NA,NA,NA,TRUE,5,1.529,317.0406,320.0507,0,55,55,65,1,50,54,NA,NA,NA,NA,NA,1,56,"likert"
"23A12FF761D148A6BEEB143DD5E38AF1",1,"0198f77f-14cc-7f12-8997-ad69ac2fda28","0198f768-e4d2-711c-944b-6f03c09216de","2025-08-29_15h25.13.635",NA,NA,323.3942,323.3942,323.3942,323.7434,NA,NA,NA,NA,NA,NA,NA,TRUE,1,1.2787,320.4007,323.394,0,56,56,24,1,21,26,NA,NA,NA,NA,NA,1,57,"likert"
"23A12FF761D148A6BEEB143DD5E38AF1",1,"0198f77f-14cc-7f12-8997-ad69ac2fda28","0198f768-e4d2-711c-944b-6f03c09216de","2025-08-29_15h25.13.635",NA,NA,326.7382,326.7382,326.7383,327.0869,NA,NA,NA,NA,NA,NA,NA,TRUE,1,1.6276,323.7444,326.738,0,57,57,48,1,40,27,NA,NA,NA,NA,NA,1,58,"likert"
"23A12FF761D148A6BEEB143DD5E38AF1",1,"0198f77f-14cc-7f12-8997-ad69ac2fda28","0198f768-e4d2-711c-944b-6f03c09216de","2025-08-29_15h25.13.635",NA,NA,330.0979,330.0979,330.098,330.4468,NA,NA,NA,NA,NA,NA,NA,TRUE,4,1.5964,327.0879,330.0978,0,58,58,80,1,95,35,NA,NA,NA,NA,NA,1,59,"likert"
"23A12FF761D148A6BEEB143DD5E38AF1",1,"0198f77f-14cc-7f12-8997-ad69ac2fda28","0198f768-e4d2-711c-944b-6f03c09216de","2025-08-29_15h25.13.635",NA,NA,333.4412,333.4412,333.4413,333.7906,NA,NA,NA,NA,NA,NA,NA,TRUE,4,1.4317,330.4477,333.4411,0,59,59,100,1,180,46,NA,NA,NA,NA,NA,1,60,"likert"
"23A12FF761D148A6BEEB143DD5E38AF1",1,"0198f77f-14cc-7f12-8997-ad69ac2fda28","0198f768-e4d2-711c-944b-6f03c09216de","2025-08-29_15h25.13.635",NA,NA,336.8012,336.8013,336.8013,337.1509,NA,NA,NA,NA,NA,NA,NA,TRUE,4,1.8937,333.7913,336.8007,0,60,60,92,1,150,35,NA,NA,NA,NA,NA,1,61,"likert"
"23A12FF761D148A6BEEB143DD5E38AF1",1,"0198f77f-14cc-7f12-8997-ad69ac2fda28","0198f768-e4d2-711c-944b-6f03c09216de","2025-08-29_15h25.13.635",NA,NA,340.145,340.1451,340.1451,340.4941,NA,NA,NA,NA,NA,NA,NA,TRUE,1,1.4447,337.1517,340.1449,0,61,61,0,1,7,25,NA,NA,NA,NA,NA,1,62,"likert"
"23A12FF761D148A6BEEB143DD5E38AF1",1,"0198f77f-14cc-7f12-8997-ad69ac2fda28","0198f768-e4d2-711c-944b-6f03c09216de","2025-08-29_15h25.13.635",NA,NA,343.4887,343.7382,343.7384,343.8378,NA,NA,NA,NA,NA,NA,NA,FALSE,NA,NA,340.4949,343.4885,0,62,62,20,1,14,28,NA,NA,NA,NA,NA,1,63,"likert"
"23A12FF761D148A6BEEB143DD5E38AF1",1,"0198f77f-14cc-7f12-8997-ad69ac2fda28","0198f768-e4d2-711c-944b-6f03c09216de","2025-08-29_15h25.13.635",NA,NA,346.8488,346.8488,346.8488,347.1978,NA,NA,NA,NA,NA,NA,NA,TRUE,5,1.8455,343.8386,346.8486,0,63,63,55,1,45,29,NA,NA,NA,NA,NA,1,64,"likert"
"23A12FF761D148A6BEEB143DD5E38AF1",1,"0198f77f-14cc-7f12-8997-ad69ac2fda28","0198f768-e4d2-711c-944b-6f03c09216de","2025-08-29_15h25.13.635",NA,NA,350.1922,350.1922,350.1922,350.5413,NA,NA,NA,NA,NA,NA,NA,TRUE,4,1.8655,347.199,350.192,0,64,64,91,1,150,33,NA,NA,NA,NA,NA,1,65,"likert"
"23A12FF761D148A6BEEB143DD5E38AF1",1,"0198f77f-14cc-7f12-8997-ad69ac2fda28","0198f768-e4d2-711c-944b-6f03c09216de","2025-08-29_15h25.13.635",NA,NA,353.5521,353.5522,353.5523,353.9013,NA,NA,NA,NA,NA,NA,NA,TRUE,4,1.4108,350.542,353.552,0,65,65,32,1,25,31,NA,NA,NA,NA,NA,1,66,"likert"
"23A12FF761D148A6BEEB143DD5E38AF1",1,"0198f77f-14cc-7f12-8997-ad69ac2fda28","0198f768-e4d2-711c-944b-6f03c09216de","2025-08-29_15h25.13.635",NA,NA,356.8953,356.8953,356.8953,357.2453,NA,NA,NA,NA,NA,NA,NA,TRUE,1,1.1788,353.9021,356.8951,0,66,66,6,1,10,25,NA,NA,NA,NA,NA,1,67,"likert"
"23A12FF761D148A6BEEB143DD5E38AF1",1,"0198f77f-14cc-7f12-8997-ad69ac2fda28","0198f768-e4d2-711c-944b-6f03c09216de","2025-08-29_15h25.13.635",NA,NA,360.2391,360.2391,360.2392,360.5883,NA,NA,NA,NA,NA,NA,NA,TRUE,5,1.2296,357.2461,360.239,0,67,67,17,1,12,35,NA,NA,NA,NA,NA,1,68,"likert"
"23A12FF761D148A6BEEB143DD5E38AF1",1,"0198f77f-14cc-7f12-8997-ad69ac2fda28","0198f768-e4d2-711c-944b-6f03c09216de","2025-08-29_15h25.13.635",NA,NA,363.5993,363.5993,363.5993,363.9484,NA,NA,NA,NA,NA,NA,NA,TRUE,1,1.1631,360.5891,363.5991,0,68,68,84,1,100,26,NA,NA,NA,NA,NA,1,69,"likert"
"23A12FF761D148A6BEEB143DD5E38AF1",1,"0198f77f-14cc-7f12-8997-ad69ac2fda28","0198f768-e4d2-711c-944b-6f03c09216de","2025-08-29_15h25.13.635",NA,NA,366.9427,366.9428,366.9428,367.292,NA,NA,NA,NA,NA,NA,NA,TRUE,5,0.8847,363.9492,366.9427,0,69,69,107,1,200,54,NA,NA,NA,NA,NA,1,70,"likert"
"23A12FF761D148A6BEEB143DD5E38AF1",1,"0198f77f-14cc-7f12-8997-ad69ac2fda28","0198f768-e4d2-711c-944b-6f03c09216de","2025-08-29_15h25.13.635",NA,NA,370.2867,370.2867,370.2868,370.652,NA,NA,NA,NA,NA,NA,NA,TRUE,1,1.4613,367.2927,370.2865,0,70,70,7,1,10,26,NA,NA,NA,NA,NA,1,71,"likert"
"23A12FF761D148A6BEEB143DD5E38AF1",1,"0198f77f-14cc-7f12-8997-ad69ac2fda28","0198f768-e4d2-711c-944b-6f03c09216de","2025-08-29_15h25.13.635",NA,NA,373.6464,373.6464,373.6464,373.996,NA,NA,NA,NA,NA,NA,NA,TRUE,5,0.7378,370.6528,373.6463,0,71,71,35,1,25,46,NA,NA,NA,NA,NA,1,72,"likert"
"23A12FF761D148A6BEEB143DD5E38AF1",1,"0198f77f-14cc-7f12-8997-ad69ac2fda28","0198f768-e4d2-711c-944b-6f03c09216de","2025-08-29_15h25.13.635",NA,NA,376.99,376.99,376.9901,377.3393,NA,NA,NA,NA,NA,NA,NA,TRUE,2,1.3689,373.9968,376.9899,0,72,72,8,1,10,27,NA,NA,NA,NA,NA,1,73,"likert"
"23A12FF761D148A6BEEB143DD5E38AF1",1,"0198f77f-14cc-7f12-8997-ad69ac2fda28","0198f768-e4d2-711c-944b-6f03c09216de","2025-08-29_15h25.13.635",NA,NA,380.3501,380.3501,380.3502,380.6991,NA,NA,NA,NA,NA,NA,NA,TRUE,4,1.4283,377.3407,380.35,0,73,73,14,1,12,28,NA,NA,NA,NA,NA,1,74,"likert"
"23A12FF761D148A6BEEB143DD5E38AF1",1,"0198f77f-14cc-7f12-8997-ad69ac2fda28","0198f768-e4d2-711c-944b-6f03c09216de","2025-08-29_15h25.13.635",NA,NA,383.6936,383.6936,383.6936,384.0428,NA,NA,NA,NA,NA,NA,NA,TRUE,4,1.5658,380.7006,383.6934,0,74,74,98,1,180,35,NA,NA,NA,NA,NA,1,75,"likert"
"23A12FF761D148A6BEEB143DD5E38AF1",1,"0198f77f-14cc-7f12-8997-ad69ac2fda28","0198f768-e4d2-711c-944b-6f03c09216de","2025-08-29_15h25.13.635",NA,NA,387.0374,387.0374,387.0374,387.3868,NA,NA,NA,NA,NA,NA,NA,TRUE,5,1.4655,384.0437,387.0373,0,75,75,63,1,50,40,NA,NA,NA,NA,NA,1,76,"likert"
"23A12FF761D148A6BEEB143DD5E38AF1",1,"0198f77f-14cc-7f12-8997-ad69ac2fda28","0198f768-e4d2-711c-944b-6f03c09216de","2025-08-29_15h25.13.635",NA,NA,390.3971,390.3971,390.3971,390.7464,NA,NA,NA,NA,NA,NA,NA,TRUE,4,1.3464,387.3876,390.397,0,76,76,106,1,200,47,NA,NA,NA,NA,NA,1,77,"likert"
"23A12FF761D148A6BEEB143DD5E38AF1",1,"0198f77f-14cc-7f12-8997-ad69ac2fda28","0198f768-e4d2-711c-944b-6f03c09216de","2025-08-29_15h25.13.635",NA,NA,393.7406,393.7406,393.7407,394.09,NA,NA,NA,NA,NA,NA,NA,TRUE,4,1.3178,390.747,393.7406,0,77,77,79,1,95,33,NA,NA,NA,NA,NA,1,78,"likert"
"23A12FF761D148A6BEEB143DD5E38AF1",1,"0198f77f-14cc-7f12-8997-ad69ac2fda28","0198f768-e4d2-711c-944b-6f03c09216de","2025-08-29_15h25.13.635",NA,NA,397.1007,397.1008,397.1008,397.4501,NA,NA,NA,NA,NA,NA,NA,TRUE,5,1.481,394.0913,397.1007,0,78,78,27,1,21,30,NA,NA,NA,NA,NA,1,79,"likert"
"23A12FF761D148A6BEEB143DD5E38AF1",1,"0198f77f-14cc-7f12-8997-ad69ac2fda28","0198f768-e4d2-711c-944b-6f03c09216de","2025-08-29_15h25.13.635",NA,NA,400.4446,400.4446,400.4446,400.7935,NA,NA,NA,NA,NA,NA,NA,TRUE,1,1.6939,397.4511,400.4444,0,79,79,12,1,12,25,NA,NA,NA,NA,NA,1,80,"likert"
"23A12FF761D148A6BEEB143DD5E38AF1",1,"0198f77f-14cc-7f12-8997-ad69ac2fda28","0198f768-e4d2-711c-944b-6f03c09216de","2025-08-29_15h25.13.635",NA,NA,403.7882,403.7882,403.7882,404.1369,NA,NA,NA,NA,NA,NA,NA,TRUE,5,2.2938,400.7944,403.7881,0,80,80,56,1,45,31,NA,NA,NA,NA,NA,1,81,"likert"
"23A12FF761D148A6BEEB143DD5E38AF1",1,"0198f77f-14cc-7f12-8997-ad69ac2fda28","0198f768-e4d2-711c-944b-6f03c09216de","2025-08-29_15h25.13.635",NA,NA,407.1487,407.1488,407.1488,407.4969,NA,NA,NA,NA,NA,NA,NA,TRUE,5,1.4957,404.1377,407.1486,0,81,81,76,1,90,46,NA,NA,NA,NA,NA,1,82,"likert"
"23A12FF761D148A6BEEB143DD5E38AF1",1,"0198f77f-14cc-7f12-8997-ad69ac2fda28","0198f768-e4d2-711c-944b-6f03c09216de","2025-08-29_15h25.13.635",NA,NA,410.4916,410.4916,410.4916,410.8406,NA,NA,NA,NA,NA,NA,NA,TRUE,5,1.6119,407.4978,410.4914,0,82,82,49,1,40,33,NA,NA,NA,NA,NA,1,83,"likert"
"23A12FF761D148A6BEEB143DD5E38AF1",1,"0198f77f-14cc-7f12-8997-ad69ac2fda28","0198f768-e4d2-711c-944b-6f03c09216de","2025-08-29_15h25.13.635",NA,NA,413.8515,413.8515,413.8516,414.2008,NA,NA,NA,NA,NA,NA,NA,TRUE,5,1.0797,410.8413,413.8514,0,83,83,78,1,95,31,NA,NA,NA,NA,NA,1,84,"likert"
"23A12FF761D148A6BEEB143DD5E38AF1",1,"0198f77f-14cc-7f12-8997-ad69ac2fda28","0198f768-e4d2-711c-944b-6f03c09216de","2025-08-29_15h25.13.635",NA,NA,417.1952,417.1953,417.1953,417.5444,NA,NA,NA,NA,NA,NA,NA,TRUE,4,2.2596,414.2016,417.1951,0,84,84,13,1,12,26,NA,NA,NA,NA,NA,1,85,"likert"
"23A12FF761D148A6BEEB143DD5E38AF1",1,"0198f77f-14cc-7f12-8997-ad69ac2fda28","0198f768-e4d2-711c-944b-6f03c09216de","2025-08-29_15h25.13.635",NA,NA,420.5384,420.5384,420.5384,420.8877,NA,NA,NA,NA,NA,NA,NA,TRUE,5,1.9997,417.5453,420.5384,0,85,85,21,1,14,32,NA,NA,NA,NA,NA,1,86,"likert"
"23A12FF761D148A6BEEB143DD5E38AF1",1,"0198f77f-14cc-7f12-8997-ad69ac2fda28","0198f768-e4d2-711c-944b-6f03c09216de","2025-08-29_15h25.13.635",NA,NA,423.8988,423.8989,423.8989,424.2478,NA,NA,NA,NA,NA,NA,NA,TRUE,1,1.4294,420.8886,423.8987,0,86,86,72,1,90,26,NA,NA,NA,NA,NA,1,87,"likert"
"23A12FF761D148A6BEEB143DD5E38AF1",1,"0198f77f-14cc-7f12-8997-ad69ac2fda28","0198f768-e4d2-711c-944b-6f03c09216de","2025-08-29_15h25.13.635",NA,NA,427.2421,427.2421,427.2421,427.5915,NA,NA,NA,NA,NA,NA,NA,TRUE,5,2.2429,424.2495,427.2419,0,87,87,44,1,30,29,NA,NA,NA,NA,NA,1,88,"likert"
"23A12FF761D148A6BEEB143DD5E38AF1",1,"0198f77f-14cc-7f12-8997-ad69ac2fda28","0198f768-e4d2-711c-944b-6f03c09216de","2025-08-29_15h25.13.635",NA,NA,430.6022,430.6023,430.6023,430.9515,NA,NA,NA,NA,NA,NA,NA,TRUE,5,1.4786,427.5924,430.6021,0,88,88,95,1,150,54,NA,NA,NA,NA,NA,1,89,"likert"
"23A12FF761D148A6BEEB143DD5E38AF1",1,"0198f77f-14cc-7f12-8997-ad69ac2fda28","0198f768-e4d2-711c-944b-6f03c09216de","2025-08-29_15h25.13.635",NA,NA,433.9462,433.9463,433.9463,434.2954,NA,NA,NA,NA,NA,NA,NA,TRUE,2,1.8164,430.9523,433.9455,0,89,89,103,1,200,28,NA,NA,NA,NA,NA,1,90,"likert"
"23A12FF761D148A6BEEB143DD5E38AF1",1,"0198f77f-14cc-7f12-8997-ad69ac2fda28","0198f768-e4d2-711c-944b-6f03c09216de","2025-08-29_15h25.13.635",NA,NA,437.2892,437.2892,437.2893,437.6388,NA,NA,NA,NA,NA,NA,NA,TRUE,5,1.1137,434.2964,437.2892,0,90,90,47,1,30,38,NA,NA,NA,NA,NA,1,91,"likert"
"23A12FF761D148A6BEEB143DD5E38AF1",1,"0198f77f-14cc-7f12-8997-ad69ac2fda28","0198f768-e4d2-711c-944b-6f03c09216de","2025-08-29_15h25.13.635",NA,NA,440.6494,440.6494,440.6494,440.9987,NA,NA,NA,NA,NA,NA,NA,TRUE,5,1.8438,437.64,440.6493,0,91,91,5,1,7,35,NA,NA,NA,NA,NA,1,92,"likert"
"23A12FF761D148A6BEEB143DD5E38AF1",1,"0198f77f-14cc-7f12-8997-ad69ac2fda28","0198f768-e4d2-711c-944b-6f03c09216de","2025-08-29_15h25.13.635",NA,NA,443.993,443.993,443.993,444.342,NA,NA,NA,NA,NA,NA,NA,TRUE,5,2.1772,440.9997,443.9929,0,92,92,60,1,50,27,NA,NA,NA,NA,NA,1,93,"likert"
"23A12FF761D148A6BEEB143DD5E38AF1",1,"0198f77f-14cc-7f12-8997-ad69ac2fda28","0198f768-e4d2-711c-944b-6f03c09216de","2025-08-29_15h25.13.635",NA,NA,447.3531,447.3531,447.3531,447.7021,NA,NA,NA,NA,NA,NA,NA,TRUE,5,1.5616,444.3428,447.3529,0,93,93,89,1,100,54,NA,NA,NA,NA,NA,1,94,"likert"
"23A12FF761D148A6BEEB143DD5E38AF1",1,"0198f77f-14cc-7f12-8997-ad69ac2fda28","0198f768-e4d2-711c-944b-6f03c09216de","2025-08-29_15h25.13.635",NA,NA,450.6969,450.6969,450.6969,451.0457,NA,NA,NA,NA,NA,NA,NA,TRUE,5,1.0791,447.7029,450.6967,0,94,94,59,1,45,46,NA,NA,NA,NA,NA,1,95,"likert"
"23A12FF761D148A6BEEB143DD5E38AF1",1,"0198f77f-14cc-7f12-8997-ad69ac2fda28","0198f768-e4d2-711c-944b-6f03c09216de","2025-08-29_15h25.13.635",NA,NA,454.0402,454.0403,454.0404,454.3892,NA,NA,NA,NA,NA,NA,NA,TRUE,5,0.7804,451.0466,454.0402,0,95,95,81,1,95,40,NA,NA,NA,NA,NA,1,96,"likert"
"23A12FF761D148A6BEEB143DD5E38AF1",1,"0198f77f-14cc-7f12-8997-ad69ac2fda28","0198f768-e4d2-711c-944b-6f03c09216de","2025-08-29_15h25.13.635",NA,NA,457.4004,457.4005,457.4005,457.7493,NA,NA,NA,NA,NA,NA,NA,TRUE,5,0.6508,454.3903,457.4003,0,96,96,53,1,40,54,NA,NA,NA,NA,NA,1,97,"likert"
"23A12FF761D148A6BEEB143DD5E38AF1",1,"0198f77f-14cc-7f12-8997-ad69ac2fda28","0198f768-e4d2-711c-944b-6f03c09216de","2025-08-29_15h25.13.635",NA,NA,460.7437,460.7437,460.7437,461.0927,NA,NA,NA,NA,NA,NA,NA,TRUE,5,0.8128,457.7503,460.7436,0,97,97,77,1,90,54,NA,NA,NA,NA,NA,1,98,"likert"
"23A12FF761D148A6BEEB143DD5E38AF1",1,"0198f77f-14cc-7f12-8997-ad69ac2fda28","0198f768-e4d2-711c-944b-6f03c09216de","2025-08-29_15h25.13.635",NA,NA,464.0876,464.0877,464.0877,464.4534,NA,NA,NA,NA,NA,NA,NA,TRUE,5,0.8988,461.0935,464.0876,0,98,98,15,1,12,31,NA,NA,NA,NA,NA,1,99,"likert"
"23A12FF761D148A6BEEB143DD5E38AF1",1,"0198f77f-14cc-7f12-8997-ad69ac2fda28","0198f768-e4d2-711c-944b-6f03c09216de","2025-08-29_15h25.13.635",NA,NA,467.4472,467.4473,467.4473,467.7966,NA,NA,NA,NA,NA,NA,NA,TRUE,1,1.7766,464.4547,467.4471,0,99,99,54,1,45,26,NA,NA,NA,NA,NA,1,100,"likert"
"23A12FF761D148A6BEEB143DD5E38AF1",1,"0198f77f-14cc-7f12-8997-ad69ac2fda28","0198f768-e4d2-711c-944b-6f03c09216de","2025-08-29_15h25.13.635",NA,NA,470.7912,470.7912,470.7912,471.14,NA,NA,NA,NA,NA,NA,NA,TRUE,5,1.2345,467.7977,470.7911,0,100,100,39,1,28,35,NA,NA,NA,NA,NA,1,101,"likert"
"23A12FF761D148A6BEEB143DD5E38AF1",1,"0198f77f-14cc-7f12-8997-ad69ac2fda28","0198f768-e4d2-711c-944b-6f03c09216de","2025-08-29_15h25.13.635",NA,NA,474.1511,474.1511,474.1512,474.5003,NA,NA,NA,NA,NA,NA,NA,TRUE,5,1.2467,471.1408,474.151,0,101,101,34,1,25,35,NA,NA,NA,NA,NA,1,102,"likert"
"23A12FF761D148A6BEEB143DD5E38AF1",1,"0198f77f-14cc-7f12-8997-ad69ac2fda28","0198f768-e4d2-711c-944b-6f03c09216de","2025-08-29_15h25.13.635",NA,NA,477.4943,477.4944,477.4944,477.8437,NA,NA,NA,NA,NA,NA,NA,TRUE,5,1.7443,474.5011,477.4942,0,102,102,31,1,25,29,NA,NA,NA,NA,NA,1,103,"likert"
"23A12FF761D148A6BEEB143DD5E38AF1",1,"0198f77f-14cc-7f12-8997-ad69ac2fda28","0198f768-e4d2-711c-944b-6f03c09216de","2025-08-29_15h25.13.635",NA,NA,480.8383,480.8384,480.8384,481.187,NA,NA,NA,NA,NA,NA,NA,TRUE,5,0.7969,477.8448,480.838,0,103,103,93,1,150,40,NA,NA,NA,NA,NA,1,104,"likert"
"23A12FF761D148A6BEEB143DD5E38AF1",1,"0198f77f-14cc-7f12-8997-ad69ac2fda28","0198f768-e4d2-711c-944b-6f03c09216de","2025-08-29_15h25.13.635",NA,NA,484.198,484.1981,484.1981,484.5471,NA,NA,NA,NA,NA,NA,NA,TRUE,2,1.6458,481.1877,484.1979,0,104,104,96,1,180,27,NA,NA,NA,NA,NA,1,105,"likert"
"23A12FF761D148A6BEEB143DD5E38AF1",1,"0198f77f-14cc-7f12-8997-ad69ac2fda28","0198f768-e4d2-711c-944b-6f03c09216de","2025-08-29_15h25.13.635",NA,NA,487.5414,487.5415,487.5415,487.8909,NA,NA,NA,NA,NA,NA,NA,TRUE,5,1.3636,484.5479,487.5413,0,105,105,71,1,60,54,NA,NA,NA,NA,NA,1,106,"likert"
"23A12FF761D148A6BEEB143DD5E38AF1",1,"0198f77f-14cc-7f12-8997-ad69ac2fda28","0198f768-e4d2-711c-944b-6f03c09216de","2025-08-29_15h25.13.635",NA,NA,490.9016,490.9017,490.9017,491.251,NA,NA,NA,NA,NA,NA,NA,TRUE,5,1.8167,487.8916,490.9016,0,106,106,1,1,7,26,NA,NA,NA,NA,NA,1,107,"likert"
"23A12FF761D148A6BEEB143DD5E38AF1",1,"0198f77f-14cc-7f12-8997-ad69ac2fda28","0198f768-e4d2-711c-944b-6f03c09216de","2025-08-29_15h25.13.635",NA,NA,494.2455,494.2456,494.2456,494.5946,NA,NA,NA,NA,NA,NA,NA,TRUE,5,0.9857,491.2518,494.2455,0,107,107,105,1,200,39,NA,NA,NA,NA,NA,1,108,"likert"
"23A12FF761D148A6BEEB143DD5E38AF1",1,"0198f77f-14cc-7f12-8997-ad69ac2fda28","0198f768-e4d2-711c-944b-6f03c09216de","2025-08-29_15h25.13.635",NA,NA,505.8062,505.8062,505.8062,506.1555,NA,NA,NA,NA,NA,NA,NA,TRUE,5,1.5181,502.8229,505.8059,NA,NA,NA,NA,NA,100,46,0,0,0,88,1,2,1,"likert"
"23A12FF761D148A6BEEB143DD5E38AF1",1,"0198f77f-14cc-7f12-8997-ad69ac2fda28","0198f768-e4d2-711c-944b-6f03c09216de","2025-08-29_15h25.13.635",NA,NA,509.1666,509.1667,509.1667,509.5152,NA,NA,NA,NA,NA,NA,NA,TRUE,5,0.6466,506.1569,509.1665,NA,NA,NA,NA,NA,150,40,0,1,1,93,1,2,2,"likert"
"23A12FF761D148A6BEEB143DD5E38AF1",1,"0198f77f-14cc-7f12-8997-ad69ac2fda28","0198f768-e4d2-711c-944b-6f03c09216de","2025-08-29_15h25.13.635",NA,NA,512.5097,512.5097,512.5098,512.8591,NA,NA,NA,NA,NA,NA,NA,TRUE,5,0.9798,509.5161,512.5097,NA,NA,NA,NA,NA,100,38,0,2,2,86,1,2,3,"likert"
"23A12FF761D148A6BEEB143DD5E38AF1",1,"0198f77f-14cc-7f12-8997-ad69ac2fda28","0198f768-e4d2-711c-944b-6f03c09216de","2025-08-29_15h25.13.635",NA,NA,515.8531,515.8532,515.8532,516.2022,NA,NA,NA,NA,NA,NA,NA,TRUE,4,1.5788,512.8602,515.853,NA,NA,NA,NA,NA,40,27,0,3,3,48,1,2,4,"likert"
"23A12FF761D148A6BEEB143DD5E38AF1",1,"0198f77f-14cc-7f12-8997-ad69ac2fda28","0198f768-e4d2-711c-944b-6f03c09216de","2025-08-29_15h25.13.635",NA,NA,519.2132,519.2133,519.2133,519.5624,NA,NA,NA,NA,NA,NA,NA,TRUE,5,0.5819,516.2031,519.2131,NA,NA,NA,NA,NA,28,39,0,4,4,40,1,2,5,"likert"
"23A12FF761D148A6BEEB143DD5E38AF1",1,"0198f77f-14cc-7f12-8997-ad69ac2fda28","0198f768-e4d2-711c-944b-6f03c09216de","2025-08-29_15h25.13.635",NA,NA,522.5567,522.5567,522.5568,522.9062,NA,NA,NA,NA,NA,NA,NA,TRUE,1,1.4508,519.5632,522.5566,NA,NA,NA,NA,NA,100,26,0,5,5,84,1,2,6,"likert"
"23A12FF761D148A6BEEB143DD5E38AF1",1,"0198f77f-14cc-7f12-8997-ad69ac2fda28","0198f768-e4d2-711c-944b-6f03c09216de","2025-08-29_15h25.13.635",NA,NA,525.9007,525.9008,525.9008,526.2664,NA,NA,NA,NA,NA,NA,NA,TRUE,2,1.5953,522.907,525.9007,NA,NA,NA,NA,NA,30,26,0,6,6,42,1,2,7,"likert"
"23A12FF761D148A6BEEB143DD5E38AF1",1,"0198f77f-14cc-7f12-8997-ad69ac2fda28","0198f768-e4d2-711c-944b-6f03c09216de","2025-08-29_15h25.13.635",NA,NA,529.2611,529.2611,529.2611,529.6096,NA,NA,NA,NA,NA,NA,NA,TRUE,5,0.7472,526.2672,529.2609,NA,NA,NA,NA,NA,95,35,0,7,7,80,1,2,8,"likert"
"23A12FF761D148A6BEEB143DD5E38AF1",1,"0198f77f-14cc-7f12-8997-ad69ac2fda28","0198f768-e4d2-711c-944b-6f03c09216de","2025-08-29_15h25.13.635",NA,NA,532.604,532.604,532.604,532.953,NA,NA,NA,NA,NA,NA,NA,TRUE,5,0.8134,529.6106,532.6039,NA,NA,NA,NA,NA,7,32,0,8,8,4,1,2,9,"likert"
"23A12FF761D148A6BEEB143DD5E38AF1",1,"0198f77f-14cc-7f12-8997-ad69ac2fda28","0198f768-e4d2-711c-944b-6f03c09216de","2025-08-29_15h25.13.635",NA,NA,535.9644,535.9644,535.9644,536.3131,NA,NA,NA,NA,NA,NA,NA,TRUE,5,0.6472,532.9537,535.9642,NA,NA,NA,NA,NA,14,35,0,9,9,22,1,2,10,"likert"
"23A12FF761D148A6BEEB143DD5E38AF1",1,"0198f77f-14cc-7f12-8997-ad69ac2fda28","0198f768-e4d2-711c-944b-6f03c09216de","2025-08-29_15h25.13.635",NA,NA,539.3074,539.3074,539.3074,539.6567,NA,NA,NA,NA,NA,NA,NA,TRUE,5,0.5696,536.3139,539.3073,NA,NA,NA,NA,NA,60,47,0,10,10,70,1,2,11,"likert"
"23A12FF761D148A6BEEB143DD5E38AF1",1,"0198f77f-14cc-7f12-8997-ad69ac2fda28","0198f768-e4d2-711c-944b-6f03c09216de","2025-08-29_15h25.13.635",NA,NA,542.651,542.651,542.651,543.0004,NA,NA,NA,NA,NA,NA,NA,TRUE,5,0.8802,539.6575,542.6509,NA,NA,NA,NA,NA,150,31,0,11,11,90,1,2,12,"likert"
"23A12FF761D148A6BEEB143DD5E38AF1",1,"0198f77f-14cc-7f12-8997-ad69ac2fda28","0198f768-e4d2-711c-944b-6f03c09216de","2025-08-29_15h25.13.635",NA,NA,546.0111,546.0111,546.0112,546.3604,NA,NA,NA,NA,NA,NA,NA,TRUE,5,1.0486,543.0012,546.0111,NA,NA,NA,NA,NA,90,30,0,12,12,73,1,2,13,"likert"
"23A12FF761D148A6BEEB143DD5E38AF1",1,"0198f77f-14cc-7f12-8997-ad69ac2fda28","0198f768-e4d2-711c-944b-6f03c09216de","2025-08-29_15h25.13.635",NA,NA,549.3546,549.3547,549.3547,549.7038,NA,NA,NA,NA,NA,NA,NA,TRUE,5,1.8275,546.3613,549.3545,NA,NA,NA,NA,NA,45,31,0,13,13,56,1,2,14,"likert"
"23A12FF761D148A6BEEB143DD5E38AF1",1,"0198f77f-14cc-7f12-8997-ad69ac2fda28","0198f768-e4d2-711c-944b-6f03c09216de","2025-08-29_15h25.13.635",NA,NA,552.7153,552.7153,552.7153,553.0642,NA,NA,NA,NA,NA,NA,NA,TRUE,5,0.6982,549.7047,552.7152,NA,NA,NA,NA,NA,200,54,0,14,14,107,1,2,15,"likert"
"23A12FF761D148A6BEEB143DD5E38AF1",1,"0198f77f-14cc-7f12-8997-ad69ac2fda28","0198f768-e4d2-711c-944b-6f03c09216de","2025-08-29_15h25.13.635",NA,NA,556.0589,556.0589,556.0589,556.4074,NA,NA,NA,NA,NA,NA,NA,TRUE,5,0.5668,553.0651,556.0586,NA,NA,NA,NA,NA,180,46,0,15,15,100,1,2,16,"likert"
"23A12FF761D148A6BEEB143DD5E38AF1",1,"0198f77f-14cc-7f12-8997-ad69ac2fda28","0198f768-e4d2-711c-944b-6f03c09216de","2025-08-29_15h25.13.635",NA,NA,559.4017,559.4017,559.4018,559.7509,NA,NA,NA,NA,NA,NA,NA,TRUE,5,1.1457,556.4082,559.4016,NA,NA,NA,NA,NA,7,28,0,16,16,2,1,2,17,"likert"
"23A12FF761D148A6BEEB143DD5E38AF1",1,"0198f77f-14cc-7f12-8997-ad69ac2fda28","0198f768-e4d2-711c-944b-6f03c09216de","2025-08-29_15h25.13.635",NA,NA,562.7618,562.7618,562.7619,563.1111,NA,NA,NA,NA,NA,NA,NA,TRUE,5,0.5968,559.7517,562.7618,NA,NA,NA,NA,NA,25,33,0,17,17,33,1,2,18,"likert"
"23A12FF761D148A6BEEB143DD5E38AF1",1,"0198f77f-14cc-7f12-8997-ad69ac2fda28","0198f768-e4d2-711c-944b-6f03c09216de","2025-08-29_15h25.13.635",NA,NA,566.1052,566.1053,566.1054,566.4551,NA,NA,NA,NA,NA,NA,NA,TRUE,5,0.506,563.1119,566.1052,NA,NA,NA,NA,NA,12,31,0,18,18,15,1,2,19,"likert"
"23A12FF761D148A6BEEB143DD5E38AF1",1,"0198f77f-14cc-7f12-8997-ad69ac2fda28","0198f768-e4d2-711c-944b-6f03c09216de","2025-08-29_15h25.13.635",NA,NA,569.4655,569.4656,569.4656,569.8148,NA,NA,NA,NA,NA,NA,NA,TRUE,5,0.5975,566.4559,569.4655,NA,NA,NA,NA,NA,30,30,0,19,19,45,1,2,20,"likert"
"23A12FF761D148A6BEEB143DD5E38AF1",1,"0198f77f-14cc-7f12-8997-ad69ac2fda28","0198f768-e4d2-711c-944b-6f03c09216de","2025-08-29_15h25.13.635",NA,NA,572.8089,572.8089,572.8089,573.1581,NA,NA,NA,NA,NA,NA,NA,TRUE,5,0.48,569.8156,572.8088,NA,NA,NA,NA,NA,95,47,0,20,20,82,1,2,21,"likert"
"23A12FF761D148A6BEEB143DD5E38AF1",1,"0198f77f-14cc-7f12-8997-ad69ac2fda28","0198f768-e4d2-711c-944b-6f03c09216de","2025-08-29_15h25.13.635",NA,NA,576.1525,576.1525,576.1525,576.5011,NA,NA,NA,NA,NA,NA,NA,TRUE,5,0.5967,573.1589,576.1523,NA,NA,NA,NA,NA,200,39,0,21,21,105,1,2,22,"likert"
"23A12FF761D148A6BEEB143DD5E38AF1",1,"0198f77f-14cc-7f12-8997-ad69ac2fda28","0198f768-e4d2-711c-944b-6f03c09216de","2025-08-29_15h25.13.635",NA,NA,579.5125,579.5125,579.5127,579.8618,NA,NA,NA,NA,NA,NA,NA,TRUE,5,0.7964,576.5021,579.5124,NA,NA,NA,NA,NA,21,30,0,22,22,27,1,2,23,"likert"
"23A12FF761D148A6BEEB143DD5E38AF1",1,"0198f77f-14cc-7f12-8997-ad69ac2fda28","0198f768-e4d2-711c-944b-6f03c09216de","2025-08-29_15h25.13.635",NA,NA,582.8562,582.8562,582.8563,583.2055,NA,NA,NA,NA,NA,NA,NA,TRUE,4,1.5476,579.8625,582.856,NA,NA,NA,NA,NA,180,27,0,23,23,96,1,2,24,"likert"
"23A12FF761D148A6BEEB143DD5E38AF1",1,"0198f77f-14cc-7f12-8997-ad69ac2fda28","0198f768-e4d2-711c-944b-6f03c09216de","2025-08-29_15h25.13.635",NA,NA,586.2163,586.2164,586.2164,586.5657,NA,NA,NA,NA,NA,NA,NA,TRUE,5,0.7639,583.2062,586.2163,NA,NA,NA,NA,NA,30,32,0,24,24,46,1,2,25,"likert"
"23A12FF761D148A6BEEB143DD5E38AF1",1,"0198f77f-14cc-7f12-8997-ad69ac2fda28","0198f768-e4d2-711c-944b-6f03c09216de","2025-08-29_15h25.13.635",NA,NA,589.5598,589.5599,589.56,589.909,NA,NA,NA,NA,NA,NA,NA,TRUE,5,0.6122,586.5667,589.5597,NA,NA,NA,NA,NA,90,33,0,25,25,74,1,2,26,"likert"
"23A12FF761D148A6BEEB143DD5E38AF1",1,"0198f77f-14cc-7f12-8997-ad69ac2fda28","0198f768-e4d2-711c-944b-6f03c09216de","2025-08-29_15h25.13.635",NA,NA,592.9032,592.9032,592.9032,593.2525,NA,NA,NA,NA,NA,NA,NA,TRUE,5,0.4685,589.9101,592.9031,NA,NA,NA,NA,NA,50,46,0,26,26,64,1,2,27,"likert"
"23A12FF761D148A6BEEB143DD5E38AF1",1,"0198f77f-14cc-7f12-8997-ad69ac2fda28","0198f768-e4d2-711c-944b-6f03c09216de","2025-08-29_15h25.13.635",NA,NA,596.2634,596.2636,596.2636,596.6125,NA,NA,NA,NA,NA,NA,NA,TRUE,5,0.7461,593.2535,596.2633,NA,NA,NA,NA,NA,100,31,0,27,27,85,1,2,28,"likert"
"23A12FF761D148A6BEEB143DD5E38AF1",1,"0198f77f-14cc-7f12-8997-ad69ac2fda28","0198f768-e4d2-711c-944b-6f03c09216de","2025-08-29_15h25.13.635",NA,NA,599.6071,599.6071,599.6071,599.9562,NA,NA,NA,NA,NA,NA,NA,TRUE,5,0.7967,596.6134,599.6069,NA,NA,NA,NA,NA,150,47,0,28,28,94,1,2,29,"likert"
"23A12FF761D148A6BEEB143DD5E38AF1",1,"0198f77f-14cc-7f12-8997-ad69ac2fda28","0198f768-e4d2-711c-944b-6f03c09216de","2025-08-29_15h25.13.635",NA,NA,602.9503,602.9504,602.9504,603.3157,NA,NA,NA,NA,NA,NA,NA,TRUE,5,0.8471,599.9569,602.9503,NA,NA,NA,NA,NA,12,33,0,29,29,16,1,2,30,"likert"
"23A12FF761D148A6BEEB143DD5E38AF1",1,"0198f77f-14cc-7f12-8997-ad69ac2fda28","0198f768-e4d2-711c-944b-6f03c09216de","2025-08-29_15h25.13.635",NA,NA,606.3108,606.3108,606.3108,606.6597,NA,NA,NA,NA,NA,NA,NA,TRUE,5,1.0132,603.3171,606.3107,NA,NA,NA,NA,NA,14,39,0,30,30,23,1,2,31,"likert"
"23A12FF761D148A6BEEB143DD5E38AF1",1,"0198f77f-14cc-7f12-8997-ad69ac2fda28","0198f768-e4d2-711c-944b-6f03c09216de","2025-08-29_15h25.13.635",NA,NA,609.6543,609.6543,609.6543,610.0031,NA,NA,NA,NA,NA,NA,NA,TRUE,5,0.9162,606.6606,609.6541,NA,NA,NA,NA,NA,60,33,0,31,31,67,1,2,32,"likert"
"23A12FF761D148A6BEEB143DD5E38AF1",1,"0198f77f-14cc-7f12-8997-ad69ac2fda28","0198f768-e4d2-711c-944b-6f03c09216de","2025-08-29_15h25.13.635",NA,NA,613.014,613.0142,613.0142,613.3633,NA,NA,NA,NA,NA,NA,NA,TRUE,5,1.7948,610.0038,613.014,NA,NA,NA,NA,NA,10,26,0,32,32,7,1,2,33,"likert"
"23A12FF761D148A6BEEB143DD5E38AF1",1,"0198f77f-14cc-7f12-8997-ad69ac2fda28","0198f768-e4d2-711c-944b-6f03c09216de","2025-08-29_15h25.13.635",NA,NA,616.3582,616.3582,616.3582,616.7068,NA,NA,NA,NA,NA,NA,NA,TRUE,5,0.5993,613.364,616.3581,NA,NA,NA,NA,NA,25,46,0,33,33,35,1,2,34,"likert"
"23A12FF761D148A6BEEB143DD5E38AF1",1,"0198f77f-14cc-7f12-8997-ad69ac2fda28","0198f768-e4d2-711c-944b-6f03c09216de","2025-08-29_15h25.13.635",NA,NA,619.7014,619.7014,619.7015,620.0505,NA,NA,NA,NA,NA,NA,NA,TRUE,5,0.7305,616.7076,619.7012,NA,NA,NA,NA,NA,60,35,0,34,34,68,1,2,35,"likert"
"23A12FF761D148A6BEEB143DD5E38AF1",1,"0198f77f-14cc-7f12-8997-ad69ac2fda28","0198f768-e4d2-711c-944b-6f03c09216de","2025-08-29_15h25.13.635",NA,NA,623.0612,623.0612,623.0613,623.4106,NA,NA,NA,NA,NA,NA,NA,TRUE,5,0.6465,620.0514,623.0611,NA,NA,NA,NA,NA,40,54,0,35,35,53,1,2,36,"likert"
"23A12FF761D148A6BEEB143DD5E38AF1",1,"0198f77f-14cc-7f12-8997-ad69ac2fda28","0198f768-e4d2-711c-944b-6f03c09216de","2025-08-29_15h25.13.635",NA,NA,626.4049,626.405,626.405,626.7539,NA,NA,NA,NA,NA,NA,NA,TRUE,5,0.6005,623.4114,626.4048,NA,NA,NA,NA,NA,90,46,0,36,36,76,1,2,37,"likert"
"23A12FF761D148A6BEEB143DD5E38AF1",1,"0198f77f-14cc-7f12-8997-ad69ac2fda28","0198f768-e4d2-711c-944b-6f03c09216de","2025-08-29_15h25.13.635",NA,NA,629.7653,629.7654,629.7654,630.114,NA,NA,NA,NA,NA,NA,NA,TRUE,5,0.7694,626.7547,629.7652,NA,NA,NA,NA,NA,90,40,0,37,37,75,1,2,38,"likert"
"23A12FF761D148A6BEEB143DD5E38AF1",1,"0198f77f-14cc-7f12-8997-ad69ac2fda28","0198f768-e4d2-711c-944b-6f03c09216de","2025-08-29_15h25.13.635",NA,NA,633.1086,633.1086,633.1086,633.458,NA,NA,NA,NA,NA,NA,NA,TRUE,5,0.7463,630.1147,633.1085,NA,NA,NA,NA,NA,50,27,0,38,38,60,1,2,39,"likert"
"23A12FF761D148A6BEEB143DD5E38AF1",1,"0198f77f-14cc-7f12-8997-ad69ac2fda28","0198f768-e4d2-711c-944b-6f03c09216de","2025-08-29_15h25.13.635",NA,NA,636.4518,636.4518,636.4518,636.801,NA,NA,NA,NA,NA,NA,NA,TRUE,5,0.8304,633.4587,636.4517,NA,NA,NA,NA,NA,14,28,0,39,39,20,1,2,40,"likert"
"23A12FF761D148A6BEEB143DD5E38AF1",1,"0198f77f-14cc-7f12-8997-ad69ac2fda28","0198f768-e4d2-711c-944b-6f03c09216de","2025-08-29_15h25.13.635",NA,NA,639.812,639.812,639.812,640.1611,NA,NA,NA,NA,NA,NA,NA,TRUE,5,0.7468,636.8018,639.8118,NA,NA,NA,NA,NA,30,38,0,40,40,47,1,2,41,"likert"
"23A12FF761D148A6BEEB143DD5E38AF1",1,"0198f77f-14cc-7f12-8997-ad69ac2fda28","0198f768-e4d2-711c-944b-6f03c09216de","2025-08-29_15h25.13.635",NA,NA,643.1556,643.1557,643.1557,643.5047,NA,NA,NA,NA,NA,NA,NA,TRUE,1,1.5454,640.1619,643.1555,NA,NA,NA,NA,NA,14,25,0,41,41,18,1,2,42,"likert"
"23A12FF761D148A6BEEB143DD5E38AF1",1,"0198f77f-14cc-7f12-8997-ad69ac2fda28","0198f768-e4d2-711c-944b-6f03c09216de","2025-08-29_15h25.13.635",NA,NA,646.5159,646.516,646.516,646.8648,NA,NA,NA,NA,NA,NA,NA,TRUE,5,1.2131,643.5054,646.5158,NA,NA,NA,NA,NA,200,35,0,42,42,104,1,2,43,"likert"
"23A12FF761D148A6BEEB143DD5E38AF1",1,"0198f77f-14cc-7f12-8997-ad69ac2fda28","0198f768-e4d2-711c-944b-6f03c09216de","2025-08-29_15h25.13.635",NA,NA,649.859,649.859,649.859,650.208,NA,NA,NA,NA,NA,NA,NA,TRUE,5,1.5046,646.8655,649.8589,NA,NA,NA,NA,NA,28,28,0,43,43,37,1,2,44,"likert"
"23A12FF761D148A6BEEB143DD5E38AF1",1,"0198f77f-14cc-7f12-8997-ad69ac2fda28","0198f768-e4d2-711c-944b-6f03c09216de","2025-08-29_15h25.13.635",NA,NA,653.2026,653.2027,653.2027,653.5518,NA,NA,NA,NA,NA,NA,NA,TRUE,5,1.7486,650.2089,653.2025,NA,NA,NA,NA,NA,21,38,0,44,44,29,1,2,45,"likert"
"23A12FF761D148A6BEEB143DD5E38AF1",1,"0198f77f-14cc-7f12-8997-ad69ac2fda28","0198f768-e4d2-711c-944b-6f03c09216de","2025-08-29_15h25.13.635",NA,NA,656.5627,656.5628,656.5628,656.9119,NA,NA,NA,NA,NA,NA,NA,TRUE,5,1.1959,653.5526,656.5626,NA,NA,NA,NA,NA,50,35,0,45,45,62,1,2,46,"likert"
"23A12FF761D148A6BEEB143DD5E38AF1",1,"0198f77f-14cc-7f12-8997-ad69ac2fda28","0198f768-e4d2-711c-944b-6f03c09216de","2025-08-29_15h25.13.635",NA,NA,659.9065,659.9065,659.9065,660.2555,NA,NA,NA,NA,NA,NA,NA,TRUE,5,0.739,656.9126,659.9063,NA,NA,NA,NA,NA,50,30,0,46,46,61,1,2,47,"likert"
"23A12FF761D148A6BEEB143DD5E38AF1",1,"0198f77f-14cc-7f12-8997-ad69ac2fda28","0198f768-e4d2-711c-944b-6f03c09216de","2025-08-29_15h25.13.635",NA,NA,663.25,663.25,663.25,663.6156,NA,NA,NA,NA,NA,NA,NA,TRUE,5,0.4977,660.2563,663.2498,NA,NA,NA,NA,NA,50,40,0,47,47,63,1,2,48,"likert"
"23A12FF761D148A6BEEB143DD5E38AF1",1,"0198f77f-14cc-7f12-8997-ad69ac2fda28","0198f768-e4d2-711c-944b-6f03c09216de","2025-08-29_15h25.13.635",NA,NA,666.6101,666.6101,666.6101,666.9589,NA,NA,NA,NA,NA,NA,NA,TRUE,5,0.8787,663.6167,666.61,NA,NA,NA,NA,NA,10,30,0,48,48,10,1,2,49,"likert"
"23A12FF761D148A6BEEB143DD5E38AF1",1,"0198f77f-14cc-7f12-8997-ad69ac2fda28","0198f768-e4d2-711c-944b-6f03c09216de","2025-08-29_15h25.13.635",NA,NA,669.9533,669.9534,669.9534,670.3025,NA,NA,NA,NA,NA,NA,NA,TRUE,5,0.6966,666.9599,669.9533,NA,NA,NA,NA,NA,100,54,0,49,49,89,1,2,50,"likert"
"23A12FF761D148A6BEEB143DD5E38AF1",1,"0198f77f-14cc-7f12-8997-ad69ac2fda28","0198f768-e4d2-711c-944b-6f03c09216de","2025-08-29_15h25.13.635",NA,NA,673.3134,673.3134,673.3134,673.6631,NA,NA,NA,NA,NA,NA,NA,TRUE,5,0.8297,670.3032,673.3133,NA,NA,NA,NA,NA,21,29,0,50,50,26,1,2,51,"likert"
"23A12FF761D148A6BEEB143DD5E38AF1",1,"0198f77f-14cc-7f12-8997-ad69ac2fda28","0198f768-e4d2-711c-944b-6f03c09216de","2025-08-29_15h25.13.635",NA,NA,676.6569,676.6569,676.657,677.0068,NA,NA,NA,NA,NA,NA,NA,TRUE,5,0.5956,673.6641,676.6568,NA,NA,NA,NA,NA,60,40,0,51,51,69,1,2,52,"likert"
"23A12FF761D148A6BEEB143DD5E38AF1",1,"0198f77f-14cc-7f12-8997-ad69ac2fda28","0198f768-e4d2-711c-944b-6f03c09216de","2025-08-29_15h25.13.635",NA,NA,680.001,680.001,680.001,680.3505,NA,NA,NA,NA,NA,NA,NA,TRUE,5,0.697,677.008,680.0009,NA,NA,NA,NA,NA,50,54,0,52,52,65,1,2,53,"likert"
"23A12FF761D148A6BEEB143DD5E38AF1",1,"0198f77f-14cc-7f12-8997-ad69ac2fda28","0198f768-e4d2-711c-944b-6f03c09216de","2025-08-29_15h25.13.635",NA,NA,683.3607,683.3607,683.3607,683.71,NA,NA,NA,NA,NA,NA,NA,TRUE,4,1.6703,680.3513,683.3606,NA,NA,NA,NA,NA,12,26,0,53,53,13,1,2,54,"likert"
"23A12FF761D148A6BEEB143DD5E38AF1",1,"0198f77f-14cc-7f12-8997-ad69ac2fda28","0198f768-e4d2-711c-944b-6f03c09216de","2025-08-29_15h25.13.635",NA,NA,686.7041,686.7041,686.7041,687.0535,NA,NA,NA,NA,NA,NA,NA,TRUE,5,0.722,683.7108,686.704,NA,NA,NA,NA,NA,180,35,0,54,54,98,1,2,55,"likert"
"23A12FF761D148A6BEEB143DD5E38AF1",1,"0198f77f-14cc-7f12-8997-ad69ac2fda28","0198f768-e4d2-711c-944b-6f03c09216de","2025-08-29_15h25.13.635",NA,NA,690.0644,690.0645,690.0645,690.4134,NA,NA,NA,NA,NA,NA,NA,TRUE,1,1.5787,687.0544,690.0643,NA,NA,NA,NA,NA,200,26,0,55,55,102,1,2,56,"likert"
"23A12FF761D148A6BEEB143DD5E38AF1",1,"0198f77f-14cc-7f12-8997-ad69ac2fda28","0198f768-e4d2-711c-944b-6f03c09216de","2025-08-29_15h25.13.635",NA,NA,693.4077,693.4077,693.4077,693.7569,NA,NA,NA,NA,NA,NA,NA,TRUE,5,0.7133,690.4141,693.4075,NA,NA,NA,NA,NA,180,54,0,56,56,101,1,2,57,"likert"
"23A12FF761D148A6BEEB143DD5E38AF1",1,"0198f77f-14cc-7f12-8997-ad69ac2fda28","0198f768-e4d2-711c-944b-6f03c09216de","2025-08-29_15h25.13.635",NA,NA,696.7511,696.7512,696.7512,697.1006,NA,NA,NA,NA,NA,NA,NA,TRUE,5,0.7828,693.7577,696.751,NA,NA,NA,NA,NA,10,32,0,57,57,11,1,2,58,"likert"
"23A12FF761D148A6BEEB143DD5E38AF1",1,"0198f77f-14cc-7f12-8997-ad69ac2fda28","0198f768-e4d2-711c-944b-6f03c09216de","2025-08-29_15h25.13.635",NA,NA,700.1115,700.1115,700.1116,700.4606,NA,NA,NA,NA,NA,NA,NA,TRUE,1,1.2313,697.1014,700.1114,NA,NA,NA,NA,NA,12,25,0,58,58,12,1,2,59,"likert"
"23A12FF761D148A6BEEB143DD5E38AF1",1,"0198f77f-14cc-7f12-8997-ad69ac2fda28","0198f768-e4d2-711c-944b-6f03c09216de","2025-08-29_15h25.13.635",NA,NA,703.4555,703.4555,703.4555,703.8046,NA,NA,NA,NA,NA,NA,NA,TRUE,5,0.8691,700.4613,703.4553,NA,NA,NA,NA,NA,150,54,0,59,59,95,1,2,60,"likert"
"23A12FF761D148A6BEEB143DD5E38AF1",1,"0198f77f-14cc-7f12-8997-ad69ac2fda28","0198f768-e4d2-711c-944b-6f03c09216de","2025-08-29_15h25.13.635",NA,NA,706.8157,706.8157,706.8158,707.1642,NA,NA,NA,NA,NA,NA,NA,TRUE,4,1.5301,703.8055,706.8156,NA,NA,NA,NA,NA,28,26,0,60,60,36,1,2,61,"likert"
"23A12FF761D148A6BEEB143DD5E38AF1",1,"0198f77f-14cc-7f12-8997-ad69ac2fda28","0198f768-e4d2-711c-944b-6f03c09216de","2025-08-29_15h25.13.635",NA,NA,710.1584,710.1584,710.1584,710.508,NA,NA,NA,NA,NA,NA,NA,TRUE,5,0.5796,707.165,710.1583,NA,NA,NA,NA,NA,14,32,0,61,61,21,1,2,62,"likert"
"23A12FF761D148A6BEEB143DD5E38AF1",1,"0198f77f-14cc-7f12-8997-ad69ac2fda28","0198f768-e4d2-711c-944b-6f03c09216de","2025-08-29_15h25.13.635",NA,NA,713.5019,713.502,713.502,713.8514,NA,NA,NA,NA,NA,NA,NA,TRUE,5,0.4973,710.5089,713.5019,NA,NA,NA,NA,NA,21,32,0,62,62,28,1,2,63,"likert"
"23A12FF761D148A6BEEB143DD5E38AF1",1,"0198f77f-14cc-7f12-8997-ad69ac2fda28","0198f768-e4d2-711c-944b-6f03c09216de","2025-08-29_15h25.13.635",NA,NA,716.862,716.8622,716.8622,717.2113,NA,NA,NA,NA,NA,NA,NA,TRUE,5,0.5644,713.8522,716.862,NA,NA,NA,NA,NA,100,39,0,63,63,87,1,2,64,"likert"
"23A12FF761D148A6BEEB143DD5E38AF1",1,"0198f77f-14cc-7f12-8997-ad69ac2fda28","0198f768-e4d2-711c-944b-6f03c09216de","2025-08-29_15h25.13.635",NA,NA,720.2057,720.2058,720.2058,720.5551,NA,NA,NA,NA,NA,NA,NA,TRUE,5,0.4844,717.2122,720.2056,NA,NA,NA,NA,NA,28,46,0,64,64,41,1,2,65,"likert"
"23A12FF761D148A6BEEB143DD5E38AF1",1,"0198f77f-14cc-7f12-8997-ad69ac2fda28","0198f768-e4d2-711c-944b-6f03c09216de","2025-08-29_15h25.13.635",NA,NA,723.5661,723.5663,723.5663,723.9154,NA,NA,NA,NA,NA,NA,NA,TRUE,5,0.6331,720.5562,723.566,NA,NA,NA,NA,NA,90,54,0,65,65,77,1,2,66,"likert"
"23A12FF761D148A6BEEB143DD5E38AF1",1,"0198f77f-14cc-7f12-8997-ad69ac2fda28","0198f768-e4d2-711c-944b-6f03c09216de","2025-08-29_15h25.13.635",NA,NA,726.9096,726.9096,726.9096,727.2583,NA,NA,NA,NA,NA,NA,NA,TRUE,5,0.4861,723.9163,726.9091,NA,NA,NA,NA,NA,95,31,0,66,66,78,1,2,67,"likert"
"23A12FF761D148A6BEEB143DD5E38AF1",1,"0198f77f-14cc-7f12-8997-ad69ac2fda28","0198f768-e4d2-711c-944b-6f03c09216de","2025-08-29_15h25.13.635",NA,NA,730.2528,730.2528,730.2528,730.6018,NA,NA,NA,NA,NA,NA,NA,TRUE,5,0.37,727.2592,730.2527,NA,NA,NA,NA,NA,25,27,0,67,67,30,1,2,68,"likert"
"23A12FF761D148A6BEEB143DD5E38AF1",1,"0198f77f-14cc-7f12-8997-ad69ac2fda28","0198f768-e4d2-711c-944b-6f03c09216de","2025-08-29_15h25.13.635",NA,NA,733.6021,733.6021,733.6021,733.962,NA,NA,NA,NA,NA,NA,NA,TRUE,5,0.6309,730.6027,733.6019,NA,NA,NA,NA,NA,180,31,0,68,68,97,1,2,69,"likert"
"23A12FF761D148A6BEEB143DD5E38AF1",1,"0198f77f-14cc-7f12-8997-ad69ac2fda28","0198f768-e4d2-711c-944b-6f03c09216de","2025-08-29_15h25.13.635",NA,NA,736.9568,736.9569,736.9569,737.3057,NA,NA,NA,NA,NA,NA,NA,TRUE,1,1.3452,733.9628,736.9567,NA,NA,NA,NA,NA,7,25,0,69,69,0,1,2,70,"likert"
"23A12FF761D148A6BEEB143DD5E38AF1",1,"0198f77f-14cc-7f12-8997-ad69ac2fda28","0198f768-e4d2-711c-944b-6f03c09216de","2025-08-29_15h25.13.635",NA,NA,740.3005,740.3005,740.3005,740.6661,NA,NA,NA,NA,NA,NA,NA,TRUE,5,0.5972,737.3065,740.3004,NA,NA,NA,NA,NA,40,40,0,70,70,51,1,2,71,"likert"
"23A12FF761D148A6BEEB143DD5E38AF1",1,"0198f77f-14cc-7f12-8997-ad69ac2fda28","0198f768-e4d2-711c-944b-6f03c09216de","2025-08-29_15h25.13.635",NA,NA,743.6605,743.6606,743.6606,744.0093,NA,NA,NA,NA,NA,NA,NA,TRUE,1,1.0948,740.6671,743.6603,NA,NA,NA,NA,NA,10,25,0,71,71,6,1,2,72,"likert"
"23A12FF761D148A6BEEB143DD5E38AF1",1,"0198f77f-14cc-7f12-8997-ad69ac2fda28","0198f768-e4d2-711c-944b-6f03c09216de","2025-08-29_15h25.13.635",NA,NA,747.0034,747.0035,747.0035,747.3526,NA,NA,NA,NA,NA,NA,NA,TRUE,5,0.7304,744.01,747.0034,NA,NA,NA,NA,NA,95,33,0,72,72,79,1,2,73,"likert"
"23A12FF761D148A6BEEB143DD5E38AF1",1,"0198f77f-14cc-7f12-8997-ad69ac2fda28","0198f768-e4d2-711c-944b-6f03c09216de","2025-08-29_15h25.13.635",NA,NA,750.3639,750.364,750.364,750.7128,NA,NA,NA,NA,NA,NA,NA,TRUE,5,0.4898,747.3534,750.3638,NA,NA,NA,NA,NA,45,46,0,73,73,59,1,2,74,"likert"
"23A12FF761D148A6BEEB143DD5E38AF1",1,"0198f77f-14cc-7f12-8997-ad69ac2fda28","0198f768-e4d2-711c-944b-6f03c09216de","2025-08-29_15h25.13.635",NA,NA,753.7073,753.7073,753.7074,754.0563,NA,NA,NA,NA,NA,NA,NA,TRUE,5,0.5829,750.7135,753.7073,NA,NA,NA,NA,NA,25,31,0,74,74,32,1,2,75,"likert"
"23A12FF761D148A6BEEB143DD5E38AF1",1,"0198f77f-14cc-7f12-8997-ad69ac2fda28","0198f768-e4d2-711c-944b-6f03c09216de","2025-08-29_15h25.13.635",NA,NA,757.0506,757.0506,757.0506,757.4002,NA,NA,NA,NA,NA,NA,NA,TRUE,4,1.2122,754.0572,757.0504,NA,NA,NA,NA,NA,30,27,0,75,75,43,1,2,76,"likert"
"23A12FF761D148A6BEEB143DD5E38AF1",1,"0198f77f-14cc-7f12-8997-ad69ac2fda28","0198f768-e4d2-711c-944b-6f03c09216de","2025-08-29_15h25.13.635",NA,NA,760.4107,760.4107,760.4107,760.7599,NA,NA,NA,NA,NA,NA,NA,TRUE,5,1.0994,757.4011,760.4105,NA,NA,NA,NA,NA,25,29,0,76,76,31,1,2,77,"likert"
"23A12FF761D148A6BEEB143DD5E38AF1",1,"0198f77f-14cc-7f12-8997-ad69ac2fda28","0198f768-e4d2-711c-944b-6f03c09216de","2025-08-29_15h25.13.635",NA,NA,763.7544,763.7544,763.7545,764.1033,NA,NA,NA,NA,NA,NA,NA,TRUE,5,0.4482,760.7607,763.7544,NA,NA,NA,NA,NA,95,40,0,77,77,81,1,2,78,"likert"
"23A12FF761D148A6BEEB143DD5E38AF1",1,"0198f77f-14cc-7f12-8997-ad69ac2fda28","0198f768-e4d2-711c-944b-6f03c09216de","2025-08-29_15h25.13.635",NA,NA,767.1144,767.1145,767.1145,767.4637,NA,NA,NA,NA,NA,NA,NA,TRUE,5,0.7883,764.1045,767.1143,NA,NA,NA,NA,NA,7,30,0,78,78,3,1,2,79,"likert"
"23A12FF761D148A6BEEB143DD5E38AF1",1,"0198f77f-14cc-7f12-8997-ad69ac2fda28","0198f768-e4d2-711c-944b-6f03c09216de","2025-08-29_15h25.13.635",NA,NA,770.4578,770.4578,770.4578,770.8068,NA,NA,NA,NA,NA,NA,NA,TRUE,5,0.5965,767.4645,770.4577,NA,NA,NA,NA,NA,7,35,0,79,79,5,1,2,80,"likert"
"23A12FF761D148A6BEEB143DD5E38AF1",1,"0198f77f-14cc-7f12-8997-ad69ac2fda28","0198f768-e4d2-711c-944b-6f03c09216de","2025-08-29_15h25.13.635",NA,NA,773.8013,773.8013,773.8013,774.1504,NA,NA,NA,NA,NA,NA,NA,TRUE,5,0.7338,770.8077,773.8012,NA,NA,NA,NA,NA,150,33,0,80,80,91,1,2,81,"likert"
"23A12FF761D148A6BEEB143DD5E38AF1",1,"0198f77f-14cc-7f12-8997-ad69ac2fda28","0198f768-e4d2-711c-944b-6f03c09216de","2025-08-29_15h25.13.635",NA,NA,777.1615,777.1615,777.1615,777.5111,NA,NA,NA,NA,NA,NA,NA,TRUE,5,0.6976,774.1514,777.1613,NA,NA,NA,NA,NA,45,40,0,81,81,58,1,2,82,"likert"
"23A12FF761D148A6BEEB143DD5E38AF1",1,"0198f77f-14cc-7f12-8997-ad69ac2fda28","0198f768-e4d2-711c-944b-6f03c09216de","2025-08-29_15h25.13.635",NA,NA,780.5055,780.5056,780.5057,780.8543,NA,NA,NA,NA,NA,NA,NA,TRUE,5,0.929,777.5119,780.5054,NA,NA,NA,NA,NA,10,29,0,82,82,9,1,2,83,"likert"
"23A12FF761D148A6BEEB143DD5E38AF1",1,"0198f77f-14cc-7f12-8997-ad69ac2fda28","0198f768-e4d2-711c-944b-6f03c09216de","2025-08-29_15h25.13.635",NA,NA,783.865,783.8651,783.8651,784.2146,NA,NA,NA,NA,NA,NA,NA,TRUE,5,0.4815,780.8554,783.865,NA,NA,NA,NA,NA,60,54,0,83,83,71,1,2,84,"likert"
"23A12FF761D148A6BEEB143DD5E38AF1",1,"0198f77f-14cc-7f12-8997-ad69ac2fda28","0198f768-e4d2-711c-944b-6f03c09216de","2025-08-29_15h25.13.635",NA,NA,787.2089,787.2089,787.2089,787.5578,NA,NA,NA,NA,NA,NA,NA,TRUE,2,1.8785,784.2157,787.2088,NA,NA,NA,NA,NA,90,26,0,84,84,72,1,2,85,"likert"
"23A12FF761D148A6BEEB143DD5E38AF1",1,"0198f77f-14cc-7f12-8997-ad69ac2fda28","0198f768-e4d2-711c-944b-6f03c09216de","2025-08-29_15h25.13.635",NA,NA,790.5521,790.5521,790.5522,790.9012,NA,NA,NA,NA,NA,NA,NA,TRUE,5,0.9139,787.5585,790.5521,NA,NA,NA,NA,NA,95,54,0,85,85,83,1,2,86,"likert"
"23A12FF761D148A6BEEB143DD5E38AF1",1,"0198f77f-14cc-7f12-8997-ad69ac2fda28","0198f768-e4d2-711c-944b-6f03c09216de","2025-08-29_15h25.13.635",NA,NA,793.9121,793.9122,793.9122,794.2619,NA,NA,NA,NA,NA,NA,NA,TRUE,5,0.5293,790.902,793.912,NA,NA,NA,NA,NA,180,39,0,86,86,99,1,2,87,"likert"
"23A12FF761D148A6BEEB143DD5E38AF1",1,"0198f77f-14cc-7f12-8997-ad69ac2fda28","0198f768-e4d2-711c-944b-6f03c09216de","2025-08-29_15h25.13.635",NA,NA,797.256,797.256,797.256,797.6051,NA,NA,NA,NA,NA,NA,NA,TRUE,5,0.6794,794.2629,797.2559,NA,NA,NA,NA,NA,25,35,0,87,87,34,1,2,88,"likert"
"23A12FF761D148A6BEEB143DD5E38AF1",1,"0198f77f-14cc-7f12-8997-ad69ac2fda28","0198f768-e4d2-711c-944b-6f03c09216de","2025-08-29_15h25.13.635",NA,NA,800.6162,800.6162,800.6162,800.9649,NA,NA,NA,NA,NA,NA,NA,TRUE,5,0.9799,797.606,800.616,NA,NA,NA,NA,NA,10,27,0,88,88,8,1,2,89,"likert"
"23A12FF761D148A6BEEB143DD5E38AF1",1,"0198f77f-14cc-7f12-8997-ad69ac2fda28","0198f768-e4d2-711c-944b-6f03c09216de","2025-08-29_15h25.13.635",NA,NA,803.9596,803.9596,803.9596,804.3084,NA,NA,NA,NA,NA,NA,NA,TRUE,4,1.5676,800.9657,803.9592,NA,NA,NA,NA,NA,45,26,0,89,89,54,1,2,90,"likert"
"23A12FF761D148A6BEEB143DD5E38AF1",1,"0198f77f-14cc-7f12-8997-ad69ac2fda28","0198f768-e4d2-711c-944b-6f03c09216de","2025-08-29_15h25.13.635",NA,NA,807.3028,807.3029,807.3029,807.6519,NA,NA,NA,NA,NA,NA,NA,TRUE,5,0.7513,804.3092,807.3027,NA,NA,NA,NA,NA,45,29,0,90,90,55,1,2,91,"likert"
"23A12FF761D148A6BEEB143DD5E38AF1",1,"0198f77f-14cc-7f12-8997-ad69ac2fda28","0198f768-e4d2-711c-944b-6f03c09216de","2025-08-29_15h25.13.635",NA,NA,810.6629,810.6629,810.6629,811.012,NA,NA,NA,NA,NA,NA,NA,TRUE,5,0.5723,807.6527,810.6628,NA,NA,NA,NA,NA,28,35,0,91,91,39,1,2,92,"likert"
"23A12FF761D148A6BEEB143DD5E38AF1",1,"0198f77f-14cc-7f12-8997-ad69ac2fda28","0198f768-e4d2-711c-944b-6f03c09216de","2025-08-29_15h25.13.635",NA,NA,814.0064,814.0064,814.0064,814.3557,NA,NA,NA,NA,NA,NA,NA,TRUE,5,0.6149,811.0129,814.0063,NA,NA,NA,NA,NA,40,47,0,92,92,52,1,2,93,"likert"
"23A12FF761D148A6BEEB143DD5E38AF1",1,"0198f77f-14cc-7f12-8997-ad69ac2fda28","0198f768-e4d2-711c-944b-6f03c09216de","2025-08-29_15h25.13.635",NA,NA,817.3506,817.3507,817.3508,817.6996,NA,NA,NA,NA,NA,NA,NA,TRUE,5,0.6041,814.3565,817.3506,NA,NA,NA,NA,NA,150,35,0,93,93,92,1,2,94,"likert"
"23A12FF761D148A6BEEB143DD5E38AF1",1,"0198f77f-14cc-7f12-8997-ad69ac2fda28","0198f768-e4d2-711c-944b-6f03c09216de","2025-08-29_15h25.13.635",NA,NA,820.7102,820.7102,820.7102,821.059,NA,NA,NA,NA,NA,NA,NA,TRUE,5,0.6805,817.7004,820.7101,NA,NA,NA,NA,NA,12,35,0,94,94,17,1,2,95,"likert"
"23A12FF761D148A6BEEB143DD5E38AF1",1,"0198f77f-14cc-7f12-8997-ad69ac2fda28","0198f768-e4d2-711c-944b-6f03c09216de","2025-08-29_15h25.13.635",NA,NA,824.0542,824.0542,824.0542,824.4027,NA,NA,NA,NA,NA,NA,NA,TRUE,5,0.8172,821.0601,824.0542,NA,NA,NA,NA,NA,30,29,0,95,95,44,1,2,96,"likert"
"23A12FF761D148A6BEEB143DD5E38AF1",1,"0198f77f-14cc-7f12-8997-ad69ac2fda28","0198f768-e4d2-711c-944b-6f03c09216de","2025-08-29_15h25.13.635",NA,NA,827.4139,827.414,827.414,827.763,NA,NA,NA,NA,NA,NA,NA,TRUE,5,0.6841,824.4036,827.4138,NA,NA,NA,NA,NA,200,47,0,96,96,106,1,2,97,"likert"
"23A12FF761D148A6BEEB143DD5E38AF1",1,"0198f77f-14cc-7f12-8997-ad69ac2fda28","0198f768-e4d2-711c-944b-6f03c09216de","2025-08-29_15h25.13.635",NA,NA,830.7571,830.7572,830.7572,831.107,NA,NA,NA,NA,NA,NA,NA,TRUE,5,0.9139,827.7638,830.7571,NA,NA,NA,NA,NA,12,28,0,97,97,14,1,2,98,"likert"
"23A12FF761D148A6BEEB143DD5E38AF1",1,"0198f77f-14cc-7f12-8997-ad69ac2fda28","0198f768-e4d2-711c-944b-6f03c09216de","2025-08-29_15h25.13.635",NA,NA,834.1009,834.1009,834.1009,834.4506,NA,NA,NA,NA,NA,NA,NA,TRUE,5,0.8805,831.1087,834.1008,NA,NA,NA,NA,NA,60,29,0,98,98,66,1,2,99,"likert"
"23A12FF761D148A6BEEB143DD5E38AF1",1,"0198f77f-14cc-7f12-8997-ad69ac2fda28","0198f768-e4d2-711c-944b-6f03c09216de","2025-08-29_15h25.13.635",NA,NA,837.4608,837.4609,837.4609,837.8102,NA,NA,NA,NA,NA,NA,NA,TRUE,5,0.4139,834.4515,837.4607,NA,NA,NA,NA,NA,45,35,0,99,99,57,1,2,100,"likert"
"23A12FF761D148A6BEEB143DD5E38AF1",1,"0198f77f-14cc-7f12-8997-ad69ac2fda28","0198f768-e4d2-711c-944b-6f03c09216de","2025-08-29_15h25.13.635",NA,NA,840.8047,840.8048,840.8048,841.1534,NA,NA,NA,NA,NA,NA,NA,TRUE,5,0.9198,837.811,840.8046,NA,NA,NA,NA,NA,14,26,0,100,100,19,1,2,101,"likert"
"23A12FF761D148A6BEEB143DD5E38AF1",1,"0198f77f-14cc-7f12-8997-ad69ac2fda28","0198f768-e4d2-711c-944b-6f03c09216de","2025-08-29_15h25.13.635",NA,NA,844.1649,844.165,844.165,844.5138,NA,NA,NA,NA,NA,NA,NA,TRUE,5,0.4806,841.1542,844.1648,NA,NA,NA,NA,NA,40,35,0,101,101,50,1,2,102,"likert"
"23A12FF761D148A6BEEB143DD5E38AF1",1,"0198f77f-14cc-7f12-8997-ad69ac2fda28","0198f768-e4d2-711c-944b-6f03c09216de","2025-08-29_15h25.13.635",NA,NA,847.5083,847.5083,847.5084,847.8572,NA,NA,NA,NA,NA,NA,NA,TRUE,5,0.753,844.5146,847.5083,NA,NA,NA,NA,NA,200,28,0,102,102,103,1,2,103,"likert"
"23A12FF761D148A6BEEB143DD5E38AF1",1,"0198f77f-14cc-7f12-8997-ad69ac2fda28","0198f768-e4d2-711c-944b-6f03c09216de","2025-08-29_15h25.13.635",NA,NA,850.8516,850.8516,850.8516,851.2006,NA,NA,NA,NA,NA,NA,NA,TRUE,5,1.5451,847.8581,850.8515,NA,NA,NA,NA,NA,21,26,0,103,103,24,1,2,104,"likert"
"23A12FF761D148A6BEEB143DD5E38AF1",1,"0198f77f-14cc-7f12-8997-ad69ac2fda28","0198f768-e4d2-711c-944b-6f03c09216de","2025-08-29_15h25.13.635",NA,NA,854.2115,854.2115,854.2115,854.5607,NA,NA,NA,NA,NA,NA,NA,TRUE,5,0.5059,851.2014,854.2114,NA,NA,NA,NA,NA,40,33,0,104,104,49,1,2,105,"likert"
"23A12FF761D148A6BEEB143DD5E38AF1",1,"0198f77f-14cc-7f12-8997-ad69ac2fda28","0198f768-e4d2-711c-944b-6f03c09216de","2025-08-29_15h25.13.635",NA,NA,857.5552,857.5552,857.5552,857.9046,NA,NA,NA,NA,NA,NA,NA,TRUE,5,0.6629,854.5615,857.5551,NA,NA,NA,NA,NA,21,27,0,105,105,25,1,2,106,"likert"
"23A12FF761D148A6BEEB143DD5E38AF1",1,"0198f77f-14cc-7f12-8997-ad69ac2fda28","0198f768-e4d2-711c-944b-6f03c09216de","2025-08-29_15h25.13.635",NA,NA,860.9158,860.9158,860.916,861.2649,NA,NA,NA,NA,NA,NA,NA,TRUE,5,0.5137,857.9053,860.9156,NA,NA,NA,NA,NA,28,32,0,106,106,38,1,2,107,"likert"
"23A12FF761D148A6BEEB143DD5E38AF1",1,"0198f77f-14cc-7f12-8997-ad69ac2fda28","0198f768-e4d2-711c-944b-6f03c09216de","2025-08-29_15h25.13.635",NA,NA,864.2587,864.2587,864.2587,864.6079,NA,NA,NA,NA,NA,NA,NA,TRUE,5,0.3793,861.2659,864.2586,NA,NA,NA,NA,NA,7,26,0,107,107,1,1,2,108,"likert"
