"participant","session","assignmentId","projectId","date","practiceTrial.started","practiceTrial.stopped","tooLate.started","tooLate.stopped","blank.started","blank.stopped","trials_pract.thisRepN","trials_pract.thisTrialN","trials_pract.thisN","trials_pract.thisIndex","trials_pract.ran","delay_pract","amount_pract","responseMade","key","rt","trial.started","trial.stopped","trials.thisRepN","trials.thisTrialN","trials.thisN","trials.thisIndex","trials.ran","delay","amount","trials_2.thisRepN","trials_2.thisTrialN","trials_2.thisN","trials_2.thisIndex","trials_2.ran","block","trial","taskType"
"291116C20C764C60BF80AF13A7C8F97A",1,"0198f77e-dc07-72b9-90ca-e0526299966f","0198f768-e4d2-711c-944b-6f03c09216de","2025-08-29_15h23.14.019",44.0928,47.08,47.0818,47.3298,47.33,47.4294,0,0,0,2,1,14,45,FALSE,NA,NA,NA,NA,NA,NA,NA,NA,NA,NA,NA,NA,NA,NA,NA,NA,0,1,"likert"
"291116C20C764C60BF80AF13A7C8F97A",1,"0198f77e-dc07-72b9-90ca-e0526299966f","0198f768-e4d2-711c-944b-6f03c09216de","2025-08-29_15h23.14.019",47.4304,50.4306,50.4308,50.4309,50.431,50.7811,0,1,1,1,1,100,50,TRUE,5,1.6561,NA,NA,NA,NA,NA,NA,NA,NA,NA,NA,NA,NA,NA,NA,0,2,"likert"
"291116C20C764C60BF80AF13A7C8F97A",1,"0198f77e-dc07-72b9-90ca-e0526299966f","0198f768-e4d2-711c-944b-6f03c09216de","2025-08-29_15h23.14.019",50.7839,53.7659,53.7662,53.7662,53.7662,54.1159,0,2,2,0,1,7,30,TRUE,5,1.4096,NA,NA,NA,NA,NA,NA,NA,NA,NA,NA,NA,NA,NA,NA,0,3,"likert"
"291116C20C764C60BF80AF13A7C8F97A",1,"0198f77e-dc07-72b9-90ca-e0526299966f","0198f768-e4d2-711c-944b-6f03c09216de","2025-08-29_15h23.14.019",54.117,57.1175,57.1177,57.1177,57.1177,57.4677,0,3,3,3,1,3,27,TRUE,4,1.6143,NA,NA,NA,NA,NA,NA,NA,NA,NA,NA,NA,NA,NA,NA,0,4,"likert"
"291116C20C764C60BF80AF13A7C8F97A",1,"0198f77e-dc07-72b9-90ca-e0526299966f","0198f768-e4d2-711c-944b-6f03c09216de","2025-08-29_15h23.14.019",57.4693,60.4694,60.4695,60.4695,60.4696,60.8196,0,4,4,4,1,30,40,TRUE,5,1.5998,NA,NA,NA,NA,NA,NA,NA,NA,NA,NA,NA,NA,NA,NA,0,5,"likert"
"291116C20C764C60BF80AF13A7C8F97A",1,"0198f77e-dc07-72b9-90ca-e0526299966f","0198f768-e4d2-711c-944b-6f03c09216de","2025-08-29_15h23.14.019",NA,NA,88.7998,88.7999,88.8,89.1497,NA,NA,NA,NA,NA,NA,NA,TRUE,1,1.9504,85.829,88.7996,0,0,0,94,1,150,47,NA,NA,NA,NA,NA,1,1,"likert"
"291116C20C764C60BF80AF13A7C8F97A",1,"0198f77e-dc07-72b9-90ca-e0526299966f","0198f768-e4d2-711c-944b-6f03c09216de","2025-08-29_15h23.14.019",NA,NA,92.1512,92.1512,92.1512,92.5016,NA,NA,NA,NA,NA,NA,NA,TRUE,1,1.2669,89.1504,92.1511,0,1,1,18,1,14,25,NA,NA,NA,NA,NA,1,2,"likert"
"291116C20C764C60BF80AF13A7C8F97A",1,"0198f77e-dc07-72b9-90ca-e0526299966f","0198f768-e4d2-711c-944b-6f03c09216de","2025-08-29_15h23.14.019",NA,NA,95.4869,95.4869,95.4869,95.8368,NA,NA,NA,NA,NA,NA,NA,TRUE,2,1.6285,92.5038,95.4866,0,2,2,75,1,90,40,NA,NA,NA,NA,NA,1,3,"likert"
"291116C20C764C60BF80AF13A7C8F97A",1,"0198f77e-dc07-72b9-90ca-e0526299966f","0198f768-e4d2-711c-944b-6f03c09216de","2025-08-29_15h23.14.019",NA,NA,98.8378,98.8378,98.8378,99.1883,NA,NA,NA,NA,NA,NA,NA,TRUE,1,1.4012,95.839,98.8376,0,3,3,54,1,45,26,NA,NA,NA,NA,NA,1,4,"likert"
"291116C20C764C60BF80AF13A7C8F97A",1,"0198f77e-dc07-72b9-90ca-e0526299966f","0198f768-e4d2-711c-944b-6f03c09216de","2025-08-29_15h23.14.019",NA,NA,102.1901,102.1901,102.1901,102.5398,NA,NA,NA,NA,NA,NA,NA,TRUE,1,1.3998,99.1897,102.1899,0,4,4,91,1,150,33,NA,NA,NA,NA,NA,1,5,"likert"
"291116C20C764C60BF80AF13A7C8F97A",1,"0198f77e-dc07-72b9-90ca-e0526299966f","0198f768-e4d2-711c-944b-6f03c09216de","2025-08-29_15h23.14.019",NA,NA,105.5417,105.5418,105.5418,105.8913,NA,NA,NA,NA,NA,NA,NA,TRUE,1,1.1915,102.5411,105.5415,0,5,5,80,1,95,35,NA,NA,NA,NA,NA,1,6,"likert"
"291116C20C764C60BF80AF13A7C8F97A",1,"0198f77e-dc07-72b9-90ca-e0526299966f","0198f768-e4d2-711c-944b-6f03c09216de","2025-08-29_15h23.14.019",NA,NA,108.8932,108.8932,108.8933,109.2431,NA,NA,NA,NA,NA,NA,NA,TRUE,1,1.0353,105.8927,108.893,0,6,6,102,1,200,26,NA,NA,NA,NA,NA,1,7,"likert"
"291116C20C764C60BF80AF13A7C8F97A",1,"0198f77e-dc07-72b9-90ca-e0526299966f","0198f768-e4d2-711c-944b-6f03c09216de","2025-08-29_15h23.14.019",NA,NA,112.245,112.2452,112.2452,112.5949,NA,NA,NA,NA,NA,NA,NA,TRUE,1,1.0458,109.2445,112.2448,0,7,7,90,1,150,31,NA,NA,NA,NA,NA,1,8,"likert"
"291116C20C764C60BF80AF13A7C8F97A",1,"0198f77e-dc07-72b9-90ca-e0526299966f","0198f768-e4d2-711c-944b-6f03c09216de","2025-08-29_15h23.14.019",NA,NA,115.5961,115.5962,115.5963,115.9466,NA,NA,NA,NA,NA,NA,NA,TRUE,5,2.2809,112.5971,115.596,0,8,8,20,1,14,28,NA,NA,NA,NA,NA,1,9,"likert"
"291116C20C764C60BF80AF13A7C8F97A",1,"0198f77e-dc07-72b9-90ca-e0526299966f","0198f768-e4d2-711c-944b-6f03c09216de","2025-08-29_15h23.14.019",NA,NA,118.9481,118.9481,118.9481,119.2981,NA,NA,NA,NA,NA,NA,NA,TRUE,5,1.5116,115.9481,118.9479,0,9,9,23,1,14,39,NA,NA,NA,NA,NA,1,10,"likert"
"291116C20C764C60BF80AF13A7C8F97A",1,"0198f77e-dc07-72b9-90ca-e0526299966f","0198f768-e4d2-711c-944b-6f03c09216de","2025-08-29_15h23.14.019",NA,NA,122.2999,122.3001,122.3001,122.6493,NA,NA,NA,NA,NA,NA,NA,TRUE,1,1.4792,119.2996,122.2997,0,10,10,8,1,10,27,NA,NA,NA,NA,NA,1,11,"likert"
"291116C20C764C60BF80AF13A7C8F97A",1,"0198f77e-dc07-72b9-90ca-e0526299966f","0198f768-e4d2-711c-944b-6f03c09216de","2025-08-29_15h23.14.019",NA,NA,125.6508,125.6509,125.6509,126.0008,NA,NA,NA,NA,NA,NA,NA,TRUE,5,2.0081,122.65,125.6508,0,11,11,14,1,12,28,NA,NA,NA,NA,NA,1,12,"likert"
"291116C20C764C60BF80AF13A7C8F97A",1,"0198f77e-dc07-72b9-90ca-e0526299966f","0198f768-e4d2-711c-944b-6f03c09216de","2025-08-29_15h23.14.019",NA,NA,128.9865,128.9865,128.9865,129.3364,NA,NA,NA,NA,NA,NA,NA,TRUE,5,1.5201,126.0017,128.9863,0,12,12,11,1,10,32,NA,NA,NA,NA,NA,1,13,"likert"
"291116C20C764C60BF80AF13A7C8F97A",1,"0198f77e-dc07-72b9-90ca-e0526299966f","0198f768-e4d2-711c-944b-6f03c09216de","2025-08-29_15h23.14.019",NA,NA,132.338,132.338,132.3381,132.6877,NA,NA,NA,NA,NA,NA,NA,TRUE,5,1.2473,129.338,132.3378,0,13,13,4,1,7,32,NA,NA,NA,NA,NA,1,14,"likert"
"291116C20C764C60BF80AF13A7C8F97A",1,"0198f77e-dc07-72b9-90ca-e0526299966f","0198f768-e4d2-711c-944b-6f03c09216de","2025-08-29_15h23.14.019",NA,NA,135.689,135.689,135.689,136.0397,NA,NA,NA,NA,NA,NA,NA,TRUE,5,1.6323,132.6885,135.6889,0,14,14,77,1,90,54,NA,NA,NA,NA,NA,1,15,"likert"
"291116C20C764C60BF80AF13A7C8F97A",1,"0198f77e-dc07-72b9-90ca-e0526299966f","0198f768-e4d2-711c-944b-6f03c09216de","2025-08-29_15h23.14.019",NA,NA,139.0413,139.0413,139.0414,139.3913,NA,NA,NA,NA,NA,NA,NA,TRUE,1,1.8675,136.0412,139.0411,0,15,15,93,1,150,40,NA,NA,NA,NA,NA,1,16,"likert"
"291116C20C764C60BF80AF13A7C8F97A",1,"0198f77e-dc07-72b9-90ca-e0526299966f","0198f768-e4d2-711c-944b-6f03c09216de","2025-08-29_15h23.14.019",NA,NA,142.3927,142.3928,142.3928,142.7429,NA,NA,NA,NA,NA,NA,NA,TRUE,1,2.1217,139.3929,142.3926,0,16,16,63,1,50,40,NA,NA,NA,NA,NA,1,17,"likert"
"291116C20C764C60BF80AF13A7C8F97A",1,"0198f77e-dc07-72b9-90ca-e0526299966f","0198f768-e4d2-711c-944b-6f03c09216de","2025-08-29_15h23.14.019",NA,NA,145.7444,145.7445,145.7445,146.0946,NA,NA,NA,NA,NA,NA,NA,TRUE,1,1.5299,142.7442,145.7442,0,17,17,42,1,30,26,NA,NA,NA,NA,NA,1,18,"likert"
"291116C20C764C60BF80AF13A7C8F97A",1,"0198f77e-dc07-72b9-90ca-e0526299966f","0198f768-e4d2-711c-944b-6f03c09216de","2025-08-29_15h23.14.019",NA,NA,149.0963,149.0963,149.0963,149.4463,NA,NA,NA,NA,NA,NA,NA,TRUE,1,1.9664,146.0959,149.0962,0,18,18,31,1,25,29,NA,NA,NA,NA,NA,1,19,"likert"
"291116C20C764C60BF80AF13A7C8F97A",1,"0198f77e-dc07-72b9-90ca-e0526299966f","0198f768-e4d2-711c-944b-6f03c09216de","2025-08-29_15h23.14.019",NA,NA,152.448,152.448,152.4481,152.7976,NA,NA,NA,NA,NA,NA,NA,TRUE,1,2.2468,149.4476,152.4478,0,19,19,49,1,40,33,NA,NA,NA,NA,NA,1,20,"likert"
"291116C20C764C60BF80AF13A7C8F97A",1,"0198f77e-dc07-72b9-90ca-e0526299966f","0198f768-e4d2-711c-944b-6f03c09216de","2025-08-29_15h23.14.019",NA,NA,155.7996,155.7996,155.7996,156.1491,NA,NA,NA,NA,NA,NA,NA,TRUE,1,1.2386,152.7986,155.7993,0,20,20,99,1,180,39,NA,NA,NA,NA,NA,1,21,"likert"
"291116C20C764C60BF80AF13A7C8F97A",1,"0198f77e-dc07-72b9-90ca-e0526299966f","0198f768-e4d2-711c-944b-6f03c09216de","2025-08-29_15h23.14.019",NA,NA,159.1504,159.1506,159.1506,159.501,NA,NA,NA,NA,NA,NA,NA,TRUE,2,2.2531,156.1498,159.1504,0,21,21,70,1,60,47,NA,NA,NA,NA,NA,1,22,"likert"
"291116C20C764C60BF80AF13A7C8F97A",1,"0198f77e-dc07-72b9-90ca-e0526299966f","0198f768-e4d2-711c-944b-6f03c09216de","2025-08-29_15h23.14.019",NA,NA,162.5027,162.5029,162.5029,162.8525,NA,NA,NA,NA,NA,NA,NA,TRUE,1,1.2689,159.5024,162.5026,0,22,22,19,1,14,26,NA,NA,NA,NA,NA,1,23,"likert"
"291116C20C764C60BF80AF13A7C8F97A",1,"0198f77e-dc07-72b9-90ca-e0526299966f","0198f768-e4d2-711c-944b-6f03c09216de","2025-08-29_15h23.14.019",NA,NA,165.838,165.838,165.8381,166.1879,NA,NA,NA,NA,NA,NA,NA,TRUE,3,1.71,162.8539,165.8378,0,23,23,52,1,40,47,NA,NA,NA,NA,NA,1,24,"likert"
"291116C20C764C60BF80AF13A7C8F97A",1,"0198f77e-dc07-72b9-90ca-e0526299966f","0198f768-e4d2-711c-944b-6f03c09216de","2025-08-29_15h23.14.019",NA,NA,169.1891,169.1891,169.1891,169.5393,NA,NA,NA,NA,NA,NA,NA,TRUE,1,1.5633,166.1895,169.1889,0,24,24,61,1,50,30,NA,NA,NA,NA,NA,1,25,"likert"
"291116C20C764C60BF80AF13A7C8F97A",1,"0198f77e-dc07-72b9-90ca-e0526299966f","0198f768-e4d2-711c-944b-6f03c09216de","2025-08-29_15h23.14.019",NA,NA,172.5412,172.5414,172.5415,172.8909,NA,NA,NA,NA,NA,NA,NA,TRUE,1,1.6373,169.5407,172.5411,0,25,25,100,1,180,46,NA,NA,NA,NA,NA,1,26,"likert"
"291116C20C764C60BF80AF13A7C8F97A",1,"0198f77e-dc07-72b9-90ca-e0526299966f","0198f768-e4d2-711c-944b-6f03c09216de","2025-08-29_15h23.14.019",NA,NA,175.8926,175.8926,175.8926,176.2426,NA,NA,NA,NA,NA,NA,NA,TRUE,3,2.1212,172.8926,175.8924,0,26,26,71,1,60,54,NA,NA,NA,NA,NA,1,27,"likert"
"291116C20C764C60BF80AF13A7C8F97A",1,"0198f77e-dc07-72b9-90ca-e0526299966f","0198f768-e4d2-711c-944b-6f03c09216de","2025-08-29_15h23.14.019",NA,NA,179.2439,179.2439,179.2439,179.5938,NA,NA,NA,NA,NA,NA,NA,TRUE,1,1.2989,176.2439,179.2437,0,27,27,104,1,200,35,NA,NA,NA,NA,NA,1,28,"likert"
"291116C20C764C60BF80AF13A7C8F97A",1,"0198f77e-dc07-72b9-90ca-e0526299966f","0198f768-e4d2-711c-944b-6f03c09216de","2025-08-29_15h23.14.019",NA,NA,182.5956,182.5957,182.5957,182.946,NA,NA,NA,NA,NA,NA,NA,TRUE,3,2.0329,179.5944,182.5955,0,28,28,51,1,40,40,NA,NA,NA,NA,NA,1,29,"likert"
"291116C20C764C60BF80AF13A7C8F97A",1,"0198f77e-dc07-72b9-90ca-e0526299966f","0198f768-e4d2-711c-944b-6f03c09216de","2025-08-29_15h23.14.019",NA,NA,185.9478,185.9478,185.9479,186.2976,NA,NA,NA,NA,NA,NA,NA,TRUE,3,1.9676,182.9474,185.9476,0,29,29,82,1,95,47,NA,NA,NA,NA,NA,1,30,"likert"
"291116C20C764C60BF80AF13A7C8F97A",1,"0198f77e-dc07-72b9-90ca-e0526299966f","0198f768-e4d2-711c-944b-6f03c09216de","2025-08-29_15h23.14.019",NA,NA,189.299,189.2991,189.2991,189.6492,NA,NA,NA,NA,NA,NA,NA,TRUE,1,2.0535,186.2989,189.2989,0,30,30,89,1,100,54,NA,NA,NA,NA,NA,1,31,"likert"
"291116C20C764C60BF80AF13A7C8F97A",1,"0198f77e-dc07-72b9-90ca-e0526299966f","0198f768-e4d2-711c-944b-6f03c09216de","2025-08-29_15h23.14.019",NA,NA,192.6505,192.6506,192.6506,193.0009,NA,NA,NA,NA,NA,NA,NA,TRUE,1,1.9552,189.6507,192.6505,0,31,31,47,1,30,38,NA,NA,NA,NA,NA,1,32,"likert"
"291116C20C764C60BF80AF13A7C8F97A",1,"0198f77e-dc07-72b9-90ca-e0526299966f","0198f768-e4d2-711c-944b-6f03c09216de","2025-08-29_15h23.14.019",NA,NA,196.0024,196.0026,196.0026,196.3524,NA,NA,NA,NA,NA,NA,NA,TRUE,1,1.7935,193.0024,196.0023,0,32,32,78,1,95,31,NA,NA,NA,NA,NA,1,33,"likert"
"291116C20C764C60BF80AF13A7C8F97A",1,"0198f77e-dc07-72b9-90ca-e0526299966f","0198f768-e4d2-711c-944b-6f03c09216de","2025-08-29_15h23.14.019",NA,NA,199.3372,199.3372,199.3373,199.6871,NA,NA,NA,NA,NA,NA,NA,TRUE,3,1.0371,196.3539,199.3371,0,33,33,64,1,50,46,NA,NA,NA,NA,NA,1,34,"likert"
"291116C20C764C60BF80AF13A7C8F97A",1,"0198f77e-dc07-72b9-90ca-e0526299966f","0198f768-e4d2-711c-944b-6f03c09216de","2025-08-29_15h23.14.019",NA,NA,202.6884,202.6884,202.6884,203.0385,NA,NA,NA,NA,NA,NA,NA,TRUE,3,1.9672,199.6881,202.6884,0,34,34,38,1,28,32,NA,NA,NA,NA,NA,1,35,"likert"
"291116C20C764C60BF80AF13A7C8F97A",1,"0198f77e-dc07-72b9-90ca-e0526299966f","0198f768-e4d2-711c-944b-6f03c09216de","2025-08-29_15h23.14.019",NA,NA,206.0409,206.041,206.041,206.3909,NA,NA,NA,NA,NA,NA,NA,TRUE,1,1.8852,203.039,206.0408,0,35,35,36,1,28,26,NA,NA,NA,NA,NA,1,36,"likert"
"291116C20C764C60BF80AF13A7C8F97A",1,"0198f77e-dc07-72b9-90ca-e0526299966f","0198f768-e4d2-711c-944b-6f03c09216de","2025-08-29_15h23.14.019",NA,NA,209.3924,209.3925,209.3925,209.7423,NA,NA,NA,NA,NA,NA,NA,TRUE,3,1.4201,206.3924,209.3923,0,36,36,59,1,45,46,NA,NA,NA,NA,NA,1,37,"likert"
"291116C20C764C60BF80AF13A7C8F97A",1,"0198f77e-dc07-72b9-90ca-e0526299966f","0198f768-e4d2-711c-944b-6f03c09216de","2025-08-29_15h23.14.019",NA,NA,212.7441,212.7442,212.7442,213.0937,NA,NA,NA,NA,NA,NA,NA,TRUE,1,2.0011,209.7438,212.7439,0,37,37,1,1,7,26,NA,NA,NA,NA,NA,1,38,"likert"
"291116C20C764C60BF80AF13A7C8F97A",1,"0198f77e-dc07-72b9-90ca-e0526299966f","0198f768-e4d2-711c-944b-6f03c09216de","2025-08-29_15h23.14.019",NA,NA,216.095,216.095,216.095,216.4451,NA,NA,NA,NA,NA,NA,NA,TRUE,5,1.8512,213.0943,216.095,0,38,38,17,1,12,35,NA,NA,NA,NA,NA,1,39,"likert"
"291116C20C764C60BF80AF13A7C8F97A",1,"0198f77e-dc07-72b9-90ca-e0526299966f","0198f768-e4d2-711c-944b-6f03c09216de","2025-08-29_15h23.14.019",NA,NA,219.4467,219.4467,219.4467,219.7968,NA,NA,NA,NA,NA,NA,NA,TRUE,1,1.2903,216.4457,219.4466,0,39,39,105,1,200,39,NA,NA,NA,NA,NA,1,40,"likert"
"291116C20C764C60BF80AF13A7C8F97A",1,"0198f77e-dc07-72b9-90ca-e0526299966f","0198f768-e4d2-711c-944b-6f03c09216de","2025-08-29_15h23.14.019",NA,NA,222.7985,222.7985,222.7985,223.1484,NA,NA,NA,NA,NA,NA,NA,TRUE,1,1.8352,219.7973,222.7983,0,40,40,10,1,10,30,NA,NA,NA,NA,NA,1,41,"likert"
"291116C20C764C60BF80AF13A7C8F97A",1,"0198f77e-dc07-72b9-90ca-e0526299966f","0198f768-e4d2-711c-944b-6f03c09216de","2025-08-29_15h23.14.019",NA,NA,226.1499,226.1499,226.1499,226.5,NA,NA,NA,NA,NA,NA,NA,TRUE,2,2.0266,223.1491,226.1498,0,41,41,58,1,45,40,NA,NA,NA,NA,NA,1,42,"likert"
"291116C20C764C60BF80AF13A7C8F97A",1,"0198f77e-dc07-72b9-90ca-e0526299966f","0198f768-e4d2-711c-944b-6f03c09216de","2025-08-29_15h23.14.019",NA,NA,229.5016,229.5016,229.5016,229.8516,NA,NA,NA,NA,NA,NA,NA,TRUE,3,1.7726,226.5007,229.5015,0,42,42,46,1,30,32,NA,NA,NA,NA,NA,1,43,"likert"
"291116C20C764C60BF80AF13A7C8F97A",1,"0198f77e-dc07-72b9-90ca-e0526299966f","0198f768-e4d2-711c-944b-6f03c09216de","2025-08-29_15h23.14.019",NA,NA,232.8366,232.8366,232.8366,233.1867,NA,NA,NA,NA,NA,NA,NA,TRUE,1,1.602,229.8522,232.8364,0,43,43,43,1,30,27,NA,NA,NA,NA,NA,1,44,"likert"
"291116C20C764C60BF80AF13A7C8F97A",1,"0198f77e-dc07-72b9-90ca-e0526299966f","0198f768-e4d2-711c-944b-6f03c09216de","2025-08-29_15h23.14.019",NA,NA,236.1891,236.1891,236.1891,236.5388,NA,NA,NA,NA,NA,NA,NA,TRUE,1,2.0889,233.1873,236.1889,0,44,44,87,1,100,39,NA,NA,NA,NA,NA,1,45,"likert"
"291116C20C764C60BF80AF13A7C8F97A",1,"0198f77e-dc07-72b9-90ca-e0526299966f","0198f768-e4d2-711c-944b-6f03c09216de","2025-08-29_15h23.14.019",NA,NA,239.5406,239.5407,239.5408,239.8906,NA,NA,NA,NA,NA,NA,NA,TRUE,2,2.1949,236.5404,239.5405,0,45,45,15,1,12,31,NA,NA,NA,NA,NA,1,46,"likert"
"291116C20C764C60BF80AF13A7C8F97A",1,"0198f77e-dc07-72b9-90ca-e0526299966f","0198f768-e4d2-711c-944b-6f03c09216de","2025-08-29_15h23.14.019",NA,NA,242.8915,242.8915,242.8915,243.2416,NA,NA,NA,NA,NA,NA,NA,TRUE,1,1.349,239.892,242.8914,0,46,46,25,1,21,27,NA,NA,NA,NA,NA,1,47,"likert"
"291116C20C764C60BF80AF13A7C8F97A",1,"0198f77e-dc07-72b9-90ca-e0526299966f","0198f768-e4d2-711c-944b-6f03c09216de","2025-08-29_15h23.14.019",NA,NA,246.2431,246.2431,246.2431,246.5939,NA,NA,NA,NA,NA,NA,NA,TRUE,2,2.086,243.2421,246.2431,0,47,47,62,1,50,35,NA,NA,NA,NA,NA,1,48,"likert"
"291116C20C764C60BF80AF13A7C8F97A",1,"0198f77e-dc07-72b9-90ca-e0526299966f","0198f768-e4d2-711c-944b-6f03c09216de","2025-08-29_15h23.14.019",NA,NA,249.5955,249.5956,249.5956,249.9455,NA,NA,NA,NA,NA,NA,NA,TRUE,1,1.8904,246.5953,249.5953,0,48,48,83,1,95,54,NA,NA,NA,NA,NA,1,49,"likert"
"291116C20C764C60BF80AF13A7C8F97A",1,"0198f77e-dc07-72b9-90ca-e0526299966f","0198f768-e4d2-711c-944b-6f03c09216de","2025-08-29_15h23.14.019",NA,NA,252.9468,252.9468,252.9468,253.2968,NA,NA,NA,NA,NA,NA,NA,TRUE,2,1.8354,249.9469,252.9467,0,49,49,7,1,10,26,NA,NA,NA,NA,NA,1,50,"likert"
"291116C20C764C60BF80AF13A7C8F97A",1,"0198f77e-dc07-72b9-90ca-e0526299966f","0198f768-e4d2-711c-944b-6f03c09216de","2025-08-29_15h23.14.019",NA,NA,256.2991,256.2992,256.2992,256.6489,NA,NA,NA,NA,NA,NA,NA,TRUE,1,2.0444,253.2975,256.299,0,50,50,30,1,25,27,NA,NA,NA,NA,NA,1,51,"likert"
"291116C20C764C60BF80AF13A7C8F97A",1,"0198f77e-dc07-72b9-90ca-e0526299966f","0198f768-e4d2-711c-944b-6f03c09216de","2025-08-29_15h23.14.019",NA,NA,259.6504,259.6505,259.6505,260.0004,NA,NA,NA,NA,NA,NA,NA,TRUE,2,1.7045,256.6502,259.6503,0,51,51,81,1,95,40,NA,NA,NA,NA,NA,1,52,"likert"
"291116C20C764C60BF80AF13A7C8F97A",1,"0198f77e-dc07-72b9-90ca-e0526299966f","0198f768-e4d2-711c-944b-6f03c09216de","2025-08-29_15h23.14.019",NA,NA,263.002,263.002,263.002,263.3514,NA,NA,NA,NA,NA,NA,NA,TRUE,1,1.702,260.0019,263.0017,0,52,52,68,1,60,35,NA,NA,NA,NA,NA,1,53,"likert"
"291116C20C764C60BF80AF13A7C8F97A",1,"0198f77e-dc07-72b9-90ca-e0526299966f","0198f768-e4d2-711c-944b-6f03c09216de","2025-08-29_15h23.14.019",NA,NA,266.3372,266.3373,266.3373,266.6869,NA,NA,NA,NA,NA,NA,NA,TRUE,1,0.9163,263.3521,266.337,0,53,53,103,1,200,28,NA,NA,NA,NA,NA,1,54,"likert"
"291116C20C764C60BF80AF13A7C8F97A",1,"0198f77e-dc07-72b9-90ca-e0526299966f","0198f768-e4d2-711c-944b-6f03c09216de","2025-08-29_15h23.14.019",NA,NA,269.6887,269.6888,269.6888,270.0387,NA,NA,NA,NA,NA,NA,NA,TRUE,2,1.6942,266.6883,269.6885,0,54,54,50,1,40,35,NA,NA,NA,NA,NA,1,55,"likert"
"291116C20C764C60BF80AF13A7C8F97A",1,"0198f77e-dc07-72b9-90ca-e0526299966f","0198f768-e4d2-711c-944b-6f03c09216de","2025-08-29_15h23.14.019",NA,NA,273.0405,273.0405,273.0405,273.3897,NA,NA,NA,NA,NA,NA,NA,TRUE,1,1.586,270.0402,273.0402,0,55,55,86,1,100,38,NA,NA,NA,NA,NA,1,56,"likert"
"291116C20C764C60BF80AF13A7C8F97A",1,"0198f77e-dc07-72b9-90ca-e0526299966f","0198f768-e4d2-711c-944b-6f03c09216de","2025-08-29_15h23.14.019",NA,NA,276.3919,276.3919,276.392,276.7419,NA,NA,NA,NA,NA,NA,NA,TRUE,3,1.6334,273.3904,276.3917,0,56,56,65,1,50,54,NA,NA,NA,NA,NA,1,57,"likert"
"291116C20C764C60BF80AF13A7C8F97A",1,"0198f77e-dc07-72b9-90ca-e0526299966f","0198f768-e4d2-711c-944b-6f03c09216de","2025-08-29_15h23.14.019",NA,NA,279.7437,279.7437,279.7437,280.0936,NA,NA,NA,NA,NA,NA,NA,TRUE,1,1.3128,276.7433,279.7435,0,57,57,13,1,12,26,NA,NA,NA,NA,NA,1,58,"likert"
"291116C20C764C60BF80AF13A7C8F97A",1,"0198f77e-dc07-72b9-90ca-e0526299966f","0198f768-e4d2-711c-944b-6f03c09216de","2025-08-29_15h23.14.019",NA,NA,283.0953,283.0953,283.0953,283.4449,NA,NA,NA,NA,NA,NA,NA,TRUE,5,2.2895,280.0951,283.0951,0,58,58,9,1,10,29,NA,NA,NA,NA,NA,1,59,"likert"
"291116C20C764C60BF80AF13A7C8F97A",1,"0198f77e-dc07-72b9-90ca-e0526299966f","0198f768-e4d2-711c-944b-6f03c09216de","2025-08-29_15h23.14.019",NA,NA,286.447,286.447,286.447,286.7969,NA,NA,NA,NA,NA,NA,NA,TRUE,5,1.5497,283.4456,286.4468,0,59,59,22,1,14,35,NA,NA,NA,NA,NA,1,60,"likert"
"291116C20C764C60BF80AF13A7C8F97A",1,"0198f77e-dc07-72b9-90ca-e0526299966f","0198f768-e4d2-711c-944b-6f03c09216de","2025-08-29_15h23.14.019",NA,NA,289.7986,289.7986,289.7986,290.148,NA,NA,NA,NA,NA,NA,NA,TRUE,5,1.6449,286.7983,289.7984,0,60,60,27,1,21,30,NA,NA,NA,NA,NA,1,61,"likert"
"291116C20C764C60BF80AF13A7C8F97A",1,"0198f77e-dc07-72b9-90ca-e0526299966f","0198f768-e4d2-711c-944b-6f03c09216de","2025-08-29_15h23.14.019",NA,NA,293.1497,293.1497,293.1497,293.5,NA,NA,NA,NA,NA,NA,NA,TRUE,1,1.3031,290.1484,293.1496,0,61,61,85,1,100,31,NA,NA,NA,NA,NA,1,62,"likert"
"291116C20C764C60BF80AF13A7C8F97A",1,"0198f77e-dc07-72b9-90ca-e0526299966f","0198f768-e4d2-711c-944b-6f03c09216de","2025-08-29_15h23.14.019",NA,NA,296.5019,296.5019,296.5019,296.8518,NA,NA,NA,NA,NA,NA,NA,TRUE,3,2.263,293.5011,296.5017,0,62,62,21,1,14,32,NA,NA,NA,NA,NA,1,63,"likert"
"291116C20C764C60BF80AF13A7C8F97A",1,"0198f77e-dc07-72b9-90ca-e0526299966f","0198f768-e4d2-711c-944b-6f03c09216de","2025-08-29_15h23.14.019",NA,NA,299.8369,299.837,299.837,300.1864,NA,NA,NA,NA,NA,NA,NA,TRUE,3,2.1945,296.8531,299.8367,0,63,63,33,1,25,33,NA,NA,NA,NA,NA,1,64,"likert"
"291116C20C764C60BF80AF13A7C8F97A",1,"0198f77e-dc07-72b9-90ca-e0526299966f","0198f768-e4d2-711c-944b-6f03c09216de","2025-08-29_15h23.14.019",NA,NA,303.1881,303.1881,303.1882,303.538,NA,NA,NA,NA,NA,NA,NA,TRUE,3,1.84,300.1872,303.188,0,64,64,34,1,25,35,NA,NA,NA,NA,NA,1,65,"likert"
"291116C20C764C60BF80AF13A7C8F97A",1,"0198f77e-dc07-72b9-90ca-e0526299966f","0198f768-e4d2-711c-944b-6f03c09216de","2025-08-29_15h23.14.019",NA,NA,306.5402,306.5402,306.5402,306.8901,NA,NA,NA,NA,NA,NA,NA,TRUE,1,1.296,303.5386,306.5399,0,65,65,74,1,90,33,NA,NA,NA,NA,NA,1,66,"likert"
"291116C20C764C60BF80AF13A7C8F97A",1,"0198f77e-dc07-72b9-90ca-e0526299966f","0198f768-e4d2-711c-944b-6f03c09216de","2025-08-29_15h23.14.019",NA,NA,309.8917,310.1412,310.1413,310.2415,NA,NA,NA,NA,NA,NA,NA,FALSE,NA,NA,306.8917,309.8915,0,66,66,40,1,28,39,NA,NA,NA,NA,NA,1,67,"likert"
"291116C20C764C60BF80AF13A7C8F97A",1,"0198f77e-dc07-72b9-90ca-e0526299966f","0198f768-e4d2-711c-944b-6f03c09216de","2025-08-29_15h23.14.019",NA,NA,313.2433,313.2433,313.2434,313.5932,NA,NA,NA,NA,NA,NA,NA,TRUE,1,1.6853,310.2429,313.2431,0,67,67,98,1,180,35,NA,NA,NA,NA,NA,1,68,"likert"
"291116C20C764C60BF80AF13A7C8F97A",1,"0198f77e-dc07-72b9-90ca-e0526299966f","0198f768-e4d2-711c-944b-6f03c09216de","2025-08-29_15h23.14.019",NA,NA,316.5946,316.5946,316.5948,316.945,NA,NA,NA,NA,NA,NA,NA,TRUE,1,1.6893,313.5943,316.5946,0,68,68,69,1,60,40,NA,NA,NA,NA,NA,1,69,"likert"
"291116C20C764C60BF80AF13A7C8F97A",1,"0198f77e-dc07-72b9-90ca-e0526299966f","0198f768-e4d2-711c-944b-6f03c09216de","2025-08-29_15h23.14.019",NA,NA,319.9465,319.9466,319.9467,320.2967,NA,NA,NA,NA,NA,NA,NA,TRUE,1,1.6606,316.9464,319.9464,0,69,69,28,1,21,32,NA,NA,NA,NA,NA,1,70,"likert"
"291116C20C764C60BF80AF13A7C8F97A",1,"0198f77e-dc07-72b9-90ca-e0526299966f","0198f768-e4d2-711c-944b-6f03c09216de","2025-08-29_15h23.14.019",NA,NA,323.2983,323.2983,323.2984,323.6476,NA,NA,NA,NA,NA,NA,NA,TRUE,5,1.5784,320.2982,323.2981,0,70,70,16,1,12,33,NA,NA,NA,NA,NA,1,71,"likert"
"291116C20C764C60BF80AF13A7C8F97A",1,"0198f77e-dc07-72b9-90ca-e0526299966f","0198f768-e4d2-711c-944b-6f03c09216de","2025-08-29_15h23.14.019",NA,NA,326.6501,326.6501,326.6502,326.9999,NA,NA,NA,NA,NA,NA,NA,TRUE,5,1.6934,323.6481,326.6499,0,71,71,45,1,30,30,NA,NA,NA,NA,NA,1,72,"likert"
"291116C20C764C60BF80AF13A7C8F97A",1,"0198f77e-dc07-72b9-90ca-e0526299966f","0198f768-e4d2-711c-944b-6f03c09216de","2025-08-29_15h23.14.019",NA,NA,330.0016,330.0016,330.0017,330.3516,NA,NA,NA,NA,NA,NA,NA,TRUE,5,1.2653,327.0013,330.0014,0,72,72,3,1,7,30,NA,NA,NA,NA,NA,1,73,"likert"
"291116C20C764C60BF80AF13A7C8F97A",1,"0198f77e-dc07-72b9-90ca-e0526299966f","0198f768-e4d2-711c-944b-6f03c09216de","2025-08-29_15h23.14.019",NA,NA,333.3527,333.3528,333.3528,333.6862,NA,NA,NA,NA,NA,NA,NA,TRUE,1,1.544,330.353,333.3527,0,73,73,12,1,12,25,NA,NA,NA,NA,NA,1,74,"likert"
"291116C20C764C60BF80AF13A7C8F97A",1,"0198f77e-dc07-72b9-90ca-e0526299966f","0198f768-e4d2-711c-944b-6f03c09216de","2025-08-29_15h23.14.019",NA,NA,336.6884,336.6885,336.6885,337.0382,NA,NA,NA,NA,NA,NA,NA,TRUE,1,1.2479,333.6868,336.6883,0,74,74,96,1,180,27,NA,NA,NA,NA,NA,1,75,"likert"
"291116C20C764C60BF80AF13A7C8F97A",1,"0198f77e-dc07-72b9-90ca-e0526299966f","0198f768-e4d2-711c-944b-6f03c09216de","2025-08-29_15h23.14.019",NA,NA,340.0398,340.0398,340.0398,340.39,NA,NA,NA,NA,NA,NA,NA,TRUE,5,1.8511,337.0398,340.0396,0,75,75,29,1,21,38,NA,NA,NA,NA,NA,1,76,"likert"
"291116C20C764C60BF80AF13A7C8F97A",1,"0198f77e-dc07-72b9-90ca-e0526299966f","0198f768-e4d2-711c-944b-6f03c09216de","2025-08-29_15h23.14.019",NA,NA,343.3907,343.3907,343.3907,343.7415,NA,NA,NA,NA,NA,NA,NA,TRUE,1,1.1117,340.3913,343.3907,0,76,76,67,1,60,33,NA,NA,NA,NA,NA,1,77,"likert"
"291116C20C764C60BF80AF13A7C8F97A",1,"0198f77e-dc07-72b9-90ca-e0526299966f","0198f768-e4d2-711c-944b-6f03c09216de","2025-08-29_15h23.14.019",NA,NA,346.7432,346.7432,346.7433,347.093,NA,NA,NA,NA,NA,NA,NA,TRUE,5,1.4294,343.7429,346.743,0,77,77,41,1,28,46,NA,NA,NA,NA,NA,1,78,"likert"
"291116C20C764C60BF80AF13A7C8F97A",1,"0198f77e-dc07-72b9-90ca-e0526299966f","0198f768-e4d2-711c-944b-6f03c09216de","2025-08-29_15h23.14.019",NA,NA,350.0949,350.0949,350.095,350.4447,NA,NA,NA,NA,NA,NA,NA,TRUE,1,0.9302,347.0945,350.0948,0,78,78,79,1,95,33,NA,NA,NA,NA,NA,1,79,"likert"
"291116C20C764C60BF80AF13A7C8F97A",1,"0198f77e-dc07-72b9-90ca-e0526299966f","0198f768-e4d2-711c-944b-6f03c09216de","2025-08-29_15h23.14.019",NA,NA,353.4464,353.4465,353.4465,353.796,NA,NA,NA,NA,NA,NA,NA,TRUE,1,1.4794,350.4461,353.4463,0,79,79,76,1,90,46,NA,NA,NA,NA,NA,1,80,"likert"
"291116C20C764C60BF80AF13A7C8F97A",1,"0198f77e-dc07-72b9-90ca-e0526299966f","0198f768-e4d2-711c-944b-6f03c09216de","2025-08-29_15h23.14.019",NA,NA,356.7983,356.7983,356.7983,357.1476,NA,NA,NA,NA,NA,NA,NA,TRUE,1,1.136,353.797,356.7981,0,80,80,60,1,50,27,NA,NA,NA,NA,NA,1,81,"likert"
"291116C20C764C60BF80AF13A7C8F97A",1,"0198f77e-dc07-72b9-90ca-e0526299966f","0198f768-e4d2-711c-944b-6f03c09216de","2025-08-29_15h23.14.019",NA,NA,360.1496,360.1496,360.1496,360.4994,NA,NA,NA,NA,NA,NA,NA,TRUE,1,1.0731,357.1483,360.1494,0,81,81,66,1,60,29,NA,NA,NA,NA,NA,1,82,"likert"
"291116C20C764C60BF80AF13A7C8F97A",1,"0198f77e-dc07-72b9-90ca-e0526299966f","0198f768-e4d2-711c-944b-6f03c09216de","2025-08-29_15h23.14.019",NA,NA,363.5012,363.5013,363.5013,363.8507,NA,NA,NA,NA,NA,NA,NA,TRUE,5,1.3957,360.5008,363.5011,0,82,82,35,1,25,46,NA,NA,NA,NA,NA,1,83,"likert"
"291116C20C764C60BF80AF13A7C8F97A",1,"0198f77e-dc07-72b9-90ca-e0526299966f","0198f768-e4d2-711c-944b-6f03c09216de","2025-08-29_15h23.14.019",NA,NA,366.8364,366.8365,366.8365,367.1862,NA,NA,NA,NA,NA,NA,NA,TRUE,1,1.2258,363.8512,366.8363,0,83,83,97,1,180,31,NA,NA,NA,NA,NA,1,84,"likert"
"291116C20C764C60BF80AF13A7C8F97A",1,"0198f77e-dc07-72b9-90ca-e0526299966f","0198f768-e4d2-711c-944b-6f03c09216de","2025-08-29_15h23.14.019",NA,NA,370.188,370.1881,370.1882,370.538,NA,NA,NA,NA,NA,NA,NA,TRUE,1,2.0359,367.1876,370.1878,0,84,84,57,1,45,35,NA,NA,NA,NA,NA,1,85,"likert"
"291116C20C764C60BF80AF13A7C8F97A",1,"0198f77e-dc07-72b9-90ca-e0526299966f","0198f768-e4d2-711c-944b-6f03c09216de","2025-08-29_15h23.14.019",NA,NA,373.5389,373.5389,373.5389,373.8892,NA,NA,NA,NA,NA,NA,NA,TRUE,1,1.3873,370.5395,373.5388,0,85,85,107,1,200,54,NA,NA,NA,NA,NA,1,86,"likert"
"291116C20C764C60BF80AF13A7C8F97A",1,"0198f77e-dc07-72b9-90ca-e0526299966f","0198f768-e4d2-711c-944b-6f03c09216de","2025-08-29_15h23.14.019",NA,NA,376.8914,376.8915,376.8915,377.241,NA,NA,NA,NA,NA,NA,NA,TRUE,5,1.5035,373.8899,376.8913,0,86,86,53,1,40,54,NA,NA,NA,NA,NA,1,87,"likert"
"291116C20C764C60BF80AF13A7C8F97A",1,"0198f77e-dc07-72b9-90ca-e0526299966f","0198f768-e4d2-711c-944b-6f03c09216de","2025-08-29_15h23.14.019",NA,NA,380.2429,380.2429,380.243,380.5925,NA,NA,NA,NA,NA,NA,NA,TRUE,5,1.9726,377.2423,380.2428,0,87,87,32,1,25,31,NA,NA,NA,NA,NA,1,88,"likert"
"291116C20C764C60BF80AF13A7C8F97A",1,"0198f77e-dc07-72b9-90ca-e0526299966f","0198f768-e4d2-711c-944b-6f03c09216de","2025-08-29_15h23.14.019",NA,NA,383.5937,383.5937,383.5937,383.944,NA,NA,NA,NA,NA,NA,NA,TRUE,5,1.6838,380.5934,383.5937,0,88,88,56,1,45,31,NA,NA,NA,NA,NA,1,89,"likert"
"291116C20C764C60BF80AF13A7C8F97A",1,"0198f77e-dc07-72b9-90ca-e0526299966f","0198f768-e4d2-711c-944b-6f03c09216de","2025-08-29_15h23.14.019",NA,NA,386.9463,386.9463,386.9463,387.2962,NA,NA,NA,NA,NA,NA,NA,TRUE,1,0.8551,383.9447,386.9461,0,89,89,92,1,150,35,NA,NA,NA,NA,NA,1,90,"likert"
"291116C20C764C60BF80AF13A7C8F97A",1,"0198f77e-dc07-72b9-90ca-e0526299966f","0198f768-e4d2-711c-944b-6f03c09216de","2025-08-29_15h23.14.019",NA,NA,390.2976,390.2976,390.2977,390.6472,NA,NA,NA,NA,NA,NA,NA,TRUE,1,0.8326,387.2975,390.2975,0,90,90,73,1,90,30,NA,NA,NA,NA,NA,1,91,"likert"
"291116C20C764C60BF80AF13A7C8F97A",1,"0198f77e-dc07-72b9-90ca-e0526299966f","0198f768-e4d2-711c-944b-6f03c09216de","2025-08-29_15h23.14.019",NA,NA,393.649,393.6491,393.6491,393.999,NA,NA,NA,NA,NA,NA,NA,TRUE,1,1.9534,390.6478,393.6489,0,91,91,26,1,21,29,NA,NA,NA,NA,NA,1,92,"likert"
"291116C20C764C60BF80AF13A7C8F97A",1,"0198f77e-dc07-72b9-90ca-e0526299966f","0198f768-e4d2-711c-944b-6f03c09216de","2025-08-29_15h23.14.019",NA,NA,397.0012,397.0013,397.0013,397.3511,NA,NA,NA,NA,NA,NA,NA,TRUE,1,1.1047,393.9997,397.0011,0,92,92,84,1,100,26,NA,NA,NA,NA,NA,1,93,"likert"
"291116C20C764C60BF80AF13A7C8F97A",1,"0198f77e-dc07-72b9-90ca-e0526299966f","0198f768-e4d2-711c-944b-6f03c09216de","2025-08-29_15h23.14.019",NA,NA,400.3526,400.3527,400.3527,400.7026,NA,NA,NA,NA,NA,NA,NA,TRUE,1,1.2271,397.3526,400.3524,0,93,93,44,1,30,29,NA,NA,NA,NA,NA,1,94,"likert"
"291116C20C764C60BF80AF13A7C8F97A",1,"0198f77e-dc07-72b9-90ca-e0526299966f","0198f768-e4d2-711c-944b-6f03c09216de","2025-08-29_15h23.14.019",NA,NA,403.6873,403.6873,403.6874,404.0374,NA,NA,NA,NA,NA,NA,NA,TRUE,1,0.9604,400.7041,403.6872,0,94,94,101,1,180,54,NA,NA,NA,NA,NA,1,95,"likert"
"291116C20C764C60BF80AF13A7C8F97A",1,"0198f77e-dc07-72b9-90ca-e0526299966f","0198f768-e4d2-711c-944b-6f03c09216de","2025-08-29_15h23.14.019",NA,NA,407.0393,407.0393,407.0393,407.3894,NA,NA,NA,NA,NA,NA,NA,TRUE,1,1.2407,404.0381,407.0391,0,95,95,24,1,21,26,NA,NA,NA,NA,NA,1,96,"likert"
"291116C20C764C60BF80AF13A7C8F97A",1,"0198f77e-dc07-72b9-90ca-e0526299966f","0198f768-e4d2-711c-944b-6f03c09216de","2025-08-29_15h23.14.019",NA,NA,410.3912,410.3912,410.3913,410.741,NA,NA,NA,NA,NA,NA,NA,TRUE,5,1.2387,407.3909,410.391,0,96,96,39,1,28,35,NA,NA,NA,NA,NA,1,97,"likert"
"291116C20C764C60BF80AF13A7C8F97A",1,"0198f77e-dc07-72b9-90ca-e0526299966f","0198f768-e4d2-711c-944b-6f03c09216de","2025-08-29_15h23.14.019",NA,NA,413.7423,413.7423,413.7423,414.0923,NA,NA,NA,NA,NA,NA,NA,TRUE,5,0.9881,410.7424,413.7422,0,97,97,5,1,7,35,NA,NA,NA,NA,NA,1,98,"likert"
"291116C20C764C60BF80AF13A7C8F97A",1,"0198f77e-dc07-72b9-90ca-e0526299966f","0198f768-e4d2-711c-944b-6f03c09216de","2025-08-29_15h23.14.019",NA,NA,417.0944,417.0945,417.0945,417.4443,NA,NA,NA,NA,NA,NA,NA,TRUE,1,1.0566,414.093,417.0943,0,98,98,72,1,90,26,NA,NA,NA,NA,NA,1,99,"likert"
"291116C20C764C60BF80AF13A7C8F97A",1,"0198f77e-dc07-72b9-90ca-e0526299966f","0198f768-e4d2-711c-944b-6f03c09216de","2025-08-29_15h23.14.019",NA,NA,420.4461,420.4461,420.4461,420.7958,NA,NA,NA,NA,NA,NA,NA,TRUE,1,1.2349,417.4456,420.4459,0,99,99,6,1,10,25,NA,NA,NA,NA,NA,1,100,"likert"
"291116C20C764C60BF80AF13A7C8F97A",1,"0198f77e-dc07-72b9-90ca-e0526299966f","0198f768-e4d2-711c-944b-6f03c09216de","2025-08-29_15h23.14.019",NA,NA,423.7973,423.7974,423.7974,424.1473,NA,NA,NA,NA,NA,NA,NA,TRUE,5,1.6086,420.7975,423.7972,0,100,100,2,1,7,28,NA,NA,NA,NA,NA,1,101,"likert"
"291116C20C764C60BF80AF13A7C8F97A",1,"0198f77e-dc07-72b9-90ca-e0526299966f","0198f768-e4d2-711c-944b-6f03c09216de","2025-08-29_15h23.14.019",NA,NA,427.1493,427.1493,427.1494,427.4992,NA,NA,NA,NA,NA,NA,NA,TRUE,1,1.2343,424.1488,427.1491,0,101,101,48,1,40,27,NA,NA,NA,NA,NA,1,102,"likert"
"291116C20C764C60BF80AF13A7C8F97A",1,"0198f77e-dc07-72b9-90ca-e0526299966f","0198f768-e4d2-711c-944b-6f03c09216de","2025-08-29_15h23.14.019",NA,NA,430.501,430.5011,430.5011,430.8507,NA,NA,NA,NA,NA,NA,NA,TRUE,1,0.7585,427.5008,430.5008,0,102,102,106,1,200,47,NA,NA,NA,NA,NA,1,103,"likert"
"291116C20C764C60BF80AF13A7C8F97A",1,"0198f77e-dc07-72b9-90ca-e0526299966f","0198f768-e4d2-711c-944b-6f03c09216de","2025-08-29_15h23.14.019",NA,NA,433.8524,433.8525,433.8525,434.2025,NA,NA,NA,NA,NA,NA,NA,TRUE,5,1.4195,430.852,433.8522,0,103,103,37,1,28,28,NA,NA,NA,NA,NA,1,104,"likert"
"291116C20C764C60BF80AF13A7C8F97A",1,"0198f77e-dc07-72b9-90ca-e0526299966f","0198f768-e4d2-711c-944b-6f03c09216de","2025-08-29_15h23.14.019",NA,NA,437.1871,437.1871,437.1871,437.5375,NA,NA,NA,NA,NA,NA,NA,TRUE,1,1.1944,434.204,437.187,0,104,104,88,1,100,46,NA,NA,NA,NA,NA,1,105,"likert"
"291116C20C764C60BF80AF13A7C8F97A",1,"0198f77e-dc07-72b9-90ca-e0526299966f","0198f768-e4d2-711c-944b-6f03c09216de","2025-08-29_15h23.14.019",NA,NA,440.5391,440.5391,440.5392,440.889,NA,NA,NA,NA,NA,NA,NA,TRUE,1,0.8857,437.5389,440.5389,0,105,105,95,1,150,54,NA,NA,NA,NA,NA,1,106,"likert"
"291116C20C764C60BF80AF13A7C8F97A",1,"0198f77e-dc07-72b9-90ca-e0526299966f","0198f768-e4d2-711c-944b-6f03c09216de","2025-08-29_15h23.14.019",NA,NA,443.8908,443.8909,443.8909,444.2403,NA,NA,NA,NA,NA,NA,NA,TRUE,1,0.9162,440.8902,443.8906,0,106,106,55,1,45,29,NA,NA,NA,NA,NA,1,107,"likert"
"291116C20C764C60BF80AF13A7C8F97A",1,"0198f77e-dc07-72b9-90ca-e0526299966f","0198f768-e4d2-711c-944b-6f03c09216de","2025-08-29_15h23.14.019",NA,NA,447.2424,447.2424,447.2424,447.5919,NA,NA,NA,NA,NA,NA,NA,TRUE,1,1.1165,444.241,447.2422,0,107,107,0,1,7,25,NA,NA,NA,NA,NA,1,108,"likert"
"291116C20C764C60BF80AF13A7C8F97A",1,"0198f77e-dc07-72b9-90ca-e0526299966f","0198f768-e4d2-711c-944b-6f03c09216de","2025-08-29_15h23.14.019",NA,NA,454.4794,454.4794,454.4794,454.8289,NA,NA,NA,NA,NA,NA,NA,TRUE,1,2.4531,451.5026,454.4791,NA,NA,NA,NA,NA,100,46,0,0,0,88,1,2,1,"likert"
"291116C20C764C60BF80AF13A7C8F97A",1,"0198f77e-dc07-72b9-90ca-e0526299966f","0198f768-e4d2-711c-944b-6f03c09216de","2025-08-29_15h23.14.019",NA,NA,457.8311,457.8312,457.8312,458.1806,NA,NA,NA,NA,NA,NA,NA,TRUE,1,1.5396,454.8298,457.8309,NA,NA,NA,NA,NA,21,26,0,1,1,24,1,2,2,"likert"
"291116C20C764C60BF80AF13A7C8F97A",1,"0198f77e-dc07-72b9-90ca-e0526299966f","0198f768-e4d2-711c-944b-6f03c09216de","2025-08-29_15h23.14.019",NA,NA,461.1655,461.1655,461.1656,461.5159,NA,NA,NA,NA,NA,NA,NA,TRUE,1,1.6888,458.1816,461.1654,NA,NA,NA,NA,NA,45,26,0,2,2,54,1,2,3,"likert"
"291116C20C764C60BF80AF13A7C8F97A",1,"0198f77e-dc07-72b9-90ca-e0526299966f","0198f768-e4d2-711c-944b-6f03c09216de","2025-08-29_15h23.14.019",NA,NA,464.5176,464.5176,464.5176,464.8673,NA,NA,NA,NA,NA,NA,NA,TRUE,1,0.9015,461.5178,464.5174,NA,NA,NA,NA,NA,150,33,0,3,3,91,1,2,4,"likert"
"291116C20C764C60BF80AF13A7C8F97A",1,"0198f77e-dc07-72b9-90ca-e0526299966f","0198f768-e4d2-711c-944b-6f03c09216de","2025-08-29_15h23.14.019",NA,NA,467.8695,467.8695,467.8695,468.2193,NA,NA,NA,NA,NA,NA,NA,TRUE,5,0.9409,464.8682,467.8692,NA,NA,NA,NA,NA,14,35,0,4,4,22,1,2,5,"likert"
"291116C20C764C60BF80AF13A7C8F97A",1,"0198f77e-dc07-72b9-90ca-e0526299966f","0198f768-e4d2-711c-944b-6f03c09216de","2025-08-29_15h23.14.019",NA,NA,471.221,471.2211,471.2211,471.571,NA,NA,NA,NA,NA,NA,NA,TRUE,5,1.2055,468.2211,471.2208,NA,NA,NA,NA,NA,10,30,0,5,5,10,1,2,6,"likert"
"291116C20C764C60BF80AF13A7C8F97A",1,"0198f77e-dc07-72b9-90ca-e0526299966f","0198f768-e4d2-711c-944b-6f03c09216de","2025-08-29_15h23.14.019",NA,NA,474.5719,474.5719,474.5719,474.9223,NA,NA,NA,NA,NA,NA,NA,TRUE,5,1.8249,471.5729,474.5718,NA,NA,NA,NA,NA,21,32,0,6,6,28,1,2,7,"likert"
"291116C20C764C60BF80AF13A7C8F97A",1,"0198f77e-dc07-72b9-90ca-e0526299966f","0198f768-e4d2-711c-944b-6f03c09216de","2025-08-29_15h23.14.019",NA,NA,477.9244,477.9244,477.9244,478.274,NA,NA,NA,NA,NA,NA,NA,TRUE,1,1.2853,474.9243,477.9241,NA,NA,NA,NA,NA,50,40,0,7,7,63,1,2,8,"likert"
"291116C20C764C60BF80AF13A7C8F97A",1,"0198f77e-dc07-72b9-90ca-e0526299966f","0198f768-e4d2-711c-944b-6f03c09216de","2025-08-29_15h23.14.019",NA,NA,481.276,481.276,481.276,481.6258,NA,NA,NA,NA,NA,NA,NA,TRUE,5,1.2346,478.276,481.2757,NA,NA,NA,NA,NA,45,31,0,8,8,56,1,2,9,"likert"
"291116C20C764C60BF80AF13A7C8F97A",1,"0198f77e-dc07-72b9-90ca-e0526299966f","0198f768-e4d2-711c-944b-6f03c09216de","2025-08-29_15h23.14.019",NA,NA,484.6265,484.6265,484.6265,484.9774,NA,NA,NA,NA,NA,NA,NA,TRUE,1,1.2216,481.6276,484.6264,NA,NA,NA,NA,NA,30,26,0,9,9,42,1,2,10,"likert"
"291116C20C764C60BF80AF13A7C8F97A",1,"0198f77e-dc07-72b9-90ca-e0526299966f","0198f768-e4d2-711c-944b-6f03c09216de","2025-08-29_15h23.14.019",NA,NA,487.9791,487.9791,487.9792,488.3291,NA,NA,NA,NA,NA,NA,NA,TRUE,5,1.0348,484.9792,487.9789,NA,NA,NA,NA,NA,7,30,0,10,10,3,1,2,11,"likert"
"291116C20C764C60BF80AF13A7C8F97A",1,"0198f77e-dc07-72b9-90ca-e0526299966f","0198f768-e4d2-711c-944b-6f03c09216de","2025-08-29_15h23.14.019",NA,NA,491.3308,491.3309,491.3309,491.6808,NA,NA,NA,NA,NA,NA,NA,TRUE,1,1.1558,488.3311,491.3306,NA,NA,NA,NA,NA,90,54,0,11,11,77,1,2,12,"likert"
"291116C20C764C60BF80AF13A7C8F97A",1,"0198f77e-dc07-72b9-90ca-e0526299966f","0198f768-e4d2-711c-944b-6f03c09216de","2025-08-29_15h23.14.019",NA,NA,494.6659,494.666,494.6661,495.0156,NA,NA,NA,NA,NA,NA,NA,TRUE,1,0.9352,491.6827,494.6657,NA,NA,NA,NA,NA,180,27,0,12,12,96,1,2,13,"likert"
"291116C20C764C60BF80AF13A7C8F97A",1,"0198f77e-dc07-72b9-90ca-e0526299966f","0198f768-e4d2-711c-944b-6f03c09216de","2025-08-29_15h23.14.019",NA,NA,498.0174,498.0174,498.0174,498.3669,NA,NA,NA,NA,NA,NA,NA,TRUE,1,0.8444,495.0175,498.0172,NA,NA,NA,NA,NA,90,46,0,13,13,76,1,2,14,"likert"
"291116C20C764C60BF80AF13A7C8F97A",1,"0198f77e-dc07-72b9-90ca-e0526299966f","0198f768-e4d2-711c-944b-6f03c09216de","2025-08-29_15h23.14.019",NA,NA,501.3692,501.3692,501.3693,501.7191,NA,NA,NA,NA,NA,NA,NA,TRUE,1,1.2233,498.369,501.369,NA,NA,NA,NA,NA,14,25,0,14,14,18,1,2,15,"likert"
"291116C20C764C60BF80AF13A7C8F97A",1,"0198f77e-dc07-72b9-90ca-e0526299966f","0198f768-e4d2-711c-944b-6f03c09216de","2025-08-29_15h23.14.019",NA,NA,504.7202,504.7203,504.7203,505.0703,NA,NA,NA,NA,NA,NA,NA,TRUE,1,1.3867,501.721,504.72,NA,NA,NA,NA,NA,45,35,0,15,15,57,1,2,16,"likert"
"291116C20C764C60BF80AF13A7C8F97A",1,"0198f77e-dc07-72b9-90ca-e0526299966f","0198f768-e4d2-711c-944b-6f03c09216de","2025-08-29_15h23.14.019",NA,NA,508.0722,508.0722,508.0723,508.4217,NA,NA,NA,NA,NA,NA,NA,TRUE,1,1.035,505.0711,508.072,NA,NA,NA,NA,NA,95,35,0,16,16,80,1,2,17,"likert"
"291116C20C764C60BF80AF13A7C8F97A",1,"0198f77e-dc07-72b9-90ca-e0526299966f","0198f768-e4d2-711c-944b-6f03c09216de","2025-08-29_15h23.14.019",NA,NA,511.4241,511.4241,511.4241,511.7739,NA,NA,NA,NA,NA,NA,NA,TRUE,5,0.766,508.4224,511.4238,NA,NA,NA,NA,NA,7,32,0,17,17,4,1,2,18,"likert"
"291116C20C764C60BF80AF13A7C8F97A",1,"0198f77e-dc07-72b9-90ca-e0526299966f","0198f768-e4d2-711c-944b-6f03c09216de","2025-08-29_15h23.14.019",NA,NA,514.7746,514.7746,514.7746,515.1254,NA,NA,NA,NA,NA,NA,NA,TRUE,1,1.2866,511.7758,514.7746,NA,NA,NA,NA,NA,45,29,0,18,18,55,1,2,19,"likert"
"291116C20C764C60BF80AF13A7C8F97A",1,"0198f77e-dc07-72b9-90ca-e0526299966f","0198f768-e4d2-711c-944b-6f03c09216de","2025-08-29_15h23.14.019",NA,NA,518.1273,518.1274,518.1274,518.4768,NA,NA,NA,NA,NA,NA,NA,TRUE,1,1.4228,515.1272,518.1271,NA,NA,NA,NA,NA,45,46,0,19,19,59,1,2,20,"likert"
"291116C20C764C60BF80AF13A7C8F97A",1,"0198f77e-dc07-72b9-90ca-e0526299966f","0198f768-e4d2-711c-944b-6f03c09216de","2025-08-29_15h23.14.019",NA,NA,521.479,521.4792,521.4792,521.8288,NA,NA,NA,NA,NA,NA,NA,TRUE,5,1.6188,518.4778,521.4788,NA,NA,NA,NA,NA,12,28,0,20,20,14,1,2,21,"likert"
"291116C20C764C60BF80AF13A7C8F97A",1,"0198f77e-dc07-72b9-90ca-e0526299966f","0198f768-e4d2-711c-944b-6f03c09216de","2025-08-29_15h23.14.019",NA,NA,524.8132,524.8133,524.8133,525.1806,NA,NA,NA,NA,NA,NA,NA,TRUE,1,1.3677,521.8307,524.8132,NA,NA,NA,NA,NA,50,35,0,21,21,62,1,2,22,"likert"
"291116C20C764C60BF80AF13A7C8F97A",1,"0198f77e-dc07-72b9-90ca-e0526299966f","0198f768-e4d2-711c-944b-6f03c09216de","2025-08-29_15h23.14.019",NA,NA,528.182,528.1821,528.1821,528.5316,NA,NA,NA,NA,NA,NA,NA,TRUE,5,1.0251,525.1824,528.1818,NA,NA,NA,NA,NA,30,38,0,22,22,47,1,2,23,"likert"
"291116C20C764C60BF80AF13A7C8F97A",1,"0198f77e-dc07-72b9-90ca-e0526299966f","0198f768-e4d2-711c-944b-6f03c09216de","2025-08-29_15h23.14.019",NA,NA,531.5175,531.5175,531.5175,531.8671,NA,NA,NA,NA,NA,NA,NA,TRUE,1,1.6694,528.5328,531.5171,NA,NA,NA,NA,NA,95,54,0,23,23,83,1,2,24,"likert"
"291116C20C764C60BF80AF13A7C8F97A",1,"0198f77e-dc07-72b9-90ca-e0526299966f","0198f768-e4d2-711c-944b-6f03c09216de","2025-08-29_15h23.14.019",NA,NA,534.868,534.868,534.868,535.2188,NA,NA,NA,NA,NA,NA,NA,TRUE,1,1.7742,531.869,534.868,NA,NA,NA,NA,NA,45,40,0,24,24,58,1,2,25,"likert"
"291116C20C764C60BF80AF13A7C8F97A",1,"0198f77e-dc07-72b9-90ca-e0526299966f","0198f768-e4d2-711c-944b-6f03c09216de","2025-08-29_15h23.14.019",NA,NA,538.2202,538.2202,538.2204,538.5703,NA,NA,NA,NA,NA,NA,NA,TRUE,1,1.7692,535.2206,538.2201,NA,NA,NA,NA,NA,150,35,0,25,25,92,1,2,26,"likert"
"291116C20C764C60BF80AF13A7C8F97A",1,"0198f77e-dc07-72b9-90ca-e0526299966f","0198f768-e4d2-711c-944b-6f03c09216de","2025-08-29_15h23.14.019",NA,NA,541.5719,541.572,541.572,541.9218,NA,NA,NA,NA,NA,NA,NA,TRUE,5,1.3668,538.572,541.5717,NA,NA,NA,NA,NA,28,35,0,26,26,39,1,2,27,"likert"
"291116C20C764C60BF80AF13A7C8F97A",1,"0198f77e-dc07-72b9-90ca-e0526299966f","0198f768-e4d2-711c-944b-6f03c09216de","2025-08-29_15h23.14.019",NA,NA,544.9228,544.9228,544.9228,545.2737,NA,NA,NA,NA,NA,NA,NA,TRUE,3,1.6714,541.9237,544.9228,NA,NA,NA,NA,NA,40,40,0,27,27,51,1,2,28,"likert"
"291116C20C764C60BF80AF13A7C8F97A",1,"0198f77e-dc07-72b9-90ca-e0526299966f","0198f768-e4d2-711c-944b-6f03c09216de","2025-08-29_15h23.14.019",NA,NA,548.2755,548.2756,548.2756,548.625,NA,NA,NA,NA,NA,NA,NA,TRUE,5,1.355,545.2759,548.2753,NA,NA,NA,NA,NA,14,39,0,28,28,23,1,2,29,"likert"
"291116C20C764C60BF80AF13A7C8F97A",1,"0198f77e-dc07-72b9-90ca-e0526299966f","0198f768-e4d2-711c-944b-6f03c09216de","2025-08-29_15h23.14.019",NA,NA,551.6269,551.627,551.6271,551.977,NA,NA,NA,NA,NA,NA,NA,TRUE,1,0.8016,548.6263,551.6268,NA,NA,NA,NA,NA,180,54,0,29,29,101,1,2,30,"likert"
"291116C20C764C60BF80AF13A7C8F97A",1,"0198f77e-dc07-72b9-90ca-e0526299966f","0198f768-e4d2-711c-944b-6f03c09216de","2025-08-29_15h23.14.019",NA,NA,554.9782,554.9783,554.9783,555.3286,NA,NA,NA,NA,NA,NA,NA,TRUE,3,1.6765,551.9788,554.9782,NA,NA,NA,NA,NA,10,29,0,30,30,9,1,2,31,"likert"
"291116C20C764C60BF80AF13A7C8F97A",1,"0198f77e-dc07-72b9-90ca-e0526299966f","0198f768-e4d2-711c-944b-6f03c09216de","2025-08-29_15h23.14.019",NA,NA,558.3304,558.3305,558.3305,558.6798,NA,NA,NA,NA,NA,NA,NA,TRUE,1,1.4568,555.3305,558.3301,NA,NA,NA,NA,NA,200,39,0,31,31,105,1,2,32,"likert"
"291116C20C764C60BF80AF13A7C8F97A",1,"0198f77e-dc07-72b9-90ca-e0526299966f","0198f768-e4d2-711c-944b-6f03c09216de","2025-08-29_15h23.14.019",NA,NA,561.6817,561.6818,561.6818,562.0317,NA,NA,NA,NA,NA,NA,NA,TRUE,1,1.4237,558.6805,561.6815,NA,NA,NA,NA,NA,95,47,0,32,32,82,1,2,33,"likert"
"291116C20C764C60BF80AF13A7C8F97A",1,"0198f77e-dc07-72b9-90ca-e0526299966f","0198f768-e4d2-711c-944b-6f03c09216de","2025-08-29_15h23.14.019",NA,NA,565.0166,565.0167,565.0167,565.3669,NA,NA,NA,NA,NA,NA,NA,TRUE,5,1.5184,562.0336,565.0165,NA,NA,NA,NA,NA,28,46,0,33,33,41,1,2,34,"likert"
"291116C20C764C60BF80AF13A7C8F97A",1,"0198f77e-dc07-72b9-90ca-e0526299966f","0198f768-e4d2-711c-944b-6f03c09216de","2025-08-29_15h23.14.019",NA,NA,568.3687,568.3688,568.3688,568.7179,NA,NA,NA,NA,NA,NA,NA,TRUE,5,1.1767,565.369,568.3685,NA,NA,NA,NA,NA,25,46,0,34,34,35,1,2,35,"likert"
"291116C20C764C60BF80AF13A7C8F97A",1,"0198f77e-dc07-72b9-90ca-e0526299966f","0198f768-e4d2-711c-944b-6f03c09216de","2025-08-29_15h23.14.019",NA,NA,571.7203,571.7204,571.7204,572.0704,NA,NA,NA,NA,NA,NA,NA,TRUE,1,0.9691,568.7187,571.7202,NA,NA,NA,NA,NA,90,40,0,35,35,75,1,2,36,"likert"
"291116C20C764C60BF80AF13A7C8F97A",1,"0198f77e-dc07-72b9-90ca-e0526299966f","0198f768-e4d2-711c-944b-6f03c09216de","2025-08-29_15h23.14.019",NA,NA,575.0712,575.0712,575.0712,575.4215,NA,NA,NA,NA,NA,NA,NA,TRUE,1,1.8005,572.0723,575.0711,NA,NA,NA,NA,NA,50,46,0,36,36,64,1,2,37,"likert"
"291116C20C764C60BF80AF13A7C8F97A",1,"0198f77e-dc07-72b9-90ca-e0526299966f","0198f768-e4d2-711c-944b-6f03c09216de","2025-08-29_15h23.14.019",NA,NA,578.4236,578.4237,578.4237,578.7729,NA,NA,NA,NA,NA,NA,NA,TRUE,1,1.0344,575.4233,578.4234,NA,NA,NA,NA,NA,95,31,0,37,37,78,1,2,38,"likert"
"291116C20C764C60BF80AF13A7C8F97A",1,"0198f77e-dc07-72b9-90ca-e0526299966f","0198f768-e4d2-711c-944b-6f03c09216de","2025-08-29_15h23.14.019",NA,NA,581.7753,581.7753,581.7753,582.125,NA,NA,NA,NA,NA,NA,NA,TRUE,5,1.0691,578.774,581.775,NA,NA,NA,NA,NA,7,35,0,38,38,5,1,2,39,"likert"
"291116C20C764C60BF80AF13A7C8F97A",1,"0198f77e-dc07-72b9-90ca-e0526299966f","0198f768-e4d2-711c-944b-6f03c09216de","2025-08-29_15h23.14.019",NA,NA,585.127,585.127,585.127,585.4766,NA,NA,NA,NA,NA,NA,NA,TRUE,1,1.1951,582.1268,585.1267,NA,NA,NA,NA,NA,180,31,0,39,39,97,1,2,40,"likert"
"291116C20C764C60BF80AF13A7C8F97A",1,"0198f77e-dc07-72b9-90ca-e0526299966f","0198f768-e4d2-711c-944b-6f03c09216de","2025-08-29_15h23.14.019",NA,NA,588.4786,588.4787,588.4787,588.8281,NA,NA,NA,NA,NA,NA,NA,TRUE,5,1.4045,585.4783,588.4783,NA,NA,NA,NA,NA,28,39,0,40,40,40,1,2,41,"likert"
"291116C20C764C60BF80AF13A7C8F97A",1,"0198f77e-dc07-72b9-90ca-e0526299966f","0198f768-e4d2-711c-944b-6f03c09216de","2025-08-29_15h23.14.019",NA,NA,591.8302,591.8303,591.8303,592.1798,NA,NA,NA,NA,NA,NA,NA,TRUE,1,0.9167,588.8293,591.83,NA,NA,NA,NA,NA,60,47,0,41,41,70,1,2,42,"likert"
"291116C20C764C60BF80AF13A7C8F97A",1,"0198f77e-dc07-72b9-90ca-e0526299966f","0198f768-e4d2-711c-944b-6f03c09216de","2025-08-29_15h23.14.019",NA,NA,595.1809,595.1809,595.1809,595.5315,NA,NA,NA,NA,NA,NA,NA,TRUE,5,0.9556,592.1809,595.1808,NA,NA,NA,NA,NA,12,33,0,42,42,16,1,2,43,"likert"
"291116C20C764C60BF80AF13A7C8F97A",1,"0198f77e-dc07-72b9-90ca-e0526299966f","0198f768-e4d2-711c-944b-6f03c09216de","2025-08-29_15h23.14.019",NA,NA,598.5168,598.5168,598.5169,598.866,NA,NA,NA,NA,NA,NA,NA,TRUE,1,0.8043,595.5333,598.5166,NA,NA,NA,NA,NA,90,33,0,43,43,74,1,2,44,"likert"
"291116C20C764C60BF80AF13A7C8F97A",1,"0198f77e-dc07-72b9-90ca-e0526299966f","0198f768-e4d2-711c-944b-6f03c09216de","2025-08-29_15h23.14.019",NA,NA,601.8683,601.8684,601.8684,602.2182,NA,NA,NA,NA,NA,NA,NA,TRUE,5,1.4625,598.8673,601.8681,NA,NA,NA,NA,NA,25,33,0,44,44,33,1,2,45,"likert"
"291116C20C764C60BF80AF13A7C8F97A",1,"0198f77e-dc07-72b9-90ca-e0526299966f","0198f768-e4d2-711c-944b-6f03c09216de","2025-08-29_15h23.14.019",NA,NA,605.22,605.2201,605.2201,605.5696,NA,NA,NA,NA,NA,NA,NA,TRUE,1,1.3505,602.2201,605.2198,NA,NA,NA,NA,NA,10,26,0,45,45,7,1,2,46,"likert"
"291116C20C764C60BF80AF13A7C8F97A",1,"0198f77e-dc07-72b9-90ca-e0526299966f","0198f768-e4d2-711c-944b-6f03c09216de","2025-08-29_15h23.14.019",NA,NA,608.5717,608.5718,608.5718,608.9212,NA,NA,NA,NA,NA,NA,NA,TRUE,1,1.4116,605.5709,608.5714,NA,NA,NA,NA,NA,12,25,0,46,46,12,1,2,47,"likert"
"291116C20C764C60BF80AF13A7C8F97A",1,"0198f77e-dc07-72b9-90ca-e0526299966f","0198f768-e4d2-711c-944b-6f03c09216de","2025-08-29_15h23.14.019",NA,NA,611.9233,611.9234,611.9234,612.2732,NA,NA,NA,NA,NA,NA,NA,TRUE,1,1.0394,608.9227,611.923,NA,NA,NA,NA,NA,100,31,0,47,47,85,1,2,48,"likert"
"291116C20C764C60BF80AF13A7C8F97A",1,"0198f77e-dc07-72b9-90ca-e0526299966f","0198f768-e4d2-711c-944b-6f03c09216de","2025-08-29_15h23.14.019",NA,NA,615.275,615.275,615.2751,615.6249,NA,NA,NA,NA,NA,NA,NA,TRUE,1,0.9512,612.275,615.2748,NA,NA,NA,NA,NA,10,25,0,48,48,6,1,2,49,"likert"
"291116C20C764C60BF80AF13A7C8F97A",1,"0198f77e-dc07-72b9-90ca-e0526299966f","0198f768-e4d2-711c-944b-6f03c09216de","2025-08-29_15h23.14.019",NA,NA,618.6266,618.6266,618.6266,618.976,NA,NA,NA,NA,NA,NA,NA,TRUE,5,1.3705,615.6266,618.6263,NA,NA,NA,NA,NA,30,30,0,49,49,45,1,2,50,"likert"
"291116C20C764C60BF80AF13A7C8F97A",1,"0198f77e-dc07-72b9-90ca-e0526299966f","0198f768-e4d2-711c-944b-6f03c09216de","2025-08-29_15h23.14.019",NA,NA,621.9784,621.9785,621.9785,622.328,NA,NA,NA,NA,NA,NA,NA,TRUE,1,1.5053,618.9768,621.9781,NA,NA,NA,NA,NA,50,54,0,50,50,65,1,2,51,"likert"
"291116C20C764C60BF80AF13A7C8F97A",1,"0198f77e-dc07-72b9-90ca-e0526299966f","0198f768-e4d2-711c-944b-6f03c09216de","2025-08-29_15h23.14.019",NA,NA,625.33,625.3301,625.3301,625.6797,NA,NA,NA,NA,NA,NA,NA,TRUE,1,0.7553,622.3298,625.3298,NA,NA,NA,NA,NA,100,39,0,51,51,87,1,2,52,"likert"
"291116C20C764C60BF80AF13A7C8F97A",1,"0198f77e-dc07-72b9-90ca-e0526299966f","0198f768-e4d2-711c-944b-6f03c09216de","2025-08-29_15h23.14.019",NA,NA,628.6808,628.6809,628.6809,629.0312,NA,NA,NA,NA,NA,NA,NA,TRUE,1,0.8739,625.6815,628.6807,NA,NA,NA,NA,NA,200,26,0,52,52,102,1,2,53,"likert"
"291116C20C764C60BF80AF13A7C8F97A",1,"0198f77e-dc07-72b9-90ca-e0526299966f","0198f768-e4d2-711c-944b-6f03c09216de","2025-08-29_15h23.14.019",NA,NA,632.0165,632.0165,632.0166,632.3664,NA,NA,NA,NA,NA,NA,NA,TRUE,5,1.6104,629.0328,632.0163,NA,NA,NA,NA,NA,28,32,0,53,53,38,1,2,54,"likert"
"291116C20C764C60BF80AF13A7C8F97A",1,"0198f77e-dc07-72b9-90ca-e0526299966f","0198f768-e4d2-711c-944b-6f03c09216de","2025-08-29_15h23.14.019",NA,NA,635.3683,635.3683,635.3684,635.7182,NA,NA,NA,NA,NA,NA,NA,TRUE,1,0.9186,632.3683,635.3681,NA,NA,NA,NA,NA,60,33,0,54,54,67,1,2,55,"likert"
"291116C20C764C60BF80AF13A7C8F97A",1,"0198f77e-dc07-72b9-90ca-e0526299966f","0198f768-e4d2-711c-944b-6f03c09216de","2025-08-29_15h23.14.019",NA,NA,638.7199,638.72,638.72,639.0692,NA,NA,NA,NA,NA,NA,NA,TRUE,1,0.9245,635.7201,638.7197,NA,NA,NA,NA,NA,90,30,0,55,55,73,1,2,56,"likert"
"291116C20C764C60BF80AF13A7C8F97A",1,"0198f77e-dc07-72b9-90ca-e0526299966f","0198f768-e4d2-711c-944b-6f03c09216de","2025-08-29_15h23.14.019",NA,NA,642.0714,642.0714,642.0714,642.4213,NA,NA,NA,NA,NA,NA,NA,TRUE,1,2.0357,639.0707,642.0711,NA,NA,NA,NA,NA,25,29,0,56,56,31,1,2,57,"likert"
"291116C20C764C60BF80AF13A7C8F97A",1,"0198f77e-dc07-72b9-90ca-e0526299966f","0198f768-e4d2-711c-944b-6f03c09216de","2025-08-29_15h23.14.019",NA,NA,645.4232,645.4232,645.4232,645.7729,NA,NA,NA,NA,NA,NA,NA,TRUE,1,1.8841,642.4233,645.4228,NA,NA,NA,NA,NA,30,29,0,57,57,44,1,2,58,"likert"
"291116C20C764C60BF80AF13A7C8F97A",1,"0198f77e-dc07-72b9-90ca-e0526299966f","0198f768-e4d2-711c-944b-6f03c09216de","2025-08-29_15h23.14.019",NA,NA,648.7747,648.7748,648.7748,649.1237,NA,NA,NA,NA,NA,NA,NA,TRUE,1,1.3286,645.7747,648.7745,NA,NA,NA,NA,NA,180,39,0,58,58,99,1,2,59,"likert"
"291116C20C764C60BF80AF13A7C8F97A",1,"0198f77e-dc07-72b9-90ca-e0526299966f","0198f768-e4d2-711c-944b-6f03c09216de","2025-08-29_15h23.14.019",NA,NA,652.1264,652.1264,652.1265,652.4763,NA,NA,NA,NA,NA,NA,NA,TRUE,1,1.2743,649.1247,652.1262,NA,NA,NA,NA,NA,100,54,0,59,59,89,1,2,60,"likert"
"291116C20C764C60BF80AF13A7C8F97A",1,"0198f77e-dc07-72b9-90ca-e0526299966f","0198f768-e4d2-711c-944b-6f03c09216de","2025-08-29_15h23.14.019",NA,NA,655.4776,655.4777,655.4777,655.828,NA,NA,NA,NA,NA,NA,NA,TRUE,5,1.3071,652.4781,655.4775,NA,NA,NA,NA,NA,25,35,0,60,60,34,1,2,61,"likert"
"291116C20C764C60BF80AF13A7C8F97A",1,"0198f77e-dc07-72b9-90ca-e0526299966f","0198f768-e4d2-711c-944b-6f03c09216de","2025-08-29_15h23.14.019",NA,NA,658.8298,658.83,658.83,659.1792,NA,NA,NA,NA,NA,NA,NA,TRUE,1,0.8585,655.8298,658.8295,NA,NA,NA,NA,NA,150,47,0,61,61,94,1,2,62,"likert"
"291116C20C764C60BF80AF13A7C8F97A",1,"0198f77e-dc07-72b9-90ca-e0526299966f","0198f768-e4d2-711c-944b-6f03c09216de","2025-08-29_15h23.14.019",NA,NA,662.1808,662.1808,662.1809,662.5312,NA,NA,NA,NA,NA,NA,NA,TRUE,5,1.4708,659.1812,662.1807,NA,NA,NA,NA,NA,30,32,0,62,62,46,1,2,63,"likert"
"291116C20C764C60BF80AF13A7C8F97A",1,"0198f77e-dc07-72b9-90ca-e0526299966f","0198f768-e4d2-711c-944b-6f03c09216de","2025-08-29_15h23.14.019",NA,NA,665.5162,665.5162,665.5162,665.8659,NA,NA,NA,NA,NA,NA,NA,TRUE,1,1.085,662.5331,665.5159,NA,NA,NA,NA,NA,95,40,0,63,63,81,1,2,64,"likert"
"291116C20C764C60BF80AF13A7C8F97A",1,"0198f77e-dc07-72b9-90ca-e0526299966f","0198f768-e4d2-711c-944b-6f03c09216de","2025-08-29_15h23.14.019",NA,NA,668.8679,668.8681,668.8681,669.2178,NA,NA,NA,NA,NA,NA,NA,TRUE,5,1.1426,665.8678,668.8676,NA,NA,NA,NA,NA,7,28,0,64,64,2,1,2,65,"likert"
"291116C20C764C60BF80AF13A7C8F97A",1,"0198f77e-dc07-72b9-90ca-e0526299966f","0198f768-e4d2-711c-944b-6f03c09216de","2025-08-29_15h23.14.019",NA,NA,672.2192,672.2192,672.2193,672.5691,NA,NA,NA,NA,NA,NA,NA,TRUE,1,1.1351,669.2196,672.219,NA,NA,NA,NA,NA,21,27,0,65,65,25,1,2,66,"likert"
"291116C20C764C60BF80AF13A7C8F97A",1,"0198f77e-dc07-72b9-90ca-e0526299966f","0198f768-e4d2-711c-944b-6f03c09216de","2025-08-29_15h23.14.019",NA,NA,675.5703,675.5703,675.5703,675.921,NA,NA,NA,NA,NA,NA,NA,TRUE,1,1.3092,672.5698,675.5702,NA,NA,NA,NA,NA,30,27,0,66,66,43,1,2,67,"likert"
"291116C20C764C60BF80AF13A7C8F97A",1,"0198f77e-dc07-72b9-90ca-e0526299966f","0198f768-e4d2-711c-944b-6f03c09216de","2025-08-29_15h23.14.019",NA,NA,678.9221,678.9221,678.9221,679.2725,NA,NA,NA,NA,NA,NA,NA,TRUE,1,0.9839,675.9227,678.922,NA,NA,NA,NA,NA,28,26,0,67,67,36,1,2,68,"likert"
"291116C20C764C60BF80AF13A7C8F97A",1,"0198f77e-dc07-72b9-90ca-e0526299966f","0198f768-e4d2-711c-944b-6f03c09216de","2025-08-29_15h23.14.019",NA,NA,682.2745,682.2745,682.2745,682.6242,NA,NA,NA,NA,NA,NA,NA,TRUE,1,0.8362,679.2744,682.2742,NA,NA,NA,NA,NA,180,35,0,68,68,98,1,2,69,"likert"
"291116C20C764C60BF80AF13A7C8F97A",1,"0198f77e-dc07-72b9-90ca-e0526299966f","0198f768-e4d2-711c-944b-6f03c09216de","2025-08-29_15h23.14.019",NA,NA,685.6261,685.6262,685.6262,685.976,NA,NA,NA,NA,NA,NA,NA,TRUE,5,1.501,682.6255,685.6259,NA,NA,NA,NA,NA,10,32,0,69,69,11,1,2,70,"likert"
"291116C20C764C60BF80AF13A7C8F97A",1,"0198f77e-dc07-72b9-90ca-e0526299966f","0198f768-e4d2-711c-944b-6f03c09216de","2025-08-29_15h23.14.019",NA,NA,688.9773,688.9773,688.9773,689.3269,NA,NA,NA,NA,NA,NA,NA,TRUE,1,0.9599,685.9778,688.9772,NA,NA,NA,NA,NA,50,30,0,70,70,61,1,2,71,"likert"
"291116C20C764C60BF80AF13A7C8F97A",1,"0198f77e-dc07-72b9-90ca-e0526299966f","0198f768-e4d2-711c-944b-6f03c09216de","2025-08-29_15h23.14.019",NA,NA,692.3293,692.3295,692.3296,692.6792,NA,NA,NA,NA,NA,NA,NA,TRUE,5,1.554,689.3285,692.3291,NA,NA,NA,NA,NA,7,26,0,71,71,1,1,2,72,"likert"
"291116C20C764C60BF80AF13A7C8F97A",1,"0198f77e-dc07-72b9-90ca-e0526299966f","0198f768-e4d2-711c-944b-6f03c09216de","2025-08-29_15h23.14.019",NA,NA,695.681,695.6811,695.6811,696.0311,NA,NA,NA,NA,NA,NA,NA,TRUE,1,1.1848,692.681,695.6808,NA,NA,NA,NA,NA,60,40,0,72,72,69,1,2,73,"likert"
"291116C20C764C60BF80AF13A7C8F97A",1,"0198f77e-dc07-72b9-90ca-e0526299966f","0198f768-e4d2-711c-944b-6f03c09216de","2025-08-29_15h23.14.019",NA,NA,699.032,699.032,699.0321,699.3819,NA,NA,NA,NA,NA,NA,NA,TRUE,1,1.7029,696.033,699.0319,NA,NA,NA,NA,NA,7,25,0,73,73,0,1,2,74,"likert"
"291116C20C764C60BF80AF13A7C8F97A",1,"0198f77e-dc07-72b9-90ca-e0526299966f","0198f768-e4d2-711c-944b-6f03c09216de","2025-08-29_15h23.14.019",NA,NA,702.3677,702.3677,702.3678,702.7176,NA,NA,NA,NA,NA,NA,NA,TRUE,1,1.3691,699.3826,702.3674,NA,NA,NA,NA,NA,90,26,0,74,74,72,1,2,75,"likert"
"291116C20C764C60BF80AF13A7C8F97A",1,"0198f77e-dc07-72b9-90ca-e0526299966f","0198f768-e4d2-711c-944b-6f03c09216de","2025-08-29_15h23.14.019",NA,NA,705.7191,705.7192,705.7192,706.0691,NA,NA,NA,NA,NA,NA,NA,TRUE,1,0.9888,702.7195,705.719,NA,NA,NA,NA,NA,200,35,0,75,75,104,1,2,76,"likert"
"291116C20C764C60BF80AF13A7C8F97A",1,"0198f77e-dc07-72b9-90ca-e0526299966f","0198f768-e4d2-711c-944b-6f03c09216de","2025-08-29_15h23.14.019",NA,NA,709.0704,709.0704,709.0704,709.4205,NA,NA,NA,NA,NA,NA,NA,TRUE,1,0.8403,706.071,709.0703,NA,NA,NA,NA,NA,21,30,0,76,76,27,1,2,77,"likert"
"291116C20C764C60BF80AF13A7C8F97A",1,"0198f77e-dc07-72b9-90ca-e0526299966f","0198f768-e4d2-711c-944b-6f03c09216de","2025-08-29_15h23.14.019",NA,NA,712.4226,712.4226,712.4227,712.7724,NA,NA,NA,NA,NA,NA,NA,TRUE,1,1.0615,709.4215,712.4223,NA,NA,NA,NA,NA,200,28,0,77,77,103,1,2,78,"likert"
"291116C20C764C60BF80AF13A7C8F97A",1,"0198f77e-dc07-72b9-90ca-e0526299966f","0198f768-e4d2-711c-944b-6f03c09216de","2025-08-29_15h23.14.019",NA,NA,715.7742,715.7742,715.7742,716.124,NA,NA,NA,NA,NA,NA,NA,TRUE,5,0.937,712.7742,715.7739,NA,NA,NA,NA,NA,14,32,0,78,78,21,1,2,79,"likert"
"291116C20C764C60BF80AF13A7C8F97A",1,"0198f77e-dc07-72b9-90ca-e0526299966f","0198f768-e4d2-711c-944b-6f03c09216de","2025-08-29_15h23.14.019",NA,NA,719.1251,719.1251,719.1251,719.475,NA,NA,NA,NA,NA,NA,NA,TRUE,1,0.6752,716.1258,719.1251,NA,NA,NA,NA,NA,60,29,0,79,79,66,1,2,80,"likert"
"291116C20C764C60BF80AF13A7C8F97A",1,"0198f77e-dc07-72b9-90ca-e0526299966f","0198f768-e4d2-711c-944b-6f03c09216de","2025-08-29_15h23.14.019",NA,NA,722.4776,722.4776,722.4776,722.8274,NA,NA,NA,NA,NA,NA,NA,TRUE,5,1.0202,719.4762,722.4774,NA,NA,NA,NA,NA,12,31,0,80,80,15,1,2,81,"likert"
"291116C20C764C60BF80AF13A7C8F97A",1,"0198f77e-dc07-72b9-90ca-e0526299966f","0198f768-e4d2-711c-944b-6f03c09216de","2025-08-29_15h23.14.019",NA,NA,725.8293,725.8293,725.8294,726.1792,NA,NA,NA,NA,NA,NA,NA,TRUE,1,1.0172,722.8292,725.829,NA,NA,NA,NA,NA,25,27,0,81,81,30,1,2,82,"likert"
"291116C20C764C60BF80AF13A7C8F97A",1,"0198f77e-dc07-72b9-90ca-e0526299966f","0198f768-e4d2-711c-944b-6f03c09216de","2025-08-29_15h23.14.019",NA,NA,729.1799,729.18,729.18,729.5303,NA,NA,NA,NA,NA,NA,NA,TRUE,1,0.6849,726.181,729.1799,NA,NA,NA,NA,NA,40,47,0,82,82,52,1,2,83,"likert"
"291116C20C764C60BF80AF13A7C8F97A",1,"0198f77e-dc07-72b9-90ca-e0526299966f","0198f768-e4d2-711c-944b-6f03c09216de","2025-08-29_15h23.14.019",NA,NA,732.5158,732.5159,732.5159,732.8656,NA,NA,NA,NA,NA,NA,NA,TRUE,1,0.8198,729.5312,732.5156,NA,NA,NA,NA,NA,180,46,0,83,83,100,1,2,84,"likert"
"291116C20C764C60BF80AF13A7C8F97A",1,"0198f77e-dc07-72b9-90ca-e0526299966f","0198f768-e4d2-711c-944b-6f03c09216de","2025-08-29_15h23.14.019",NA,NA,735.8674,735.8674,735.8674,736.2172,NA,NA,NA,NA,NA,NA,NA,TRUE,1,0.9279,732.8675,735.8672,NA,NA,NA,NA,NA,40,33,0,84,84,49,1,2,85,"likert"
"291116C20C764C60BF80AF13A7C8F97A",1,"0198f77e-dc07-72b9-90ca-e0526299966f","0198f768-e4d2-711c-944b-6f03c09216de","2025-08-29_15h23.14.019",NA,NA,739.2184,739.2184,739.2185,739.5685,NA,NA,NA,NA,NA,NA,NA,TRUE,1,0.6093,736.2188,739.2184,NA,NA,NA,NA,NA,200,47,0,85,85,106,1,2,86,"likert"
"291116C20C764C60BF80AF13A7C8F97A",1,"0198f77e-dc07-72b9-90ca-e0526299966f","0198f768-e4d2-711c-944b-6f03c09216de","2025-08-29_15h23.14.019",NA,NA,742.5709,742.571,742.571,742.9206,NA,NA,NA,NA,NA,NA,NA,TRUE,1,1.3108,739.5694,742.5706,NA,NA,NA,NA,NA,14,28,0,86,86,20,1,2,87,"likert"
"291116C20C764C60BF80AF13A7C8F97A",1,"0198f77e-dc07-72b9-90ca-e0526299966f","0198f768-e4d2-711c-944b-6f03c09216de","2025-08-29_15h23.14.019",NA,NA,745.9222,745.9222,745.9223,746.272,NA,NA,NA,NA,NA,NA,NA,TRUE,5,1.0953,742.9227,745.922,NA,NA,NA,NA,NA,12,35,0,87,87,17,1,2,88,"likert"
"291116C20C764C60BF80AF13A7C8F97A",1,"0198f77e-dc07-72b9-90ca-e0526299966f","0198f768-e4d2-711c-944b-6f03c09216de","2025-08-29_15h23.14.019",NA,NA,749.2736,749.2737,749.2737,749.6238,NA,NA,NA,NA,NA,NA,NA,TRUE,1,0.9686,746.2738,749.2735,NA,NA,NA,NA,NA,60,54,0,88,88,71,1,2,89,"likert"
"291116C20C764C60BF80AF13A7C8F97A",1,"0198f77e-dc07-72b9-90ca-e0526299966f","0198f768-e4d2-711c-944b-6f03c09216de","2025-08-29_15h23.14.019",NA,NA,752.6255,752.6255,752.6255,752.9756,NA,NA,NA,NA,NA,NA,NA,TRUE,1,1.6711,749.6257,752.6253,NA,NA,NA,NA,NA,21,29,0,89,89,26,1,2,90,"likert"
"291116C20C764C60BF80AF13A7C8F97A",1,"0198f77e-dc07-72b9-90ca-e0526299966f","0198f768-e4d2-711c-944b-6f03c09216de","2025-08-29_15h23.14.019",NA,NA,755.9772,755.9772,755.9773,756.3272,NA,NA,NA,NA,NA,NA,NA,TRUE,1,0.7586,752.9774,755.9769,NA,NA,NA,NA,NA,150,31,0,90,90,90,1,2,91,"likert"
"291116C20C764C60BF80AF13A7C8F97A",1,"0198f77e-dc07-72b9-90ca-e0526299966f","0198f768-e4d2-711c-944b-6f03c09216de","2025-08-29_15h23.14.019",NA,NA,759.329,759.3291,759.3291,759.6786,NA,NA,NA,NA,NA,NA,NA,TRUE,1,0.8532,756.3291,759.3288,NA,NA,NA,NA,NA,40,35,0,91,91,50,1,2,92,"likert"
"291116C20C764C60BF80AF13A7C8F97A",1,"0198f77e-dc07-72b9-90ca-e0526299966f","0198f768-e4d2-711c-944b-6f03c09216de","2025-08-29_15h23.14.019",NA,NA,762.6802,762.6803,762.6804,763.0303,NA,NA,NA,NA,NA,NA,NA,TRUE,1,0.7344,759.6806,762.6801,NA,NA,NA,NA,NA,50,27,0,92,92,60,1,2,93,"likert"
"291116C20C764C60BF80AF13A7C8F97A",1,"0198f77e-dc07-72b9-90ca-e0526299966f","0198f768-e4d2-711c-944b-6f03c09216de","2025-08-29_15h23.14.019",NA,NA,766.0316,766.0317,766.0317,766.3655,NA,NA,NA,NA,NA,NA,NA,TRUE,1,0.7916,763.032,766.0315,NA,NA,NA,NA,NA,100,38,0,93,93,86,1,2,94,"likert"
"291116C20C764C60BF80AF13A7C8F97A",1,"0198f77e-dc07-72b9-90ca-e0526299966f","0198f768-e4d2-711c-944b-6f03c09216de","2025-08-29_15h23.14.019",NA,NA,769.3669,769.3669,769.3669,769.7171,NA,NA,NA,NA,NA,NA,NA,TRUE,1,0.5672,766.3672,769.3668,NA,NA,NA,NA,NA,200,54,0,94,94,107,1,2,95,"likert"
"291116C20C764C60BF80AF13A7C8F97A",1,"0198f77e-dc07-72b9-90ca-e0526299966f","0198f768-e4d2-711c-944b-6f03c09216de","2025-08-29_15h23.14.019",NA,NA,772.7189,772.7189,772.7189,773.0688,NA,NA,NA,NA,NA,NA,NA,TRUE,1,1.2934,769.7189,772.7187,NA,NA,NA,NA,NA,10,27,0,95,95,8,1,2,96,"likert"
"291116C20C764C60BF80AF13A7C8F97A",1,"0198f77e-dc07-72b9-90ca-e0526299966f","0198f768-e4d2-711c-944b-6f03c09216de","2025-08-29_15h23.14.019",NA,NA,776.0707,776.0707,776.0707,776.4204,NA,NA,NA,NA,NA,NA,NA,TRUE,1,1.042,773.0706,776.0704,NA,NA,NA,NA,NA,40,54,0,96,96,53,1,2,97,"likert"
"291116C20C764C60BF80AF13A7C8F97A",1,"0198f77e-dc07-72b9-90ca-e0526299966f","0198f768-e4d2-711c-944b-6f03c09216de","2025-08-29_15h23.14.019",NA,NA,779.4219,779.4219,779.422,779.7719,NA,NA,NA,NA,NA,NA,NA,TRUE,5,1.0914,776.4222,779.4216,NA,NA,NA,NA,NA,21,38,0,97,97,29,1,2,98,"likert"
"291116C20C764C60BF80AF13A7C8F97A",1,"0198f77e-dc07-72b9-90ca-e0526299966f","0198f768-e4d2-711c-944b-6f03c09216de","2025-08-29_15h23.14.019",NA,NA,782.7738,782.7738,782.7738,783.1236,NA,NA,NA,NA,NA,NA,NA,TRUE,1,1.352,779.7737,782.7735,NA,NA,NA,NA,NA,14,26,0,98,98,19,1,2,99,"likert"
"291116C20C764C60BF80AF13A7C8F97A",1,"0198f77e-dc07-72b9-90ca-e0526299966f","0198f768-e4d2-711c-944b-6f03c09216de","2025-08-29_15h23.14.019",NA,NA,786.1255,786.1255,786.1256,786.4753,NA,NA,NA,NA,NA,NA,NA,TRUE,1,1.2169,783.1254,786.1254,NA,NA,NA,NA,NA,40,27,0,99,99,48,1,2,100,"likert"
"291116C20C764C60BF80AF13A7C8F97A",1,"0198f77e-dc07-72b9-90ca-e0526299966f","0198f768-e4d2-711c-944b-6f03c09216de","2025-08-29_15h23.14.019",NA,NA,789.4764,789.4764,789.4764,789.8268,NA,NA,NA,NA,NA,NA,NA,TRUE,1,1.002,786.4771,789.4763,NA,NA,NA,NA,NA,12,26,0,100,100,13,1,2,101,"likert"
"291116C20C764C60BF80AF13A7C8F97A",1,"0198f77e-dc07-72b9-90ca-e0526299966f","0198f768-e4d2-711c-944b-6f03c09216de","2025-08-29_15h23.14.019",NA,NA,792.8285,792.8286,792.8286,793.1782,NA,NA,NA,NA,NA,NA,NA,TRUE,1,0.752,789.8286,792.8283,NA,NA,NA,NA,NA,60,35,0,101,101,68,1,2,102,"likert"
"291116C20C764C60BF80AF13A7C8F97A",1,"0198f77e-dc07-72b9-90ca-e0526299966f","0198f768-e4d2-711c-944b-6f03c09216de","2025-08-29_15h23.14.019",NA,NA,796.1802,796.1804,796.1804,796.5303,NA,NA,NA,NA,NA,NA,NA,TRUE,5,0.9176,793.179,796.18,NA,NA,NA,NA,NA,25,31,0,102,102,32,1,2,103,"likert"
"291116C20C764C60BF80AF13A7C8F97A",1,"0198f77e-dc07-72b9-90ca-e0526299966f","0198f768-e4d2-711c-944b-6f03c09216de","2025-08-29_15h23.14.019",NA,NA,799.5312,799.5312,799.5312,799.8818,NA,NA,NA,NA,NA,NA,NA,TRUE,1,1.4663,796.5321,799.531,NA,NA,NA,NA,NA,28,28,0,103,103,37,1,2,104,"likert"
"291116C20C764C60BF80AF13A7C8F97A",1,"0198f77e-dc07-72b9-90ca-e0526299966f","0198f768-e4d2-711c-944b-6f03c09216de","2025-08-29_15h23.14.019",NA,NA,802.867,802.8671,802.8671,803.2168,NA,NA,NA,NA,NA,NA,NA,TRUE,1,1.0038,799.8836,802.8667,NA,NA,NA,NA,NA,95,33,0,104,104,79,1,2,105,"likert"
"291116C20C764C60BF80AF13A7C8F97A",1,"0198f77e-dc07-72b9-90ca-e0526299966f","0198f768-e4d2-711c-944b-6f03c09216de","2025-08-29_15h23.14.019",NA,NA,806.2187,806.2187,806.2188,806.5681,NA,NA,NA,NA,NA,NA,NA,TRUE,1,0.7908,803.2187,806.2185,NA,NA,NA,NA,NA,150,40,0,105,105,93,1,2,106,"likert"
"291116C20C764C60BF80AF13A7C8F97A",1,"0198f77e-dc07-72b9-90ca-e0526299966f","0198f768-e4d2-711c-944b-6f03c09216de","2025-08-29_15h23.14.019",NA,NA,809.5695,809.5696,809.5696,809.9201,NA,NA,NA,NA,NA,NA,NA,TRUE,1,0.626,806.5694,809.5695,NA,NA,NA,NA,NA,150,54,0,106,106,95,1,2,107,"likert"
"291116C20C764C60BF80AF13A7C8F97A",1,"0198f77e-dc07-72b9-90ca-e0526299966f","0198f768-e4d2-711c-944b-6f03c09216de","2025-08-29_15h23.14.019",NA,NA,812.9218,812.9218,812.9218,813.271,NA,NA,NA,NA,NA,NA,NA,TRUE,1,0.855,809.9219,812.9215,NA,NA,NA,NA,NA,100,26,0,107,107,84,1,2,108,"likert"
