"participant","session","assignmentId","projectId","date","practiceTrial.started","practiceTrial.stopped","tooLate.started","tooLate.stopped","blank.started","blank.stopped","trials_pract.thisRepN","trials_pract.thisTrialN","trials_pract.thisN","trials_pract.thisIndex","trials_pract.ran","delay_pract","amount_pract","responseMade","key","rt","trial.started","trial.stopped","trials.thisRepN","trials.thisTrialN","trials.thisN","trials.thisIndex","trials.ran","delay","amount","trials_2.thisRepN","trials_2.thisTrialN","trials_2.thisN","trials_2.thisIndex","trials_2.ran","block","trial","taskType"
"3975392668B548F4866ED6F1FAEC3C4B",1,"01990a98-6111-79f7-a630-e93c55104679","01990a84-c4ee-73c2-a87b-ff46a7d3dde5","2025-09-02_09h24.00.579",30.2507,33.2442,33.2447,33.4781,33.4783,33.5886,0,0,0,4,1,30,40,FALSE,NA,NA,NA,NA,NA,NA,NA,NA,NA,NA,NA,NA,NA,NA,NA,NA,0,1,"likert"
"3975392668B548F4866ED6F1FAEC3C4B",1,"01990a98-6111-79f7-a630-e93c55104679","01990a84-c4ee-73c2-a87b-ff46a7d3dde5","2025-09-02_09h24.00.579",33.5903,36.5778,36.5779,36.578,36.578,36.9419,0,1,1,1,1,100,50,TRUE,1,0.999,NA,NA,NA,NA,NA,NA,NA,NA,NA,NA,NA,NA,NA,NA,0,2,"likert"
"3975392668B548F4866ED6F1FAEC3C4B",1,"01990a98-6111-79f7-a630-e93c55104679","01990a84-c4ee-73c2-a87b-ff46a7d3dde5","2025-09-02_09h24.00.579",36.9434,39.9439,39.944,40.1941,40.1942,40.2878,0,2,2,0,1,7,30,FALSE,NA,NA,NA,NA,NA,NA,NA,NA,NA,NA,NA,NA,NA,NA,NA,NA,0,3,"likert"
"3975392668B548F4866ED6F1FAEC3C4B",1,"01990a98-6111-79f7-a630-e93c55104679","01990a84-c4ee-73c2-a87b-ff46a7d3dde5","2025-09-02_09h24.00.579",40.2895,43.2811,43.2811,43.2811,43.2812,43.6438,0,3,3,3,1,3,27,TRUE,5,0.098,NA,NA,NA,NA,NA,NA,NA,NA,NA,NA,NA,NA,NA,NA,0,4,"likert"
"3975392668B548F4866ED6F1FAEC3C4B",1,"01990a98-6111-79f7-a630-e93c55104679","01990a84-c4ee-73c2-a87b-ff46a7d3dde5","2025-09-02_09h24.00.579",43.6449,46.6436,46.6437,46.6437,46.6437,46.9935,0,4,4,2,1,14,45,TRUE,5,0.9491,NA,NA,NA,NA,NA,NA,NA,NA,NA,NA,NA,NA,NA,NA,0,5,"likert"
"3975392668B548F4866ED6F1FAEC3C4B",1,"01990a98-6111-79f7-a630-e93c55104679","01990a84-c4ee-73c2-a87b-ff46a7d3dde5","2025-09-02_09h24.00.579",NA,NA,98.8264,98.8267,98.8268,99.1715,NA,NA,NA,NA,NA,NA,NA,TRUE,5,2.743,95.839,98.8263,0,0,0,20,1,14,28,NA,NA,NA,NA,NA,1,1,"likert"
"3975392668B548F4866ED6F1FAEC3C4B",1,"01990a98-6111-79f7-a630-e93c55104679","01990a84-c4ee-73c2-a87b-ff46a7d3dde5","2025-09-02_09h24.00.579",NA,NA,102.1716,102.4214,102.4215,102.5262,NA,NA,NA,NA,NA,NA,NA,FALSE,NA,NA,99.1729,102.1713,0,1,1,60,1,50,27,NA,NA,NA,NA,NA,1,2,"likert"
"3975392668B548F4866ED6F1FAEC3C4B",1,"01990a98-6111-79f7-a630-e93c55104679","01990a84-c4ee-73c2-a87b-ff46a7d3dde5","2025-09-02_09h24.00.579",NA,NA,105.5218,105.5219,105.5219,105.871,NA,NA,NA,NA,NA,NA,NA,TRUE,5,1.0711,102.5276,105.5215,0,2,2,70,1,60,47,NA,NA,NA,NA,NA,1,3,"likert"
"3975392668B548F4866ED6F1FAEC3C4B",1,"01990a98-6111-79f7-a630-e93c55104679","01990a84-c4ee-73c2-a87b-ff46a7d3dde5","2025-09-02_09h24.00.579",NA,NA,108.8714,108.8715,108.8715,109.2211,NA,NA,NA,NA,NA,NA,NA,TRUE,5,1.0677,105.8725,108.8709,0,3,3,93,1,150,40,NA,NA,NA,NA,NA,1,4,"likert"
"3975392668B548F4866ED6F1FAEC3C4B",1,"01990a98-6111-79f7-a630-e93c55104679","01990a84-c4ee-73c2-a87b-ff46a7d3dde5","2025-09-02_09h24.00.579",NA,NA,112.2264,112.2264,112.2264,112.5709,NA,NA,NA,NA,NA,NA,NA,TRUE,5,0.7893,109.2229,112.2263,0,4,4,32,1,25,31,NA,NA,NA,NA,NA,1,5,"likert"
"3975392668B548F4866ED6F1FAEC3C4B",1,"01990a98-6111-79f7-a630-e93c55104679","01990a84-c4ee-73c2-a87b-ff46a7d3dde5","2025-09-02_09h24.00.579",NA,NA,115.5761,115.5761,115.5761,115.926,NA,NA,NA,NA,NA,NA,NA,TRUE,5,0.6674,112.5724,115.576,0,5,5,86,1,100,38,NA,NA,NA,NA,NA,1,6,"likert"
"3975392668B548F4866ED6F1FAEC3C4B",1,"01990a98-6111-79f7-a630-e93c55104679","01990a84-c4ee-73c2-a87b-ff46a7d3dde5","2025-09-02_09h24.00.579",NA,NA,118.9213,118.9214,118.9214,119.271,NA,NA,NA,NA,NA,NA,NA,TRUE,5,1.4028,115.9265,118.9211,0,6,6,63,1,50,40,NA,NA,NA,NA,NA,1,7,"likert"
"3975392668B548F4866ED6F1FAEC3C4B",1,"01990a98-6111-79f7-a630-e93c55104679","01990a84-c4ee-73c2-a87b-ff46a7d3dde5","2025-09-02_09h24.00.579",NA,NA,122.2718,122.2719,122.272,122.6211,NA,NA,NA,NA,NA,NA,NA,TRUE,5,0.8516,119.2729,122.2714,0,7,7,6,1,10,25,NA,NA,NA,NA,NA,1,8,"likert"
"3975392668B548F4866ED6F1FAEC3C4B",1,"01990a98-6111-79f7-a630-e93c55104679","01990a84-c4ee-73c2-a87b-ff46a7d3dde5","2025-09-02_09h24.00.579",NA,NA,125.6211,125.6211,125.6211,125.9712,NA,NA,NA,NA,NA,NA,NA,TRUE,5,0.6311,122.6228,125.6209,0,8,8,75,1,90,40,NA,NA,NA,NA,NA,1,9,"likert"
"3975392668B548F4866ED6F1FAEC3C4B",1,"01990a98-6111-79f7-a630-e93c55104679","01990a84-c4ee-73c2-a87b-ff46a7d3dde5","2025-09-02_09h24.00.579",NA,NA,128.9711,128.9711,128.9711,129.3271,NA,NA,NA,NA,NA,NA,NA,TRUE,5,0.8656,125.9734,128.9708,0,9,9,96,1,180,27,NA,NA,NA,NA,NA,1,10,"likert"
"3975392668B548F4866ED6F1FAEC3C4B",1,"01990a98-6111-79f7-a630-e93c55104679","01990a84-c4ee-73c2-a87b-ff46a7d3dde5","2025-09-02_09h24.00.579",NA,NA,132.3276,132.3277,132.3277,132.6711,NA,NA,NA,NA,NA,NA,NA,TRUE,5,0.7954,129.3278,132.3275,0,10,10,67,1,60,33,NA,NA,NA,NA,NA,1,11,"likert"
"3975392668B548F4866ED6F1FAEC3C4B",1,"01990a98-6111-79f7-a630-e93c55104679","01990a84-c4ee-73c2-a87b-ff46a7d3dde5","2025-09-02_09h24.00.579",NA,NA,135.6712,135.6712,135.6712,136.027,NA,NA,NA,NA,NA,NA,NA,TRUE,5,0.4058,132.6731,135.671,0,11,11,82,1,95,47,NA,NA,NA,NA,NA,1,12,"likert"
"3975392668B548F4866ED6F1FAEC3C4B",1,"01990a98-6111-79f7-a630-e93c55104679","01990a84-c4ee-73c2-a87b-ff46a7d3dde5","2025-09-02_09h24.00.579",NA,NA,139.0209,139.0209,139.0209,139.3706,NA,NA,NA,NA,NA,NA,NA,TRUE,5,2.5654,136.0278,139.0206,0,12,12,3,1,7,30,NA,NA,NA,NA,NA,1,13,"likert"
"3975392668B548F4866ED6F1FAEC3C4B",1,"01990a98-6111-79f7-a630-e93c55104679","01990a84-c4ee-73c2-a87b-ff46a7d3dde5","2025-09-02_09h24.00.579",NA,NA,142.3714,142.3714,142.3714,142.7261,NA,NA,NA,NA,NA,NA,NA,TRUE,5,0.6452,139.3723,142.3712,0,13,13,88,1,100,46,NA,NA,NA,NA,NA,1,14,"likert"
"3975392668B548F4866ED6F1FAEC3C4B",1,"01990a98-6111-79f7-a630-e93c55104679","01990a84-c4ee-73c2-a87b-ff46a7d3dde5","2025-09-02_09h24.00.579",NA,NA,145.7213,145.7214,145.7214,146.0772,NA,NA,NA,NA,NA,NA,NA,TRUE,5,1.8641,142.7271,145.721,0,14,14,5,1,7,35,NA,NA,NA,NA,NA,1,15,"likert"
"3975392668B548F4866ED6F1FAEC3C4B",1,"01990a98-6111-79f7-a630-e93c55104679","01990a84-c4ee-73c2-a87b-ff46a7d3dde5","2025-09-02_09h24.00.579",NA,NA,149.0728,149.0728,149.0728,149.4267,NA,NA,NA,NA,NA,NA,NA,TRUE,5,1.6988,146.0781,149.0727,0,15,15,65,1,50,54,NA,NA,NA,NA,NA,1,16,"likert"
"3975392668B548F4866ED6F1FAEC3C4B",1,"01990a98-6111-79f7-a630-e93c55104679","01990a84-c4ee-73c2-a87b-ff46a7d3dde5","2025-09-02_09h24.00.579",NA,NA,152.4241,152.4241,152.4241,152.7709,NA,NA,NA,NA,NA,NA,NA,TRUE,5,1.6293,149.4276,152.4241,0,16,16,29,1,21,38,NA,NA,NA,NA,NA,1,17,"likert"
"3975392668B548F4866ED6F1FAEC3C4B",1,"01990a98-6111-79f7-a630-e93c55104679","01990a84-c4ee-73c2-a87b-ff46a7d3dde5","2025-09-02_09h24.00.579",NA,NA,155.7735,155.7735,155.7735,156.1263,NA,NA,NA,NA,NA,NA,NA,TRUE,5,0.9829,152.7724,155.7733,0,17,17,24,1,21,26,NA,NA,NA,NA,NA,1,18,"likert"
"3975392668B548F4866ED6F1FAEC3C4B",1,"01990a98-6111-79f7-a630-e93c55104679","01990a84-c4ee-73c2-a87b-ff46a7d3dde5","2025-09-02_09h24.00.579",NA,NA,159.1279,159.1279,159.1279,159.4773,NA,NA,NA,NA,NA,NA,NA,TRUE,5,0.7399,156.1274,159.1278,0,18,18,58,1,45,40,NA,NA,NA,NA,NA,1,19,"likert"
"3975392668B548F4866ED6F1FAEC3C4B",1,"01990a98-6111-79f7-a630-e93c55104679","01990a84-c4ee-73c2-a87b-ff46a7d3dde5","2025-09-02_09h24.00.579",NA,NA,162.4706,162.4707,162.4707,162.826,NA,NA,NA,NA,NA,NA,NA,TRUE,5,0.6076,159.4786,162.4705,0,19,19,49,1,40,33,NA,NA,NA,NA,NA,1,20,"likert"
"3975392668B548F4866ED6F1FAEC3C4B",1,"01990a98-6111-79f7-a630-e93c55104679","01990a84-c4ee-73c2-a87b-ff46a7d3dde5","2025-09-02_09h24.00.579",NA,NA,165.8249,165.8249,165.8249,166.1708,NA,NA,NA,NA,NA,NA,NA,TRUE,5,0.9494,162.8269,165.8248,0,20,20,38,1,28,32,NA,NA,NA,NA,NA,1,21,"likert"
"3975392668B548F4866ED6F1FAEC3C4B",1,"01990a98-6111-79f7-a630-e93c55104679","01990a84-c4ee-73c2-a87b-ff46a7d3dde5","2025-09-02_09h24.00.579",NA,NA,169.1711,169.1711,169.1711,169.5271,NA,NA,NA,NA,NA,NA,NA,TRUE,5,0.6,166.1724,169.1709,0,21,21,64,1,50,46,NA,NA,NA,NA,NA,1,22,"likert"
"3975392668B548F4866ED6F1FAEC3C4B",1,"01990a98-6111-79f7-a630-e93c55104679","01990a84-c4ee-73c2-a87b-ff46a7d3dde5","2025-09-02_09h24.00.579",NA,NA,172.5239,172.5239,172.5239,172.873,NA,NA,NA,NA,NA,NA,NA,TRUE,5,0.8552,169.528,172.5238,0,22,22,90,1,150,31,NA,NA,NA,NA,NA,1,23,"likert"
"3975392668B548F4866ED6F1FAEC3C4B",1,"01990a98-6111-79f7-a630-e93c55104679","01990a84-c4ee-73c2-a87b-ff46a7d3dde5","2025-09-02_09h24.00.579",NA,NA,175.8713,175.8714,175.8715,176.2206,NA,NA,NA,NA,NA,NA,NA,TRUE,5,1.1834,172.8745,175.8711,0,23,23,79,1,95,33,NA,NA,NA,NA,NA,1,24,"likert"
"3975392668B548F4866ED6F1FAEC3C4B",1,"01990a98-6111-79f7-a630-e93c55104679","01990a84-c4ee-73c2-a87b-ff46a7d3dde5","2025-09-02_09h24.00.579",NA,NA,179.2215,179.2216,179.2217,179.5757,NA,NA,NA,NA,NA,NA,NA,TRUE,5,0.3667,176.2221,179.2213,0,24,24,43,1,30,27,NA,NA,NA,NA,NA,1,25,"likert"
"3975392668B548F4866ED6F1FAEC3C4B",1,"01990a98-6111-79f7-a630-e93c55104679","01990a84-c4ee-73c2-a87b-ff46a7d3dde5","2025-09-02_09h24.00.579",NA,NA,182.5773,182.5774,182.5774,182.9208,NA,NA,NA,NA,NA,NA,NA,TRUE,5,0.2123,179.577,182.5773,0,25,25,95,1,150,54,NA,NA,NA,NA,NA,1,26,"likert"
"3975392668B548F4866ED6F1FAEC3C4B",1,"01990a98-6111-79f7-a630-e93c55104679","01990a84-c4ee-73c2-a87b-ff46a7d3dde5","2025-09-02_09h24.00.579",NA,NA,185.9213,185.9214,185.9214,186.2763,NA,NA,NA,NA,NA,NA,NA,TRUE,5,0.5248,182.9221,185.921,0,26,26,12,1,12,25,NA,NA,NA,NA,NA,1,27,"likert"
"3975392668B548F4866ED6F1FAEC3C4B",1,"01990a98-6111-79f7-a630-e93c55104679","01990a84-c4ee-73c2-a87b-ff46a7d3dde5","2025-09-02_09h24.00.579",NA,NA,189.2761,189.2761,189.2761,189.6261,NA,NA,NA,NA,NA,NA,NA,TRUE,5,0.7161,186.2771,189.2759,0,27,27,73,1,90,30,NA,NA,NA,NA,NA,1,28,"likert"
"3975392668B548F4866ED6F1FAEC3C4B",1,"01990a98-6111-79f7-a630-e93c55104679","01990a84-c4ee-73c2-a87b-ff46a7d3dde5","2025-09-02_09h24.00.579",NA,NA,192.6238,192.6238,192.6238,192.9708,NA,NA,NA,NA,NA,NA,NA,TRUE,5,0.7145,189.627,192.6231,0,28,28,17,1,12,35,NA,NA,NA,NA,NA,1,29,"likert"
"3975392668B548F4866ED6F1FAEC3C4B",1,"01990a98-6111-79f7-a630-e93c55104679","01990a84-c4ee-73c2-a87b-ff46a7d3dde5","2025-09-02_09h24.00.579",NA,NA,195.9767,195.9768,195.9768,196.3207,NA,NA,NA,NA,NA,NA,NA,TRUE,5,0.5495,192.9723,195.9767,0,29,29,50,1,40,35,NA,NA,NA,NA,NA,1,30,"likert"
"3975392668B548F4866ED6F1FAEC3C4B",1,"01990a98-6111-79f7-a630-e93c55104679","01990a84-c4ee-73c2-a87b-ff46a7d3dde5","2025-09-02_09h24.00.579",NA,NA,199.3264,199.3264,199.3264,199.6764,NA,NA,NA,NA,NA,NA,NA,TRUE,5,0.4169,196.3222,199.3263,0,30,30,54,1,45,26,NA,NA,NA,NA,NA,1,31,"likert"
"3975392668B548F4866ED6F1FAEC3C4B",1,"01990a98-6111-79f7-a630-e93c55104679","01990a84-c4ee-73c2-a87b-ff46a7d3dde5","2025-09-02_09h24.00.579",NA,NA,202.6761,202.6761,202.6761,203.0231,NA,NA,NA,NA,NA,NA,NA,TRUE,5,0.6229,199.677,202.6759,0,31,31,61,1,50,30,NA,NA,NA,NA,NA,1,32,"likert"
"3975392668B548F4866ED6F1FAEC3C4B",1,"01990a98-6111-79f7-a630-e93c55104679","01990a84-c4ee-73c2-a87b-ff46a7d3dde5","2025-09-02_09h24.00.579",NA,NA,206.0264,206.0264,206.0264,206.3705,NA,NA,NA,NA,NA,NA,NA,TRUE,5,0.7653,203.0251,206.0264,0,32,32,77,1,90,54,NA,NA,NA,NA,NA,1,33,"likert"
"3975392668B548F4866ED6F1FAEC3C4B",1,"01990a98-6111-79f7-a630-e93c55104679","01990a84-c4ee-73c2-a87b-ff46a7d3dde5","2025-09-02_09h24.00.579",NA,NA,209.3709,209.3709,209.3709,209.7279,NA,NA,NA,NA,NA,NA,NA,TRUE,5,0.4284,206.3723,209.3707,0,33,33,68,1,60,35,NA,NA,NA,NA,NA,1,34,"likert"
"3975392668B548F4866ED6F1FAEC3C4B",1,"01990a98-6111-79f7-a630-e93c55104679","01990a84-c4ee-73c2-a87b-ff46a7d3dde5","2025-09-02_09h24.00.579",NA,NA,212.7266,212.7266,212.7266,213.0768,NA,NA,NA,NA,NA,NA,NA,TRUE,5,0.5118,209.7296,212.7265,0,34,34,27,1,21,30,NA,NA,NA,NA,NA,1,35,"likert"
"3975392668B548F4866ED6F1FAEC3C4B",1,"01990a98-6111-79f7-a630-e93c55104679","01990a84-c4ee-73c2-a87b-ff46a7d3dde5","2025-09-02_09h24.00.579",NA,NA,216.0711,216.0715,216.0715,216.4206,NA,NA,NA,NA,NA,NA,NA,TRUE,5,0.648,213.0778,216.0707,0,35,35,22,1,14,35,NA,NA,NA,NA,NA,1,36,"likert"
"3975392668B548F4866ED6F1FAEC3C4B",1,"01990a98-6111-79f7-a630-e93c55104679","01990a84-c4ee-73c2-a87b-ff46a7d3dde5","2025-09-02_09h24.00.579",NA,NA,219.4209,219.421,219.421,219.7763,NA,NA,NA,NA,NA,NA,NA,TRUE,5,1.8102,216.422,219.4205,0,36,36,39,1,28,35,NA,NA,NA,NA,NA,1,37,"likert"
"3975392668B548F4866ED6F1FAEC3C4B",1,"01990a98-6111-79f7-a630-e93c55104679","01990a84-c4ee-73c2-a87b-ff46a7d3dde5","2025-09-02_09h24.00.579",NA,NA,222.7765,222.7765,222.7765,223.1258,NA,NA,NA,NA,NA,NA,NA,TRUE,5,0.4574,219.7772,222.7762,0,37,37,71,1,60,54,NA,NA,NA,NA,NA,1,38,"likert"
"3975392668B548F4866ED6F1FAEC3C4B",1,"01990a98-6111-79f7-a630-e93c55104679","01990a84-c4ee-73c2-a87b-ff46a7d3dde5","2025-09-02_09h24.00.579",NA,NA,226.1209,226.1209,226.1209,226.4757,NA,NA,NA,NA,NA,NA,NA,TRUE,5,0.4993,223.1269,226.1206,0,38,38,25,1,21,27,NA,NA,NA,NA,NA,1,39,"likert"
"3975392668B548F4866ED6F1FAEC3C4B",1,"01990a98-6111-79f7-a630-e93c55104679","01990a84-c4ee-73c2-a87b-ff46a7d3dde5","2025-09-02_09h24.00.579",NA,NA,229.4707,229.4708,229.4708,229.8266,NA,NA,NA,NA,NA,NA,NA,TRUE,5,0.3506,226.4765,229.4706,0,39,39,1,1,7,26,NA,NA,NA,NA,NA,1,40,"likert"
"3975392668B548F4866ED6F1FAEC3C4B",1,"01990a98-6111-79f7-a630-e93c55104679","01990a84-c4ee-73c2-a87b-ff46a7d3dde5","2025-09-02_09h24.00.579",NA,NA,232.8208,232.8208,232.8208,233.1705,NA,NA,NA,NA,NA,NA,NA,TRUE,5,0.3643,229.8273,232.8206,0,40,40,97,1,180,31,NA,NA,NA,NA,NA,1,41,"likert"
"3975392668B548F4866ED6F1FAEC3C4B",1,"01990a98-6111-79f7-a630-e93c55104679","01990a84-c4ee-73c2-a87b-ff46a7d3dde5","2025-09-02_09h24.00.579",NA,NA,236.1769,236.177,236.177,236.52,NA,NA,NA,NA,NA,NA,NA,TRUE,5,0.3071,233.1716,236.1767,0,41,41,35,1,25,46,NA,NA,NA,NA,NA,1,42,"likert"
"3975392668B548F4866ED6F1FAEC3C4B",1,"01990a98-6111-79f7-a630-e93c55104679","01990a84-c4ee-73c2-a87b-ff46a7d3dde5","2025-09-02_09h24.00.579",NA,NA,239.5208,239.5208,239.5209,239.8701,NA,NA,NA,NA,NA,NA,NA,TRUE,5,0.3674,236.5217,239.5205,0,42,42,2,1,7,28,NA,NA,NA,NA,NA,1,43,"likert"
"3975392668B548F4866ED6F1FAEC3C4B",1,"01990a98-6111-79f7-a630-e93c55104679","01990a84-c4ee-73c2-a87b-ff46a7d3dde5","2025-09-02_09h24.00.579",NA,NA,242.8707,242.8707,242.8707,243.2204,NA,NA,NA,NA,NA,NA,NA,TRUE,5,0.813,239.8723,242.8704,0,43,43,13,1,12,26,NA,NA,NA,NA,NA,1,44,"likert"
"3975392668B548F4866ED6F1FAEC3C4B",1,"01990a98-6111-79f7-a630-e93c55104679","01990a84-c4ee-73c2-a87b-ff46a7d3dde5","2025-09-02_09h24.00.579",NA,NA,246.2268,246.2271,246.2271,246.5702,NA,NA,NA,NA,NA,NA,NA,TRUE,5,0.4431,243.222,246.2266,0,44,44,89,1,100,54,NA,NA,NA,NA,NA,1,45,"likert"
"3975392668B548F4866ED6F1FAEC3C4B",1,"01990a98-6111-79f7-a630-e93c55104679","01990a84-c4ee-73c2-a87b-ff46a7d3dde5","2025-09-02_09h24.00.579",NA,NA,249.5706,249.5706,249.5706,249.9258,NA,NA,NA,NA,NA,NA,NA,TRUE,5,0.3508,246.5723,249.5703,0,45,45,44,1,30,29,NA,NA,NA,NA,NA,1,46,"likert"
"3975392668B548F4866ED6F1FAEC3C4B",1,"01990a98-6111-79f7-a630-e93c55104679","01990a84-c4ee-73c2-a87b-ff46a7d3dde5","2025-09-02_09h24.00.579",NA,NA,252.9261,252.9262,252.9262,253.2707,NA,NA,NA,NA,NA,NA,NA,TRUE,5,2.2162,249.9264,252.9261,0,46,46,8,1,10,27,NA,NA,NA,NA,NA,1,47,"likert"
"3975392668B548F4866ED6F1FAEC3C4B",1,"01990a98-6111-79f7-a630-e93c55104679","01990a84-c4ee-73c2-a87b-ff46a7d3dde5","2025-09-02_09h24.00.579",NA,NA,256.273,256.273,256.273,256.6257,NA,NA,NA,NA,NA,NA,NA,TRUE,5,0.9244,253.2726,256.2729,0,47,47,19,1,14,26,NA,NA,NA,NA,NA,1,48,"likert"
"3975392668B548F4866ED6F1FAEC3C4B",1,"01990a98-6111-79f7-a630-e93c55104679","01990a84-c4ee-73c2-a87b-ff46a7d3dde5","2025-09-02_09h24.00.579",NA,NA,259.6273,259.6274,259.6274,259.9763,NA,NA,NA,NA,NA,NA,NA,TRUE,5,1.0407,256.6265,259.627,0,48,48,83,1,95,54,NA,NA,NA,NA,NA,1,49,"likert"
"3975392668B548F4866ED6F1FAEC3C4B",1,"01990a98-6111-79f7-a630-e93c55104679","01990a84-c4ee-73c2-a87b-ff46a7d3dde5","2025-09-02_09h24.00.579",NA,NA,262.9704,262.9705,262.9705,263.32,NA,NA,NA,NA,NA,NA,NA,TRUE,5,0.6666,259.9775,262.9701,0,49,49,0,1,7,25,NA,NA,NA,NA,NA,1,50,"likert"
"3975392668B548F4866ED6F1FAEC3C4B",1,"01990a98-6111-79f7-a630-e93c55104679","01990a84-c4ee-73c2-a87b-ff46a7d3dde5","2025-09-02_09h24.00.579",NA,NA,266.3213,266.3213,266.3213,266.6702,NA,NA,NA,NA,NA,NA,NA,TRUE,5,0.6656,263.3221,266.3209,0,50,50,40,1,28,39,NA,NA,NA,NA,NA,1,51,"likert"
"3975392668B548F4866ED6F1FAEC3C4B",1,"01990a98-6111-79f7-a630-e93c55104679","01990a84-c4ee-73c2-a87b-ff46a7d3dde5","2025-09-02_09h24.00.579",NA,NA,269.6768,269.6768,269.6768,270.0259,NA,NA,NA,NA,NA,NA,NA,TRUE,5,0.6799,266.6714,269.6766,0,51,51,62,1,50,35,NA,NA,NA,NA,NA,1,52,"likert"
"3975392668B548F4866ED6F1FAEC3C4B",1,"01990a98-6111-79f7-a630-e93c55104679","01990a84-c4ee-73c2-a87b-ff46a7d3dde5","2025-09-02_09h24.00.579",NA,NA,273.0227,273.0228,273.0229,273.3703,NA,NA,NA,NA,NA,NA,NA,TRUE,5,0.7465,270.0272,273.0226,0,52,52,21,1,14,32,NA,NA,NA,NA,NA,1,53,"likert"
"3975392668B548F4866ED6F1FAEC3C4B",1,"01990a98-6111-79f7-a630-e93c55104679","01990a84-c4ee-73c2-a87b-ff46a7d3dde5","2025-09-02_09h24.00.579",NA,NA,276.3704,276.3704,276.3705,276.7205,NA,NA,NA,NA,NA,NA,NA,TRUE,5,1.1515,273.3716,276.3703,0,53,53,59,1,45,46,NA,NA,NA,NA,NA,1,54,"likert"
"3975392668B548F4866ED6F1FAEC3C4B",1,"01990a98-6111-79f7-a630-e93c55104679","01990a84-c4ee-73c2-a87b-ff46a7d3dde5","2025-09-02_09h24.00.579",NA,NA,279.7211,279.7211,279.7211,280.0755,NA,NA,NA,NA,NA,NA,NA,TRUE,5,0.7164,276.7221,279.7209,0,54,54,28,1,21,32,NA,NA,NA,NA,NA,1,55,"likert"
"3975392668B548F4866ED6F1FAEC3C4B",1,"01990a98-6111-79f7-a630-e93c55104679","01990a84-c4ee-73c2-a87b-ff46a7d3dde5","2025-09-02_09h24.00.579",NA,NA,283.0703,283.0704,283.0704,283.4259,NA,NA,NA,NA,NA,NA,NA,TRUE,5,1.4006,280.0766,283.07,0,55,55,98,1,180,35,NA,NA,NA,NA,NA,1,56,"likert"
"3975392668B548F4866ED6F1FAEC3C4B",1,"01990a98-6111-79f7-a630-e93c55104679","01990a84-c4ee-73c2-a87b-ff46a7d3dde5","2025-09-02_09h24.00.579",NA,NA,286.4259,286.4259,286.4259,286.7701,NA,NA,NA,NA,NA,NA,NA,TRUE,5,0.5742,283.4267,286.4259,0,56,56,80,1,95,35,NA,NA,NA,NA,NA,1,57,"likert"
"3975392668B548F4866ED6F1FAEC3C4B",1,"01990a98-6111-79f7-a630-e93c55104679","01990a84-c4ee-73c2-a87b-ff46a7d3dde5","2025-09-02_09h24.00.579",NA,NA,289.7761,289.7761,289.7761,290.1199,NA,NA,NA,NA,NA,NA,NA,TRUE,5,1.1837,286.7717,289.7759,0,57,57,52,1,40,47,NA,NA,NA,NA,NA,1,58,"likert"
"3975392668B548F4866ED6F1FAEC3C4B",1,"01990a98-6111-79f7-a630-e93c55104679","01990a84-c4ee-73c2-a87b-ff46a7d3dde5","2025-09-02_09h24.00.579",NA,NA,293.1212,293.1212,293.1212,293.4756,NA,NA,NA,NA,NA,NA,NA,TRUE,5,1.2616,290.1217,293.1203,0,58,58,56,1,45,31,NA,NA,NA,NA,NA,1,59,"likert"
"3975392668B548F4866ED6F1FAEC3C4B",1,"01990a98-6111-79f7-a630-e93c55104679","01990a84-c4ee-73c2-a87b-ff46a7d3dde5","2025-09-02_09h24.00.579",NA,NA,296.4758,296.476,296.476,296.8244,NA,NA,NA,NA,NA,NA,NA,TRUE,5,0.5011,293.4769,296.4757,0,59,59,87,1,100,39,NA,NA,NA,NA,NA,1,60,"likert"
"3975392668B548F4866ED6F1FAEC3C4B",1,"01990a98-6111-79f7-a630-e93c55104679","01990a84-c4ee-73c2-a87b-ff46a7d3dde5","2025-09-02_09h24.00.579",NA,NA,299.8259,299.826,299.8261,300.1701,NA,NA,NA,NA,NA,NA,NA,TRUE,5,0.1833,296.8257,299.8259,0,60,60,102,1,200,26,NA,NA,NA,NA,NA,1,61,"likert"
"3975392668B548F4866ED6F1FAEC3C4B",1,"01990a98-6111-79f7-a630-e93c55104679","01990a84-c4ee-73c2-a87b-ff46a7d3dde5","2025-09-02_09h24.00.579",NA,NA,303.1703,303.1703,303.1704,303.5205,NA,NA,NA,NA,NA,NA,NA,TRUE,5,0.1992,300.1721,303.1699,0,61,61,103,1,200,28,NA,NA,NA,NA,NA,1,62,"likert"
"3975392668B548F4866ED6F1FAEC3C4B",1,"01990a98-6111-79f7-a630-e93c55104679","01990a84-c4ee-73c2-a87b-ff46a7d3dde5","2025-09-02_09h24.00.579",NA,NA,306.5256,306.5257,306.5257,306.8762,NA,NA,NA,NA,NA,NA,NA,TRUE,5,0.3177,303.5224,306.5256,0,62,62,42,1,30,26,NA,NA,NA,NA,NA,1,63,"likert"
"3975392668B548F4866ED6F1FAEC3C4B",1,"01990a98-6111-79f7-a630-e93c55104679","01990a84-c4ee-73c2-a87b-ff46a7d3dde5","2025-09-02_09h24.00.579",NA,NA,309.8708,309.8708,309.8708,310.2254,NA,NA,NA,NA,NA,NA,NA,TRUE,5,0.2165,306.8773,309.8705,0,63,63,30,1,25,27,NA,NA,NA,NA,NA,1,64,"likert"
"3975392668B548F4866ED6F1FAEC3C4B",1,"01990a98-6111-79f7-a630-e93c55104679","01990a84-c4ee-73c2-a87b-ff46a7d3dde5","2025-09-02_09h24.00.579",NA,NA,313.2202,313.2202,313.2203,313.5703,NA,NA,NA,NA,NA,NA,NA,TRUE,5,0.3302,310.2265,313.22,0,64,64,55,1,45,29,NA,NA,NA,NA,NA,1,65,"likert"
"3975392668B548F4866ED6F1FAEC3C4B",1,"01990a98-6111-79f7-a630-e93c55104679","01990a84-c4ee-73c2-a87b-ff46a7d3dde5","2025-09-02_09h24.00.579",NA,NA,316.5743,316.5743,316.5743,316.9255,NA,NA,NA,NA,NA,NA,NA,TRUE,5,0.1328,313.5718,316.5742,0,65,65,106,1,200,47,NA,NA,NA,NA,NA,1,66,"likert"
"3975392668B548F4866ED6F1FAEC3C4B",1,"01990a98-6111-79f7-a630-e93c55104679","01990a84-c4ee-73c2-a87b-ff46a7d3dde5","2025-09-02_09h24.00.579",NA,NA,319.9244,319.9244,319.9244,320.276,NA,NA,NA,NA,NA,NA,NA,TRUE,5,0.375,316.9265,319.9244,0,66,66,33,1,25,33,NA,NA,NA,NA,NA,1,67,"likert"
"3975392668B548F4866ED6F1FAEC3C4B",1,"01990a98-6111-79f7-a630-e93c55104679","01990a84-c4ee-73c2-a87b-ff46a7d3dde5","2025-09-02_09h24.00.579",NA,NA,323.2707,323.2708,323.2708,323.626,NA,NA,NA,NA,NA,NA,NA,TRUE,5,0.2088,320.2767,323.2704,0,67,67,84,1,100,26,NA,NA,NA,NA,NA,1,68,"likert"
"3975392668B548F4866ED6F1FAEC3C4B",1,"01990a98-6111-79f7-a630-e93c55104679","01990a84-c4ee-73c2-a87b-ff46a7d3dde5","2025-09-02_09h24.00.579",NA,NA,326.6221,326.8696,326.8696,326.9697,NA,NA,NA,NA,NA,NA,NA,FALSE,NA,NA,323.6269,326.622,0,68,68,69,1,60,40,NA,NA,NA,NA,NA,1,69,"likert"
"3975392668B548F4866ED6F1FAEC3C4B",1,"01990a98-6111-79f7-a630-e93c55104679","01990a84-c4ee-73c2-a87b-ff46a7d3dde5","2025-09-02_09h24.00.579",NA,NA,329.9755,330.2238,330.2238,330.3274,NA,NA,NA,NA,NA,NA,NA,FALSE,NA,NA,326.9709,329.9754,0,69,69,4,1,7,32,NA,NA,NA,NA,NA,1,70,"likert"
"3975392668B548F4866ED6F1FAEC3C4B",1,"01990a98-6111-79f7-a630-e93c55104679","01990a84-c4ee-73c2-a87b-ff46a7d3dde5","2025-09-02_09h24.00.579",NA,NA,333.3253,333.5697,333.5699,333.675,NA,NA,NA,NA,NA,NA,NA,FALSE,NA,NA,330.3282,333.3252,0,70,70,72,1,90,26,NA,NA,NA,NA,NA,1,71,"likert"
"3975392668B548F4866ED6F1FAEC3C4B",1,"01990a98-6111-79f7-a630-e93c55104679","01990a84-c4ee-73c2-a87b-ff46a7d3dde5","2025-09-02_09h24.00.579",NA,NA,336.67,336.9197,336.9198,337.0242,NA,NA,NA,NA,NA,NA,NA,FALSE,NA,NA,333.6755,336.6698,0,71,71,66,1,60,29,NA,NA,NA,NA,NA,1,72,"likert"
"3975392668B548F4866ED6F1FAEC3C4B",1,"01990a98-6111-79f7-a630-e93c55104679","01990a84-c4ee-73c2-a87b-ff46a7d3dde5","2025-09-02_09h24.00.579",NA,NA,340.0245,340.27,340.27,340.3699,NA,NA,NA,NA,NA,NA,NA,FALSE,NA,NA,337.0256,340.0243,0,72,72,99,1,180,39,NA,NA,NA,NA,NA,1,73,"likert"
"3975392668B548F4866ED6F1FAEC3C4B",1,"01990a98-6111-79f7-a630-e93c55104679","01990a84-c4ee-73c2-a87b-ff46a7d3dde5","2025-09-02_09h24.00.579",NA,NA,343.3708,343.6199,343.6199,343.7194,NA,NA,NA,NA,NA,NA,NA,FALSE,NA,NA,340.3715,343.3704,0,73,73,85,1,100,31,NA,NA,NA,NA,NA,1,74,"likert"
"3975392668B548F4866ED6F1FAEC3C4B",1,"01990a98-6111-79f7-a630-e93c55104679","01990a84-c4ee-73c2-a87b-ff46a7d3dde5","2025-09-02_09h24.00.579",NA,NA,346.7251,346.7251,346.7251,347.0758,NA,NA,NA,NA,NA,NA,NA,TRUE,5,1.3042,343.7211,346.725,0,74,74,46,1,30,32,NA,NA,NA,NA,NA,1,75,"likert"
"3975392668B548F4866ED6F1FAEC3C4B",1,"01990a98-6111-79f7-a630-e93c55104679","01990a84-c4ee-73c2-a87b-ff46a7d3dde5","2025-09-02_09h24.00.579",NA,NA,350.076,350.076,350.076,350.4198,NA,NA,NA,NA,NA,NA,NA,TRUE,5,0.1063,347.0768,350.0759,0,75,75,36,1,28,26,NA,NA,NA,NA,NA,1,76,"likert"
"3975392668B548F4866ED6F1FAEC3C4B",1,"01990a98-6111-79f7-a630-e93c55104679","01990a84-c4ee-73c2-a87b-ff46a7d3dde5","2025-09-02_09h24.00.579",NA,NA,353.4264,353.4264,353.4264,353.7699,NA,NA,NA,NA,NA,NA,NA,TRUE,5,0.3725,350.4214,353.426,0,76,76,41,1,28,46,NA,NA,NA,NA,NA,1,77,"likert"
"3975392668B548F4866ED6F1FAEC3C4B",1,"01990a98-6111-79f7-a630-e93c55104679","01990a84-c4ee-73c2-a87b-ff46a7d3dde5","2025-09-02_09h24.00.579",NA,NA,356.7759,356.776,356.776,357.12,NA,NA,NA,NA,NA,NA,NA,TRUE,5,0.4848,353.7712,356.7759,0,77,77,101,1,180,54,NA,NA,NA,NA,NA,1,78,"likert"
"3975392668B548F4866ED6F1FAEC3C4B",1,"01990a98-6111-79f7-a630-e93c55104679","01990a84-c4ee-73c2-a87b-ff46a7d3dde5","2025-09-02_09h24.00.579",NA,NA,360.1258,360.1259,360.126,360.4702,NA,NA,NA,NA,NA,NA,NA,TRUE,5,0.1663,357.1215,360.1258,0,78,78,57,1,45,35,NA,NA,NA,NA,NA,1,79,"likert"
"3975392668B548F4866ED6F1FAEC3C4B",1,"01990a98-6111-79f7-a630-e93c55104679","01990a84-c4ee-73c2-a87b-ff46a7d3dde5","2025-09-02_09h24.00.579",NA,NA,363.4764,363.4764,363.4765,363.8241,NA,NA,NA,NA,NA,NA,NA,TRUE,5,0.6536,360.4717,363.4763,0,79,79,92,1,150,35,NA,NA,NA,NA,NA,1,80,"likert"
"3975392668B548F4866ED6F1FAEC3C4B",1,"01990a98-6111-79f7-a630-e93c55104679","01990a84-c4ee-73c2-a87b-ff46a7d3dde5","2025-09-02_09h24.00.579",NA,NA,366.8199,366.82,366.8201,367.1698,NA,NA,NA,NA,NA,NA,NA,TRUE,5,0.2832,363.8256,366.8197,0,80,80,15,1,12,31,NA,NA,NA,NA,NA,1,81,"likert"
"3975392668B548F4866ED6F1FAEC3C4B",1,"01990a98-6111-79f7-a630-e93c55104679","01990a84-c4ee-73c2-a87b-ff46a7d3dde5","2025-09-02_09h24.00.579",NA,NA,370.1758,370.1758,370.1758,370.5252,NA,NA,NA,NA,NA,NA,NA,TRUE,5,2.872,367.1712,370.1758,0,81,81,23,1,14,39,NA,NA,NA,NA,NA,1,82,"likert"
"3975392668B548F4866ED6F1FAEC3C4B",1,"01990a98-6111-79f7-a630-e93c55104679","01990a84-c4ee-73c2-a87b-ff46a7d3dde5","2025-09-02_09h24.00.579",NA,NA,373.5254,373.7698,373.7698,373.8724,NA,NA,NA,NA,NA,NA,NA,FALSE,NA,NA,370.5259,373.5254,0,82,82,14,1,12,28,NA,NA,NA,NA,NA,1,83,"likert"
"3975392668B548F4866ED6F1FAEC3C4B",1,"01990a98-6111-79f7-a630-e93c55104679","01990a84-c4ee-73c2-a87b-ff46a7d3dde5","2025-09-02_09h24.00.579",NA,NA,376.876,376.8761,376.8761,377.2238,NA,NA,NA,NA,NA,NA,NA,TRUE,5,0.5561,373.8734,376.8759,0,83,83,53,1,40,54,NA,NA,NA,NA,NA,1,84,"likert"
"3975392668B548F4866ED6F1FAEC3C4B",1,"01990a98-6111-79f7-a630-e93c55104679","01990a84-c4ee-73c2-a87b-ff46a7d3dde5","2025-09-02_09h24.00.579",NA,NA,380.224,380.224,380.224,380.5699,NA,NA,NA,NA,NA,NA,NA,TRUE,5,0.3087,377.2251,380.224,0,84,84,78,1,95,31,NA,NA,NA,NA,NA,1,85,"likert"
"3975392668B548F4866ED6F1FAEC3C4B",1,"01990a98-6111-79f7-a630-e93c55104679","01990a84-c4ee-73c2-a87b-ff46a7d3dde5","2025-09-02_09h24.00.579",NA,NA,383.5702,383.5702,383.5702,383.9201,NA,NA,NA,NA,NA,NA,NA,TRUE,5,0.5836,380.5719,383.57,0,85,85,91,1,150,33,NA,NA,NA,NA,NA,1,86,"likert"
"3975392668B548F4866ED6F1FAEC3C4B",1,"01990a98-6111-79f7-a630-e93c55104679","01990a84-c4ee-73c2-a87b-ff46a7d3dde5","2025-09-02_09h24.00.579",NA,NA,386.9199,386.9201,386.9201,387.272,NA,NA,NA,NA,NA,NA,NA,TRUE,5,0.4007,383.9213,386.9195,0,86,86,74,1,90,33,NA,NA,NA,NA,NA,1,87,"likert"
"3975392668B548F4866ED6F1FAEC3C4B",1,"01990a98-6111-79f7-a630-e93c55104679","01990a84-c4ee-73c2-a87b-ff46a7d3dde5","2025-09-02_09h24.00.579",NA,NA,390.2764,390.2764,390.2764,390.6196,NA,NA,NA,NA,NA,NA,NA,TRUE,5,0.0486,387.273,390.2762,0,87,87,37,1,28,28,NA,NA,NA,NA,NA,1,88,"likert"
"3975392668B548F4866ED6F1FAEC3C4B",1,"01990a98-6111-79f7-a630-e93c55104679","01990a84-c4ee-73c2-a87b-ff46a7d3dde5","2025-09-02_09h24.00.579",NA,NA,393.6197,393.6198,393.6198,393.9697,NA,NA,NA,NA,NA,NA,NA,TRUE,5,0.3174,390.6211,393.6194,0,88,88,11,1,10,32,NA,NA,NA,NA,NA,1,89,"likert"
"3975392668B548F4866ED6F1FAEC3C4B",1,"01990a98-6111-79f7-a630-e93c55104679","01990a84-c4ee-73c2-a87b-ff46a7d3dde5","2025-09-02_09h24.00.579",NA,NA,396.9702,396.9702,396.9702,397.3196,NA,NA,NA,NA,NA,NA,NA,TRUE,5,0.7741,393.9712,396.9699,0,89,89,26,1,21,29,NA,NA,NA,NA,NA,1,90,"likert"
"3975392668B548F4866ED6F1FAEC3C4B",1,"01990a98-6111-79f7-a630-e93c55104679","01990a84-c4ee-73c2-a87b-ff46a7d3dde5","2025-09-02_09h24.00.579",NA,NA,400.3201,400.3201,400.3201,400.6698,NA,NA,NA,NA,NA,NA,NA,TRUE,5,0.6938,397.3214,400.3198,0,90,90,104,1,200,35,NA,NA,NA,NA,NA,1,91,"likert"
"3975392668B548F4866ED6F1FAEC3C4B",1,"01990a98-6111-79f7-a630-e93c55104679","01990a84-c4ee-73c2-a87b-ff46a7d3dde5","2025-09-02_09h24.00.579",NA,NA,403.6775,403.9198,403.9198,404.0194,NA,NA,NA,NA,NA,NA,NA,FALSE,NA,NA,400.6713,403.6775,0,91,91,100,1,180,46,NA,NA,NA,NA,NA,1,92,"likert"
"3975392668B548F4866ED6F1FAEC3C4B",1,"01990a98-6111-79f7-a630-e93c55104679","01990a84-c4ee-73c2-a87b-ff46a7d3dde5","2025-09-02_09h24.00.579",NA,NA,407.025,407.269,407.2691,407.3695,NA,NA,NA,NA,NA,NA,NA,FALSE,NA,NA,404.0211,407.0249,0,92,92,7,1,10,26,NA,NA,NA,NA,NA,1,93,"likert"
"3975392668B548F4866ED6F1FAEC3C4B",1,"01990a98-6111-79f7-a630-e93c55104679","01990a84-c4ee-73c2-a87b-ff46a7d3dde5","2025-09-02_09h24.00.579",NA,NA,410.3696,410.6194,410.6194,410.7193,NA,NA,NA,NA,NA,NA,NA,FALSE,NA,NA,407.3709,410.3695,0,93,93,45,1,30,30,NA,NA,NA,NA,NA,1,94,"likert"
"3975392668B548F4866ED6F1FAEC3C4B",1,"01990a98-6111-79f7-a630-e93c55104679","01990a84-c4ee-73c2-a87b-ff46a7d3dde5","2025-09-02_09h24.00.579",NA,NA,413.7194,413.9697,413.9697,414.0693,NA,NA,NA,NA,NA,NA,NA,FALSE,NA,NA,410.7195,413.7193,0,94,94,10,1,10,30,NA,NA,NA,NA,NA,1,95,"likert"
"3975392668B548F4866ED6F1FAEC3C4B",1,"01990a98-6111-79f7-a630-e93c55104679","01990a84-c4ee-73c2-a87b-ff46a7d3dde5","2025-09-02_09h24.00.579",NA,NA,417.0693,417.3191,417.3192,417.4193,NA,NA,NA,NA,NA,NA,NA,FALSE,NA,NA,414.0705,417.0693,0,95,95,76,1,90,46,NA,NA,NA,NA,NA,1,96,"likert"
"3975392668B548F4866ED6F1FAEC3C4B",1,"01990a98-6111-79f7-a630-e93c55104679","01990a84-c4ee-73c2-a87b-ff46a7d3dde5","2025-09-02_09h24.00.579",NA,NA,420.4194,420.4194,420.4195,420.7694,NA,NA,NA,NA,NA,NA,NA,TRUE,5,2.5654,417.4202,420.4192,0,96,96,81,1,95,40,NA,NA,NA,NA,NA,1,97,"likert"
"3975392668B548F4866ED6F1FAEC3C4B",1,"01990a98-6111-79f7-a630-e93c55104679","01990a84-c4ee-73c2-a87b-ff46a7d3dde5","2025-09-02_09h24.00.579",NA,NA,423.7695,423.7695,423.7695,424.1195,NA,NA,NA,NA,NA,NA,NA,TRUE,5,0.4552,420.7698,423.7694,0,97,97,107,1,200,54,NA,NA,NA,NA,NA,1,98,"likert"
"3975392668B548F4866ED6F1FAEC3C4B",1,"01990a98-6111-79f7-a630-e93c55104679","01990a84-c4ee-73c2-a87b-ff46a7d3dde5","2025-09-02_09h24.00.579",NA,NA,427.1193,427.1193,427.1193,427.4695,NA,NA,NA,NA,NA,NA,NA,TRUE,5,0.0544,424.12,427.1193,0,98,98,9,1,10,29,NA,NA,NA,NA,NA,1,99,"likert"
"3975392668B548F4866ED6F1FAEC3C4B",1,"01990a98-6111-79f7-a630-e93c55104679","01990a84-c4ee-73c2-a87b-ff46a7d3dde5","2025-09-02_09h24.00.579",NA,NA,430.4694,430.4694,430.4694,430.8192,NA,NA,NA,NA,NA,NA,NA,TRUE,5,0.0184,427.4699,430.4693,0,99,99,16,1,12,33,NA,NA,NA,NA,NA,1,100,"likert"
"3975392668B548F4866ED6F1FAEC3C4B",1,"01990a98-6111-79f7-a630-e93c55104679","01990a84-c4ee-73c2-a87b-ff46a7d3dde5","2025-09-02_09h24.00.579",NA,NA,433.8191,433.8192,433.8192,434.1692,NA,NA,NA,NA,NA,NA,NA,TRUE,5,2.9649,430.8198,433.8191,0,100,100,94,1,150,47,NA,NA,NA,NA,NA,1,101,"likert"
"3975392668B548F4866ED6F1FAEC3C4B",1,"01990a98-6111-79f7-a630-e93c55104679","01990a84-c4ee-73c2-a87b-ff46a7d3dde5","2025-09-02_09h24.00.579",NA,NA,437.1692,437.1693,437.1693,437.5192,NA,NA,NA,NA,NA,NA,NA,TRUE,5,0.0265,434.1697,437.1692,0,101,101,105,1,200,39,NA,NA,NA,NA,NA,1,102,"likert"
"3975392668B548F4866ED6F1FAEC3C4B",1,"01990a98-6111-79f7-a630-e93c55104679","01990a84-c4ee-73c2-a87b-ff46a7d3dde5","2025-09-02_09h24.00.579",NA,NA,440.5195,440.5195,440.5195,440.8692,NA,NA,NA,NA,NA,NA,NA,TRUE,5,2.9656,437.52,440.5194,0,102,102,31,1,25,29,NA,NA,NA,NA,NA,1,103,"likert"
"3975392668B548F4866ED6F1FAEC3C4B",1,"01990a98-6111-79f7-a630-e93c55104679","01990a84-c4ee-73c2-a87b-ff46a7d3dde5","2025-09-02_09h24.00.579",NA,NA,443.9682,443.9888,443.9888,444.2189,NA,NA,NA,NA,NA,NA,NA,FALSE,NA,NA,440.8697,443.9681,0,103,103,48,1,40,27,NA,NA,NA,NA,NA,1,104,"likert"
"3975392668B548F4866ED6F1FAEC3C4B",1,"01990a98-6111-79f7-a630-e93c55104679","01990a84-c4ee-73c2-a87b-ff46a7d3dde5","2025-09-02_09h24.00.579",NA,NA,447.6672,447.6672,447.6672,447.6672,NA,NA,NA,NA,NA,NA,NA,FALSE,NA,NA,444.2199,447.6671,0,104,104,18,1,14,25,NA,NA,NA,NA,NA,1,105,"likert"
"3975392668B548F4866ED6F1FAEC3C4B",1,"01990a98-6111-79f7-a630-e93c55104679","01990a84-c4ee-73c2-a87b-ff46a7d3dde5","2025-09-02_09h24.00.579",NA,NA,450.5706,450.5706,450.5706,450.9202,NA,NA,NA,NA,NA,NA,NA,TRUE,5,1.1452,447.6846,450.5705,0,105,105,47,1,30,38,NA,NA,NA,NA,NA,1,106,"likert"
"3975392668B548F4866ED6F1FAEC3C4B",1,"01990a98-6111-79f7-a630-e93c55104679","01990a84-c4ee-73c2-a87b-ff46a7d3dde5","2025-09-02_09h24.00.579",NA,NA,453.9191,453.9191,453.9192,454.2691,NA,NA,NA,NA,NA,NA,NA,TRUE,4,1.6838,450.9208,453.919,0,106,106,51,1,40,40,NA,NA,NA,NA,NA,1,107,"likert"
"3975392668B548F4866ED6F1FAEC3C4B",1,"01990a98-6111-79f7-a630-e93c55104679","01990a84-c4ee-73c2-a87b-ff46a7d3dde5","2025-09-02_09h24.00.579",NA,NA,457.2704,457.2705,457.2705,457.6203,NA,NA,NA,NA,NA,NA,NA,TRUE,5,1.085,454.2702,457.2703,0,107,107,34,1,25,35,NA,NA,NA,NA,NA,1,108,"likert"
"3975392668B548F4866ED6F1FAEC3C4B",1,"01990a98-6111-79f7-a630-e93c55104679","01990a84-c4ee-73c2-a87b-ff46a7d3dde5","2025-09-02_09h24.00.579",NA,NA,464.3036,464.3037,464.3037,464.6535,NA,NA,NA,NA,NA,NA,NA,TRUE,5,1.5202,461.3109,464.3036,NA,NA,NA,NA,NA,10,25,0,0,0,6,1,2,1,"likert"
"3975392668B548F4866ED6F1FAEC3C4B",1,"01990a98-6111-79f7-a630-e93c55104679","01990a84-c4ee-73c2-a87b-ff46a7d3dde5","2025-09-02_09h24.00.579",NA,NA,467.6539,467.654,467.654,468.0036,NA,NA,NA,NA,NA,NA,NA,TRUE,4,1.8373,464.6542,467.6538,NA,NA,NA,NA,NA,60,33,0,1,1,67,1,2,2,"likert"
"3975392668B548F4866ED6F1FAEC3C4B",1,"01990a98-6111-79f7-a630-e93c55104679","01990a84-c4ee-73c2-a87b-ff46a7d3dde5","2025-09-02_09h24.00.579",NA,NA,471.0031,471.0033,471.0033,471.3536,NA,NA,NA,NA,NA,NA,NA,TRUE,3,2.0323,468.0042,471.0031,NA,NA,NA,NA,NA,90,46,0,2,2,76,1,2,3,"likert"
"3975392668B548F4866ED6F1FAEC3C4B",1,"01990a98-6111-79f7-a630-e93c55104679","01990a84-c4ee-73c2-a87b-ff46a7d3dde5","2025-09-02_09h24.00.579",NA,NA,474.3524,474.3524,474.3524,474.7037,NA,NA,NA,NA,NA,NA,NA,TRUE,3,1.786,471.3543,474.3523,NA,NA,NA,NA,NA,180,35,0,3,3,98,1,2,4,"likert"
"3975392668B548F4866ED6F1FAEC3C4B",1,"01990a98-6111-79f7-a630-e93c55104679","01990a84-c4ee-73c2-a87b-ff46a7d3dde5","2025-09-02_09h24.00.579",NA,NA,477.7052,477.7053,477.7053,478.0535,NA,NA,NA,NA,NA,NA,NA,TRUE,2,1.2223,474.7043,477.7048,NA,NA,NA,NA,NA,200,26,0,4,4,102,1,2,5,"likert"
"3975392668B548F4866ED6F1FAEC3C4B",1,"01990a98-6111-79f7-a630-e93c55104679","01990a84-c4ee-73c2-a87b-ff46a7d3dde5","2025-09-02_09h24.00.579",NA,NA,481.0526,481.0526,481.0526,481.4036,NA,NA,NA,NA,NA,NA,NA,TRUE,5,1.4327,478.0543,481.0525,NA,NA,NA,NA,NA,21,26,0,5,5,24,1,2,6,"likert"
"3975392668B548F4866ED6F1FAEC3C4B",1,"01990a98-6111-79f7-a630-e93c55104679","01990a84-c4ee-73c2-a87b-ff46a7d3dde5","2025-09-02_09h24.00.579",NA,NA,484.4036,484.4036,484.4036,484.7536,NA,NA,NA,NA,NA,NA,NA,TRUE,5,0.9498,481.4042,484.4035,NA,NA,NA,NA,NA,7,26,0,6,6,1,1,2,7,"likert"
"3975392668B548F4866ED6F1FAEC3C4B",1,"01990a98-6111-79f7-a630-e93c55104679","01990a84-c4ee-73c2-a87b-ff46a7d3dde5","2025-09-02_09h24.00.579",NA,NA,487.7528,487.7528,487.7528,488.1026,NA,NA,NA,NA,NA,NA,NA,TRUE,5,0.5039,484.7543,487.7525,NA,NA,NA,NA,NA,10,30,0,7,7,10,1,2,8,"likert"
"3975392668B548F4866ED6F1FAEC3C4B",1,"01990a98-6111-79f7-a630-e93c55104679","01990a84-c4ee-73c2-a87b-ff46a7d3dde5","2025-09-02_09h24.00.579",NA,NA,491.1028,491.1029,491.1029,491.4535,NA,NA,NA,NA,NA,NA,NA,TRUE,3,1.4421,488.1036,491.1025,NA,NA,NA,NA,NA,60,54,0,8,8,71,1,2,9,"likert"
"3975392668B548F4866ED6F1FAEC3C4B",1,"01990a98-6111-79f7-a630-e93c55104679","01990a84-c4ee-73c2-a87b-ff46a7d3dde5","2025-09-02_09h24.00.579",NA,NA,494.4551,494.4552,494.4552,494.8034,NA,NA,NA,NA,NA,NA,NA,TRUE,3,1.8271,491.4541,494.4548,NA,NA,NA,NA,NA,95,54,0,9,9,83,1,2,10,"likert"
"3975392668B548F4866ED6F1FAEC3C4B",1,"01990a98-6111-79f7-a630-e93c55104679","01990a84-c4ee-73c2-a87b-ff46a7d3dde5","2025-09-02_09h24.00.579",NA,NA,497.8024,497.8025,497.8025,498.1535,NA,NA,NA,NA,NA,NA,NA,TRUE,3,0.8539,494.8042,497.8024,NA,NA,NA,NA,NA,95,40,0,10,10,81,1,2,11,"likert"
"3975392668B548F4866ED6F1FAEC3C4B",1,"01990a98-6111-79f7-a630-e93c55104679","01990a84-c4ee-73c2-a87b-ff46a7d3dde5","2025-09-02_09h24.00.579",NA,NA,501.1535,501.1535,501.1535,501.5032,NA,NA,NA,NA,NA,NA,NA,TRUE,5,1.318,498.1541,501.1535,NA,NA,NA,NA,NA,7,28,0,11,11,2,1,2,12,"likert"
"3975392668B548F4866ED6F1FAEC3C4B",1,"01990a98-6111-79f7-a630-e93c55104679","01990a84-c4ee-73c2-a87b-ff46a7d3dde5","2025-09-02_09h24.00.579",NA,NA,504.5034,504.5034,504.5034,504.8533,NA,NA,NA,NA,NA,NA,NA,TRUE,5,0.6165,501.5039,504.5033,NA,NA,NA,NA,NA,10,27,0,12,12,8,1,2,13,"likert"
"3975392668B548F4866ED6F1FAEC3C4B",1,"01990a98-6111-79f7-a630-e93c55104679","01990a84-c4ee-73c2-a87b-ff46a7d3dde5","2025-09-02_09h24.00.579",NA,NA,507.8527,507.8528,507.853,508.2019,NA,NA,NA,NA,NA,NA,NA,TRUE,3,0.8331,504.854,507.8525,NA,NA,NA,NA,NA,40,27,0,13,13,48,1,2,14,"likert"
"3975392668B548F4866ED6F1FAEC3C4B",1,"01990a98-6111-79f7-a630-e93c55104679","01990a84-c4ee-73c2-a87b-ff46a7d3dde5","2025-09-02_09h24.00.579",NA,NA,511.2023,511.2024,511.2024,511.5539,NA,NA,NA,NA,NA,NA,NA,TRUE,5,1.1401,508.2025,511.2022,NA,NA,NA,NA,NA,95,35,0,14,14,80,1,2,15,"likert"
"3975392668B548F4866ED6F1FAEC3C4B",1,"01990a98-6111-79f7-a630-e93c55104679","01990a84-c4ee-73c2-a87b-ff46a7d3dde5","2025-09-02_09h24.00.579",NA,NA,514.5532,514.5532,514.5532,514.9022,NA,NA,NA,NA,NA,NA,NA,TRUE,5,1.9694,511.5548,514.5529,NA,NA,NA,NA,NA,45,40,0,15,15,58,1,2,16,"likert"
"3975392668B548F4866ED6F1FAEC3C4B",1,"01990a98-6111-79f7-a630-e93c55104679","01990a84-c4ee-73c2-a87b-ff46a7d3dde5","2025-09-02_09h24.00.579",NA,NA,517.9022,517.9023,517.9023,518.2524,NA,NA,NA,NA,NA,NA,NA,TRUE,5,1.6047,514.9032,517.902,NA,NA,NA,NA,NA,21,32,0,16,16,28,1,2,17,"likert"
"3975392668B548F4866ED6F1FAEC3C4B",1,"01990a98-6111-79f7-a630-e93c55104679","01990a84-c4ee-73c2-a87b-ff46a7d3dde5","2025-09-02_09h24.00.579",NA,NA,521.2524,521.2524,521.2524,521.6025,NA,NA,NA,NA,NA,NA,NA,TRUE,3,0.7992,518.2542,521.2523,NA,NA,NA,NA,NA,90,40,0,17,17,75,1,2,18,"likert"
"3975392668B548F4866ED6F1FAEC3C4B",1,"01990a98-6111-79f7-a630-e93c55104679","01990a84-c4ee-73c2-a87b-ff46a7d3dde5","2025-09-02_09h24.00.579",NA,NA,524.602,524.602,524.602,524.9522,NA,NA,NA,NA,NA,NA,NA,TRUE,5,0.7928,521.604,524.6019,NA,NA,NA,NA,NA,12,35,0,18,18,17,1,2,19,"likert"
"3975392668B548F4866ED6F1FAEC3C4B",1,"01990a98-6111-79f7-a630-e93c55104679","01990a84-c4ee-73c2-a87b-ff46a7d3dde5","2025-09-02_09h24.00.579",NA,NA,527.9526,527.9526,527.9526,528.3024,NA,NA,NA,NA,NA,NA,NA,TRUE,5,0.4902,524.9536,527.9524,NA,NA,NA,NA,NA,7,35,0,19,19,5,1,2,20,"likert"
"3975392668B548F4866ED6F1FAEC3C4B",1,"01990a98-6111-79f7-a630-e93c55104679","01990a84-c4ee-73c2-a87b-ff46a7d3dde5","2025-09-02_09h24.00.579",NA,NA,531.3024,531.3024,531.3024,531.6523,NA,NA,NA,NA,NA,NA,NA,TRUE,5,0.4794,528.3037,531.3022,NA,NA,NA,NA,NA,50,35,0,20,20,62,1,2,21,"likert"
"3975392668B548F4866ED6F1FAEC3C4B",1,"01990a98-6111-79f7-a630-e93c55104679","01990a84-c4ee-73c2-a87b-ff46a7d3dde5","2025-09-02_09h24.00.579",NA,NA,534.6523,534.6523,534.6523,535.0023,NA,NA,NA,NA,NA,NA,NA,TRUE,5,0.6843,531.6536,534.6522,NA,NA,NA,NA,NA,200,54,0,21,21,107,1,2,22,"likert"
"3975392668B548F4866ED6F1FAEC3C4B",1,"01990a98-6111-79f7-a630-e93c55104679","01990a84-c4ee-73c2-a87b-ff46a7d3dde5","2025-09-02_09h24.00.579",NA,NA,538.0028,538.0028,538.0028,538.352,NA,NA,NA,NA,NA,NA,NA,TRUE,3,1.3405,535.0039,538.0024,NA,NA,NA,NA,NA,60,35,0,22,22,68,1,2,23,"likert"
"3975392668B548F4866ED6F1FAEC3C4B",1,"01990a98-6111-79f7-a630-e93c55104679","01990a84-c4ee-73c2-a87b-ff46a7d3dde5","2025-09-02_09h24.00.579",NA,NA,541.3523,541.3523,541.3523,541.7021,NA,NA,NA,NA,NA,NA,NA,TRUE,3,1.972,538.3529,541.3521,NA,NA,NA,NA,NA,200,47,0,23,23,106,1,2,24,"likert"
"3975392668B548F4866ED6F1FAEC3C4B",1,"01990a98-6111-79f7-a630-e93c55104679","01990a84-c4ee-73c2-a87b-ff46a7d3dde5","2025-09-02_09h24.00.579",NA,NA,544.7025,544.7026,544.7026,545.0524,NA,NA,NA,NA,NA,NA,NA,TRUE,3,2.3697,541.7035,544.7024,NA,NA,NA,NA,NA,21,30,0,24,24,27,1,2,25,"likert"
"3975392668B548F4866ED6F1FAEC3C4B",1,"01990a98-6111-79f7-a630-e93c55104679","01990a84-c4ee-73c2-a87b-ff46a7d3dde5","2025-09-02_09h24.00.579",NA,NA,548.0524,548.0524,548.0524,548.4019,NA,NA,NA,NA,NA,NA,NA,TRUE,5,1.2216,545.0534,548.0524,NA,NA,NA,NA,NA,25,29,0,25,25,31,1,2,26,"likert"
"3975392668B548F4866ED6F1FAEC3C4B",1,"01990a98-6111-79f7-a630-e93c55104679","01990a84-c4ee-73c2-a87b-ff46a7d3dde5","2025-09-02_09h24.00.579",NA,NA,551.4022,551.6522,551.6522,551.7522,NA,NA,NA,NA,NA,NA,NA,FALSE,NA,NA,548.4024,551.4021,NA,NA,NA,NA,NA,45,31,0,26,26,56,1,2,27,"likert"
"3975392668B548F4866ED6F1FAEC3C4B",1,"01990a98-6111-79f7-a630-e93c55104679","01990a84-c4ee-73c2-a87b-ff46a7d3dde5","2025-09-02_09h24.00.579",NA,NA,554.7518,554.7518,554.7518,555.102,NA,NA,NA,NA,NA,NA,NA,TRUE,4,1.5969,551.7533,554.7516,NA,NA,NA,NA,NA,150,54,0,27,27,95,1,2,28,"likert"
"3975392668B548F4866ED6F1FAEC3C4B",1,"01990a98-6111-79f7-a630-e93c55104679","01990a84-c4ee-73c2-a87b-ff46a7d3dde5","2025-09-02_09h24.00.579",NA,NA,558.102,558.1021,558.1021,558.4521,NA,NA,NA,NA,NA,NA,NA,TRUE,4,1.8377,555.1033,558.1018,NA,NA,NA,NA,NA,45,29,0,28,28,55,1,2,29,"likert"
"3975392668B548F4866ED6F1FAEC3C4B",1,"01990a98-6111-79f7-a630-e93c55104679","01990a84-c4ee-73c2-a87b-ff46a7d3dde5","2025-09-02_09h24.00.579",NA,NA,561.452,561.7019,561.702,561.8021,NA,NA,NA,NA,NA,NA,NA,FALSE,NA,NA,558.4533,561.4519,NA,NA,NA,NA,NA,200,28,0,29,29,103,1,2,30,"likert"
"3975392668B548F4866ED6F1FAEC3C4B",1,"01990a98-6111-79f7-a630-e93c55104679","01990a84-c4ee-73c2-a87b-ff46a7d3dde5","2025-09-02_09h24.00.579",NA,NA,564.8022,564.8022,564.8022,565.1523,NA,NA,NA,NA,NA,NA,NA,TRUE,5,1.0322,561.8032,564.802,NA,NA,NA,NA,NA,12,33,0,30,30,16,1,2,31,"likert"
"3975392668B548F4866ED6F1FAEC3C4B",1,"01990a98-6111-79f7-a630-e93c55104679","01990a84-c4ee-73c2-a87b-ff46a7d3dde5","2025-09-02_09h24.00.579",NA,NA,568.1522,568.1522,568.1522,568.5021,NA,NA,NA,NA,NA,NA,NA,TRUE,5,0.6331,565.154,568.1519,NA,NA,NA,NA,NA,21,29,0,31,31,26,1,2,32,"likert"
"3975392668B548F4866ED6F1FAEC3C4B",1,"01990a98-6111-79f7-a630-e93c55104679","01990a84-c4ee-73c2-a87b-ff46a7d3dde5","2025-09-02_09h24.00.579",NA,NA,571.5021,571.5021,571.5021,571.852,NA,NA,NA,NA,NA,NA,NA,TRUE,5,1.5013,568.5027,571.502,NA,NA,NA,NA,NA,25,27,0,32,32,30,1,2,33,"likert"
"3975392668B548F4866ED6F1FAEC3C4B",1,"01990a98-6111-79f7-a630-e93c55104679","01990a84-c4ee-73c2-a87b-ff46a7d3dde5","2025-09-02_09h24.00.579",NA,NA,574.8523,574.8523,574.8523,575.2022,NA,NA,NA,NA,NA,NA,NA,TRUE,5,1.0534,571.8527,574.8523,NA,NA,NA,NA,NA,14,28,0,33,33,20,1,2,34,"likert"
"3975392668B548F4866ED6F1FAEC3C4B",1,"01990a98-6111-79f7-a630-e93c55104679","01990a84-c4ee-73c2-a87b-ff46a7d3dde5","2025-09-02_09h24.00.579",NA,NA,578.2026,578.2027,578.2027,578.5521,NA,NA,NA,NA,NA,NA,NA,TRUE,2,2.0235,575.2035,578.2022,NA,NA,NA,NA,NA,180,31,0,34,34,97,1,2,35,"likert"
"3975392668B548F4866ED6F1FAEC3C4B",1,"01990a98-6111-79f7-a630-e93c55104679","01990a84-c4ee-73c2-a87b-ff46a7d3dde5","2025-09-02_09h24.00.579",NA,NA,581.5526,581.5528,581.5528,581.902,NA,NA,NA,NA,NA,NA,NA,TRUE,2,0.8492,578.5535,581.5521,NA,NA,NA,NA,NA,60,29,0,35,35,66,1,2,36,"likert"
"3975392668B548F4866ED6F1FAEC3C4B",1,"01990a98-6111-79f7-a630-e93c55104679","01990a84-c4ee-73c2-a87b-ff46a7d3dde5","2025-09-02_09h24.00.579",NA,NA,584.9016,584.9016,584.9017,585.2517,NA,NA,NA,NA,NA,NA,NA,TRUE,2,0.7705,581.9031,584.9016,NA,NA,NA,NA,NA,150,47,0,36,36,94,1,2,37,"likert"
"3975392668B548F4866ED6F1FAEC3C4B",1,"01990a98-6111-79f7-a630-e93c55104679","01990a84-c4ee-73c2-a87b-ff46a7d3dde5","2025-09-02_09h24.00.579",NA,NA,588.2536,588.2538,588.2538,588.602,NA,NA,NA,NA,NA,NA,NA,TRUE,2,0.6817,585.2528,588.2533,NA,NA,NA,NA,NA,28,35,0,37,37,39,1,2,38,"likert"
"3975392668B548F4866ED6F1FAEC3C4B",1,"01990a98-6111-79f7-a630-e93c55104679","01990a84-c4ee-73c2-a87b-ff46a7d3dde5","2025-09-02_09h24.00.579",NA,NA,591.6021,591.6021,591.6021,591.9518,NA,NA,NA,NA,NA,NA,NA,TRUE,4,1.9042,588.6029,591.6019,NA,NA,NA,NA,NA,50,27,0,38,38,60,1,2,39,"likert"
"3975392668B548F4866ED6F1FAEC3C4B",1,"01990a98-6111-79f7-a630-e93c55104679","01990a84-c4ee-73c2-a87b-ff46a7d3dde5","2025-09-02_09h24.00.579",NA,NA,594.9516,594.9516,594.9516,595.3015,NA,NA,NA,NA,NA,NA,NA,TRUE,5,2.3734,591.9533,594.9515,NA,NA,NA,NA,NA,28,32,0,39,39,38,1,2,40,"likert"
"3975392668B548F4866ED6F1FAEC3C4B",1,"01990a98-6111-79f7-a630-e93c55104679","01990a84-c4ee-73c2-a87b-ff46a7d3dde5","2025-09-02_09h24.00.579",NA,NA,598.3021,598.3021,598.3021,598.6519,NA,NA,NA,NA,NA,NA,NA,TRUE,2,2.5893,595.3024,598.302,NA,NA,NA,NA,NA,100,26,0,40,40,84,1,2,41,"likert"
"3975392668B548F4866ED6F1FAEC3C4B",1,"01990a98-6111-79f7-a630-e93c55104679","01990a84-c4ee-73c2-a87b-ff46a7d3dde5","2025-09-02_09h24.00.579",NA,NA,601.6519,601.6519,601.6519,602.002,NA,NA,NA,NA,NA,NA,NA,TRUE,2,1.2032,598.6535,601.6519,NA,NA,NA,NA,NA,100,46,0,41,41,88,1,2,42,"likert"
"3975392668B548F4866ED6F1FAEC3C4B",1,"01990a98-6111-79f7-a630-e93c55104679","01990a84-c4ee-73c2-a87b-ff46a7d3dde5","2025-09-02_09h24.00.579",NA,NA,605.0023,605.0023,605.0023,605.3525,NA,NA,NA,NA,NA,NA,NA,TRUE,5,1.3696,602.003,605.0022,NA,NA,NA,NA,NA,7,25,0,42,42,0,1,2,43,"likert"
"3975392668B548F4866ED6F1FAEC3C4B",1,"01990a98-6111-79f7-a630-e93c55104679","01990a84-c4ee-73c2-a87b-ff46a7d3dde5","2025-09-02_09h24.00.579",NA,NA,608.3517,608.3518,608.3518,608.7018,NA,NA,NA,NA,NA,NA,NA,TRUE,2,1.1354,605.3532,608.3516,NA,NA,NA,NA,NA,95,33,0,43,43,79,1,2,44,"likert"
"3975392668B548F4866ED6F1FAEC3C4B",1,"01990a98-6111-79f7-a630-e93c55104679","01990a84-c4ee-73c2-a87b-ff46a7d3dde5","2025-09-02_09h24.00.579",NA,NA,611.7016,611.7018,611.7018,612.0516,NA,NA,NA,NA,NA,NA,NA,TRUE,2,0.6843,608.7026,611.7016,NA,NA,NA,NA,NA,150,40,0,44,44,93,1,2,45,"likert"
"3975392668B548F4866ED6F1FAEC3C4B",1,"01990a98-6111-79f7-a630-e93c55104679","01990a84-c4ee-73c2-a87b-ff46a7d3dde5","2025-09-02_09h24.00.579",NA,NA,615.0517,615.0517,615.0518,615.4017,NA,NA,NA,NA,NA,NA,NA,TRUE,2,0.7129,612.0525,615.0516,NA,NA,NA,NA,NA,90,33,0,45,45,74,1,2,46,"likert"
"3975392668B548F4866ED6F1FAEC3C4B",1,"01990a98-6111-79f7-a630-e93c55104679","01990a84-c4ee-73c2-a87b-ff46a7d3dde5","2025-09-02_09h24.00.579",NA,NA,618.4018,618.4019,618.4019,618.7517,NA,NA,NA,NA,NA,NA,NA,TRUE,5,0.8542,615.4023,618.4017,NA,NA,NA,NA,NA,30,27,0,46,46,43,1,2,47,"likert"
"3975392668B548F4866ED6F1FAEC3C4B",1,"01990a98-6111-79f7-a630-e93c55104679","01990a84-c4ee-73c2-a87b-ff46a7d3dde5","2025-09-02_09h24.00.579",NA,NA,621.7525,621.7526,621.7526,622.1022,NA,NA,NA,NA,NA,NA,NA,TRUE,2,1.1183,618.7523,621.7522,NA,NA,NA,NA,NA,180,39,0,47,47,99,1,2,48,"likert"
"3975392668B548F4866ED6F1FAEC3C4B",1,"01990a98-6111-79f7-a630-e93c55104679","01990a84-c4ee-73c2-a87b-ff46a7d3dde5","2025-09-02_09h24.00.579",NA,NA,625.102,625.102,625.102,625.4523,NA,NA,NA,NA,NA,NA,NA,TRUE,2,0.9733,622.1036,625.102,NA,NA,NA,NA,NA,95,31,0,48,48,78,1,2,49,"likert"
"3975392668B548F4866ED6F1FAEC3C4B",1,"01990a98-6111-79f7-a630-e93c55104679","01990a84-c4ee-73c2-a87b-ff46a7d3dde5","2025-09-02_09h24.00.579",NA,NA,628.4517,628.4518,628.4518,628.8016,NA,NA,NA,NA,NA,NA,NA,TRUE,2,1.1954,625.4535,628.4515,NA,NA,NA,NA,NA,12,25,0,49,49,12,1,2,50,"likert"
"3975392668B548F4866ED6F1FAEC3C4B",1,"01990a98-6111-79f7-a630-e93c55104679","01990a84-c4ee-73c2-a87b-ff46a7d3dde5","2025-09-02_09h24.00.579",NA,NA,631.802,631.802,631.802,632.152,NA,NA,NA,NA,NA,NA,NA,TRUE,4,1.9511,628.8024,631.8018,NA,NA,NA,NA,NA,90,26,0,50,50,72,1,2,51,"likert"
"3975392668B548F4866ED6F1FAEC3C4B",1,"01990a98-6111-79f7-a630-e93c55104679","01990a84-c4ee-73c2-a87b-ff46a7d3dde5","2025-09-02_09h24.00.579",NA,NA,635.1526,635.1527,635.1527,635.5013,NA,NA,NA,NA,NA,NA,NA,TRUE,2,1.3003,632.1535,635.1523,NA,NA,NA,NA,NA,100,39,0,51,51,87,1,2,52,"likert"
"3975392668B548F4866ED6F1FAEC3C4B",1,"01990a98-6111-79f7-a630-e93c55104679","01990a84-c4ee-73c2-a87b-ff46a7d3dde5","2025-09-02_09h24.00.579",NA,NA,638.5016,638.5016,638.5016,638.8524,NA,NA,NA,NA,NA,NA,NA,TRUE,2,1.1817,635.5029,638.5015,NA,NA,NA,NA,NA,50,40,0,52,52,63,1,2,53,"likert"
"3975392668B548F4866ED6F1FAEC3C4B",1,"01990a98-6111-79f7-a630-e93c55104679","01990a84-c4ee-73c2-a87b-ff46a7d3dde5","2025-09-02_09h24.00.579",NA,NA,641.8527,641.8527,641.8527,642.2021,NA,NA,NA,NA,NA,NA,NA,TRUE,5,1.4361,638.8537,641.8524,NA,NA,NA,NA,NA,14,32,0,53,53,21,1,2,54,"likert"
"3975392668B548F4866ED6F1FAEC3C4B",1,"01990a98-6111-79f7-a630-e93c55104679","01990a84-c4ee-73c2-a87b-ff46a7d3dde5","2025-09-02_09h24.00.579",NA,NA,645.2025,645.2026,645.2026,645.5515,NA,NA,NA,NA,NA,NA,NA,TRUE,2,1.4471,642.2036,645.2025,NA,NA,NA,NA,NA,180,46,0,54,54,100,1,2,55,"likert"
"3975392668B548F4866ED6F1FAEC3C4B",1,"01990a98-6111-79f7-a630-e93c55104679","01990a84-c4ee-73c2-a87b-ff46a7d3dde5","2025-09-02_09h24.00.579",NA,NA,648.5517,648.5517,648.5517,648.9014,NA,NA,NA,NA,NA,NA,NA,TRUE,5,2.1362,645.5528,648.5514,NA,NA,NA,NA,NA,21,38,0,55,55,29,1,2,56,"likert"
"3975392668B548F4866ED6F1FAEC3C4B",1,"01990a98-6111-79f7-a630-e93c55104679","01990a84-c4ee-73c2-a87b-ff46a7d3dde5","2025-09-02_09h24.00.579",NA,NA,651.9027,652.1523,652.1524,652.2521,NA,NA,NA,NA,NA,NA,NA,FALSE,NA,NA,648.9026,651.9025,NA,NA,NA,NA,NA,14,35,0,56,56,22,1,2,57,"likert"
"3975392668B548F4866ED6F1FAEC3C4B",1,"01990a98-6111-79f7-a630-e93c55104679","01990a84-c4ee-73c2-a87b-ff46a7d3dde5","2025-09-02_09h24.00.579",NA,NA,655.2515,655.2515,655.2515,655.6018,NA,NA,NA,NA,NA,NA,NA,TRUE,5,0.7998,652.2542,655.2513,NA,NA,NA,NA,NA,30,29,0,57,57,44,1,2,58,"likert"
"3975392668B548F4866ED6F1FAEC3C4B",1,"01990a98-6111-79f7-a630-e93c55104679","01990a84-c4ee-73c2-a87b-ff46a7d3dde5","2025-09-02_09h24.00.579",NA,NA,658.6015,658.6016,658.6016,658.952,NA,NA,NA,NA,NA,NA,NA,TRUE,5,1.2673,655.6025,658.6015,NA,NA,NA,NA,NA,10,26,0,58,58,7,1,2,59,"likert"
"3975392668B548F4866ED6F1FAEC3C4B",1,"01990a98-6111-79f7-a630-e93c55104679","01990a84-c4ee-73c2-a87b-ff46a7d3dde5","2025-09-02_09h24.00.579",NA,NA,661.9512,661.9513,661.9513,662.3014,NA,NA,NA,NA,NA,NA,NA,TRUE,2,2.2491,658.9536,661.9512,NA,NA,NA,NA,NA,150,35,0,59,59,92,1,2,60,"likert"
"3975392668B548F4866ED6F1FAEC3C4B",1,"01990a98-6111-79f7-a630-e93c55104679","01990a84-c4ee-73c2-a87b-ff46a7d3dde5","2025-09-02_09h24.00.579",NA,NA,665.3026,665.5512,665.5512,665.6513,NA,NA,NA,NA,NA,NA,NA,FALSE,NA,NA,662.3023,665.3024,NA,NA,NA,NA,NA,30,38,0,60,60,47,1,2,61,"likert"
"3975392668B548F4866ED6F1FAEC3C4B",1,"01990a98-6111-79f7-a630-e93c55104679","01990a84-c4ee-73c2-a87b-ff46a7d3dde5","2025-09-02_09h24.00.579",NA,NA,668.6515,668.6518,668.6518,669.0017,NA,NA,NA,NA,NA,NA,NA,TRUE,2,0.9077,665.6522,668.6515,NA,NA,NA,NA,NA,100,54,0,61,61,89,1,2,62,"likert"
"3975392668B548F4866ED6F1FAEC3C4B",1,"01990a98-6111-79f7-a630-e93c55104679","01990a84-c4ee-73c2-a87b-ff46a7d3dde5","2025-09-02_09h24.00.579",NA,NA,672.0015,672.0015,672.0016,672.3515,NA,NA,NA,NA,NA,NA,NA,TRUE,5,1.2993,669.0031,672.0014,NA,NA,NA,NA,NA,30,30,0,62,62,45,1,2,63,"likert"
"3975392668B548F4866ED6F1FAEC3C4B",1,"01990a98-6111-79f7-a630-e93c55104679","01990a84-c4ee-73c2-a87b-ff46a7d3dde5","2025-09-02_09h24.00.579",NA,NA,675.3514,675.3516,675.3516,675.7014,NA,NA,NA,NA,NA,NA,NA,TRUE,2,1.515,672.3529,675.3513,NA,NA,NA,NA,NA,28,39,0,63,63,40,1,2,64,"likert"
"3975392668B548F4866ED6F1FAEC3C4B",1,"01990a98-6111-79f7-a630-e93c55104679","01990a84-c4ee-73c2-a87b-ff46a7d3dde5","2025-09-02_09h24.00.579",NA,NA,678.7019,678.7019,678.7019,679.0518,NA,NA,NA,NA,NA,NA,NA,TRUE,5,1.1358,675.7026,678.7019,NA,NA,NA,NA,NA,30,32,0,64,64,46,1,2,65,"likert"
"3975392668B548F4866ED6F1FAEC3C4B",1,"01990a98-6111-79f7-a630-e93c55104679","01990a84-c4ee-73c2-a87b-ff46a7d3dde5","2025-09-02_09h24.00.579",NA,NA,682.0526,682.0526,682.0527,682.4014,NA,NA,NA,NA,NA,NA,NA,TRUE,4,1.5353,679.0527,682.0524,NA,NA,NA,NA,NA,40,35,0,65,65,50,1,2,66,"likert"
"3975392668B548F4866ED6F1FAEC3C4B",1,"01990a98-6111-79f7-a630-e93c55104679","01990a84-c4ee-73c2-a87b-ff46a7d3dde5","2025-09-02_09h24.00.579",NA,NA,685.4017,685.4017,685.4017,685.7513,NA,NA,NA,NA,NA,NA,NA,TRUE,4,1.5343,682.4028,685.4014,NA,NA,NA,NA,NA,60,47,0,66,66,70,1,2,67,"likert"
"3975392668B548F4866ED6F1FAEC3C4B",1,"01990a98-6111-79f7-a630-e93c55104679","01990a84-c4ee-73c2-a87b-ff46a7d3dde5","2025-09-02_09h24.00.579",NA,NA,688.7517,688.7517,688.7517,689.1012,NA,NA,NA,NA,NA,NA,NA,TRUE,2,1.6488,685.7528,688.7516,NA,NA,NA,NA,NA,100,38,0,67,67,86,1,2,68,"likert"
"3975392668B548F4866ED6F1FAEC3C4B",1,"01990a98-6111-79f7-a630-e93c55104679","01990a84-c4ee-73c2-a87b-ff46a7d3dde5","2025-09-02_09h24.00.579",NA,NA,692.1016,692.1016,692.1016,692.4512,NA,NA,NA,NA,NA,NA,NA,TRUE,4,1.6802,689.1021,692.1014,NA,NA,NA,NA,NA,60,40,0,68,68,69,1,2,69,"likert"
"3975392668B548F4866ED6F1FAEC3C4B",1,"01990a98-6111-79f7-a630-e93c55104679","01990a84-c4ee-73c2-a87b-ff46a7d3dde5","2025-09-02_09h24.00.579",NA,NA,695.4515,695.4515,695.4515,695.8012,NA,NA,NA,NA,NA,NA,NA,TRUE,5,1.5536,692.4519,695.4514,NA,NA,NA,NA,NA,40,40,0,69,69,51,1,2,70,"likert"
"3975392668B548F4866ED6F1FAEC3C4B",1,"01990a98-6111-79f7-a630-e93c55104679","01990a84-c4ee-73c2-a87b-ff46a7d3dde5","2025-09-02_09h24.00.579",NA,NA,698.8013,699.0513,699.0513,699.1512,NA,NA,NA,NA,NA,NA,NA,FALSE,NA,NA,695.8018,698.8012,NA,NA,NA,NA,NA,40,47,0,70,70,52,1,2,71,"likert"
"3975392668B548F4866ED6F1FAEC3C4B",1,"01990a98-6111-79f7-a630-e93c55104679","01990a84-c4ee-73c2-a87b-ff46a7d3dde5","2025-09-02_09h24.00.579",NA,NA,702.1515,702.1515,702.1515,702.501,NA,NA,NA,NA,NA,NA,NA,TRUE,5,1.504,699.1524,702.1515,NA,NA,NA,NA,NA,25,46,0,71,71,35,1,2,72,"likert"
"3975392668B548F4866ED6F1FAEC3C4B",1,"01990a98-6111-79f7-a630-e93c55104679","01990a84-c4ee-73c2-a87b-ff46a7d3dde5","2025-09-02_09h24.00.579",NA,NA,705.5016,705.7514,705.7514,705.8513,NA,NA,NA,NA,NA,NA,NA,FALSE,NA,NA,702.5017,705.5015,NA,NA,NA,NA,NA,40,33,0,72,72,49,1,2,73,"likert"
"3975392668B548F4866ED6F1FAEC3C4B",1,"01990a98-6111-79f7-a630-e93c55104679","01990a84-c4ee-73c2-a87b-ff46a7d3dde5","2025-09-02_09h24.00.579",NA,NA,708.8511,708.8511,708.8511,709.2023,NA,NA,NA,NA,NA,NA,NA,TRUE,2,1.2263,705.8524,708.851,NA,NA,NA,NA,NA,100,31,0,73,73,85,1,2,74,"likert"
"3975392668B548F4866ED6F1FAEC3C4B",1,"01990a98-6111-79f7-a630-e93c55104679","01990a84-c4ee-73c2-a87b-ff46a7d3dde5","2025-09-02_09h24.00.579",NA,NA,712.2015,712.2015,712.2016,712.5525,NA,NA,NA,NA,NA,NA,NA,TRUE,4,1.9064,709.2033,712.2014,NA,NA,NA,NA,NA,45,46,0,74,74,59,1,2,75,"likert"
"3975392668B548F4866ED6F1FAEC3C4B",1,"01990a98-6111-79f7-a630-e93c55104679","01990a84-c4ee-73c2-a87b-ff46a7d3dde5","2025-09-02_09h24.00.579",NA,NA,715.5512,715.5512,715.5513,715.9012,NA,NA,NA,NA,NA,NA,NA,TRUE,5,1.2249,712.5543,715.5511,NA,NA,NA,NA,NA,14,26,0,75,75,19,1,2,76,"likert"
"3975392668B548F4866ED6F1FAEC3C4B",1,"01990a98-6111-79f7-a630-e93c55104679","01990a84-c4ee-73c2-a87b-ff46a7d3dde5","2025-09-02_09h24.00.579",NA,NA,718.9013,718.9014,718.9014,719.2514,NA,NA,NA,NA,NA,NA,NA,TRUE,5,1.4828,715.9026,718.9013,NA,NA,NA,NA,NA,150,33,0,76,76,91,1,2,77,"likert"
"3975392668B548F4866ED6F1FAEC3C4B",1,"01990a98-6111-79f7-a630-e93c55104679","01990a84-c4ee-73c2-a87b-ff46a7d3dde5","2025-09-02_09h24.00.579",NA,NA,722.2516,722.2517,722.2517,722.6015,NA,NA,NA,NA,NA,NA,NA,TRUE,5,0.9842,719.2524,722.2514,NA,NA,NA,NA,NA,10,32,0,77,77,11,1,2,78,"likert"
"3975392668B548F4866ED6F1FAEC3C4B",1,"01990a98-6111-79f7-a630-e93c55104679","01990a84-c4ee-73c2-a87b-ff46a7d3dde5","2025-09-02_09h24.00.579",NA,NA,725.602,725.6021,725.6021,725.9518,NA,NA,NA,NA,NA,NA,NA,TRUE,2,1.0896,722.6029,725.6016,NA,NA,NA,NA,NA,180,27,0,78,78,96,1,2,79,"likert"
"3975392668B548F4866ED6F1FAEC3C4B",1,"01990a98-6111-79f7-a630-e93c55104679","01990a84-c4ee-73c2-a87b-ff46a7d3dde5","2025-09-02_09h24.00.579",NA,NA,728.9511,728.9511,728.9511,729.3013,NA,NA,NA,NA,NA,NA,NA,TRUE,2,1.7994,725.9531,728.9511,NA,NA,NA,NA,NA,90,54,0,79,79,77,1,2,80,"likert"
"3975392668B548F4866ED6F1FAEC3C4B",1,"01990a98-6111-79f7-a630-e93c55104679","01990a84-c4ee-73c2-a87b-ff46a7d3dde5","2025-09-02_09h24.00.579",NA,NA,732.3012,732.3012,732.3012,732.6513,NA,NA,NA,NA,NA,NA,NA,TRUE,4,1.653,729.3025,732.3011,NA,NA,NA,NA,NA,21,27,0,80,80,25,1,2,81,"likert"
"3975392668B548F4866ED6F1FAEC3C4B",1,"01990a98-6111-79f7-a630-e93c55104679","01990a84-c4ee-73c2-a87b-ff46a7d3dde5","2025-09-02_09h24.00.579",NA,NA,735.6513,735.6513,735.6513,736.0016,NA,NA,NA,NA,NA,NA,NA,TRUE,4,1.3327,732.652,735.6512,NA,NA,NA,NA,NA,28,46,0,81,81,41,1,2,82,"likert"
"3975392668B548F4866ED6F1FAEC3C4B",1,"01990a98-6111-79f7-a630-e93c55104679","01990a84-c4ee-73c2-a87b-ff46a7d3dde5","2025-09-02_09h24.00.579",NA,NA,739.001,739.001,739.001,739.3514,NA,NA,NA,NA,NA,NA,NA,TRUE,5,1.0745,736.0034,739.001,NA,NA,NA,NA,NA,14,25,0,82,82,18,1,2,83,"likert"
"3975392668B548F4866ED6F1FAEC3C4B",1,"01990a98-6111-79f7-a630-e93c55104679","01990a84-c4ee-73c2-a87b-ff46a7d3dde5","2025-09-02_09h24.00.579",NA,NA,742.3509,742.3509,742.351,742.7013,NA,NA,NA,NA,NA,NA,NA,TRUE,4,1.4203,739.3527,742.3509,NA,NA,NA,NA,NA,45,26,0,83,83,54,1,2,84,"likert"
"3975392668B548F4866ED6F1FAEC3C4B",1,"01990a98-6111-79f7-a630-e93c55104679","01990a84-c4ee-73c2-a87b-ff46a7d3dde5","2025-09-02_09h24.00.579",NA,NA,745.702,745.7021,745.7021,746.051,NA,NA,NA,NA,NA,NA,NA,TRUE,4,1.1652,742.7031,745.7009,NA,NA,NA,NA,NA,50,54,0,84,84,65,1,2,85,"likert"
"3975392668B548F4866ED6F1FAEC3C4B",1,"01990a98-6111-79f7-a630-e93c55104679","01990a84-c4ee-73c2-a87b-ff46a7d3dde5","2025-09-02_09h24.00.579",NA,NA,749.0513,749.0513,749.0513,749.4012,NA,NA,NA,NA,NA,NA,NA,TRUE,4,0.9158,746.0518,749.051,NA,NA,NA,NA,NA,45,35,0,85,85,57,1,2,86,"likert"
"3975392668B548F4866ED6F1FAEC3C4B",1,"01990a98-6111-79f7-a630-e93c55104679","01990a84-c4ee-73c2-a87b-ff46a7d3dde5","2025-09-02_09h24.00.579",NA,NA,752.4008,752.4008,752.4008,752.7513,NA,NA,NA,NA,NA,NA,NA,TRUE,5,1.305,749.4028,752.4007,NA,NA,NA,NA,NA,14,39,0,86,86,23,1,2,87,"likert"
"3975392668B548F4866ED6F1FAEC3C4B",1,"01990a98-6111-79f7-a630-e93c55104679","01990a84-c4ee-73c2-a87b-ff46a7d3dde5","2025-09-02_09h24.00.579",NA,NA,755.7513,755.7513,755.7513,756.1012,NA,NA,NA,NA,NA,NA,NA,TRUE,5,1.5692,752.7531,755.7512,NA,NA,NA,NA,NA,7,30,0,87,87,3,1,2,88,"likert"
"3975392668B548F4866ED6F1FAEC3C4B",1,"01990a98-6111-79f7-a630-e93c55104679","01990a84-c4ee-73c2-a87b-ff46a7d3dde5","2025-09-02_09h24.00.579",NA,NA,759.101,759.101,759.101,759.451,NA,NA,NA,NA,NA,NA,NA,TRUE,5,2.1463,756.1027,759.1009,NA,NA,NA,NA,NA,30,26,0,88,88,42,1,2,89,"likert"
"3975392668B548F4866ED6F1FAEC3C4B",1,"01990a98-6111-79f7-a630-e93c55104679","01990a84-c4ee-73c2-a87b-ff46a7d3dde5","2025-09-02_09h24.00.579",NA,NA,762.4515,762.4515,762.4515,762.8011,NA,NA,NA,NA,NA,NA,NA,TRUE,1,1.7692,759.4521,762.4512,NA,NA,NA,NA,NA,200,35,0,89,89,104,1,2,90,"likert"
"3975392668B548F4866ED6F1FAEC3C4B",1,"01990a98-6111-79f7-a630-e93c55104679","01990a84-c4ee-73c2-a87b-ff46a7d3dde5","2025-09-02_09h24.00.579",NA,NA,765.8025,765.8026,765.8026,766.1512,NA,NA,NA,NA,NA,NA,NA,TRUE,5,0.906,762.803,765.8023,NA,NA,NA,NA,NA,10,29,0,90,90,9,1,2,91,"likert"
"3975392668B548F4866ED6F1FAEC3C4B",1,"01990a98-6111-79f7-a630-e93c55104679","01990a84-c4ee-73c2-a87b-ff46a7d3dde5","2025-09-02_09h24.00.579",NA,NA,769.1511,769.1512,769.1512,769.5009,NA,NA,NA,NA,NA,NA,NA,TRUE,3,1.3653,766.1533,769.1511,NA,NA,NA,NA,NA,50,30,0,91,91,61,1,2,92,"likert"
"3975392668B548F4866ED6F1FAEC3C4B",1,"01990a98-6111-79f7-a630-e93c55104679","01990a84-c4ee-73c2-a87b-ff46a7d3dde5","2025-09-02_09h24.00.579",NA,NA,772.5013,772.5013,772.5013,772.8507,NA,NA,NA,NA,NA,NA,NA,TRUE,5,0.8496,769.5015,772.501,NA,NA,NA,NA,NA,7,32,0,92,92,4,1,2,93,"likert"
"3975392668B548F4866ED6F1FAEC3C4B",1,"01990a98-6111-79f7-a630-e93c55104679","01990a84-c4ee-73c2-a87b-ff46a7d3dde5","2025-09-02_09h24.00.579",NA,NA,775.851,775.851,775.851,776.2007,NA,NA,NA,NA,NA,NA,NA,TRUE,4,1.4007,772.8517,775.8508,NA,NA,NA,NA,NA,28,28,0,93,93,37,1,2,94,"likert"
"3975392668B548F4866ED6F1FAEC3C4B",1,"01990a98-6111-79f7-a630-e93c55104679","01990a84-c4ee-73c2-a87b-ff46a7d3dde5","2025-09-02_09h24.00.579",NA,NA,779.2012,779.2013,779.2013,779.5508,NA,NA,NA,NA,NA,NA,NA,TRUE,3,1.6257,776.2016,779.2011,NA,NA,NA,NA,NA,50,46,0,94,94,64,1,2,95,"likert"
"3975392668B548F4866ED6F1FAEC3C4B",1,"01990a98-6111-79f7-a630-e93c55104679","01990a84-c4ee-73c2-a87b-ff46a7d3dde5","2025-09-02_09h24.00.579",NA,NA,782.5512,782.5512,782.5512,782.9008,NA,NA,NA,NA,NA,NA,NA,TRUE,2,2.1497,779.5526,782.551,NA,NA,NA,NA,NA,95,47,0,95,95,82,1,2,96,"likert"
"3975392668B548F4866ED6F1FAEC3C4B",1,"01990a98-6111-79f7-a630-e93c55104679","01990a84-c4ee-73c2-a87b-ff46a7d3dde5","2025-09-02_09h24.00.579",NA,NA,785.9008,785.9008,785.9009,786.2508,NA,NA,NA,NA,NA,NA,NA,TRUE,4,1.8557,782.9017,785.9006,NA,NA,NA,NA,NA,25,35,0,96,96,34,1,2,97,"likert"
"3975392668B548F4866ED6F1FAEC3C4B",1,"01990a98-6111-79f7-a630-e93c55104679","01990a84-c4ee-73c2-a87b-ff46a7d3dde5","2025-09-02_09h24.00.579",NA,NA,789.2517,789.2517,789.2518,789.602,NA,NA,NA,NA,NA,NA,NA,TRUE,4,1.3139,786.2514,789.2511,NA,NA,NA,NA,NA,28,26,0,97,97,36,1,2,98,"likert"
"3975392668B548F4866ED6F1FAEC3C4B",1,"01990a98-6111-79f7-a630-e93c55104679","01990a84-c4ee-73c2-a87b-ff46a7d3dde5","2025-09-02_09h24.00.579",NA,NA,792.601,792.6011,792.6011,792.951,NA,NA,NA,NA,NA,NA,NA,TRUE,4,1.3725,789.6028,792.601,NA,NA,NA,NA,NA,25,33,0,98,98,33,1,2,99,"likert"
"3975392668B548F4866ED6F1FAEC3C4B",1,"01990a98-6111-79f7-a630-e93c55104679","01990a84-c4ee-73c2-a87b-ff46a7d3dde5","2025-09-02_09h24.00.579",NA,NA,795.9516,795.9516,795.9516,796.3008,NA,NA,NA,NA,NA,NA,NA,TRUE,3,1.418,792.9523,795.9515,NA,NA,NA,NA,NA,150,31,0,99,99,90,1,2,100,"likert"
"3975392668B548F4866ED6F1FAEC3C4B",1,"01990a98-6111-79f7-a630-e93c55104679","01990a84-c4ee-73c2-a87b-ff46a7d3dde5","2025-09-02_09h24.00.579",NA,NA,799.3008,799.3008,799.3008,799.6516,NA,NA,NA,NA,NA,NA,NA,TRUE,5,0.7991,796.302,799.3007,NA,NA,NA,NA,NA,25,31,0,100,100,32,1,2,101,"likert"
"3975392668B548F4866ED6F1FAEC3C4B",1,"01990a98-6111-79f7-a630-e93c55104679","01990a84-c4ee-73c2-a87b-ff46a7d3dde5","2025-09-02_09h24.00.579",NA,NA,802.6508,802.6508,802.6508,803.0016,NA,NA,NA,NA,NA,NA,NA,TRUE,5,1.2007,799.6528,802.6508,NA,NA,NA,NA,NA,12,28,0,101,101,14,1,2,102,"likert"
"3975392668B548F4866ED6F1FAEC3C4B",1,"01990a98-6111-79f7-a630-e93c55104679","01990a84-c4ee-73c2-a87b-ff46a7d3dde5","2025-09-02_09h24.00.579",NA,NA,806.0012,806.0013,806.0014,806.3508,NA,NA,NA,NA,NA,NA,NA,TRUE,3,1.6407,803.0026,806.001,NA,NA,NA,NA,NA,40,54,0,102,102,53,1,2,103,"likert"
"3975392668B548F4866ED6F1FAEC3C4B",1,"01990a98-6111-79f7-a630-e93c55104679","01990a84-c4ee-73c2-a87b-ff46a7d3dde5","2025-09-02_09h24.00.579",NA,NA,809.3509,809.6006,809.6007,809.7008,NA,NA,NA,NA,NA,NA,NA,FALSE,NA,NA,806.3519,809.3506,NA,NA,NA,NA,NA,12,26,0,103,103,13,1,2,104,"likert"
"3975392668B548F4866ED6F1FAEC3C4B",1,"01990a98-6111-79f7-a630-e93c55104679","01990a84-c4ee-73c2-a87b-ff46a7d3dde5","2025-09-02_09h24.00.579",NA,NA,812.7007,812.7007,812.7007,813.051,NA,NA,NA,NA,NA,NA,NA,TRUE,3,1.3318,809.702,812.7005,NA,NA,NA,NA,NA,90,30,0,104,104,73,1,2,105,"likert"
"3975392668B548F4866ED6F1FAEC3C4B",1,"01990a98-6111-79f7-a630-e93c55104679","01990a84-c4ee-73c2-a87b-ff46a7d3dde5","2025-09-02_09h24.00.579",NA,NA,816.051,816.051,816.051,816.4006,NA,NA,NA,NA,NA,NA,NA,TRUE,5,0.8502,813.0524,816.0508,NA,NA,NA,NA,NA,12,31,0,105,105,15,1,2,106,"likert"
"3975392668B548F4866ED6F1FAEC3C4B",1,"01990a98-6111-79f7-a630-e93c55104679","01990a84-c4ee-73c2-a87b-ff46a7d3dde5","2025-09-02_09h24.00.579",NA,NA,819.401,819.401,819.401,819.7509,NA,NA,NA,NA,NA,NA,NA,TRUE,1,1.3163,816.4021,819.4009,NA,NA,NA,NA,NA,200,39,0,106,106,105,1,2,107,"likert"
"3975392668B548F4866ED6F1FAEC3C4B",1,"01990a98-6111-79f7-a630-e93c55104679","01990a84-c4ee-73c2-a87b-ff46a7d3dde5","2025-09-02_09h24.00.579",NA,NA,822.751,822.751,822.751,823.1005,NA,NA,NA,NA,NA,NA,NA,TRUE,2,1.0498,819.7525,822.7508,NA,NA,NA,NA,NA,180,54,0,107,107,101,1,2,108,"likert"
