"participant","session","assignmentId","projectId","date","practiceTrial.started","practiceTrial.stopped","tooLate.started","tooLate.stopped","blank.started","blank.stopped","trials_pract.thisRepN","trials_pract.thisTrialN","trials_pract.thisN","trials_pract.thisIndex","trials_pract.ran","delay_pract","amount_pract","responseMade","key","rt","trial.started","trial.stopped","trials.thisRepN","trials.thisTrialN","trials.thisN","trials.thisIndex","trials.ran","delay","amount","trials_2.thisRepN","trials_2.thisTrialN","trials_2.thisN","trials_2.thisIndex","trials_2.ran","block","trial","taskType"
"3B2918D43F064EE3802519993EF8A39F",1,"01990a9b-429e-71da-863d-43c42d7b8d70","01990a84-c4ee-73c2-a87b-ff46a7d3dde5","2025-09-02_06h41.54.885",10.3125,13.2573,13.2585,13.2591,13.2593,13.592,0,0,0,3,1,3,27,TRUE,2,2.5993,NA,NA,NA,NA,NA,NA,NA,NA,NA,NA,NA,NA,NA,NA,0,1,"likert"
"3B2918D43F064EE3802519993EF8A39F",1,"01990a9b-429e-71da-863d-43c42d7b8d70","01990a84-c4ee-73c2-a87b-ff46a7d3dde5","2025-09-02_06h41.54.885",13.595,16.596,16.5962,16.5962,16.5962,16.9296,0,1,1,1,1,100,50,TRUE,4,1.0436,NA,NA,NA,NA,NA,NA,NA,NA,NA,NA,NA,NA,NA,NA,0,2,"likert"
"3B2918D43F064EE3802519993EF8A39F",1,"01990a9b-429e-71da-863d-43c42d7b8d70","01990a84-c4ee-73c2-a87b-ff46a7d3dde5","2025-09-02_06h41.54.885",16.9323,19.9912,19.9914,20,20.0002,20.3415,0,2,2,4,1,30,40,TRUE,3,0.661,NA,NA,NA,NA,NA,NA,NA,NA,NA,NA,NA,NA,NA,NA,0,3,"likert"
"3B2918D43F064EE3802519993EF8A39F",1,"01990a9b-429e-71da-863d-43c42d7b8d70","01990a84-c4ee-73c2-a87b-ff46a7d3dde5","2025-09-02_06h41.54.885",20.3427,23.2946,23.2948,23.2949,23.295,23.6541,0,3,3,0,1,7,30,TRUE,1,0.6862,NA,NA,NA,NA,NA,NA,NA,NA,NA,NA,NA,NA,NA,NA,0,4,"likert"
"3B2918D43F064EE3802519993EF8A39F",1,"01990a9b-429e-71da-863d-43c42d7b8d70","01990a84-c4ee-73c2-a87b-ff46a7d3dde5","2025-09-02_06h41.54.885",23.6565,26.6551,26.6552,26.6553,26.6553,27.0111,0,4,4,2,1,14,45,TRUE,2,0.5872,NA,NA,NA,NA,NA,NA,NA,NA,NA,NA,NA,NA,NA,NA,0,5,"likert"
"3B2918D43F064EE3802519993EF8A39F",1,"01990a9b-429e-71da-863d-43c42d7b8d70","01990a84-c4ee-73c2-a87b-ff46a7d3dde5","2025-09-02_06h41.54.885",NA,NA,45.9084,45.9084,45.9085,46.2984,NA,NA,NA,NA,NA,NA,NA,TRUE,1,1.614,43.0026,45.908,0,0,0,94,1,150,47,NA,NA,NA,NA,NA,1,1,"likert"
"3B2918D43F064EE3802519993EF8A39F",1,"01990a9b-429e-71da-863d-43c42d7b8d70","01990a84-c4ee-73c2-a87b-ff46a7d3dde5","2025-09-02_06h41.54.885",NA,NA,49.2867,49.2868,49.2869,49.6274,NA,NA,NA,NA,NA,NA,NA,TRUE,2,0.7601,46.3014,49.2864,0,1,1,83,1,95,54,NA,NA,NA,NA,NA,1,2,"likert"
"3B2918D43F064EE3802519993EF8A39F",1,"01990a9b-429e-71da-863d-43c42d7b8d70","01990a84-c4ee-73c2-a87b-ff46a7d3dde5","2025-09-02_06h41.54.885",NA,NA,52.6767,52.6769,52.677,52.9524,NA,NA,NA,NA,NA,NA,NA,TRUE,4,0.3043,49.6308,52.6765,0,2,2,84,1,100,26,NA,NA,NA,NA,NA,1,3,"likert"
"3B2918D43F064EE3802519993EF8A39F",1,"01990a9b-429e-71da-863d-43c42d7b8d70","01990a84-c4ee-73c2-a87b-ff46a7d3dde5","2025-09-02_06h41.54.885",NA,NA,55.9832,55.9834,55.9834,56.3441,NA,NA,NA,NA,NA,NA,NA,TRUE,3,0.0083,52.9539,55.983,0,3,3,80,1,95,35,NA,NA,NA,NA,NA,1,4,"likert"
"3B2918D43F064EE3802519993EF8A39F",1,"01990a9b-429e-71da-863d-43c42d7b8d70","01990a84-c4ee-73c2-a87b-ff46a7d3dde5","2025-09-02_06h41.54.885",NA,NA,59.3948,59.3949,59.3949,59.6781,NA,NA,NA,NA,NA,NA,NA,TRUE,2,0.6932,56.3453,59.3946,0,4,4,50,1,40,35,NA,NA,NA,NA,NA,1,5,"likert"
"3B2918D43F064EE3802519993EF8A39F",1,"01990a9b-429e-71da-863d-43c42d7b8d70","01990a84-c4ee-73c2-a87b-ff46a7d3dde5","2025-09-02_06h41.54.885",NA,NA,62.7175,62.7176,62.7177,63.0729,NA,NA,NA,NA,NA,NA,NA,TRUE,1,0.5775,59.6804,62.7173,0,5,5,14,1,12,28,NA,NA,NA,NA,NA,1,6,"likert"
"3B2918D43F064EE3802519993EF8A39F",1,"01990a9b-429e-71da-863d-43c42d7b8d70","01990a84-c4ee-73c2-a87b-ff46a7d3dde5","2025-09-02_06h41.54.885",NA,NA,66.0264,66.0265,66.0265,66.3826,NA,NA,NA,NA,NA,NA,NA,TRUE,4,0.6946,63.0749,66.0262,0,6,6,68,1,60,35,NA,NA,NA,NA,NA,1,7,"likert"
"3B2918D43F064EE3802519993EF8A39F",1,"01990a9b-429e-71da-863d-43c42d7b8d70","01990a84-c4ee-73c2-a87b-ff46a7d3dde5","2025-09-02_06h41.54.885",NA,NA,69.4147,69.4148,69.4148,69.7393,NA,NA,NA,NA,NA,NA,NA,TRUE,3,0.8062,66.3837,69.4146,0,7,7,49,1,40,33,NA,NA,NA,NA,NA,1,8,"likert"
"3B2918D43F064EE3802519993EF8A39F",1,"01990a9b-429e-71da-863d-43c42d7b8d70","01990a84-c4ee-73c2-a87b-ff46a7d3dde5","2025-09-02_06h41.54.885",NA,NA,72.7385,72.7386,72.7386,73.123,NA,NA,NA,NA,NA,NA,NA,TRUE,2,0.7907,69.7412,72.7383,0,8,8,25,1,21,27,NA,NA,NA,NA,NA,1,9,"likert"
"3B2918D43F064EE3802519993EF8A39F",1,"01990a9b-429e-71da-863d-43c42d7b8d70","01990a84-c4ee-73c2-a87b-ff46a7d3dde5","2025-09-02_06h41.54.885",NA,NA,76.148,76.1482,76.1482,76.4351,NA,NA,NA,NA,NA,NA,NA,TRUE,1,0.7539,73.1249,76.1479,0,9,9,30,1,25,27,NA,NA,NA,NA,NA,1,10,"likert"
"3B2918D43F064EE3802519993EF8A39F",1,"01990a9b-429e-71da-863d-43c42d7b8d70","01990a84-c4ee-73c2-a87b-ff46a7d3dde5","2025-09-02_06h41.54.885",NA,NA,79.4734,79.4735,79.4735,79.823,NA,NA,NA,NA,NA,NA,NA,TRUE,4,0.6048,76.4367,79.4733,0,10,10,3,1,7,30,NA,NA,NA,NA,NA,1,11,"likert"
"3B2918D43F064EE3802519993EF8A39F",1,"01990a9b-429e-71da-863d-43c42d7b8d70","01990a84-c4ee-73c2-a87b-ff46a7d3dde5","2025-09-02_06h41.54.885",NA,NA,82.7862,82.7862,82.7862,83.1556,NA,NA,NA,NA,NA,NA,NA,TRUE,5,0.6925,79.8247,82.7859,0,11,11,5,1,7,35,NA,NA,NA,NA,NA,1,12,"likert"
"3B2918D43F064EE3802519993EF8A39F",1,"01990a9b-429e-71da-863d-43c42d7b8d70","01990a84-c4ee-73c2-a87b-ff46a7d3dde5","2025-09-02_06h41.54.885",NA,NA,86.1231,86.1231,86.1231,86.5335,NA,NA,NA,NA,NA,NA,NA,TRUE,3,0.7468,83.1576,86.1229,0,12,12,55,1,45,29,NA,NA,NA,NA,NA,1,13,"likert"
"3B2918D43F064EE3802519993EF8A39F",1,"01990a9b-429e-71da-863d-43c42d7b8d70","01990a84-c4ee-73c2-a87b-ff46a7d3dde5","2025-09-02_06h41.54.885",NA,NA,89.507,89.507,89.507,89.8636,NA,NA,NA,NA,NA,NA,NA,TRUE,2,0.8096,86.5353,89.5068,0,13,13,63,1,50,40,NA,NA,NA,NA,NA,1,14,"likert"
"3B2918D43F064EE3802519993EF8A39F",1,"01990a9b-429e-71da-863d-43c42d7b8d70","01990a84-c4ee-73c2-a87b-ff46a7d3dde5","2025-09-02_06h41.54.885",NA,NA,92.8349,92.835,92.835,93.1763,NA,NA,NA,NA,NA,NA,NA,TRUE,1,0.6709,89.867,92.8347,0,14,14,38,1,28,32,NA,NA,NA,NA,NA,1,15,"likert"
"3B2918D43F064EE3802519993EF8A39F",1,"01990a9b-429e-71da-863d-43c42d7b8d70","01990a84-c4ee-73c2-a87b-ff46a7d3dde5","2025-09-02_06h41.54.885",NA,NA,96.2121,96.2121,96.2122,96.5655,NA,NA,NA,NA,NA,NA,NA,TRUE,4,0.6506,93.1777,96.2119,0,15,15,52,1,40,47,NA,NA,NA,NA,NA,1,16,"likert"
"3B2918D43F064EE3802519993EF8A39F",1,"01990a9b-429e-71da-863d-43c42d7b8d70","01990a84-c4ee-73c2-a87b-ff46a7d3dde5","2025-09-02_06h41.54.885",NA,NA,99.539,99.5391,99.5391,99.8748,NA,NA,NA,NA,NA,NA,NA,TRUE,3,1.0183,96.5671,99.539,0,16,16,47,1,30,38,NA,NA,NA,NA,NA,1,17,"likert"
"3B2918D43F064EE3802519993EF8A39F",1,"01990a9b-429e-71da-863d-43c42d7b8d70","01990a84-c4ee-73c2-a87b-ff46a7d3dde5","2025-09-02_06h41.54.885",NA,NA,102.9195,102.9196,102.9196,103.2545,NA,NA,NA,NA,NA,NA,NA,TRUE,2,0.7973,99.876,102.9194,0,17,17,48,1,40,27,NA,NA,NA,NA,NA,1,18,"likert"
"3B2918D43F064EE3802519993EF8A39F",1,"01990a9b-429e-71da-863d-43c42d7b8d70","01990a84-c4ee-73c2-a87b-ff46a7d3dde5","2025-09-02_06h41.54.885",NA,NA,106.2336,106.2337,106.2337,106.6342,NA,NA,NA,NA,NA,NA,NA,TRUE,1,0.6728,103.2564,106.2334,0,18,18,96,1,180,27,NA,NA,NA,NA,NA,1,19,"likert"
"3B2918D43F064EE3802519993EF8A39F",1,"01990a9b-429e-71da-863d-43c42d7b8d70","01990a84-c4ee-73c2-a87b-ff46a7d3dde5","2025-09-02_06h41.54.885",NA,NA,109.6313,109.6314,109.6314,109.9927,NA,NA,NA,NA,NA,NA,NA,TRUE,4,1.1365,106.6361,109.6311,0,19,19,72,1,90,26,NA,NA,NA,NA,NA,1,20,"likert"
"3B2918D43F064EE3802519993EF8A39F",1,"01990a9b-429e-71da-863d-43c42d7b8d70","01990a84-c4ee-73c2-a87b-ff46a7d3dde5","2025-09-02_06h41.54.885",NA,NA,112.994,112.994,112.994,113.3051,NA,NA,NA,NA,NA,NA,NA,TRUE,2,0.7169,109.9946,112.9939,0,20,20,39,1,28,35,NA,NA,NA,NA,NA,1,21,"likert"
"3B2918D43F064EE3802519993EF8A39F",1,"01990a9b-429e-71da-863d-43c42d7b8d70","01990a84-c4ee-73c2-a87b-ff46a7d3dde5","2025-09-02_06h41.54.885",NA,NA,116.3185,116.3185,116.3186,116.6788,NA,NA,NA,NA,NA,NA,NA,TRUE,3,0.6345,113.3065,116.3183,0,21,21,103,1,200,28,NA,NA,NA,NA,NA,1,22,"likert"
"3B2918D43F064EE3802519993EF8A39F",1,"01990a9b-429e-71da-863d-43c42d7b8d70","01990a84-c4ee-73c2-a87b-ff46a7d3dde5","2025-09-02_06h41.54.885",NA,NA,119.6695,119.6695,119.6696,120.0628,NA,NA,NA,NA,NA,NA,NA,TRUE,4,0.4961,116.6807,119.6693,0,22,22,42,1,30,26,NA,NA,NA,NA,NA,1,23,"likert"
"3B2918D43F064EE3802519993EF8A39F",1,"01990a9b-429e-71da-863d-43c42d7b8d70","01990a84-c4ee-73c2-a87b-ff46a7d3dde5","2025-09-02_06h41.54.885",NA,NA,122.9992,122.9992,122.9992,123.3291,NA,NA,NA,NA,NA,NA,NA,TRUE,1,1.062,120.0644,122.9989,0,23,23,89,1,100,54,NA,NA,NA,NA,NA,1,24,"likert"
"3B2918D43F064EE3802519993EF8A39F",1,"01990a9b-429e-71da-863d-43c42d7b8d70","01990a84-c4ee-73c2-a87b-ff46a7d3dde5","2025-09-02_06h41.54.885",NA,NA,126.3437,126.3438,126.3438,126.6673,NA,NA,NA,NA,NA,NA,NA,TRUE,2,0.6551,123.3311,126.3436,0,24,24,91,1,150,33,NA,NA,NA,NA,NA,1,25,"likert"
"3B2918D43F064EE3802519993EF8A39F",1,"01990a9b-429e-71da-863d-43c42d7b8d70","01990a84-c4ee-73c2-a87b-ff46a7d3dde5","2025-09-02_06h41.54.885",NA,NA,129.749,129.7492,129.7493,130.0387,NA,NA,NA,NA,NA,NA,NA,TRUE,3,0.7345,126.6684,129.7489,0,25,25,56,1,45,31,NA,NA,NA,NA,NA,1,26,"likert"
"3B2918D43F064EE3802519993EF8A39F",1,"01990a9b-429e-71da-863d-43c42d7b8d70","01990a84-c4ee-73c2-a87b-ff46a7d3dde5","2025-09-02_06h41.54.885",NA,NA,133.0256,133.0257,133.0257,133.3715,NA,NA,NA,NA,NA,NA,NA,TRUE,4,0.5836,130.0403,133.0254,0,26,26,24,1,21,26,NA,NA,NA,NA,NA,1,27,"likert"
"3B2918D43F064EE3802519993EF8A39F",1,"01990a9b-429e-71da-863d-43c42d7b8d70","01990a84-c4ee-73c2-a87b-ff46a7d3dde5","2025-09-02_06h41.54.885",NA,NA,136.4316,136.4317,136.4317,136.7704,NA,NA,NA,NA,NA,NA,NA,TRUE,1,0.6072,133.3731,136.4314,0,27,27,86,1,100,38,NA,NA,NA,NA,NA,1,28,"likert"
"3B2918D43F064EE3802519993EF8A39F",1,"01990a9b-429e-71da-863d-43c42d7b8d70","01990a84-c4ee-73c2-a87b-ff46a7d3dde5","2025-09-02_06h41.54.885",NA,NA,139.7548,139.7549,139.7549,140.1034,NA,NA,NA,NA,NA,NA,NA,TRUE,2,0.7039,136.7722,139.7547,0,28,28,106,1,200,47,NA,NA,NA,NA,NA,1,29,"likert"
"3B2918D43F064EE3802519993EF8A39F",1,"01990a9b-429e-71da-863d-43c42d7b8d70","01990a84-c4ee-73c2-a87b-ff46a7d3dde5","2025-09-02_06h41.54.885",NA,NA,143.086,143.086,143.086,143.4971,NA,NA,NA,NA,NA,NA,NA,TRUE,3,0.6405,140.1044,143.0858,0,29,29,74,1,90,33,NA,NA,NA,NA,NA,1,30,"likert"
"3B2918D43F064EE3802519993EF8A39F",1,"01990a9b-429e-71da-863d-43c42d7b8d70","01990a84-c4ee-73c2-a87b-ff46a7d3dde5","2025-09-02_06h41.54.885",NA,NA,146.4633,146.4634,146.4634,146.806,NA,NA,NA,NA,NA,NA,NA,TRUE,4,0.3898,143.4986,146.4632,0,30,30,41,1,28,46,NA,NA,NA,NA,NA,1,31,"likert"
"3B2918D43F064EE3802519993EF8A39F",1,"01990a9b-429e-71da-863d-43c42d7b8d70","01990a84-c4ee-73c2-a87b-ff46a7d3dde5","2025-09-02_06h41.54.885",NA,NA,149.809,149.809,149.809,150.1378,NA,NA,NA,NA,NA,NA,NA,TRUE,1,0.6385,146.8079,149.8089,0,31,31,34,1,25,35,NA,NA,NA,NA,NA,1,32,"likert"
"3B2918D43F064EE3802519993EF8A39F",1,"01990a9b-429e-71da-863d-43c42d7b8d70","01990a84-c4ee-73c2-a87b-ff46a7d3dde5","2025-09-02_06h41.54.885",NA,NA,153.1821,153.1822,153.1822,153.5325,NA,NA,NA,NA,NA,NA,NA,TRUE,2,0.6068,150.1392,153.1819,0,32,32,2,1,7,28,NA,NA,NA,NA,NA,1,33,"likert"
"3B2918D43F064EE3802519993EF8A39F",1,"01990a9b-429e-71da-863d-43c42d7b8d70","01990a84-c4ee-73c2-a87b-ff46a7d3dde5","2025-09-02_06h41.54.885",NA,NA,156.5052,156.5052,156.5052,156.8505,NA,NA,NA,NA,NA,NA,NA,TRUE,3,0.2963,153.5342,156.505,0,33,33,67,1,60,33,NA,NA,NA,NA,NA,1,34,"likert"
"3B2918D43F064EE3802519993EF8A39F",1,"01990a9b-429e-71da-863d-43c42d7b8d70","01990a84-c4ee-73c2-a87b-ff46a7d3dde5","2025-09-02_06h41.54.885",NA,NA,159.8289,159.829,159.829,160.2025,NA,NA,NA,NA,NA,NA,NA,TRUE,4,0.9093,156.8523,159.8288,0,34,34,11,1,10,32,NA,NA,NA,NA,NA,1,35,"likert"
"3B2918D43F064EE3802519993EF8A39F",1,"01990a9b-429e-71da-863d-43c42d7b8d70","01990a84-c4ee-73c2-a87b-ff46a7d3dde5","2025-09-02_06h41.54.885",NA,NA,163.2148,163.2148,163.2148,163.5284,NA,NA,NA,NA,NA,NA,NA,TRUE,2,0.6127,160.204,163.2146,0,35,35,53,1,40,54,NA,NA,NA,NA,NA,1,36,"likert"
"3B2918D43F064EE3802519993EF8A39F",1,"01990a9b-429e-71da-863d-43c42d7b8d70","01990a84-c4ee-73c2-a87b-ff46a7d3dde5","2025-09-02_06h41.54.885",NA,NA,166.5588,166.5588,166.5588,166.8795,NA,NA,NA,NA,NA,NA,NA,TRUE,3,0.5829,163.5294,166.5586,0,36,36,21,1,14,32,NA,NA,NA,NA,NA,1,37,"likert"
"3B2918D43F064EE3802519993EF8A39F",1,"01990a9b-429e-71da-863d-43c42d7b8d70","01990a84-c4ee-73c2-a87b-ff46a7d3dde5","2025-09-02_06h41.54.885",NA,NA,169.9045,169.9045,169.9045,170.2292,NA,NA,NA,NA,NA,NA,NA,TRUE,1,1.3702,166.8813,169.9043,0,37,37,58,1,45,40,NA,NA,NA,NA,NA,1,38,"likert"
"3B2918D43F064EE3802519993EF8A39F",1,"01990a9b-429e-71da-863d-43c42d7b8d70","01990a84-c4ee-73c2-a87b-ff46a7d3dde5","2025-09-02_06h41.54.885",NA,NA,173.2407,173.2407,173.2407,173.5915,NA,NA,NA,NA,NA,NA,NA,TRUE,5,1.5134,170.2305,173.2405,0,38,38,95,1,150,54,NA,NA,NA,NA,NA,1,39,"likert"
"3B2918D43F064EE3802519993EF8A39F",1,"01990a9b-429e-71da-863d-43c42d7b8d70","01990a84-c4ee-73c2-a87b-ff46a7d3dde5","2025-09-02_06h41.54.885",NA,NA,176.5783,176.5784,176.5785,176.9553,NA,NA,NA,NA,NA,NA,NA,TRUE,1,1.5849,173.5931,176.5782,0,39,39,32,1,25,31,NA,NA,NA,NA,NA,1,40,"likert"
"3B2918D43F064EE3802519993EF8A39F",1,"01990a9b-429e-71da-863d-43c42d7b8d70","01990a84-c4ee-73c2-a87b-ff46a7d3dde5","2025-09-02_06h41.54.885",NA,NA,179.9281,179.9282,179.9282,180.3102,NA,NA,NA,NA,NA,NA,NA,TRUE,1,1.7955,176.9568,179.9278,0,40,40,98,1,180,35,NA,NA,NA,NA,NA,1,41,"likert"
"3B2918D43F064EE3802519993EF8A39F",1,"01990a9b-429e-71da-863d-43c42d7b8d70","01990a84-c4ee-73c2-a87b-ff46a7d3dde5","2025-09-02_06h41.54.885",NA,NA,183.3114,183.3114,183.3115,183.6362,NA,NA,NA,NA,NA,NA,NA,TRUE,2,1.2973,180.3118,183.3112,0,41,41,82,1,95,47,NA,NA,NA,NA,NA,1,42,"likert"
"3B2918D43F064EE3802519993EF8A39F",1,"01990a9b-429e-71da-863d-43c42d7b8d70","01990a84-c4ee-73c2-a87b-ff46a7d3dde5","2025-09-02_06h41.54.885",NA,NA,186.6379,186.6379,186.6379,187.0247,NA,NA,NA,NA,NA,NA,NA,TRUE,5,2.1613,183.6379,186.6377,0,42,42,31,1,25,29,NA,NA,NA,NA,NA,1,43,"likert"
"3B2918D43F064EE3802519993EF8A39F",1,"01990a9b-429e-71da-863d-43c42d7b8d70","01990a84-c4ee-73c2-a87b-ff46a7d3dde5","2025-09-02_06h41.54.885",NA,NA,190.0403,190.0404,190.0404,190.3466,NA,NA,NA,NA,NA,NA,NA,TRUE,5,1.5026,187.0267,190.0401,0,43,43,85,1,100,31,NA,NA,NA,NA,NA,1,44,"likert"
"3B2918D43F064EE3802519993EF8A39F",1,"01990a9b-429e-71da-863d-43c42d7b8d70","01990a84-c4ee-73c2-a87b-ff46a7d3dde5","2025-09-02_06h41.54.885",NA,NA,193.3539,193.354,193.354,193.6722,NA,NA,NA,NA,NA,NA,NA,TRUE,5,1.5495,190.3485,193.3537,0,44,44,10,1,10,30,NA,NA,NA,NA,NA,1,45,"likert"
"3B2918D43F064EE3802519993EF8A39F",1,"01990a9b-429e-71da-863d-43c42d7b8d70","01990a84-c4ee-73c2-a87b-ff46a7d3dde5","2025-09-02_06h41.54.885",NA,NA,196.7233,196.7234,196.7235,197.0705,NA,NA,NA,NA,NA,NA,NA,TRUE,4,1.0118,193.6742,196.7232,0,45,45,28,1,21,32,NA,NA,NA,NA,NA,1,46,"likert"
"3B2918D43F064EE3802519993EF8A39F",1,"01990a9b-429e-71da-863d-43c42d7b8d70","01990a84-c4ee-73c2-a87b-ff46a7d3dde5","2025-09-02_06h41.54.885",NA,NA,200.0621,200.0621,200.0622,200.4401,NA,NA,NA,NA,NA,NA,NA,TRUE,5,1.6056,197.0719,200.0619,0,46,46,61,1,50,30,NA,NA,NA,NA,NA,1,47,"likert"
"3B2918D43F064EE3802519993EF8A39F",1,"01990a9b-429e-71da-863d-43c42d7b8d70","01990a84-c4ee-73c2-a87b-ff46a7d3dde5","2025-09-02_06h41.54.885",NA,NA,203.4355,203.4356,203.4357,203.7779,NA,NA,NA,NA,NA,NA,NA,TRUE,3,1.6334,200.442,203.4353,0,47,47,107,1,200,54,NA,NA,NA,NA,NA,1,48,"likert"
"3B2918D43F064EE3802519993EF8A39F",1,"01990a9b-429e-71da-863d-43c42d7b8d70","01990a84-c4ee-73c2-a87b-ff46a7d3dde5","2025-09-02_06h41.54.885",NA,NA,206.742,206.7421,206.7421,207.1273,NA,NA,NA,NA,NA,NA,NA,TRUE,1,0.9028,203.7798,206.7418,0,48,48,29,1,21,38,NA,NA,NA,NA,NA,1,49,"likert"
"3B2918D43F064EE3802519993EF8A39F",1,"01990a9b-429e-71da-863d-43c42d7b8d70","01990a84-c4ee-73c2-a87b-ff46a7d3dde5","2025-09-02_06h41.54.885",NA,NA,210.0929,210.0929,210.0929,210.4816,NA,NA,NA,NA,NA,NA,NA,TRUE,2,0.9416,207.129,210.0928,0,49,49,46,1,30,32,NA,NA,NA,NA,NA,1,50,"likert"
"3B2918D43F064EE3802519993EF8A39F",1,"01990a9b-429e-71da-863d-43c42d7b8d70","01990a84-c4ee-73c2-a87b-ff46a7d3dde5","2025-09-02_06h41.54.885",NA,NA,213.4491,213.4492,213.4492,213.8021,NA,NA,NA,NA,NA,NA,NA,TRUE,2,0.0109,210.4827,213.4489,0,50,50,4,1,7,32,NA,NA,NA,NA,NA,1,51,"likert"
"3B2918D43F064EE3802519993EF8A39F",1,"01990a9b-429e-71da-863d-43c42d7b8d70","01990a84-c4ee-73c2-a87b-ff46a7d3dde5","2025-09-02_06h41.54.885",NA,NA,216.8292,216.8293,216.8293,217.1493,NA,NA,NA,NA,NA,NA,NA,TRUE,4,2.2381,213.8038,216.829,0,51,51,69,1,60,40,NA,NA,NA,NA,NA,1,52,"likert"
"3B2918D43F064EE3802519993EF8A39F",1,"01990a9b-429e-71da-863d-43c42d7b8d70","01990a84-c4ee-73c2-a87b-ff46a7d3dde5","2025-09-02_06h41.54.885",NA,NA,220.1247,220.1247,220.1247,220.4804,NA,NA,NA,NA,NA,NA,NA,TRUE,3,0.7402,217.1512,220.1243,0,52,52,35,1,25,46,NA,NA,NA,NA,NA,1,53,"likert"
"3B2918D43F064EE3802519993EF8A39F",1,"01990a9b-429e-71da-863d-43c42d7b8d70","01990a84-c4ee-73c2-a87b-ff46a7d3dde5","2025-09-02_06h41.54.885",NA,NA,223.5012,223.5013,223.5013,223.8515,NA,NA,NA,NA,NA,NA,NA,TRUE,2,0.686,220.4815,223.5011,0,53,53,17,1,12,35,NA,NA,NA,NA,NA,1,54,"likert"
"3B2918D43F064EE3802519993EF8A39F",1,"01990a9b-429e-71da-863d-43c42d7b8d70","01990a84-c4ee-73c2-a87b-ff46a7d3dde5","2025-09-02_06h41.54.885",NA,NA,226.8428,226.8429,226.8429,227.1914,NA,NA,NA,NA,NA,NA,NA,TRUE,1,0.7177,223.8531,226.8425,0,54,54,78,1,95,31,NA,NA,NA,NA,NA,1,55,"likert"
"3B2918D43F064EE3802519993EF8A39F",1,"01990a9b-429e-71da-863d-43c42d7b8d70","01990a84-c4ee-73c2-a87b-ff46a7d3dde5","2025-09-02_06h41.54.885",NA,NA,230.1976,230.1976,230.1976,230.5708,NA,NA,NA,NA,NA,NA,NA,TRUE,3,0.652,227.1929,230.1975,0,55,55,59,1,45,46,NA,NA,NA,NA,NA,1,56,"likert"
"3B2918D43F064EE3802519993EF8A39F",1,"01990a9b-429e-71da-863d-43c42d7b8d70","01990a84-c4ee-73c2-a87b-ff46a7d3dde5","2025-09-02_06h41.54.885",NA,NA,233.5154,233.5154,233.5155,233.9173,NA,NA,NA,NA,NA,NA,NA,TRUE,4,0.7079,230.5718,233.5152,0,56,56,87,1,100,39,NA,NA,NA,NA,NA,1,57,"likert"
"3B2918D43F064EE3802519993EF8A39F",1,"01990a9b-429e-71da-863d-43c42d7b8d70","01990a84-c4ee-73c2-a87b-ff46a7d3dde5","2025-09-02_06h41.54.885",NA,NA,236.9339,236.934,236.9341,237.2776,NA,NA,NA,NA,NA,NA,NA,TRUE,3,1.2404,233.9194,236.9337,0,57,57,19,1,14,26,NA,NA,NA,NA,NA,1,58,"likert"
"3B2918D43F064EE3802519993EF8A39F",1,"01990a9b-429e-71da-863d-43c42d7b8d70","01990a84-c4ee-73c2-a87b-ff46a7d3dde5","2025-09-02_06h41.54.885",NA,NA,240.2346,240.2348,240.2348,240.5869,NA,NA,NA,NA,NA,NA,NA,TRUE,1,0.736,237.2787,240.2344,0,58,58,60,1,50,27,NA,NA,NA,NA,NA,1,59,"likert"
"3B2918D43F064EE3802519993EF8A39F",1,"01990a9b-429e-71da-863d-43c42d7b8d70","01990a84-c4ee-73c2-a87b-ff46a7d3dde5","2025-09-02_06h41.54.885",NA,NA,243.6383,243.6384,243.6384,243.9247,NA,NA,NA,NA,NA,NA,NA,TRUE,2,0.589,240.5881,243.6381,0,59,59,75,1,90,40,NA,NA,NA,NA,NA,1,60,"likert"
"3B2918D43F064EE3802519993EF8A39F",1,"01990a9b-429e-71da-863d-43c42d7b8d70","01990a84-c4ee-73c2-a87b-ff46a7d3dde5","2025-09-02_06h41.54.885",NA,NA,246.9258,246.9259,246.9259,247.3117,NA,NA,NA,NA,NA,NA,NA,TRUE,4,0.7203,243.9267,246.9256,0,60,60,44,1,30,29,NA,NA,NA,NA,NA,1,61,"likert"
"3B2918D43F064EE3802519993EF8A39F",1,"01990a9b-429e-71da-863d-43c42d7b8d70","01990a84-c4ee-73c2-a87b-ff46a7d3dde5","2025-09-02_06h41.54.885",NA,NA,250.2824,250.2824,250.2824,250.6195,NA,NA,NA,NA,NA,NA,NA,TRUE,3,0.6735,247.3134,250.2822,0,61,61,6,1,10,25,NA,NA,NA,NA,NA,1,62,"likert"
"3B2918D43F064EE3802519993EF8A39F",1,"01990a9b-429e-71da-863d-43c42d7b8d70","01990a84-c4ee-73c2-a87b-ff46a7d3dde5","2025-09-02_06h41.54.885",NA,NA,253.6615,253.6615,253.6615,254.0092,NA,NA,NA,NA,NA,NA,NA,TRUE,1,1.0013,250.6212,253.6615,0,62,62,102,1,200,26,NA,NA,NA,NA,NA,1,63,"likert"
"3B2918D43F064EE3802519993EF8A39F",1,"01990a9b-429e-71da-863d-43c42d7b8d70","01990a84-c4ee-73c2-a87b-ff46a7d3dde5","2025-09-02_06h41.54.885",NA,NA,256.9854,256.9855,256.9855,257.394,NA,NA,NA,NA,NA,NA,NA,TRUE,2,2.8986,254.0109,256.9853,0,63,63,16,1,12,33,NA,NA,NA,NA,NA,1,64,"likert"
"3B2918D43F064EE3802519993EF8A39F",1,"01990a9b-429e-71da-863d-43c42d7b8d70","01990a84-c4ee-73c2-a87b-ff46a7d3dde5","2025-09-02_06h41.54.885",NA,NA,260.3132,260.3133,260.3134,260.7185,NA,NA,NA,NA,NA,NA,NA,TRUE,2,1.9784,257.3961,260.3131,0,64,64,26,1,21,29,NA,NA,NA,NA,NA,1,65,"likert"
"3B2918D43F064EE3802519993EF8A39F",1,"01990a9b-429e-71da-863d-43c42d7b8d70","01990a84-c4ee-73c2-a87b-ff46a7d3dde5","2025-09-02_06h41.54.885",NA,NA,263.7368,263.7368,263.7369,264.0802,NA,NA,NA,NA,NA,NA,NA,TRUE,3,0.754,260.7205,263.7366,0,65,65,104,1,200,35,NA,NA,NA,NA,NA,1,66,"likert"
"3B2918D43F064EE3802519993EF8A39F",1,"01990a9b-429e-71da-863d-43c42d7b8d70","01990a84-c4ee-73c2-a87b-ff46a7d3dde5","2025-09-02_06h41.54.885",NA,NA,267.0515,267.0515,267.0515,267.4657,NA,NA,NA,NA,NA,NA,NA,TRUE,1,2.8737,264.0821,267.0513,0,66,66,90,1,150,31,NA,NA,NA,NA,NA,1,67,"likert"
"3B2918D43F064EE3802519993EF8A39F",1,"01990a9b-429e-71da-863d-43c42d7b8d70","01990a84-c4ee-73c2-a87b-ff46a7d3dde5","2025-09-02_06h41.54.885",NA,NA,270.4196,270.4197,270.4197,270.7608,NA,NA,NA,NA,NA,NA,NA,TRUE,2,1.0353,267.4673,270.4194,0,67,67,99,1,180,39,NA,NA,NA,NA,NA,1,68,"likert"
"3B2918D43F064EE3802519993EF8A39F",1,"01990a9b-429e-71da-863d-43c42d7b8d70","01990a84-c4ee-73c2-a87b-ff46a7d3dde5","2025-09-02_06h41.54.885",NA,NA,273.7691,273.7691,273.7692,274.0994,NA,NA,NA,NA,NA,NA,NA,TRUE,3,0.6043,270.7628,273.7688,0,68,68,9,1,10,29,NA,NA,NA,NA,NA,1,69,"likert"
"3B2918D43F064EE3802519993EF8A39F",1,"01990a9b-429e-71da-863d-43c42d7b8d70","01990a84-c4ee-73c2-a87b-ff46a7d3dde5","2025-09-02_06h41.54.885",NA,NA,277.0811,277.0811,277.0812,277.4416,NA,NA,NA,NA,NA,NA,NA,TRUE,1,0.5792,274.1007,277.0808,0,69,69,8,1,10,27,NA,NA,NA,NA,NA,1,70,"likert"
"3B2918D43F064EE3802519993EF8A39F",1,"01990a9b-429e-71da-863d-43c42d7b8d70","01990a84-c4ee-73c2-a87b-ff46a7d3dde5","2025-09-02_06h41.54.885",NA,NA,280.4884,280.4884,280.4885,280.8383,NA,NA,NA,NA,NA,NA,NA,TRUE,4,1.1035,277.4435,280.4882,0,70,70,0,1,7,25,NA,NA,NA,NA,NA,1,71,"likert"
"3B2918D43F064EE3802519993EF8A39F",1,"01990a9b-429e-71da-863d-43c42d7b8d70","01990a84-c4ee-73c2-a87b-ff46a7d3dde5","2025-09-02_06h41.54.885",NA,NA,283.8245,283.8246,283.8246,284.1759,NA,NA,NA,NA,NA,NA,NA,TRUE,2,0.693,280.8402,283.8245,0,71,71,20,1,14,28,NA,NA,NA,NA,NA,1,72,"likert"
"3B2918D43F064EE3802519993EF8A39F",1,"01990a9b-429e-71da-863d-43c42d7b8d70","01990a84-c4ee-73c2-a87b-ff46a7d3dde5","2025-09-02_06h41.54.885",NA,NA,287.148,287.1481,287.1481,287.5036,NA,NA,NA,NA,NA,NA,NA,TRUE,5,0.7607,284.1777,287.1478,0,72,72,36,1,28,26,NA,NA,NA,NA,NA,1,73,"likert"
"3B2918D43F064EE3802519993EF8A39F",1,"01990a9b-429e-71da-863d-43c42d7b8d70","01990a84-c4ee-73c2-a87b-ff46a7d3dde5","2025-09-02_06h41.54.885",NA,NA,290.4709,290.471,290.471,290.8875,NA,NA,NA,NA,NA,NA,NA,TRUE,2,0.3375,287.5049,290.4707,0,73,73,101,1,180,54,NA,NA,NA,NA,NA,1,74,"likert"
"3B2918D43F064EE3802519993EF8A39F",1,"01990a9b-429e-71da-863d-43c42d7b8d70","01990a84-c4ee-73c2-a87b-ff46a7d3dde5","2025-09-02_06h41.54.885",NA,NA,293.8522,293.8522,293.8522,294.2028,NA,NA,NA,NA,NA,NA,NA,TRUE,1,0.6455,290.8894,293.852,0,74,74,43,1,30,27,NA,NA,NA,NA,NA,1,75,"likert"
"3B2918D43F064EE3802519993EF8A39F",1,"01990a9b-429e-71da-863d-43c42d7b8d70","01990a84-c4ee-73c2-a87b-ff46a7d3dde5","2025-09-02_06h41.54.885",NA,NA,297.1951,297.1952,297.1952,297.5386,NA,NA,NA,NA,NA,NA,NA,TRUE,3,0.7872,294.2046,297.1949,0,75,75,15,1,12,31,NA,NA,NA,NA,NA,1,76,"likert"
"3B2918D43F064EE3802519993EF8A39F",1,"01990a9b-429e-71da-863d-43c42d7b8d70","01990a84-c4ee-73c2-a87b-ff46a7d3dde5","2025-09-02_06h41.54.885",NA,NA,300.5712,300.5713,300.5713,300.9379,NA,NA,NA,NA,NA,NA,NA,TRUE,5,1.6174,297.5395,300.571,0,76,76,1,1,7,26,NA,NA,NA,NA,NA,1,77,"likert"
"3B2918D43F064EE3802519993EF8A39F",1,"01990a9b-429e-71da-863d-43c42d7b8d70","01990a84-c4ee-73c2-a87b-ff46a7d3dde5","2025-09-02_06h41.54.885",NA,NA,303.8835,303.8835,303.8835,304.2455,NA,NA,NA,NA,NA,NA,NA,TRUE,2,0.6803,300.9398,303.8833,0,77,77,70,1,60,47,NA,NA,NA,NA,NA,1,78,"likert"
"3B2918D43F064EE3802519993EF8A39F",1,"01990a9b-429e-71da-863d-43c42d7b8d70","01990a84-c4ee-73c2-a87b-ff46a7d3dde5","2025-09-02_06h41.54.885",NA,NA,307.2437,307.2437,307.2438,307.5953,NA,NA,NA,NA,NA,NA,NA,TRUE,3,1.1742,304.2469,307.2435,0,78,78,62,1,50,35,NA,NA,NA,NA,NA,1,79,"likert"
"3B2918D43F064EE3802519993EF8A39F",1,"01990a9b-429e-71da-863d-43c42d7b8d70","01990a84-c4ee-73c2-a87b-ff46a7d3dde5","2025-09-02_06h41.54.885",NA,NA,310.6218,310.622,310.622,310.9534,NA,NA,NA,NA,NA,NA,NA,TRUE,2,0.0085,307.5965,310.6217,0,79,79,22,1,14,35,NA,NA,NA,NA,NA,1,80,"likert"
"3B2918D43F064EE3802519993EF8A39F",1,"01990a9b-429e-71da-863d-43c42d7b8d70","01990a84-c4ee-73c2-a87b-ff46a7d3dde5","2025-09-02_06h41.54.885",NA,NA,313.9636,313.9636,313.9637,314.3078,NA,NA,NA,NA,NA,NA,NA,TRUE,2,0.2413,310.9545,313.9633,0,80,80,12,1,12,25,NA,NA,NA,NA,NA,1,81,"likert"
"3B2918D43F064EE3802519993EF8A39F",1,"01990a9b-429e-71da-863d-43c42d7b8d70","01990a84-c4ee-73c2-a87b-ff46a7d3dde5","2025-09-02_06h41.54.885",NA,NA,317.2787,317.2787,317.2787,317.6364,NA,NA,NA,NA,NA,NA,NA,TRUE,3,0.8074,314.3095,317.2785,0,81,81,18,1,14,25,NA,NA,NA,NA,NA,1,82,"likert"
"3B2918D43F064EE3802519993EF8A39F",1,"01990a9b-429e-71da-863d-43c42d7b8d70","01990a84-c4ee-73c2-a87b-ff46a7d3dde5","2025-09-02_06h41.54.885",NA,NA,320.694,320.6941,320.6942,321.0267,NA,NA,NA,NA,NA,NA,NA,TRUE,4,0.7792,317.6381,320.6938,0,82,82,37,1,28,28,NA,NA,NA,NA,NA,1,83,"likert"
"3B2918D43F064EE3802519993EF8A39F",1,"01990a9b-429e-71da-863d-43c42d7b8d70","01990a84-c4ee-73c2-a87b-ff46a7d3dde5","2025-09-02_06h41.54.885",NA,NA,323.9818,323.9819,323.9819,324.3368,NA,NA,NA,NA,NA,NA,NA,TRUE,2,1.0743,321.0286,323.9816,0,83,83,33,1,25,33,NA,NA,NA,NA,NA,1,84,"likert"
"3B2918D43F064EE3802519993EF8A39F",1,"01990a9b-429e-71da-863d-43c42d7b8d70","01990a84-c4ee-73c2-a87b-ff46a7d3dde5","2025-09-02_06h41.54.885",NA,NA,327.3724,327.3725,327.3725,327.721,NA,NA,NA,NA,NA,NA,NA,TRUE,1,0.3707,324.3383,327.3723,0,84,84,105,1,200,39,NA,NA,NA,NA,NA,1,85,"likert"
"3B2918D43F064EE3802519993EF8A39F",1,"01990a9b-429e-71da-863d-43c42d7b8d70","01990a84-c4ee-73c2-a87b-ff46a7d3dde5","2025-09-02_06h41.54.885",NA,NA,330.7079,330.7079,330.7079,331.0688,NA,NA,NA,NA,NA,NA,NA,TRUE,3,0.6456,327.7227,330.7076,0,85,85,40,1,28,39,NA,NA,NA,NA,NA,1,86,"likert"
"3B2918D43F064EE3802519993EF8A39F",1,"01990a9b-429e-71da-863d-43c42d7b8d70","01990a84-c4ee-73c2-a87b-ff46a7d3dde5","2025-09-02_06h41.54.885",NA,NA,334.0608,334.0608,334.0608,334.4155,NA,NA,NA,NA,NA,NA,NA,TRUE,4,0.6112,331.0706,334.0606,0,86,86,93,1,150,40,NA,NA,NA,NA,NA,1,87,"likert"
"3B2918D43F064EE3802519993EF8A39F",1,"01990a9b-429e-71da-863d-43c42d7b8d70","01990a84-c4ee-73c2-a87b-ff46a7d3dde5","2025-09-02_06h41.54.885",NA,NA,337.3911,337.3912,337.3912,337.7313,NA,NA,NA,NA,NA,NA,NA,TRUE,1,0.6134,334.4166,337.3909,0,87,87,65,1,50,54,NA,NA,NA,NA,NA,1,88,"likert"
"3B2918D43F064EE3802519993EF8A39F",1,"01990a9b-429e-71da-863d-43c42d7b8d70","01990a84-c4ee-73c2-a87b-ff46a7d3dde5","2025-09-02_06h41.54.885",NA,NA,340.757,340.757,340.7571,341.1074,NA,NA,NA,NA,NA,NA,NA,TRUE,2,0.7451,337.7327,340.7568,0,88,88,64,1,50,46,NA,NA,NA,NA,NA,1,89,"likert"
"3B2918D43F064EE3802519993EF8A39F",1,"01990a9b-429e-71da-863d-43c42d7b8d70","01990a84-c4ee-73c2-a87b-ff46a7d3dde5","2025-09-02_06h41.54.885",NA,NA,344.0711,344.0711,344.0711,344.4884,NA,NA,NA,NA,NA,NA,NA,TRUE,3,0.4623,341.1092,344.0709,0,89,89,51,1,40,40,NA,NA,NA,NA,NA,1,90,"likert"
"3B2918D43F064EE3802519993EF8A39F",1,"01990a9b-429e-71da-863d-43c42d7b8d70","01990a84-c4ee-73c2-a87b-ff46a7d3dde5","2025-09-02_06h41.54.885",NA,NA,347.4654,347.4654,347.4655,347.8211,NA,NA,NA,NA,NA,NA,NA,TRUE,1,0.7055,344.4904,347.4652,0,90,90,81,1,95,40,NA,NA,NA,NA,NA,1,91,"likert"
"3B2918D43F064EE3802519993EF8A39F",1,"01990a9b-429e-71da-863d-43c42d7b8d70","01990a84-c4ee-73c2-a87b-ff46a7d3dde5","2025-09-02_06h41.54.885",NA,NA,350.7948,350.7949,350.795,351.1492,NA,NA,NA,NA,NA,NA,NA,TRUE,4,0.379,347.8226,350.7947,0,91,91,23,1,14,39,NA,NA,NA,NA,NA,1,92,"likert"
"3B2918D43F064EE3802519993EF8A39F",1,"01990a9b-429e-71da-863d-43c42d7b8d70","01990a84-c4ee-73c2-a87b-ff46a7d3dde5","2025-09-02_06h41.54.885",NA,NA,354.1553,354.1553,354.1554,354.5031,NA,NA,NA,NA,NA,NA,NA,TRUE,3,1.5759,351.151,354.1551,0,92,92,27,1,21,30,NA,NA,NA,NA,NA,1,93,"likert"
"3B2918D43F064EE3802519993EF8A39F",1,"01990a9b-429e-71da-863d-43c42d7b8d70","01990a84-c4ee-73c2-a87b-ff46a7d3dde5","2025-09-02_06h41.54.885",NA,NA,357.4869,357.487,357.487,357.8501,NA,NA,NA,NA,NA,NA,NA,TRUE,1,0.3201,354.5044,357.4868,0,93,93,79,1,95,33,NA,NA,NA,NA,NA,1,94,"likert"
"3B2918D43F064EE3802519993EF8A39F",1,"01990a9b-429e-71da-863d-43c42d7b8d70","01990a84-c4ee-73c2-a87b-ff46a7d3dde5","2025-09-02_06h41.54.885",NA,NA,360.8589,360.8589,360.859,361.2212,NA,NA,NA,NA,NA,NA,NA,TRUE,2,0.8411,357.8516,360.8587,0,94,94,71,1,60,54,NA,NA,NA,NA,NA,1,95,"likert"
"3B2918D43F064EE3802519993EF8A39F",1,"01990a9b-429e-71da-863d-43c42d7b8d70","01990a84-c4ee-73c2-a87b-ff46a7d3dde5","2025-09-02_06h41.54.885",NA,NA,364.2081,364.2081,364.2081,364.5153,NA,NA,NA,NA,NA,NA,NA,TRUE,1,0.7003,361.2223,364.2079,0,95,95,73,1,90,30,NA,NA,NA,NA,NA,1,96,"likert"
"3B2918D43F064EE3802519993EF8A39F",1,"01990a9b-429e-71da-863d-43c42d7b8d70","01990a84-c4ee-73c2-a87b-ff46a7d3dde5","2025-09-02_06h41.54.885",NA,NA,367.5265,367.5265,367.5265,367.914,NA,NA,NA,NA,NA,NA,NA,TRUE,3,0.4828,364.5164,367.5264,0,96,96,76,1,90,46,NA,NA,NA,NA,NA,1,97,"likert"
"3B2918D43F064EE3802519993EF8A39F",1,"01990a9b-429e-71da-863d-43c42d7b8d70","01990a84-c4ee-73c2-a87b-ff46a7d3dde5","2025-09-02_06h41.54.885",NA,NA,370.9283,370.9284,370.9284,371.2499,NA,NA,NA,NA,NA,NA,NA,TRUE,2,0.8018,367.9159,370.9281,0,97,97,92,1,150,35,NA,NA,NA,NA,NA,1,98,"likert"
"3B2918D43F064EE3802519993EF8A39F",1,"01990a9b-429e-71da-863d-43c42d7b8d70","01990a84-c4ee-73c2-a87b-ff46a7d3dde5","2025-09-02_06h41.54.885",NA,NA,374.2389,374.2389,374.2389,374.6095,NA,NA,NA,NA,NA,NA,NA,TRUE,1,0.6875,371.2513,374.2386,0,98,98,77,1,90,54,NA,NA,NA,NA,NA,1,99,"likert"
"3B2918D43F064EE3802519993EF8A39F",1,"01990a9b-429e-71da-863d-43c42d7b8d70","01990a84-c4ee-73c2-a87b-ff46a7d3dde5","2025-09-02_06h41.54.885",NA,NA,377.6419,377.642,377.642,377.9696,NA,NA,NA,NA,NA,NA,NA,TRUE,5,0.4181,374.6113,377.6417,0,99,99,54,1,45,26,NA,NA,NA,NA,NA,1,100,"likert"
"3B2918D43F064EE3802519993EF8A39F",1,"01990a9b-429e-71da-863d-43c42d7b8d70","01990a84-c4ee-73c2-a87b-ff46a7d3dde5","2025-09-02_06h41.54.885",NA,NA,380.9442,380.9443,380.9443,381.3238,NA,NA,NA,NA,NA,NA,NA,TRUE,4,0.703,377.9706,380.944,0,100,100,66,1,60,29,NA,NA,NA,NA,NA,1,101,"likert"
"3B2918D43F064EE3802519993EF8A39F",1,"01990a9b-429e-71da-863d-43c42d7b8d70","01990a84-c4ee-73c2-a87b-ff46a7d3dde5","2025-09-02_06h41.54.885",NA,NA,384.3206,384.3206,384.3207,384.6436,NA,NA,NA,NA,NA,NA,NA,TRUE,1,0.5947,381.3256,384.3204,0,101,101,100,1,180,46,NA,NA,NA,NA,NA,1,102,"likert"
"3B2918D43F064EE3802519993EF8A39F",1,"01990a9b-429e-71da-863d-43c42d7b8d70","01990a84-c4ee-73c2-a87b-ff46a7d3dde5","2025-09-02_06h41.54.885",NA,NA,387.6314,387.6315,387.6315,388.0439,NA,NA,NA,NA,NA,NA,NA,TRUE,2,0.5902,384.6455,387.6313,0,102,102,45,1,30,30,NA,NA,NA,NA,NA,1,103,"likert"
"3B2918D43F064EE3802519993EF8A39F",1,"01990a9b-429e-71da-863d-43c42d7b8d70","01990a84-c4ee-73c2-a87b-ff46a7d3dde5","2025-09-02_06h41.54.885",NA,NA,390.9883,390.9883,390.9884,391.3671,NA,NA,NA,NA,NA,NA,NA,TRUE,3,0.662,388.0458,390.9881,0,103,103,13,1,12,26,NA,NA,NA,NA,NA,1,104,"likert"
"3B2918D43F064EE3802519993EF8A39F",1,"01990a9b-429e-71da-863d-43c42d7b8d70","01990a84-c4ee-73c2-a87b-ff46a7d3dde5","2025-09-02_06h41.54.885",NA,NA,394.3642,394.3642,394.3643,394.6523,NA,NA,NA,NA,NA,NA,NA,TRUE,2,0.6156,391.369,394.3639,0,104,104,7,1,10,26,NA,NA,NA,NA,NA,1,105,"likert"
"3B2918D43F064EE3802519993EF8A39F",1,"01990a9b-429e-71da-863d-43c42d7b8d70","01990a84-c4ee-73c2-a87b-ff46a7d3dde5","2025-09-02_06h41.54.885",NA,NA,397.7313,397.7313,397.7313,398.0611,NA,NA,NA,NA,NA,NA,NA,TRUE,1,0.5799,394.6535,397.7311,0,105,105,97,1,180,31,NA,NA,NA,NA,NA,1,106,"likert"
"3B2918D43F064EE3802519993EF8A39F",1,"01990a9b-429e-71da-863d-43c42d7b8d70","01990a84-c4ee-73c2-a87b-ff46a7d3dde5","2025-09-02_06h41.54.885",NA,NA,401.0338,401.0339,401.034,401.4221,NA,NA,NA,NA,NA,NA,NA,TRUE,4,0.61,398.063,401.0337,0,106,106,57,1,45,35,NA,NA,NA,NA,NA,1,107,"likert"
"3B2918D43F064EE3802519993EF8A39F",1,"01990a9b-429e-71da-863d-43c42d7b8d70","01990a84-c4ee-73c2-a87b-ff46a7d3dde5","2025-09-02_06h41.54.885",NA,NA,404.4211,404.4212,404.4212,404.7334,NA,NA,NA,NA,NA,NA,NA,TRUE,2,0.6662,401.4238,404.4209,0,107,107,88,1,100,46,NA,NA,NA,NA,NA,1,108,"likert"
"3B2918D43F064EE3802519993EF8A39F",1,"01990a9b-429e-71da-863d-43c42d7b8d70","01990a84-c4ee-73c2-a87b-ff46a7d3dde5","2025-09-02_06h41.54.885",NA,NA,412.4541,412.4542,412.4543,412.7817,NA,NA,NA,NA,NA,NA,NA,TRUE,5,1.3111,409.4672,412.4539,NA,NA,NA,NA,NA,150,54,0,0,0,95,1,2,1,"likert"
"3B2918D43F064EE3802519993EF8A39F",1,"01990a9b-429e-71da-863d-43c42d7b8d70","01990a84-c4ee-73c2-a87b-ff46a7d3dde5","2025-09-02_06h41.54.885",NA,NA,415.7884,415.7884,415.7884,416.1421,NA,NA,NA,NA,NA,NA,NA,TRUE,4,0.3119,412.7837,415.7882,NA,NA,NA,NA,NA,40,27,0,1,1,48,1,2,2,"likert"
"3B2918D43F064EE3802519993EF8A39F",1,"01990a9b-429e-71da-863d-43c42d7b8d70","01990a84-c4ee-73c2-a87b-ff46a7d3dde5","2025-09-02_06h41.54.885",NA,NA,419.1498,419.1499,419.1499,419.4826,NA,NA,NA,NA,NA,NA,NA,TRUE,2,0.9001,416.144,419.1497,NA,NA,NA,NA,NA,21,30,0,2,2,27,1,2,3,"likert"
"3B2918D43F064EE3802519993EF8A39F",1,"01990a9b-429e-71da-863d-43c42d7b8d70","01990a84-c4ee-73c2-a87b-ff46a7d3dde5","2025-09-02_06h41.54.885",NA,NA,422.4823,422.4823,422.4824,422.8143,NA,NA,NA,NA,NA,NA,NA,TRUE,3,0.5477,419.4845,422.4822,NA,NA,NA,NA,NA,25,29,0,3,3,31,1,2,4,"likert"
"3B2918D43F064EE3802519993EF8A39F",1,"01990a9b-429e-71da-863d-43c42d7b8d70","01990a84-c4ee-73c2-a87b-ff46a7d3dde5","2025-09-02_06h41.54.885",NA,NA,425.8239,425.8239,425.8239,426.1734,NA,NA,NA,NA,NA,NA,NA,TRUE,4,2.8815,422.8194,425.8236,NA,NA,NA,NA,NA,12,28,0,4,4,14,1,2,5,"likert"
"3B2918D43F064EE3802519993EF8A39F",1,"01990a9b-429e-71da-863d-43c42d7b8d70","01990a84-c4ee-73c2-a87b-ff46a7d3dde5","2025-09-02_06h41.54.885",NA,NA,429.1598,429.1599,429.16,429.5233,NA,NA,NA,NA,NA,NA,NA,TRUE,2,0.751,426.1748,429.1597,NA,NA,NA,NA,NA,180,27,0,5,5,96,1,2,6,"likert"
"3B2918D43F064EE3802519993EF8A39F",1,"01990a9b-429e-71da-863d-43c42d7b8d70","01990a84-c4ee-73c2-a87b-ff46a7d3dde5","2025-09-02_06h41.54.885",NA,NA,432.5404,432.5405,432.5405,432.8592,NA,NA,NA,NA,NA,NA,NA,TRUE,5,1.334,429.5249,432.5402,NA,NA,NA,NA,NA,60,35,0,6,6,68,1,2,7,"likert"
"3B2918D43F064EE3802519993EF8A39F",1,"01990a9b-429e-71da-863d-43c42d7b8d70","01990a84-c4ee-73c2-a87b-ff46a7d3dde5","2025-09-02_06h41.54.885",NA,NA,435.8799,435.8799,435.88,436.1983,NA,NA,NA,NA,NA,NA,NA,TRUE,1,0.6798,432.8611,435.8797,NA,NA,NA,NA,NA,50,27,0,7,7,60,1,2,8,"likert"
"3B2918D43F064EE3802519993EF8A39F",1,"01990a9b-429e-71da-863d-43c42d7b8d70","01990a84-c4ee-73c2-a87b-ff46a7d3dde5","2025-09-02_06h41.54.885",NA,NA,439.2021,439.2022,439.2022,439.5774,NA,NA,NA,NA,NA,NA,NA,TRUE,4,0.8764,436.2,439.2019,NA,NA,NA,NA,NA,30,30,0,8,8,45,1,2,9,"likert"
"3B2918D43F064EE3802519993EF8A39F",1,"01990a9b-429e-71da-863d-43c42d7b8d70","01990a84-c4ee-73c2-a87b-ff46a7d3dde5","2025-09-02_06h41.54.885",NA,NA,442.5442,442.5443,442.5443,442.9602,NA,NA,NA,NA,NA,NA,NA,TRUE,3,1.1276,439.5791,442.5441,NA,NA,NA,NA,NA,180,46,0,9,9,100,1,2,10,"likert"
"3B2918D43F064EE3802519993EF8A39F",1,"01990a9b-429e-71da-863d-43c42d7b8d70","01990a84-c4ee-73c2-a87b-ff46a7d3dde5","2025-09-02_06h41.54.885",NA,NA,445.9626,445.9627,445.9627,446.2908,NA,NA,NA,NA,NA,NA,NA,TRUE,2,0.5479,442.9615,445.9624,NA,NA,NA,NA,NA,200,47,0,10,10,106,1,2,11,"likert"
"3B2918D43F064EE3802519993EF8A39F",1,"01990a9b-429e-71da-863d-43c42d7b8d70","01990a84-c4ee-73c2-a87b-ff46a7d3dde5","2025-09-02_06h41.54.885",NA,NA,449.2248,449.2248,449.2249,449.6533,NA,NA,NA,NA,NA,NA,NA,TRUE,1,0.8202,446.2923,449.2245,NA,NA,NA,NA,NA,90,30,0,11,11,73,1,2,12,"likert"
"3B2918D43F064EE3802519993EF8A39F",1,"01990a9b-429e-71da-863d-43c42d7b8d70","01990a84-c4ee-73c2-a87b-ff46a7d3dde5","2025-09-02_06h41.54.885",NA,NA,452.6007,452.6007,452.6007,453.0006,NA,NA,NA,NA,NA,NA,NA,TRUE,4,0.7344,449.6551,452.6005,NA,NA,NA,NA,NA,21,38,0,12,12,29,1,2,13,"likert"
"3B2918D43F064EE3802519993EF8A39F",1,"01990a9b-429e-71da-863d-43c42d7b8d70","01990a84-c4ee-73c2-a87b-ff46a7d3dde5","2025-09-02_06h41.54.885",NA,NA,455.9484,455.9485,455.9485,456.3073,NA,NA,NA,NA,NA,NA,NA,TRUE,5,0.5489,453.0023,455.9483,NA,NA,NA,NA,NA,21,29,0,13,13,26,1,2,14,"likert"
"3B2918D43F064EE3802519993EF8A39F",1,"01990a9b-429e-71da-863d-43c42d7b8d70","01990a84-c4ee-73c2-a87b-ff46a7d3dde5","2025-09-02_06h41.54.885",NA,NA,459.307,459.307,459.307,459.6457,NA,NA,NA,NA,NA,NA,NA,TRUE,2,0.4948,456.3092,459.3069,NA,NA,NA,NA,NA,10,29,0,14,14,9,1,2,15,"likert"
"3B2918D43F064EE3802519993EF8A39F",1,"01990a9b-429e-71da-863d-43c42d7b8d70","01990a84-c4ee-73c2-a87b-ff46a7d3dde5","2025-09-02_06h41.54.885",NA,NA,462.6453,462.6453,462.6453,463.0599,NA,NA,NA,NA,NA,NA,NA,TRUE,3,1.0336,459.6476,462.6451,NA,NA,NA,NA,NA,45,29,0,15,15,55,1,2,16,"likert"
"3B2918D43F064EE3802519993EF8A39F",1,"01990a9b-429e-71da-863d-43c42d7b8d70","01990a84-c4ee-73c2-a87b-ff46a7d3dde5","2025-09-02_06h41.54.885",NA,NA,466.0078,466.008,466.008,466.3608,NA,NA,NA,NA,NA,NA,NA,TRUE,1,1.7083,463.0617,466.0077,NA,NA,NA,NA,NA,28,39,0,16,16,40,1,2,17,"likert"
"3B2918D43F064EE3802519993EF8A39F",1,"01990a9b-429e-71da-863d-43c42d7b8d70","01990a84-c4ee-73c2-a87b-ff46a7d3dde5","2025-09-02_06h41.54.885",NA,NA,469.3688,469.3689,469.369,469.7074,NA,NA,NA,NA,NA,NA,NA,TRUE,4,0.7272,466.3627,469.3686,NA,NA,NA,NA,NA,14,39,0,17,17,23,1,2,18,"likert"
"3B2918D43F064EE3802519993EF8A39F",1,"01990a9b-429e-71da-863d-43c42d7b8d70","01990a84-c4ee-73c2-a87b-ff46a7d3dde5","2025-09-02_06h41.54.885",NA,NA,472.735,472.735,472.735,473.0791,NA,NA,NA,NA,NA,NA,NA,TRUE,2,0.5186,469.7092,472.7348,NA,NA,NA,NA,NA,28,26,0,18,18,36,1,2,19,"likert"
"3B2918D43F064EE3802519993EF8A39F",1,"01990a9b-429e-71da-863d-43c42d7b8d70","01990a84-c4ee-73c2-a87b-ff46a7d3dde5","2025-09-02_06h41.54.885",NA,NA,476.1145,476.1146,476.1147,476.3694,NA,NA,NA,NA,NA,NA,NA,TRUE,2,1.6501,473.0805,476.1144,NA,NA,NA,NA,NA,40,40,0,19,19,51,1,2,20,"likert"
"3B2918D43F064EE3802519993EF8A39F",1,"01990a9b-429e-71da-863d-43c42d7b8d70","01990a84-c4ee-73c2-a87b-ff46a7d3dde5","2025-09-02_06h41.54.885",NA,NA,479.452,479.4522,479.4522,479.8098,NA,NA,NA,NA,NA,NA,NA,TRUE,1,0.7658,476.3713,479.4518,NA,NA,NA,NA,NA,150,35,0,20,20,92,1,2,21,"likert"
"3B2918D43F064EE3802519993EF8A39F",1,"01990a9b-429e-71da-863d-43c42d7b8d70","01990a84-c4ee-73c2-a87b-ff46a7d3dde5","2025-09-02_06h41.54.885",NA,NA,482.8029,482.8031,482.8031,483.1469,NA,NA,NA,NA,NA,NA,NA,TRUE,2,0.728,479.8118,482.8027,NA,NA,NA,NA,NA,45,40,0,21,21,58,1,2,22,"likert"
"3B2918D43F064EE3802519993EF8A39F",1,"01990a9b-429e-71da-863d-43c42d7b8d70","01990a84-c4ee-73c2-a87b-ff46a7d3dde5","2025-09-02_06h41.54.885",NA,NA,486.1171,486.1172,486.1172,486.4933,NA,NA,NA,NA,NA,NA,NA,TRUE,3,0.6798,483.1488,486.117,NA,NA,NA,NA,NA,180,54,0,22,22,101,1,2,23,"likert"
"3B2918D43F064EE3802519993EF8A39F",1,"01990a9b-429e-71da-863d-43c42d7b8d70","01990a84-c4ee-73c2-a87b-ff46a7d3dde5","2025-09-02_06h41.54.885",NA,NA,489.4915,489.4915,489.4916,489.8448,NA,NA,NA,NA,NA,NA,NA,TRUE,5,0.2727,486.4951,489.4912,NA,NA,NA,NA,NA,14,28,0,23,23,20,1,2,24,"likert"
"3B2918D43F064EE3802519993EF8A39F",1,"01990a9b-429e-71da-863d-43c42d7b8d70","01990a84-c4ee-73c2-a87b-ff46a7d3dde5","2025-09-02_06h41.54.885",NA,NA,492.8101,492.8101,492.8101,493.1544,NA,NA,NA,NA,NA,NA,NA,TRUE,1,0.379,489.8466,492.8099,NA,NA,NA,NA,NA,60,47,0,24,24,70,1,2,25,"likert"
"3B2918D43F064EE3802519993EF8A39F",1,"01990a9b-429e-71da-863d-43c42d7b8d70","01990a84-c4ee-73c2-a87b-ff46a7d3dde5","2025-09-02_06h41.54.885",NA,NA,496.1959,496.196,496.196,496.5411,NA,NA,NA,NA,NA,NA,NA,TRUE,2,0.241,493.1562,496.1958,NA,NA,NA,NA,NA,150,31,0,25,25,90,1,2,26,"likert"
"3B2918D43F064EE3802519993EF8A39F",1,"01990a9b-429e-71da-863d-43c42d7b8d70","01990a84-c4ee-73c2-a87b-ff46a7d3dde5","2025-09-02_06h41.54.885",NA,NA,499.555,499.5551,499.5551,499.8789,NA,NA,NA,NA,NA,NA,NA,TRUE,3,0.8169,496.5432,499.5548,NA,NA,NA,NA,NA,45,31,0,26,26,56,1,2,27,"likert"
"3B2918D43F064EE3802519993EF8A39F",1,"01990a9b-429e-71da-863d-43c42d7b8d70","01990a84-c4ee-73c2-a87b-ff46a7d3dde5","2025-09-02_06h41.54.885",NA,NA,502.8595,502.8595,502.8595,503.2531,NA,NA,NA,NA,NA,NA,NA,TRUE,3,0.5237,499.8807,502.8593,NA,NA,NA,NA,NA,50,35,0,27,27,62,1,2,28,"likert"
"3B2918D43F064EE3802519993EF8A39F",1,"01990a9b-429e-71da-863d-43c42d7b8d70","01990a84-c4ee-73c2-a87b-ff46a7d3dde5","2025-09-02_06h41.54.885",NA,NA,506.2564,506.2566,506.2566,506.568,NA,NA,NA,NA,NA,NA,NA,TRUE,4,0.5441,503.2552,506.2562,NA,NA,NA,NA,NA,100,26,0,28,28,84,1,2,29,"likert"
"3B2918D43F064EE3802519993EF8A39F",1,"01990a9b-429e-71da-863d-43c42d7b8d70","01990a84-c4ee-73c2-a87b-ff46a7d3dde5","2025-09-02_06h41.54.885",NA,NA,509.6142,509.6143,509.6143,509.9287,NA,NA,NA,NA,NA,NA,NA,TRUE,2,0.6915,506.5703,509.614,NA,NA,NA,NA,NA,30,38,0,29,29,47,1,2,30,"likert"
"3B2918D43F064EE3802519993EF8A39F",1,"01990a9b-429e-71da-863d-43c42d7b8d70","01990a84-c4ee-73c2-a87b-ff46a7d3dde5","2025-09-02_06h41.54.885",NA,NA,512.9319,512.9319,512.9319,513.2975,NA,NA,NA,NA,NA,NA,NA,TRUE,1,0.4825,509.9305,512.9317,NA,NA,NA,NA,NA,50,40,0,30,30,63,1,2,31,"likert"
"3B2918D43F064EE3802519993EF8A39F",1,"01990a9b-429e-71da-863d-43c42d7b8d70","01990a84-c4ee-73c2-a87b-ff46a7d3dde5","2025-09-02_06h41.54.885",NA,NA,516.2572,516.2573,516.2574,516.6252,NA,NA,NA,NA,NA,NA,NA,TRUE,3,0.3516,513.2986,516.2557,NA,NA,NA,NA,NA,14,35,0,31,31,22,1,2,32,"likert"
"3B2918D43F064EE3802519993EF8A39F",1,"01990a9b-429e-71da-863d-43c42d7b8d70","01990a84-c4ee-73c2-a87b-ff46a7d3dde5","2025-09-02_06h41.54.885",NA,NA,519.6439,519.644,519.644,519.9442,NA,NA,NA,NA,NA,NA,NA,TRUE,2,0.8699,516.6263,519.6437,NA,NA,NA,NA,NA,30,29,0,32,32,44,1,2,33,"likert"
"3B2918D43F064EE3802519993EF8A39F",1,"01990a9b-429e-71da-863d-43c42d7b8d70","01990a84-c4ee-73c2-a87b-ff46a7d3dde5","2025-09-02_06h41.54.885",NA,NA,522.9903,522.9903,522.9903,523.2985,NA,NA,NA,NA,NA,NA,NA,TRUE,1,0.6089,519.946,522.9901,NA,NA,NA,NA,NA,180,35,0,33,33,98,1,2,34,"likert"
"3B2918D43F064EE3802519993EF8A39F",1,"01990a9b-429e-71da-863d-43c42d7b8d70","01990a84-c4ee-73c2-a87b-ff46a7d3dde5","2025-09-02_06h41.54.885",NA,NA,526.3275,526.3276,526.3276,526.6727,NA,NA,NA,NA,NA,NA,NA,TRUE,4,0.2715,523.3004,526.3273,NA,NA,NA,NA,NA,40,54,0,34,34,53,1,2,35,"likert"
"3B2918D43F064EE3802519993EF8A39F",1,"01990a9b-429e-71da-863d-43c42d7b8d70","01990a84-c4ee-73c2-a87b-ff46a7d3dde5","2025-09-02_06h41.54.885",NA,NA,529.6848,529.6849,529.6849,530.0082,NA,NA,NA,NA,NA,NA,NA,TRUE,3,1.1352,526.6746,529.6846,NA,NA,NA,NA,NA,95,54,0,35,35,83,1,2,36,"likert"
"3B2918D43F064EE3802519993EF8A39F",1,"01990a9b-429e-71da-863d-43c42d7b8d70","01990a84-c4ee-73c2-a87b-ff46a7d3dde5","2025-09-02_06h41.54.885",NA,NA,533.006,533.006,533.006,533.3872,NA,NA,NA,NA,NA,NA,NA,TRUE,5,0.6338,530.0099,533.0058,NA,NA,NA,NA,NA,95,31,0,36,36,78,1,2,37,"likert"
"3B2918D43F064EE3802519993EF8A39F",1,"01990a9b-429e-71da-863d-43c42d7b8d70","01990a84-c4ee-73c2-a87b-ff46a7d3dde5","2025-09-02_06h41.54.885",NA,NA,536.3838,536.3838,536.3839,536.7422,NA,NA,NA,NA,NA,NA,NA,TRUE,1,0.3541,533.389,536.3837,NA,NA,NA,NA,NA,200,54,0,37,37,107,1,2,38,"likert"
"3B2918D43F064EE3802519993EF8A39F",1,"01990a9b-429e-71da-863d-43c42d7b8d70","01990a84-c4ee-73c2-a87b-ff46a7d3dde5","2025-09-02_06h41.54.885",NA,NA,539.7185,539.7185,539.7185,540.0528,NA,NA,NA,NA,NA,NA,NA,TRUE,4,1.1156,536.7438,539.7182,NA,NA,NA,NA,NA,180,39,0,38,38,99,1,2,39,"likert"
"3B2918D43F064EE3802519993EF8A39F",1,"01990a9b-429e-71da-863d-43c42d7b8d70","01990a84-c4ee-73c2-a87b-ff46a7d3dde5","2025-09-02_06h41.54.885",NA,NA,543.0736,543.0737,543.0738,543.4243,NA,NA,NA,NA,NA,NA,NA,TRUE,2,1.4436,540.0545,543.0734,NA,NA,NA,NA,NA,100,54,0,39,39,89,1,2,40,"likert"
"3B2918D43F064EE3802519993EF8A39F",1,"01990a9b-429e-71da-863d-43c42d7b8d70","01990a84-c4ee-73c2-a87b-ff46a7d3dde5","2025-09-02_06h41.54.885",NA,NA,546.4086,546.4086,546.4086,546.7506,NA,NA,NA,NA,NA,NA,NA,TRUE,3,1.0076,543.4254,546.4084,NA,NA,NA,NA,NA,45,46,0,40,40,59,1,2,41,"likert"
"3B2918D43F064EE3802519993EF8A39F",1,"01990a9b-429e-71da-863d-43c42d7b8d70","01990a84-c4ee-73c2-a87b-ff46a7d3dde5","2025-09-02_06h41.54.885",NA,NA,549.7802,549.7803,549.7803,550.1342,NA,NA,NA,NA,NA,NA,NA,TRUE,1,0.8617,546.7523,549.78,NA,NA,NA,NA,NA,60,33,0,41,41,67,1,2,42,"likert"
"3B2918D43F064EE3802519993EF8A39F",1,"01990a9b-429e-71da-863d-43c42d7b8d70","01990a84-c4ee-73c2-a87b-ff46a7d3dde5","2025-09-02_06h41.54.885",NA,NA,553.0949,553.0949,553.095,553.4318,NA,NA,NA,NA,NA,NA,NA,TRUE,4,0.2379,550.136,553.0947,NA,NA,NA,NA,NA,30,26,0,42,42,42,1,2,43,"likert"
"3B2918D43F064EE3802519993EF8A39F",1,"01990a9b-429e-71da-863d-43c42d7b8d70","01990a84-c4ee-73c2-a87b-ff46a7d3dde5","2025-09-02_06h41.54.885",NA,NA,556.5028,556.5028,556.5028,556.8448,NA,NA,NA,NA,NA,NA,NA,TRUE,3,1.0376,553.4333,556.5027,NA,NA,NA,NA,NA,60,40,0,43,43,69,1,2,44,"likert"
"3B2918D43F064EE3802519993EF8A39F",1,"01990a9b-429e-71da-863d-43c42d7b8d70","01990a84-c4ee-73c2-a87b-ff46a7d3dde5","2025-09-02_06h41.54.885",NA,NA,559.8223,559.8223,559.8223,560.1524,NA,NA,NA,NA,NA,NA,NA,TRUE,2,0.7147,556.8465,559.8222,NA,NA,NA,NA,NA,10,27,0,44,44,8,1,2,45,"likert"
"3B2918D43F064EE3802519993EF8A39F",1,"01990a9b-429e-71da-863d-43c42d7b8d70","01990a84-c4ee-73c2-a87b-ff46a7d3dde5","2025-09-02_06h41.54.885",NA,NA,563.1701,563.1703,563.1703,563.5282,NA,NA,NA,NA,NA,NA,NA,TRUE,1,0.8222,560.1543,563.17,NA,NA,NA,NA,NA,12,35,0,45,45,17,1,2,46,"likert"
"3B2918D43F064EE3802519993EF8A39F",1,"01990a9b-429e-71da-863d-43c42d7b8d70","01990a84-c4ee-73c2-a87b-ff46a7d3dde5","2025-09-02_06h41.54.885",NA,NA,566.5183,566.5183,566.5183,566.8727,NA,NA,NA,NA,NA,NA,NA,TRUE,4,0.6225,563.53,566.518,NA,NA,NA,NA,NA,7,25,0,46,46,0,1,2,47,"likert"
"3B2918D43F064EE3802519993EF8A39F",1,"01990a9b-429e-71da-863d-43c42d7b8d70","01990a84-c4ee-73c2-a87b-ff46a7d3dde5","2025-09-02_06h41.54.885",NA,NA,569.857,569.857,569.857,570.2007,NA,NA,NA,NA,NA,NA,NA,TRUE,5,0.6697,566.8742,569.8568,NA,NA,NA,NA,NA,200,26,0,47,47,102,1,2,48,"likert"
"3B2918D43F064EE3802519993EF8A39F",1,"01990a9b-429e-71da-863d-43c42d7b8d70","01990a84-c4ee-73c2-a87b-ff46a7d3dde5","2025-09-02_06h41.54.885",NA,NA,573.2071,573.2071,573.2072,573.5531,NA,NA,NA,NA,NA,NA,NA,TRUE,2,0.3028,570.2021,573.2069,NA,NA,NA,NA,NA,21,27,0,48,48,25,1,2,49,"likert"
"3B2918D43F064EE3802519993EF8A39F",1,"01990a9b-429e-71da-863d-43c42d7b8d70","01990a84-c4ee-73c2-a87b-ff46a7d3dde5","2025-09-02_06h41.54.885",NA,NA,576.5893,576.5894,576.5894,576.9195,NA,NA,NA,NA,NA,NA,NA,TRUE,3,0.6922,573.5551,576.5892,NA,NA,NA,NA,NA,40,33,0,49,49,49,1,2,50,"likert"
"3B2918D43F064EE3802519993EF8A39F",1,"01990a9b-429e-71da-863d-43c42d7b8d70","01990a84-c4ee-73c2-a87b-ff46a7d3dde5","2025-09-02_06h41.54.885",NA,NA,579.9455,579.9456,579.9456,580.2616,NA,NA,NA,NA,NA,NA,NA,TRUE,1,0.5337,576.9214,579.9453,NA,NA,NA,NA,NA,40,35,0,50,50,50,1,2,51,"likert"
"3B2918D43F064EE3802519993EF8A39F",1,"01990a9b-429e-71da-863d-43c42d7b8d70","01990a84-c4ee-73c2-a87b-ff46a7d3dde5","2025-09-02_06h41.54.885",NA,NA,583.2518,583.2518,583.2518,583.6,NA,NA,NA,NA,NA,NA,NA,TRUE,4,0.648,580.2632,583.2516,NA,NA,NA,NA,NA,60,29,0,51,51,66,1,2,52,"likert"
"3B2918D43F064EE3802519993EF8A39F",1,"01990a9b-429e-71da-863d-43c42d7b8d70","01990a84-c4ee-73c2-a87b-ff46a7d3dde5","2025-09-02_06h41.54.885",NA,NA,586.621,586.621,586.621,586.9841,NA,NA,NA,NA,NA,NA,NA,TRUE,2,0.5188,583.6012,586.6208,NA,NA,NA,NA,NA,50,46,0,52,52,64,1,2,53,"likert"
"3B2918D43F064EE3802519993EF8A39F",1,"01990a9b-429e-71da-863d-43c42d7b8d70","01990a84-c4ee-73c2-a87b-ff46a7d3dde5","2025-09-02_06h41.54.885",NA,NA,589.9901,589.9902,589.9903,590.3362,NA,NA,NA,NA,NA,NA,NA,TRUE,3,0.6813,586.9859,589.99,NA,NA,NA,NA,NA,10,26,0,53,53,7,1,2,54,"likert"
"3B2918D43F064EE3802519993EF8A39F",1,"01990a9b-429e-71da-863d-43c42d7b8d70","01990a84-c4ee-73c2-a87b-ff46a7d3dde5","2025-09-02_06h41.54.885",NA,NA,593.3608,593.3609,593.3609,593.7013,NA,NA,NA,NA,NA,NA,NA,TRUE,5,0.539,590.3381,593.3606,NA,NA,NA,NA,NA,25,31,0,54,54,32,1,2,55,"likert"
"3B2918D43F064EE3802519993EF8A39F",1,"01990a9b-429e-71da-863d-43c42d7b8d70","01990a84-c4ee-73c2-a87b-ff46a7d3dde5","2025-09-02_06h41.54.885",NA,NA,596.6462,596.6462,596.6462,597.0511,NA,NA,NA,NA,NA,NA,NA,TRUE,1,0.7125,593.7028,596.6459,NA,NA,NA,NA,NA,90,54,0,55,55,77,1,2,56,"likert"
"3B2918D43F064EE3802519993EF8A39F",1,"01990a9b-429e-71da-863d-43c42d7b8d70","01990a84-c4ee-73c2-a87b-ff46a7d3dde5","2025-09-02_06h41.54.885",NA,NA,600.0343,600.0343,600.0344,600.379,NA,NA,NA,NA,NA,NA,NA,TRUE,4,0.5022,597.0527,600.0341,NA,NA,NA,NA,NA,100,39,0,56,56,87,1,2,57,"likert"
"3B2918D43F064EE3802519993EF8A39F",1,"01990a9b-429e-71da-863d-43c42d7b8d70","01990a84-c4ee-73c2-a87b-ff46a7d3dde5","2025-09-02_06h41.54.885",NA,NA,603.3611,603.3612,603.3612,603.694,NA,NA,NA,NA,NA,NA,NA,TRUE,3,0.6224,600.381,603.3608,NA,NA,NA,NA,NA,180,31,0,57,57,97,1,2,58,"likert"
"3B2918D43F064EE3802519993EF8A39F",1,"01990a9b-429e-71da-863d-43c42d7b8d70","01990a84-c4ee-73c2-a87b-ff46a7d3dde5","2025-09-02_06h41.54.885",NA,NA,606.7064,606.7064,606.7064,607.046,NA,NA,NA,NA,NA,NA,NA,TRUE,2,0.7567,603.6957,606.7062,NA,NA,NA,NA,NA,12,33,0,58,58,16,1,2,59,"likert"
"3B2918D43F064EE3802519993EF8A39F",1,"01990a9b-429e-71da-863d-43c42d7b8d70","01990a84-c4ee-73c2-a87b-ff46a7d3dde5","2025-09-02_06h41.54.885",NA,NA,610.0519,610.052,610.052,610.4061,NA,NA,NA,NA,NA,NA,NA,TRUE,5,1.0238,607.0478,610.0517,NA,NA,NA,NA,NA,7,26,0,59,59,1,1,2,60,"likert"
"3B2918D43F064EE3802519993EF8A39F",1,"01990a9b-429e-71da-863d-43c42d7b8d70","01990a84-c4ee-73c2-a87b-ff46a7d3dde5","2025-09-02_06h41.54.885",NA,NA,613.4585,613.4585,613.4586,613.7775,NA,NA,NA,NA,NA,NA,NA,TRUE,1,0.3856,610.4079,613.4583,NA,NA,NA,NA,NA,25,33,0,60,60,33,1,2,61,"likert"
"3B2918D43F064EE3802519993EF8A39F",1,"01990a9b-429e-71da-863d-43c42d7b8d70","01990a84-c4ee-73c2-a87b-ff46a7d3dde5","2025-09-02_06h41.54.885",NA,NA,616.8044,616.8045,616.8045,617.1541,NA,NA,NA,NA,NA,NA,NA,TRUE,4,0.3187,613.7785,616.8042,NA,NA,NA,NA,NA,150,47,0,61,61,94,1,2,62,"likert"
"3B2918D43F064EE3802519993EF8A39F",1,"01990a9b-429e-71da-863d-43c42d7b8d70","01990a84-c4ee-73c2-a87b-ff46a7d3dde5","2025-09-02_06h41.54.885",NA,NA,620.1513,620.1513,620.1514,620.5009,NA,NA,NA,NA,NA,NA,NA,TRUE,3,0.742,617.156,620.151,NA,NA,NA,NA,NA,50,30,0,62,62,61,1,2,63,"likert"
"3B2918D43F064EE3802519993EF8A39F",1,"01990a9b-429e-71da-863d-43c42d7b8d70","01990a84-c4ee-73c2-a87b-ff46a7d3dde5","2025-09-02_06h41.54.885",NA,NA,623.4959,623.4959,623.496,623.8404,NA,NA,NA,NA,NA,NA,NA,TRUE,2,0.7987,620.5028,623.4957,NA,NA,NA,NA,NA,45,35,0,63,63,57,1,2,64,"likert"
"3B2918D43F064EE3802519993EF8A39F",1,"01990a9b-429e-71da-863d-43c42d7b8d70","01990a84-c4ee-73c2-a87b-ff46a7d3dde5","2025-09-02_06h41.54.885",NA,NA,626.861,626.8611,626.8611,627.143,NA,NA,NA,NA,NA,NA,NA,TRUE,3,0.21,623.8423,626.8609,NA,NA,NA,NA,NA,14,26,0,64,64,19,1,2,65,"likert"
"3B2918D43F064EE3802519993EF8A39F",1,"01990a9b-429e-71da-863d-43c42d7b8d70","01990a84-c4ee-73c2-a87b-ff46a7d3dde5","2025-09-02_06h41.54.885",NA,NA,630.1481,630.1483,630.1483,630.5093,NA,NA,NA,NA,NA,NA,NA,TRUE,1,0.7527,627.1448,630.1479,NA,NA,NA,NA,NA,21,32,0,65,65,28,1,2,66,"likert"
"3B2918D43F064EE3802519993EF8A39F",1,"01990a9b-429e-71da-863d-43c42d7b8d70","01990a84-c4ee-73c2-a87b-ff46a7d3dde5","2025-09-02_06h41.54.885",NA,NA,633.5217,633.5218,633.5218,633.8806,NA,NA,NA,NA,NA,NA,NA,TRUE,2,0.8955,630.5112,633.5215,NA,NA,NA,NA,NA,100,38,0,66,66,86,1,2,67,"likert"
"3B2918D43F064EE3802519993EF8A39F",1,"01990a9b-429e-71da-863d-43c42d7b8d70","01990a84-c4ee-73c2-a87b-ff46a7d3dde5","2025-09-02_06h41.54.885",NA,NA,636.8411,636.8411,636.8411,637.202,NA,NA,NA,NA,NA,NA,NA,TRUE,2,1.0355,633.8825,636.8409,NA,NA,NA,NA,NA,28,32,0,67,67,38,1,2,68,"likert"
"3B2918D43F064EE3802519993EF8A39F",1,"01990a9b-429e-71da-863d-43c42d7b8d70","01990a84-c4ee-73c2-a87b-ff46a7d3dde5","2025-09-02_06h41.54.885",NA,NA,640.2136,640.2136,640.2137,640.5707,NA,NA,NA,NA,NA,NA,NA,TRUE,1,0.3644,637.2036,640.2134,NA,NA,NA,NA,NA,14,25,0,68,68,18,1,2,69,"likert"
"3B2918D43F064EE3802519993EF8A39F",1,"01990a9b-429e-71da-863d-43c42d7b8d70","01990a84-c4ee-73c2-a87b-ff46a7d3dde5","2025-09-02_06h41.54.885",NA,NA,643.5986,643.5986,643.5986,643.945,NA,NA,NA,NA,NA,NA,NA,TRUE,4,0.5404,640.5726,643.5984,NA,NA,NA,NA,NA,10,30,0,69,69,10,1,2,70,"likert"
"3B2918D43F064EE3802519993EF8A39F",1,"01990a9b-429e-71da-863d-43c42d7b8d70","01990a84-c4ee-73c2-a87b-ff46a7d3dde5","2025-09-02_06h41.54.885",NA,NA,646.8832,647.1642,647.1643,647.3067,NA,NA,NA,NA,NA,NA,NA,FALSE,NA,NA,643.9468,646.8829,NA,NA,NA,NA,NA,30,27,0,70,70,43,1,2,71,"likert"
"3B2918D43F064EE3802519993EF8A39F",1,"01990a9b-429e-71da-863d-43c42d7b8d70","01990a84-c4ee-73c2-a87b-ff46a7d3dde5","2025-09-02_06h41.54.885",NA,NA,650.2754,650.5252,650.5252,650.585,NA,NA,NA,NA,NA,NA,NA,FALSE,NA,NA,647.3084,650.2752,NA,NA,NA,NA,NA,30,32,0,71,71,46,1,2,72,"likert"
"3B2918D43F064EE3802519993EF8A39F",1,"01990a9b-429e-71da-863d-43c42d7b8d70","01990a84-c4ee-73c2-a87b-ff46a7d3dde5","2025-09-02_06h41.54.885",NA,NA,653.6281,653.6281,653.6282,653.9451,NA,NA,NA,NA,NA,NA,NA,TRUE,1,1.3559,650.5866,653.628,NA,NA,NA,NA,NA,95,40,0,72,72,81,1,2,73,"likert"
"3B2918D43F064EE3802519993EF8A39F",1,"01990a9b-429e-71da-863d-43c42d7b8d70","01990a84-c4ee-73c2-a87b-ff46a7d3dde5","2025-09-02_06h41.54.885",NA,NA,656.9683,656.9683,656.9683,657.2969,NA,NA,NA,NA,NA,NA,NA,TRUE,4,0.651,653.9462,656.9682,NA,NA,NA,NA,NA,12,26,0,73,73,13,1,2,74,"likert"
"3B2918D43F064EE3802519993EF8A39F",1,"01990a9b-429e-71da-863d-43c42d7b8d70","01990a84-c4ee-73c2-a87b-ff46a7d3dde5","2025-09-02_06h41.54.885",NA,NA,660.2948,660.2948,660.2948,660.7058,NA,NA,NA,NA,NA,NA,NA,TRUE,2,0.6694,657.2988,660.2946,NA,NA,NA,NA,NA,10,25,0,74,74,6,1,2,75,"likert"
"3B2918D43F064EE3802519993EF8A39F",1,"01990a9b-429e-71da-863d-43c42d7b8d70","01990a84-c4ee-73c2-a87b-ff46a7d3dde5","2025-09-02_06h41.54.885",NA,NA,663.7154,663.7154,663.7154,663.9937,NA,NA,NA,NA,NA,NA,NA,TRUE,3,1.201,660.7077,663.7153,NA,NA,NA,NA,NA,95,47,0,75,75,82,1,2,76,"likert"
"3B2918D43F064EE3802519993EF8A39F",1,"01990a9b-429e-71da-863d-43c42d7b8d70","01990a84-c4ee-73c2-a87b-ff46a7d3dde5","2025-09-02_06h41.54.885",NA,NA,667.0326,667.0327,667.0327,667.3872,NA,NA,NA,NA,NA,NA,NA,TRUE,1,0.7068,663.9953,667.0324,NA,NA,NA,NA,NA,10,32,0,76,76,11,1,2,77,"likert"
"3B2918D43F064EE3802519993EF8A39F",1,"01990a9b-429e-71da-863d-43c42d7b8d70","01990a84-c4ee-73c2-a87b-ff46a7d3dde5","2025-09-02_06h41.54.885",NA,NA,670.3457,670.3457,670.3457,670.7033,NA,NA,NA,NA,NA,NA,NA,TRUE,4,0.7451,667.3891,670.3455,NA,NA,NA,NA,NA,95,35,0,77,77,80,1,2,78,"likert"
"3B2918D43F064EE3802519993EF8A39F",1,"01990a9b-429e-71da-863d-43c42d7b8d70","01990a84-c4ee-73c2-a87b-ff46a7d3dde5","2025-09-02_06h41.54.885",NA,NA,673.7434,673.7435,673.7435,674.0819,NA,NA,NA,NA,NA,NA,NA,TRUE,2,0.3114,670.705,673.7432,NA,NA,NA,NA,NA,7,32,0,78,78,4,1,2,79,"likert"
"3B2918D43F064EE3802519993EF8A39F",1,"01990a9b-429e-71da-863d-43c42d7b8d70","01990a84-c4ee-73c2-a87b-ff46a7d3dde5","2025-09-02_06h41.54.885",NA,NA,677.0845,677.0845,677.0846,677.4369,NA,NA,NA,NA,NA,NA,NA,TRUE,3,0.7971,674.0836,677.0843,NA,NA,NA,NA,NA,60,54,0,79,79,71,1,2,80,"likert"
"3B2918D43F064EE3802519993EF8A39F",1,"01990a9b-429e-71da-863d-43c42d7b8d70","01990a84-c4ee-73c2-a87b-ff46a7d3dde5","2025-09-02_06h41.54.885",NA,NA,680.4058,680.4058,680.4059,680.7617,NA,NA,NA,NA,NA,NA,NA,TRUE,2,0.6336,677.4388,680.4057,NA,NA,NA,NA,NA,28,28,0,80,80,37,1,2,81,"likert"
"3B2918D43F064EE3802519993EF8A39F",1,"01990a9b-429e-71da-863d-43c42d7b8d70","01990a84-c4ee-73c2-a87b-ff46a7d3dde5","2025-09-02_06h41.54.885",NA,NA,683.7909,683.791,683.791,684.0998,NA,NA,NA,NA,NA,NA,NA,TRUE,1,0.7179,680.7633,683.7908,NA,NA,NA,NA,NA,28,35,0,81,81,39,1,2,82,"likert"
"3B2918D43F064EE3802519993EF8A39F",1,"01990a9b-429e-71da-863d-43c42d7b8d70","01990a84-c4ee-73c2-a87b-ff46a7d3dde5","2025-09-02_06h41.54.885",NA,NA,687.1496,687.1497,687.1497,687.4978,NA,NA,NA,NA,NA,NA,NA,TRUE,4,0.7,684.1016,687.1493,NA,NA,NA,NA,NA,40,47,0,82,82,52,1,2,83,"likert"
"3B2918D43F064EE3802519993EF8A39F",1,"01990a9b-429e-71da-863d-43c42d7b8d70","01990a84-c4ee-73c2-a87b-ff46a7d3dde5","2025-09-02_06h41.54.885",NA,NA,690.4671,690.4671,690.4672,690.8248,NA,NA,NA,NA,NA,NA,NA,TRUE,5,0.604,687.4996,690.4669,NA,NA,NA,NA,NA,200,39,0,83,83,105,1,2,84,"likert"
"3B2918D43F064EE3802519993EF8A39F",1,"01990a9b-429e-71da-863d-43c42d7b8d70","01990a84-c4ee-73c2-a87b-ff46a7d3dde5","2025-09-02_06h41.54.885",NA,NA,693.8547,693.8549,693.8549,694.1878,NA,NA,NA,NA,NA,NA,NA,TRUE,3,0.5703,690.8266,693.8546,NA,NA,NA,NA,NA,12,31,0,84,84,15,1,2,85,"likert"
"3B2918D43F064EE3802519993EF8A39F",1,"01990a9b-429e-71da-863d-43c42d7b8d70","01990a84-c4ee-73c2-a87b-ff46a7d3dde5","2025-09-02_06h41.54.885",NA,NA,697.2014,697.2015,697.2015,697.5563,NA,NA,NA,NA,NA,NA,NA,TRUE,2,0.6909,694.1896,697.2012,NA,NA,NA,NA,NA,90,33,0,85,85,74,1,2,86,"likert"
"3B2918D43F064EE3802519993EF8A39F",1,"01990a9b-429e-71da-863d-43c42d7b8d70","01990a84-c4ee-73c2-a87b-ff46a7d3dde5","2025-09-02_06h41.54.885",NA,NA,700.5629,700.5629,700.5629,700.8477,NA,NA,NA,NA,NA,NA,NA,TRUE,1,0.6843,697.5582,700.5626,NA,NA,NA,NA,NA,90,40,0,86,86,75,1,2,87,"likert"
"3B2918D43F064EE3802519993EF8A39F",1,"01990a9b-429e-71da-863d-43c42d7b8d70","01990a84-c4ee-73c2-a87b-ff46a7d3dde5","2025-09-02_06h41.54.885",NA,NA,703.8565,703.8566,703.8566,704.2166,NA,NA,NA,NA,NA,NA,NA,TRUE,4,0.5276,700.8495,703.8563,NA,NA,NA,NA,NA,25,27,0,87,87,30,1,2,88,"likert"
"3B2918D43F064EE3802519993EF8A39F",1,"01990a9b-429e-71da-863d-43c42d7b8d70","01990a84-c4ee-73c2-a87b-ff46a7d3dde5","2025-09-02_06h41.54.885",NA,NA,707.2097,707.2098,707.2098,707.5717,NA,NA,NA,NA,NA,NA,NA,TRUE,3,0.3675,704.2183,707.2095,NA,NA,NA,NA,NA,14,32,0,88,88,21,1,2,89,"likert"
"3B2918D43F064EE3802519993EF8A39F",1,"01990a9b-429e-71da-863d-43c42d7b8d70","01990a84-c4ee-73c2-a87b-ff46a7d3dde5","2025-09-02_06h41.54.885",NA,NA,710.5551,710.5551,710.5551,710.954,NA,NA,NA,NA,NA,NA,NA,TRUE,5,0.5859,707.5728,710.5549,NA,NA,NA,NA,NA,150,33,0,89,89,91,1,2,90,"likert"
"3B2918D43F064EE3802519993EF8A39F",1,"01990a9b-429e-71da-863d-43c42d7b8d70","01990a84-c4ee-73c2-a87b-ff46a7d3dde5","2025-09-02_06h41.54.885",NA,NA,713.8799,713.88,713.88,714.2817,NA,NA,NA,NA,NA,NA,NA,TRUE,1,0.5322,710.9558,713.8798,NA,NA,NA,NA,NA,7,30,0,90,90,3,1,2,91,"likert"
"3B2918D43F064EE3802519993EF8A39F",1,"01990a9b-429e-71da-863d-43c42d7b8d70","01990a84-c4ee-73c2-a87b-ff46a7d3dde5","2025-09-02_06h41.54.885",NA,NA,717.3001,717.3002,717.3002,717.6441,NA,NA,NA,NA,NA,NA,NA,TRUE,3,0.6829,714.2836,717.2999,NA,NA,NA,NA,NA,200,35,0,91,91,104,1,2,92,"likert"
"3B2918D43F064EE3802519993EF8A39F",1,"01990a9b-429e-71da-863d-43c42d7b8d70","01990a84-c4ee-73c2-a87b-ff46a7d3dde5","2025-09-02_06h41.54.885",NA,NA,720.6325,720.6325,720.6325,720.9939,NA,NA,NA,NA,NA,NA,NA,TRUE,2,0.6966,717.6452,720.6323,NA,NA,NA,NA,NA,90,26,0,92,92,72,1,2,93,"likert"
"3B2918D43F064EE3802519993EF8A39F",1,"01990a9b-429e-71da-863d-43c42d7b8d70","01990a84-c4ee-73c2-a87b-ff46a7d3dde5","2025-09-02_06h41.54.885",NA,NA,723.9194,723.9195,723.9195,724.3077,NA,NA,NA,NA,NA,NA,NA,TRUE,4,0.603,720.9959,723.9192,NA,NA,NA,NA,NA,25,46,0,93,93,35,1,2,94,"likert"
"3B2918D43F064EE3802519993EF8A39F",1,"01990a9b-429e-71da-863d-43c42d7b8d70","01990a84-c4ee-73c2-a87b-ff46a7d3dde5","2025-09-02_06h41.54.885",NA,NA,727.3589,727.359,727.359,727.6939,NA,NA,NA,NA,NA,NA,NA,TRUE,3,0.3011,724.3094,727.3588,NA,NA,NA,NA,NA,200,28,0,94,94,103,1,2,95,"likert"
"3B2918D43F064EE3802519993EF8A39F",1,"01990a9b-429e-71da-863d-43c42d7b8d70","01990a84-c4ee-73c2-a87b-ff46a7d3dde5","2025-09-02_06h41.54.885",NA,NA,730.6996,730.6997,730.6997,731.0598,NA,NA,NA,NA,NA,NA,NA,TRUE,5,0.7485,727.6951,730.6995,NA,NA,NA,NA,NA,95,33,0,95,95,79,1,2,96,"likert"
"3B2918D43F064EE3802519993EF8A39F",1,"01990a9b-429e-71da-863d-43c42d7b8d70","01990a84-c4ee-73c2-a87b-ff46a7d3dde5","2025-09-02_06h41.54.885",NA,NA,734.0408,734.0408,734.0408,734.3866,NA,NA,NA,NA,NA,NA,NA,TRUE,2,0.6617,731.0617,734.0406,NA,NA,NA,NA,NA,50,54,0,96,96,65,1,2,97,"likert"
"3B2918D43F064EE3802519993EF8A39F",1,"01990a9b-429e-71da-863d-43c42d7b8d70","01990a84-c4ee-73c2-a87b-ff46a7d3dde5","2025-09-02_06h41.54.885",NA,NA,737.3938,737.3939,737.3939,737.6788,NA,NA,NA,NA,NA,NA,NA,TRUE,1,1.2407,734.3883,737.3937,NA,NA,NA,NA,NA,7,28,0,97,97,2,1,2,98,"likert"
"3B2918D43F064EE3802519993EF8A39F",1,"01990a9b-429e-71da-863d-43c42d7b8d70","01990a84-c4ee-73c2-a87b-ff46a7d3dde5","2025-09-02_06h41.54.885",NA,NA,740.7232,740.7232,740.7232,741.0873,NA,NA,NA,NA,NA,NA,NA,TRUE,4,0.511,737.68,740.7229,NA,NA,NA,NA,NA,90,46,0,98,98,76,1,2,99,"likert"
"3B2918D43F064EE3802519993EF8A39F",1,"01990a9b-429e-71da-863d-43c42d7b8d70","01990a84-c4ee-73c2-a87b-ff46a7d3dde5","2025-09-02_06h41.54.885",NA,NA,744.0747,744.0748,744.0748,744.4369,NA,NA,NA,NA,NA,NA,NA,TRUE,3,1.1305,741.0892,744.0745,NA,NA,NA,NA,NA,45,26,0,99,99,54,1,2,100,"likert"
"3B2918D43F064EE3802519993EF8A39F",1,"01990a9b-429e-71da-863d-43c42d7b8d70","01990a84-c4ee-73c2-a87b-ff46a7d3dde5","2025-09-02_06h41.54.885",NA,NA,747.4306,747.4307,747.4307,747.7669,NA,NA,NA,NA,NA,NA,NA,TRUE,1,0.5752,744.4387,747.4304,NA,NA,NA,NA,NA,12,25,0,100,100,12,1,2,101,"likert"
"3B2918D43F064EE3802519993EF8A39F",1,"01990a9b-429e-71da-863d-43c42d7b8d70","01990a84-c4ee-73c2-a87b-ff46a7d3dde5","2025-09-02_06h41.54.885",NA,NA,750.751,750.751,750.7511,751.0987,NA,NA,NA,NA,NA,NA,NA,TRUE,2,0.3111,747.7685,750.7508,NA,NA,NA,NA,NA,100,31,0,101,101,85,1,2,102,"likert"
"3B2918D43F064EE3802519993EF8A39F",1,"01990a9b-429e-71da-863d-43c42d7b8d70","01990a84-c4ee-73c2-a87b-ff46a7d3dde5","2025-09-02_06h41.54.885",NA,NA,754.1295,754.1296,754.1296,754.4699,NA,NA,NA,NA,NA,NA,NA,TRUE,5,0.5988,751.1004,754.1293,NA,NA,NA,NA,NA,25,35,0,102,102,34,1,2,103,"likert"
"3B2918D43F064EE3802519993EF8A39F",1,"01990a9b-429e-71da-863d-43c42d7b8d70","01990a84-c4ee-73c2-a87b-ff46a7d3dde5","2025-09-02_06h41.54.885",NA,NA,757.4655,757.4655,757.4655,757.805,NA,NA,NA,NA,NA,NA,NA,TRUE,3,0.7181,754.4709,757.4652,NA,NA,NA,NA,NA,100,46,0,103,103,88,1,2,104,"likert"
"3B2918D43F064EE3802519993EF8A39F",1,"01990a9b-429e-71da-863d-43c42d7b8d70","01990a84-c4ee-73c2-a87b-ff46a7d3dde5","2025-09-02_06h41.54.885",NA,NA,760.8029,760.803,760.803,761.1457,NA,NA,NA,NA,NA,NA,NA,TRUE,4,0.702,757.8069,760.8028,NA,NA,NA,NA,NA,7,35,0,104,104,5,1,2,105,"likert"
"3B2918D43F064EE3802519993EF8A39F",1,"01990a9b-429e-71da-863d-43c42d7b8d70","01990a84-c4ee-73c2-a87b-ff46a7d3dde5","2025-09-02_06h41.54.885",NA,NA,764.179,764.179,764.179,764.5137,NA,NA,NA,NA,NA,NA,NA,TRUE,1,0.6678,761.1475,764.1787,NA,NA,NA,NA,NA,150,40,0,105,105,93,1,2,106,"likert"
"3B2918D43F064EE3802519993EF8A39F",1,"01990a9b-429e-71da-863d-43c42d7b8d70","01990a84-c4ee-73c2-a87b-ff46a7d3dde5","2025-09-02_06h41.54.885",NA,NA,767.5174,767.5174,767.5174,767.8568,NA,NA,NA,NA,NA,NA,NA,TRUE,2,1.4095,764.5156,767.5172,NA,NA,NA,NA,NA,21,26,0,106,106,24,1,2,107,"likert"
"3B2918D43F064EE3802519993EF8A39F",1,"01990a9b-429e-71da-863d-43c42d7b8d70","01990a84-c4ee-73c2-a87b-ff46a7d3dde5","2025-09-02_06h41.54.885",NA,NA,770.847,770.8471,770.8471,771.2051,NA,NA,NA,NA,NA,NA,NA,TRUE,5,1.5349,767.8586,770.8469,NA,NA,NA,NA,NA,28,46,0,107,107,41,1,2,108,"likert"
