"participant","session","assignmentId","projectId","date","practiceTrial.started","practiceTrial.stopped","tooLate.started","tooLate.stopped","blank.started","blank.stopped","trials_pract.thisRepN","trials_pract.thisTrialN","trials_pract.thisN","trials_pract.thisIndex","trials_pract.ran","delay_pract","amount_pract","responseMade","key","rt","trial.started","trial.stopped","trials.thisRepN","trials.thisTrialN","trials.thisN","trials.thisIndex","trials.ran","delay","amount","trials_2.thisRepN","trials_2.thisTrialN","trials_2.thisN","trials_2.thisIndex","trials_2.ran","block","trial","taskType"
"3D6D27F2764846F28AA44565B5F845C1",1,"01990a98-560d-7de2-9e1c-b37ccd187dc0","01990a84-c4ee-73c2-a87b-ff46a7d3dde5","2025-09-02_09h24.55.945",64.531,67.5,67.5,67.507,67.507,67.85,0,0,0,2,1,14,45,TRUE,5,2.878,NA,NA,NA,NA,NA,NA,NA,NA,NA,NA,NA,NA,NA,NA,0,1,"likert"
"3D6D27F2764846F28AA44565B5F845C1",1,"01990a98-560d-7de2-9e1c-b37ccd187dc0","01990a84-c4ee-73c2-a87b-ff46a7d3dde5","2025-09-02_09h24.55.945",67.853,70.849,70.849,70.849,70.849,71.198,0,1,1,0,1,7,30,TRUE,5,1.283,NA,NA,NA,NA,NA,NA,NA,NA,NA,NA,NA,NA,NA,NA,0,2,"likert"
"3D6D27F2764846F28AA44565B5F845C1",1,"01990a98-560d-7de2-9e1c-b37ccd187dc0","01990a84-c4ee-73c2-a87b-ff46a7d3dde5","2025-09-02_09h24.55.945",71.201,74.198,74.199,74.199,74.199,74.548,0,2,2,4,1,30,40,TRUE,5,1.746,NA,NA,NA,NA,NA,NA,NA,NA,NA,NA,NA,NA,NA,NA,0,3,"likert"
"3D6D27F2764846F28AA44565B5F845C1",1,"01990a98-560d-7de2-9e1c-b37ccd187dc0","01990a84-c4ee-73c2-a87b-ff46a7d3dde5","2025-09-02_09h24.55.945",74.551,77.547,77.547,77.547,77.547,77.897,0,3,3,1,1,100,50,TRUE,1,2.541,NA,NA,NA,NA,NA,NA,NA,NA,NA,NA,NA,NA,NA,NA,0,4,"likert"
"3D6D27F2764846F28AA44565B5F845C1",1,"01990a98-560d-7de2-9e1c-b37ccd187dc0","01990a84-c4ee-73c2-a87b-ff46a7d3dde5","2025-09-02_09h24.55.945",77.899,80.896,80.896,80.897,80.897,81.246,0,4,4,3,1,3,27,TRUE,5,1.432,NA,NA,NA,NA,NA,NA,NA,NA,NA,NA,NA,NA,NA,NA,0,5,"likert"
"3D6D27F2764846F28AA44565B5F845C1",1,"01990a98-560d-7de2-9e1c-b37ccd187dc0","01990a84-c4ee-73c2-a87b-ff46a7d3dde5","2025-09-02_09h24.55.945",NA,NA,151.197,151.197,151.197,151.546,NA,NA,NA,NA,NA,NA,NA,TRUE,1,1.791,148.217,151.196,0,0,0,34,1,25,35,NA,NA,NA,NA,NA,1,1,"likert"
"3D6D27F2764846F28AA44565B5F845C1",1,"01990a98-560d-7de2-9e1c-b37ccd187dc0","01990a84-c4ee-73c2-a87b-ff46a7d3dde5","2025-09-02_09h24.55.945",NA,NA,154.546,154.546,154.547,154.895,NA,NA,NA,NA,NA,NA,NA,TRUE,1,2.382,151.549,154.546,0,1,1,79,1,95,33,NA,NA,NA,NA,NA,1,2,"likert"
"3D6D27F2764846F28AA44565B5F845C1",1,"01990a98-560d-7de2-9e1c-b37ccd187dc0","01990a84-c4ee-73c2-a87b-ff46a7d3dde5","2025-09-02_09h24.55.945",NA,NA,157.896,157.897,157.897,158.244,NA,NA,NA,NA,NA,NA,NA,TRUE,5,2.95,154.902,157.896,0,2,2,14,1,12,28,NA,NA,NA,NA,NA,1,3,"likert"
"3D6D27F2764846F28AA44565B5F845C1",1,"01990a98-560d-7de2-9e1c-b37ccd187dc0","01990a84-c4ee-73c2-a87b-ff46a7d3dde5","2025-09-02_09h24.55.945",NA,NA,161.244,161.244,161.244,161.596,NA,NA,NA,NA,NA,NA,NA,TRUE,1,2.255,158.247,161.243,0,3,3,18,1,14,25,NA,NA,NA,NA,NA,1,4,"likert"
"3D6D27F2764846F28AA44565B5F845C1",1,"01990a98-560d-7de2-9e1c-b37ccd187dc0","01990a84-c4ee-73c2-a87b-ff46a7d3dde5","2025-09-02_09h24.55.945",NA,NA,164.593,164.593,164.593,164.942,NA,NA,NA,NA,NA,NA,NA,TRUE,1,2.259,161.6,164.592,0,4,4,68,1,60,35,NA,NA,NA,NA,NA,1,5,"likert"
"3D6D27F2764846F28AA44565B5F845C1",1,"01990a98-560d-7de2-9e1c-b37ccd187dc0","01990a84-c4ee-73c2-a87b-ff46a7d3dde5","2025-09-02_09h24.55.945",NA,NA,167.941,167.942,167.942,168.292,NA,NA,NA,NA,NA,NA,NA,TRUE,5,2.015,164.945,167.941,0,5,5,24,1,21,26,NA,NA,NA,NA,NA,1,6,"likert"
"3D6D27F2764846F28AA44565B5F845C1",1,"01990a98-560d-7de2-9e1c-b37ccd187dc0","01990a84-c4ee-73c2-a87b-ff46a7d3dde5","2025-09-02_09h24.55.945",NA,NA,171.291,171.291,171.291,171.64,NA,NA,NA,NA,NA,NA,NA,TRUE,1,1.172,168.295,171.291,0,6,6,54,1,45,26,NA,NA,NA,NA,NA,1,7,"likert"
"3D6D27F2764846F28AA44565B5F845C1",1,"01990a98-560d-7de2-9e1c-b37ccd187dc0","01990a84-c4ee-73c2-a87b-ff46a7d3dde5","2025-09-02_09h24.55.945",NA,NA,174.641,174.641,174.641,174.989,NA,NA,NA,NA,NA,NA,NA,TRUE,5,2.371,171.642,174.64,0,7,7,83,1,95,54,NA,NA,NA,NA,NA,1,8,"likert"
"3D6D27F2764846F28AA44565B5F845C1",1,"01990a98-560d-7de2-9e1c-b37ccd187dc0","01990a84-c4ee-73c2-a87b-ff46a7d3dde5","2025-09-02_09h24.55.945",NA,NA,177.989,177.989,177.989,178.339,NA,NA,NA,NA,NA,NA,NA,TRUE,1,2.763,174.992,177.989,0,8,8,55,1,45,29,NA,NA,NA,NA,NA,1,9,"likert"
"3D6D27F2764846F28AA44565B5F845C1",1,"01990a98-560d-7de2-9e1c-b37ccd187dc0","01990a84-c4ee-73c2-a87b-ff46a7d3dde5","2025-09-02_09h24.55.945",NA,NA,181.339,181.339,181.339,181.688,NA,NA,NA,NA,NA,NA,NA,TRUE,5,2.205,178.339,181.338,0,9,9,26,1,21,29,NA,NA,NA,NA,NA,1,10,"likert"
"3D6D27F2764846F28AA44565B5F845C1",1,"01990a98-560d-7de2-9e1c-b37ccd187dc0","01990a84-c4ee-73c2-a87b-ff46a7d3dde5","2025-09-02_09h24.55.945",NA,NA,184.688,184.688,184.688,185.037,NA,NA,NA,NA,NA,NA,NA,TRUE,5,2.554,181.69,184.687,0,10,10,42,1,30,26,NA,NA,NA,NA,NA,1,11,"likert"
"3D6D27F2764846F28AA44565B5F845C1",1,"01990a98-560d-7de2-9e1c-b37ccd187dc0","01990a84-c4ee-73c2-a87b-ff46a7d3dde5","2025-09-02_09h24.55.945",NA,NA,188.038,188.039,188.039,188.386,NA,NA,NA,NA,NA,NA,NA,TRUE,1,2.146,185.04,188.037,0,11,11,6,1,10,25,NA,NA,NA,NA,NA,1,12,"likert"
"3D6D27F2764846F28AA44565B5F845C1",1,"01990a98-560d-7de2-9e1c-b37ccd187dc0","01990a84-c4ee-73c2-a87b-ff46a7d3dde5","2025-09-02_09h24.55.945",NA,NA,191.387,191.387,191.387,191.736,NA,NA,NA,NA,NA,NA,NA,TRUE,1,1.617,188.391,191.386,0,12,12,105,1,200,39,NA,NA,NA,NA,NA,1,13,"likert"
"3D6D27F2764846F28AA44565B5F845C1",1,"01990a98-560d-7de2-9e1c-b37ccd187dc0","01990a84-c4ee-73c2-a87b-ff46a7d3dde5","2025-09-02_09h24.55.945",NA,NA,194.735,194.736,194.736,195.085,NA,NA,NA,NA,NA,NA,NA,TRUE,5,2.219,191.739,194.735,0,13,13,69,1,60,40,NA,NA,NA,NA,NA,1,14,"likert"
"3D6D27F2764846F28AA44565B5F845C1",1,"01990a98-560d-7de2-9e1c-b37ccd187dc0","01990a84-c4ee-73c2-a87b-ff46a7d3dde5","2025-09-02_09h24.55.945",NA,NA,198.085,198.085,198.085,198.451,NA,NA,NA,NA,NA,NA,NA,TRUE,5,1.75,195.089,198.084,0,14,14,16,1,12,33,NA,NA,NA,NA,NA,1,15,"likert"
"3D6D27F2764846F28AA44565B5F845C1",1,"01990a98-560d-7de2-9e1c-b37ccd187dc0","01990a84-c4ee-73c2-a87b-ff46a7d3dde5","2025-09-02_09h24.55.945",NA,NA,201.451,201.684,201.684,201.8,NA,NA,NA,NA,NA,NA,NA,FALSE,NA,NA,198.455,201.45,0,15,15,57,1,45,35,NA,NA,NA,NA,NA,1,16,"likert"
"3D6D27F2764846F28AA44565B5F845C1",1,"01990a98-560d-7de2-9e1c-b37ccd187dc0","01990a84-c4ee-73c2-a87b-ff46a7d3dde5","2025-09-02_09h24.55.945",NA,NA,204.8,204.8,204.8,205.149,NA,NA,NA,NA,NA,NA,NA,TRUE,1,1.334,201.803,204.8,0,16,16,1,1,7,26,NA,NA,NA,NA,NA,1,17,"likert"
"3D6D27F2764846F28AA44565B5F845C1",1,"01990a98-560d-7de2-9e1c-b37ccd187dc0","01990a84-c4ee-73c2-a87b-ff46a7d3dde5","2025-09-02_09h24.55.945",NA,NA,208.148,208.148,208.148,208.498,NA,NA,NA,NA,NA,NA,NA,TRUE,1,1.569,205.15,208.148,0,17,17,93,1,150,40,NA,NA,NA,NA,NA,1,18,"likert"
"3D6D27F2764846F28AA44565B5F845C1",1,"01990a98-560d-7de2-9e1c-b37ccd187dc0","01990a84-c4ee-73c2-a87b-ff46a7d3dde5","2025-09-02_09h24.55.945",NA,NA,211.497,211.497,211.497,211.847,NA,NA,NA,NA,NA,NA,NA,TRUE,5,1.688,208.501,211.497,0,18,18,56,1,45,31,NA,NA,NA,NA,NA,1,19,"likert"
"3D6D27F2764846F28AA44565B5F845C1",1,"01990a98-560d-7de2-9e1c-b37ccd187dc0","01990a84-c4ee-73c2-a87b-ff46a7d3dde5","2025-09-02_09h24.55.945",NA,NA,214.847,214.848,214.848,215.196,NA,NA,NA,NA,NA,NA,NA,TRUE,5,1.1,211.848,214.847,0,19,19,50,1,40,35,NA,NA,NA,NA,NA,1,20,"likert"
"3D6D27F2764846F28AA44565B5F845C1",1,"01990a98-560d-7de2-9e1c-b37ccd187dc0","01990a84-c4ee-73c2-a87b-ff46a7d3dde5","2025-09-02_09h24.55.945",NA,NA,218.196,218.196,218.196,218.546,NA,NA,NA,NA,NA,NA,NA,TRUE,5,1.333,215.197,218.196,0,20,20,107,1,200,54,NA,NA,NA,NA,NA,1,21,"likert"
"3D6D27F2764846F28AA44565B5F845C1",1,"01990a98-560d-7de2-9e1c-b37ccd187dc0","01990a84-c4ee-73c2-a87b-ff46a7d3dde5","2025-09-02_09h24.55.945",NA,NA,221.546,221.546,221.546,221.894,NA,NA,NA,NA,NA,NA,NA,TRUE,1,1.019,218.548,221.545,0,21,21,85,1,100,31,NA,NA,NA,NA,NA,1,22,"likert"
"3D6D27F2764846F28AA44565B5F845C1",1,"01990a98-560d-7de2-9e1c-b37ccd187dc0","01990a84-c4ee-73c2-a87b-ff46a7d3dde5","2025-09-02_09h24.55.945",NA,NA,224.894,224.894,224.894,225.244,NA,NA,NA,NA,NA,NA,NA,TRUE,1,1.146,221.902,224.894,0,22,22,78,1,95,31,NA,NA,NA,NA,NA,1,23,"likert"
"3D6D27F2764846F28AA44565B5F845C1",1,"01990a98-560d-7de2-9e1c-b37ccd187dc0","01990a84-c4ee-73c2-a87b-ff46a7d3dde5","2025-09-02_09h24.55.945",NA,NA,228.244,228.244,228.244,228.593,NA,NA,NA,NA,NA,NA,NA,TRUE,5,1.019,225.247,228.244,0,23,23,22,1,14,35,NA,NA,NA,NA,NA,1,24,"likert"
"3D6D27F2764846F28AA44565B5F845C1",1,"01990a98-560d-7de2-9e1c-b37ccd187dc0","01990a84-c4ee-73c2-a87b-ff46a7d3dde5","2025-09-02_09h24.55.945",NA,NA,231.592,231.592,231.592,231.942,NA,NA,NA,NA,NA,NA,NA,TRUE,5,0.765,228.596,231.592,0,24,24,23,1,14,39,NA,NA,NA,NA,NA,1,25,"likert"
"3D6D27F2764846F28AA44565B5F845C1",1,"01990a98-560d-7de2-9e1c-b37ccd187dc0","01990a84-c4ee-73c2-a87b-ff46a7d3dde5","2025-09-02_09h24.55.945",NA,NA,234.942,234.943,234.943,235.292,NA,NA,NA,NA,NA,NA,NA,TRUE,5,0.817,231.945,234.942,0,25,25,2,1,7,28,NA,NA,NA,NA,NA,1,26,"likert"
"3D6D27F2764846F28AA44565B5F845C1",1,"01990a98-560d-7de2-9e1c-b37ccd187dc0","01990a84-c4ee-73c2-a87b-ff46a7d3dde5","2025-09-02_09h24.55.945",NA,NA,238.291,238.291,238.291,238.641,NA,NA,NA,NA,NA,NA,NA,TRUE,5,0.735,235.294,238.291,0,26,26,45,1,30,30,NA,NA,NA,NA,NA,1,27,"likert"
"3D6D27F2764846F28AA44565B5F845C1",1,"01990a98-560d-7de2-9e1c-b37ccd187dc0","01990a84-c4ee-73c2-a87b-ff46a7d3dde5","2025-09-02_09h24.55.945",NA,NA,241.64,241.64,241.64,241.99,NA,NA,NA,NA,NA,NA,NA,TRUE,5,1.186,238.642,241.64,0,27,27,76,1,90,46,NA,NA,NA,NA,NA,1,28,"likert"
"3D6D27F2764846F28AA44565B5F845C1",1,"01990a98-560d-7de2-9e1c-b37ccd187dc0","01990a84-c4ee-73c2-a87b-ff46a7d3dde5","2025-09-02_09h24.55.945",NA,NA,244.99,244.99,244.99,245.34,NA,NA,NA,NA,NA,NA,NA,TRUE,5,1.11,241.991,244.989,0,28,28,5,1,7,35,NA,NA,NA,NA,NA,1,29,"likert"
"3D6D27F2764846F28AA44565B5F845C1",1,"01990a98-560d-7de2-9e1c-b37ccd187dc0","01990a84-c4ee-73c2-a87b-ff46a7d3dde5","2025-09-02_09h24.55.945",NA,NA,248.339,248.339,248.339,248.688,NA,NA,NA,NA,NA,NA,NA,TRUE,5,1.106,245.342,248.339,0,29,29,8,1,10,27,NA,NA,NA,NA,NA,1,30,"likert"
"3D6D27F2764846F28AA44565B5F845C1",1,"01990a98-560d-7de2-9e1c-b37ccd187dc0","01990a84-c4ee-73c2-a87b-ff46a7d3dde5","2025-09-02_09h24.55.945",NA,NA,251.69,251.69,251.69,252.038,NA,NA,NA,NA,NA,NA,NA,TRUE,5,1.236,248.691,251.689,0,30,30,95,1,150,54,NA,NA,NA,NA,NA,1,31,"likert"
"3D6D27F2764846F28AA44565B5F845C1",1,"01990a98-560d-7de2-9e1c-b37ccd187dc0","01990a84-c4ee-73c2-a87b-ff46a7d3dde5","2025-09-02_09h24.55.945",NA,NA,255.037,255.037,255.037,255.387,NA,NA,NA,NA,NA,NA,NA,TRUE,5,0.801,252.046,255.036,0,31,31,9,1,10,29,NA,NA,NA,NA,NA,1,32,"likert"
"3D6D27F2764846F28AA44565B5F845C1",1,"01990a98-560d-7de2-9e1c-b37ccd187dc0","01990a84-c4ee-73c2-a87b-ff46a7d3dde5","2025-09-02_09h24.55.945",NA,NA,258.386,258.386,258.386,258.736,NA,NA,NA,NA,NA,NA,NA,TRUE,1,1.7,255.391,258.386,0,32,32,102,1,200,26,NA,NA,NA,NA,NA,1,33,"likert"
"3D6D27F2764846F28AA44565B5F845C1",1,"01990a98-560d-7de2-9e1c-b37ccd187dc0","01990a84-c4ee-73c2-a87b-ff46a7d3dde5","2025-09-02_09h24.55.945",NA,NA,261.735,261.735,261.735,262.085,NA,NA,NA,NA,NA,NA,NA,TRUE,3,1.683,258.74,261.735,0,33,33,31,1,25,29,NA,NA,NA,NA,NA,1,34,"likert"
"3D6D27F2764846F28AA44565B5F845C1",1,"01990a98-560d-7de2-9e1c-b37ccd187dc0","01990a84-c4ee-73c2-a87b-ff46a7d3dde5","2025-09-02_09h24.55.945",NA,NA,265.085,265.085,265.085,265.434,NA,NA,NA,NA,NA,NA,NA,TRUE,1,2.149,262.09,265.084,0,34,34,98,1,180,35,NA,NA,NA,NA,NA,1,35,"likert"
"3D6D27F2764846F28AA44565B5F845C1",1,"01990a98-560d-7de2-9e1c-b37ccd187dc0","01990a84-c4ee-73c2-a87b-ff46a7d3dde5","2025-09-02_09h24.55.945",NA,NA,268.451,268.451,268.451,268.799,NA,NA,NA,NA,NA,NA,NA,TRUE,4,1.801,265.437,268.45,0,35,35,43,1,30,27,NA,NA,NA,NA,NA,1,36,"likert"
"3D6D27F2764846F28AA44565B5F845C1",1,"01990a98-560d-7de2-9e1c-b37ccd187dc0","01990a84-c4ee-73c2-a87b-ff46a7d3dde5","2025-09-02_09h24.55.945",NA,NA,271.8,271.8,271.8,272.149,NA,NA,NA,NA,NA,NA,NA,TRUE,5,1.063,268.802,271.799,0,36,36,51,1,40,40,NA,NA,NA,NA,NA,1,37,"likert"
"3D6D27F2764846F28AA44565B5F845C1",1,"01990a98-560d-7de2-9e1c-b37ccd187dc0","01990a84-c4ee-73c2-a87b-ff46a7d3dde5","2025-09-02_09h24.55.945",NA,NA,275.149,275.149,275.149,275.498,NA,NA,NA,NA,NA,NA,NA,TRUE,1,1.551,272.151,275.149,0,37,37,44,1,30,29,NA,NA,NA,NA,NA,1,38,"likert"
"3D6D27F2764846F28AA44565B5F845C1",1,"01990a98-560d-7de2-9e1c-b37ccd187dc0","01990a84-c4ee-73c2-a87b-ff46a7d3dde5","2025-09-02_09h24.55.945",NA,NA,278.498,278.498,278.498,278.848,NA,NA,NA,NA,NA,NA,NA,TRUE,5,2.075,275.499,278.498,0,38,38,67,1,60,33,NA,NA,NA,NA,NA,1,39,"likert"
"3D6D27F2764846F28AA44565B5F845C1",1,"01990a98-560d-7de2-9e1c-b37ccd187dc0","01990a84-c4ee-73c2-a87b-ff46a7d3dde5","2025-09-02_09h24.55.945",NA,NA,281.847,281.847,281.847,282.197,NA,NA,NA,NA,NA,NA,NA,TRUE,5,1.121,278.849,281.847,0,39,39,30,1,25,27,NA,NA,NA,NA,NA,1,40,"likert"
"3D6D27F2764846F28AA44565B5F845C1",1,"01990a98-560d-7de2-9e1c-b37ccd187dc0","01990a84-c4ee-73c2-a87b-ff46a7d3dde5","2025-09-02_09h24.55.945",NA,NA,285.197,285.197,285.197,285.546,NA,NA,NA,NA,NA,NA,NA,TRUE,5,0.926,282.2,285.196,0,40,40,20,1,14,28,NA,NA,NA,NA,NA,1,41,"likert"
"3D6D27F2764846F28AA44565B5F845C1",1,"01990a98-560d-7de2-9e1c-b37ccd187dc0","01990a84-c4ee-73c2-a87b-ff46a7d3dde5","2025-09-02_09h24.55.945",NA,NA,288.545,288.546,288.546,288.895,NA,NA,NA,NA,NA,NA,NA,TRUE,5,0.89,285.561,288.545,0,41,41,11,1,10,32,NA,NA,NA,NA,NA,1,42,"likert"
"3D6D27F2764846F28AA44565B5F845C1",1,"01990a98-560d-7de2-9e1c-b37ccd187dc0","01990a84-c4ee-73c2-a87b-ff46a7d3dde5","2025-09-02_09h24.55.945",NA,NA,291.895,291.895,291.895,292.244,NA,NA,NA,NA,NA,NA,NA,TRUE,5,0.952,288.899,291.895,0,42,42,106,1,200,47,NA,NA,NA,NA,NA,1,43,"likert"
"3D6D27F2764846F28AA44565B5F845C1",1,"01990a98-560d-7de2-9e1c-b37ccd187dc0","01990a84-c4ee-73c2-a87b-ff46a7d3dde5","2025-09-02_09h24.55.945",NA,NA,295.244,295.244,295.244,295.593,NA,NA,NA,NA,NA,NA,NA,TRUE,5,0.734,292.247,295.244,0,43,43,65,1,50,54,NA,NA,NA,NA,NA,1,44,"likert"
"3D6D27F2764846F28AA44565B5F845C1",1,"01990a98-560d-7de2-9e1c-b37ccd187dc0","01990a84-c4ee-73c2-a87b-ff46a7d3dde5","2025-09-02_09h24.55.945",NA,NA,298.593,298.593,298.593,298.943,NA,NA,NA,NA,NA,NA,NA,TRUE,5,0.882,295.598,298.593,0,44,44,25,1,21,27,NA,NA,NA,NA,NA,1,45,"likert"
"3D6D27F2764846F28AA44565B5F845C1",1,"01990a98-560d-7de2-9e1c-b37ccd187dc0","01990a84-c4ee-73c2-a87b-ff46a7d3dde5","2025-09-02_09h24.55.945",NA,NA,301.942,301.942,301.942,302.292,NA,NA,NA,NA,NA,NA,NA,TRUE,1,0.92,298.945,301.941,0,45,45,87,1,100,39,NA,NA,NA,NA,NA,1,46,"likert"
"3D6D27F2764846F28AA44565B5F845C1",1,"01990a98-560d-7de2-9e1c-b37ccd187dc0","01990a84-c4ee-73c2-a87b-ff46a7d3dde5","2025-09-02_09h24.55.945",NA,NA,305.292,305.292,305.292,305.641,NA,NA,NA,NA,NA,NA,NA,TRUE,5,1.398,302.293,305.292,0,46,46,19,1,14,26,NA,NA,NA,NA,NA,1,47,"likert"
"3D6D27F2764846F28AA44565B5F845C1",1,"01990a98-560d-7de2-9e1c-b37ccd187dc0","01990a84-c4ee-73c2-a87b-ff46a7d3dde5","2025-09-02_09h24.55.945",NA,NA,308.641,308.641,308.641,308.99,NA,NA,NA,NA,NA,NA,NA,TRUE,1,1.189,305.643,308.64,0,47,47,103,1,200,28,NA,NA,NA,NA,NA,1,48,"likert"
"3D6D27F2764846F28AA44565B5F845C1",1,"01990a98-560d-7de2-9e1c-b37ccd187dc0","01990a84-c4ee-73c2-a87b-ff46a7d3dde5","2025-09-02_09h24.55.945",NA,NA,311.99,311.99,311.99,312.339,NA,NA,NA,NA,NA,NA,NA,TRUE,5,0.765,308.991,311.99,0,48,48,7,1,10,26,NA,NA,NA,NA,NA,1,49,"likert"
"3D6D27F2764846F28AA44565B5F845C1",1,"01990a98-560d-7de2-9e1c-b37ccd187dc0","01990a84-c4ee-73c2-a87b-ff46a7d3dde5","2025-09-02_09h24.55.945",NA,NA,315.338,315.338,315.338,315.688,NA,NA,NA,NA,NA,NA,NA,TRUE,1,1.754,312.342,315.338,0,49,49,99,1,180,39,NA,NA,NA,NA,NA,1,50,"likert"
"3D6D27F2764846F28AA44565B5F845C1",1,"01990a98-560d-7de2-9e1c-b37ccd187dc0","01990a84-c4ee-73c2-a87b-ff46a7d3dde5","2025-09-02_09h24.55.945",NA,NA,318.689,318.689,318.689,319.038,NA,NA,NA,NA,NA,NA,NA,TRUE,5,0.652,315.689,318.688,0,50,50,35,1,25,46,NA,NA,NA,NA,NA,1,51,"likert"
"3D6D27F2764846F28AA44565B5F845C1",1,"01990a98-560d-7de2-9e1c-b37ccd187dc0","01990a84-c4ee-73c2-a87b-ff46a7d3dde5","2025-09-02_09h24.55.945",NA,NA,322.038,322.038,322.038,322.387,NA,NA,NA,NA,NA,NA,NA,TRUE,5,0.8,319.049,322.038,0,51,51,71,1,60,54,NA,NA,NA,NA,NA,1,52,"likert"
"3D6D27F2764846F28AA44565B5F845C1",1,"01990a98-560d-7de2-9e1c-b37ccd187dc0","01990a84-c4ee-73c2-a87b-ff46a7d3dde5","2025-09-02_09h24.55.945",NA,NA,325.386,325.386,325.386,325.736,NA,NA,NA,NA,NA,NA,NA,TRUE,5,1.539,322.391,325.386,0,52,52,47,1,30,38,NA,NA,NA,NA,NA,1,53,"likert"
"3D6D27F2764846F28AA44565B5F845C1",1,"01990a98-560d-7de2-9e1c-b37ccd187dc0","01990a84-c4ee-73c2-a87b-ff46a7d3dde5","2025-09-02_09h24.55.945",NA,NA,328.737,328.737,328.737,329.086,NA,NA,NA,NA,NA,NA,NA,TRUE,5,0.973,325.74,328.736,0,53,53,77,1,90,54,NA,NA,NA,NA,NA,1,54,"likert"
"3D6D27F2764846F28AA44565B5F845C1",1,"01990a98-560d-7de2-9e1c-b37ccd187dc0","01990a84-c4ee-73c2-a87b-ff46a7d3dde5","2025-09-02_09h24.55.945",NA,NA,332.085,332.085,332.085,332.436,NA,NA,NA,NA,NA,NA,NA,TRUE,5,0.743,329.087,332.085,0,54,54,4,1,7,32,NA,NA,NA,NA,NA,1,55,"likert"
"3D6D27F2764846F28AA44565B5F845C1",1,"01990a98-560d-7de2-9e1c-b37ccd187dc0","01990a84-c4ee-73c2-a87b-ff46a7d3dde5","2025-09-02_09h24.55.945",NA,NA,335.434,335.434,335.434,335.8,NA,NA,NA,NA,NA,NA,NA,TRUE,1,1.042,332.436,335.434,0,55,55,66,1,60,29,NA,NA,NA,NA,NA,1,56,"likert"
"3D6D27F2764846F28AA44565B5F845C1",1,"01990a98-560d-7de2-9e1c-b37ccd187dc0","01990a84-c4ee-73c2-a87b-ff46a7d3dde5","2025-09-02_09h24.55.945",NA,NA,338.8,338.8,338.8,339.149,NA,NA,NA,NA,NA,NA,NA,TRUE,1,1.501,335.803,338.8,0,56,56,72,1,90,26,NA,NA,NA,NA,NA,1,57,"likert"
"3D6D27F2764846F28AA44565B5F845C1",1,"01990a98-560d-7de2-9e1c-b37ccd187dc0","01990a84-c4ee-73c2-a87b-ff46a7d3dde5","2025-09-02_09h24.55.945",NA,NA,342.14,342.14,342.14,342.499,NA,NA,NA,NA,NA,NA,NA,TRUE,4,1.665,339.152,342.14,0,57,57,33,1,25,33,NA,NA,NA,NA,NA,1,58,"likert"
"3D6D27F2764846F28AA44565B5F845C1",1,"01990a98-560d-7de2-9e1c-b37ccd187dc0","01990a84-c4ee-73c2-a87b-ff46a7d3dde5","2025-09-02_09h24.55.945",NA,NA,345.498,345.498,345.498,345.848,NA,NA,NA,NA,NA,NA,NA,TRUE,5,0.854,342.5,345.497,0,58,58,29,1,21,38,NA,NA,NA,NA,NA,1,59,"likert"
"3D6D27F2764846F28AA44565B5F845C1",1,"01990a98-560d-7de2-9e1c-b37ccd187dc0","01990a84-c4ee-73c2-a87b-ff46a7d3dde5","2025-09-02_09h24.55.945",NA,NA,348.848,348.848,348.848,349.199,NA,NA,NA,NA,NA,NA,NA,TRUE,5,0.771,345.849,348.847,0,59,59,63,1,50,40,NA,NA,NA,NA,NA,1,60,"likert"
"3D6D27F2764846F28AA44565B5F845C1",1,"01990a98-560d-7de2-9e1c-b37ccd187dc0","01990a84-c4ee-73c2-a87b-ff46a7d3dde5","2025-09-02_09h24.55.945",NA,NA,352.196,352.197,352.197,352.547,NA,NA,NA,NA,NA,NA,NA,TRUE,1,1.283,349.204,352.196,0,60,60,74,1,90,33,NA,NA,NA,NA,NA,1,61,"likert"
"3D6D27F2764846F28AA44565B5F845C1",1,"01990a98-560d-7de2-9e1c-b37ccd187dc0","01990a84-c4ee-73c2-a87b-ff46a7d3dde5","2025-09-02_09h24.55.945",NA,NA,355.546,355.546,355.546,355.895,NA,NA,NA,NA,NA,NA,NA,TRUE,5,0.844,352.55,355.545,0,61,61,64,1,50,46,NA,NA,NA,NA,NA,1,62,"likert"
"3D6D27F2764846F28AA44565B5F845C1",1,"01990a98-560d-7de2-9e1c-b37ccd187dc0","01990a84-c4ee-73c2-a87b-ff46a7d3dde5","2025-09-02_09h24.55.945",NA,NA,358.895,358.895,358.895,359.245,NA,NA,NA,NA,NA,NA,NA,TRUE,1,1.037,355.899,358.894,0,62,62,86,1,100,38,NA,NA,NA,NA,NA,1,63,"likert"
"3D6D27F2764846F28AA44565B5F845C1",1,"01990a98-560d-7de2-9e1c-b37ccd187dc0","01990a84-c4ee-73c2-a87b-ff46a7d3dde5","2025-09-02_09h24.55.945",NA,NA,362.244,362.244,362.244,362.593,NA,NA,NA,NA,NA,NA,NA,TRUE,5,1.066,359.248,362.244,0,63,63,82,1,95,47,NA,NA,NA,NA,NA,1,64,"likert"
"3D6D27F2764846F28AA44565B5F845C1",1,"01990a98-560d-7de2-9e1c-b37ccd187dc0","01990a84-c4ee-73c2-a87b-ff46a7d3dde5","2025-09-02_09h24.55.945",NA,NA,365.593,365.593,365.593,365.943,NA,NA,NA,NA,NA,NA,NA,TRUE,5,0.816,362.594,365.593,0,64,64,61,1,50,30,NA,NA,NA,NA,NA,1,65,"likert"
"3D6D27F2764846F28AA44565B5F845C1",1,"01990a98-560d-7de2-9e1c-b37ccd187dc0","01990a84-c4ee-73c2-a87b-ff46a7d3dde5","2025-09-02_09h24.55.945",NA,NA,368.942,368.942,368.942,369.292,NA,NA,NA,NA,NA,NA,NA,TRUE,1,1.436,365.947,368.941,0,65,65,100,1,180,46,NA,NA,NA,NA,NA,1,66,"likert"
"3D6D27F2764846F28AA44565B5F845C1",1,"01990a98-560d-7de2-9e1c-b37ccd187dc0","01990a84-c4ee-73c2-a87b-ff46a7d3dde5","2025-09-02_09h24.55.945",NA,NA,372.292,372.292,372.292,372.641,NA,NA,NA,NA,NA,NA,NA,TRUE,5,1.454,369.295,372.292,0,66,66,52,1,40,47,NA,NA,NA,NA,NA,1,67,"likert"
"3D6D27F2764846F28AA44565B5F845C1",1,"01990a98-560d-7de2-9e1c-b37ccd187dc0","01990a84-c4ee-73c2-a87b-ff46a7d3dde5","2025-09-02_09h24.55.945",NA,NA,375.64,375.64,375.64,375.99,NA,NA,NA,NA,NA,NA,NA,TRUE,1,0.919,372.642,375.64,0,67,67,96,1,180,27,NA,NA,NA,NA,NA,1,68,"likert"
"3D6D27F2764846F28AA44565B5F845C1",1,"01990a98-560d-7de2-9e1c-b37ccd187dc0","01990a84-c4ee-73c2-a87b-ff46a7d3dde5","2025-09-02_09h24.55.945",NA,NA,378.996,378.996,378.997,379.34,NA,NA,NA,NA,NA,NA,NA,TRUE,5,0.638,375.992,378.996,0,68,68,39,1,28,35,NA,NA,NA,NA,NA,1,69,"likert"
"3D6D27F2764846F28AA44565B5F845C1",1,"01990a98-560d-7de2-9e1c-b37ccd187dc0","01990a84-c4ee-73c2-a87b-ff46a7d3dde5","2025-09-02_09h24.55.945",NA,NA,382.339,382.339,382.339,382.688,NA,NA,NA,NA,NA,NA,NA,TRUE,5,0.74,379.352,382.339,0,69,69,12,1,12,25,NA,NA,NA,NA,NA,1,70,"likert"
"3D6D27F2764846F28AA44565B5F845C1",1,"01990a98-560d-7de2-9e1c-b37ccd187dc0","01990a84-c4ee-73c2-a87b-ff46a7d3dde5","2025-09-02_09h24.55.945",NA,NA,385.688,385.688,385.688,386.038,NA,NA,NA,NA,NA,NA,NA,TRUE,5,2.033,382.692,385.687,0,70,70,75,1,90,40,NA,NA,NA,NA,NA,1,71,"likert"
"3D6D27F2764846F28AA44565B5F845C1",1,"01990a98-560d-7de2-9e1c-b37ccd187dc0","01990a84-c4ee-73c2-a87b-ff46a7d3dde5","2025-09-02_09h24.55.945",NA,NA,389.037,389.038,389.038,389.388,NA,NA,NA,NA,NA,NA,NA,TRUE,1,1.203,386.041,389.037,0,71,71,73,1,90,30,NA,NA,NA,NA,NA,1,72,"likert"
"3D6D27F2764846F28AA44565B5F845C1",1,"01990a98-560d-7de2-9e1c-b37ccd187dc0","01990a84-c4ee-73c2-a87b-ff46a7d3dde5","2025-09-02_09h24.55.945",NA,NA,392.387,392.387,392.387,392.736,NA,NA,NA,NA,NA,NA,NA,TRUE,1,1.678,389.391,392.386,0,72,72,80,1,95,35,NA,NA,NA,NA,NA,1,73,"likert"
"3D6D27F2764846F28AA44565B5F845C1",1,"01990a98-560d-7de2-9e1c-b37ccd187dc0","01990a84-c4ee-73c2-a87b-ff46a7d3dde5","2025-09-02_09h24.55.945",NA,NA,395.735,395.735,395.736,396.085,NA,NA,NA,NA,NA,NA,NA,TRUE,1,1.118,392.738,395.735,0,73,73,84,1,100,26,NA,NA,NA,NA,NA,1,74,"likert"
"3D6D27F2764846F28AA44565B5F845C1",1,"01990a98-560d-7de2-9e1c-b37ccd187dc0","01990a84-c4ee-73c2-a87b-ff46a7d3dde5","2025-09-02_09h24.55.945",NA,NA,399.085,399.085,399.085,399.435,NA,NA,NA,NA,NA,NA,NA,TRUE,1,1.379,396.088,399.085,0,74,74,91,1,150,33,NA,NA,NA,NA,NA,1,75,"likert"
"3D6D27F2764846F28AA44565B5F845C1",1,"01990a98-560d-7de2-9e1c-b37ccd187dc0","01990a84-c4ee-73c2-a87b-ff46a7d3dde5","2025-09-02_09h24.55.945",NA,NA,402.434,402.434,402.435,402.8,NA,NA,NA,NA,NA,NA,NA,TRUE,3,1.67,399.436,402.434,0,75,75,36,1,28,26,NA,NA,NA,NA,NA,1,76,"likert"
"3D6D27F2764846F28AA44565B5F845C1",1,"01990a98-560d-7de2-9e1c-b37ccd187dc0","01990a84-c4ee-73c2-a87b-ff46a7d3dde5","2025-09-02_09h24.55.945",NA,NA,405.8,405.8,405.8,406.149,NA,NA,NA,NA,NA,NA,NA,TRUE,2,1.294,402.804,405.8,0,76,76,0,1,7,25,NA,NA,NA,NA,NA,1,77,"likert"
"3D6D27F2764846F28AA44565B5F845C1",1,"01990a98-560d-7de2-9e1c-b37ccd187dc0","01990a84-c4ee-73c2-a87b-ff46a7d3dde5","2025-09-02_09h24.55.945",NA,NA,409.149,409.149,409.149,409.499,NA,NA,NA,NA,NA,NA,NA,TRUE,5,2.144,406.152,409.149,0,77,77,41,1,28,46,NA,NA,NA,NA,NA,1,78,"likert"
"3D6D27F2764846F28AA44565B5F845C1",1,"01990a98-560d-7de2-9e1c-b37ccd187dc0","01990a84-c4ee-73c2-a87b-ff46a7d3dde5","2025-09-02_09h24.55.945",NA,NA,412.5,412.5,412.5,412.848,NA,NA,NA,NA,NA,NA,NA,TRUE,1,1.378,409.501,412.499,0,78,78,62,1,50,35,NA,NA,NA,NA,NA,1,79,"likert"
"3D6D27F2764846F28AA44565B5F845C1",1,"01990a98-560d-7de2-9e1c-b37ccd187dc0","01990a84-c4ee-73c2-a87b-ff46a7d3dde5","2025-09-02_09h24.55.945",NA,NA,415.848,415.848,415.848,416.197,NA,NA,NA,NA,NA,NA,NA,TRUE,5,1.295,412.856,415.848,0,79,79,81,1,95,40,NA,NA,NA,NA,NA,1,80,"likert"
"3D6D27F2764846F28AA44565B5F845C1",1,"01990a98-560d-7de2-9e1c-b37ccd187dc0","01990a84-c4ee-73c2-a87b-ff46a7d3dde5","2025-09-02_09h24.55.945",NA,NA,419.197,419.197,419.197,419.547,NA,NA,NA,NA,NA,NA,NA,TRUE,1,1.21,416.2,419.197,0,80,80,104,1,200,35,NA,NA,NA,NA,NA,1,81,"likert"
"3D6D27F2764846F28AA44565B5F845C1",1,"01990a98-560d-7de2-9e1c-b37ccd187dc0","01990a84-c4ee-73c2-a87b-ff46a7d3dde5","2025-09-02_09h24.55.945",NA,NA,422.546,422.546,422.546,422.895,NA,NA,NA,NA,NA,NA,NA,TRUE,3,1.618,419.55,422.546,0,81,81,37,1,28,28,NA,NA,NA,NA,NA,1,82,"likert"
"3D6D27F2764846F28AA44565B5F845C1",1,"01990a98-560d-7de2-9e1c-b37ccd187dc0","01990a84-c4ee-73c2-a87b-ff46a7d3dde5","2025-09-02_09h24.55.945",NA,NA,425.896,425.896,425.896,426.245,NA,NA,NA,NA,NA,NA,NA,TRUE,5,2.095,422.899,425.895,0,82,82,89,1,100,54,NA,NA,NA,NA,NA,1,83,"likert"
"3D6D27F2764846F28AA44565B5F845C1",1,"01990a98-560d-7de2-9e1c-b37ccd187dc0","01990a84-c4ee-73c2-a87b-ff46a7d3dde5","2025-09-02_09h24.55.945",NA,NA,429.244,429.245,429.245,429.594,NA,NA,NA,NA,NA,NA,NA,TRUE,5,0.953,426.247,429.244,0,83,83,88,1,100,46,NA,NA,NA,NA,NA,1,84,"likert"
"3D6D27F2764846F28AA44565B5F845C1",1,"01990a98-560d-7de2-9e1c-b37ccd187dc0","01990a84-c4ee-73c2-a87b-ff46a7d3dde5","2025-09-02_09h24.55.945",NA,NA,432.594,432.594,432.594,432.943,NA,NA,NA,NA,NA,NA,NA,TRUE,5,0.8,429.597,432.594,0,84,84,59,1,45,46,NA,NA,NA,NA,NA,1,85,"likert"
"3D6D27F2764846F28AA44565B5F845C1",1,"01990a98-560d-7de2-9e1c-b37ccd187dc0","01990a84-c4ee-73c2-a87b-ff46a7d3dde5","2025-09-02_09h24.55.945",NA,NA,435.943,435.943,435.943,436.292,NA,NA,NA,NA,NA,NA,NA,TRUE,1,1.002,432.945,435.942,0,85,85,21,1,14,32,NA,NA,NA,NA,NA,1,86,"likert"
"3D6D27F2764846F28AA44565B5F845C1",1,"01990a98-560d-7de2-9e1c-b37ccd187dc0","01990a84-c4ee-73c2-a87b-ff46a7d3dde5","2025-09-02_09h24.55.945",NA,NA,439.291,439.291,439.291,439.641,NA,NA,NA,NA,NA,NA,NA,TRUE,5,0.933,436.294,439.291,0,86,86,46,1,30,32,NA,NA,NA,NA,NA,1,87,"likert"
"3D6D27F2764846F28AA44565B5F845C1",1,"01990a98-560d-7de2-9e1c-b37ccd187dc0","01990a84-c4ee-73c2-a87b-ff46a7d3dde5","2025-09-02_09h24.55.945",NA,NA,442.641,442.641,442.641,442.991,NA,NA,NA,NA,NA,NA,NA,TRUE,5,1.998,439.644,442.641,0,87,87,17,1,12,35,NA,NA,NA,NA,NA,1,88,"likert"
"3D6D27F2764846F28AA44565B5F845C1",1,"01990a98-560d-7de2-9e1c-b37ccd187dc0","01990a84-c4ee-73c2-a87b-ff46a7d3dde5","2025-09-02_09h24.55.945",NA,NA,445.992,445.992,445.992,446.34,NA,NA,NA,NA,NA,NA,NA,TRUE,1,1.357,442.992,445.991,0,88,88,97,1,180,31,NA,NA,NA,NA,NA,1,89,"likert"
"3D6D27F2764846F28AA44565B5F845C1",1,"01990a98-560d-7de2-9e1c-b37ccd187dc0","01990a84-c4ee-73c2-a87b-ff46a7d3dde5","2025-09-02_09h24.55.945",NA,NA,449.34,449.34,449.34,449.69,NA,NA,NA,NA,NA,NA,NA,TRUE,5,0.954,446.347,449.339,0,89,89,15,1,12,31,NA,NA,NA,NA,NA,1,90,"likert"
"3D6D27F2764846F28AA44565B5F845C1",1,"01990a98-560d-7de2-9e1c-b37ccd187dc0","01990a84-c4ee-73c2-a87b-ff46a7d3dde5","2025-09-02_09h24.55.945",NA,NA,452.689,452.689,452.689,453.038,NA,NA,NA,NA,NA,NA,NA,TRUE,5,0.85,449.692,452.688,0,90,90,70,1,60,47,NA,NA,NA,NA,NA,1,91,"likert"
"3D6D27F2764846F28AA44565B5F845C1",1,"01990a98-560d-7de2-9e1c-b37ccd187dc0","01990a84-c4ee-73c2-a87b-ff46a7d3dde5","2025-09-02_09h24.55.945",NA,NA,456.037,456.037,456.037,456.388,NA,NA,NA,NA,NA,NA,NA,TRUE,1,1.084,453.04,456.037,0,91,91,48,1,40,27,NA,NA,NA,NA,NA,1,92,"likert"
"3D6D27F2764846F28AA44565B5F845C1",1,"01990a98-560d-7de2-9e1c-b37ccd187dc0","01990a84-c4ee-73c2-a87b-ff46a7d3dde5","2025-09-02_09h24.55.945",NA,NA,459.387,459.387,459.387,459.736,NA,NA,NA,NA,NA,NA,NA,TRUE,5,0.899,456.39,459.387,0,92,92,58,1,45,40,NA,NA,NA,NA,NA,1,93,"likert"
"3D6D27F2764846F28AA44565B5F845C1",1,"01990a98-560d-7de2-9e1c-b37ccd187dc0","01990a84-c4ee-73c2-a87b-ff46a7d3dde5","2025-09-02_09h24.55.945",NA,NA,462.736,462.736,462.736,463.085,NA,NA,NA,NA,NA,NA,NA,TRUE,5,0.968,459.737,462.736,0,93,93,3,1,7,30,NA,NA,NA,NA,NA,1,94,"likert"
"3D6D27F2764846F28AA44565B5F845C1",1,"01990a98-560d-7de2-9e1c-b37ccd187dc0","01990a84-c4ee-73c2-a87b-ff46a7d3dde5","2025-09-02_09h24.55.945",NA,NA,466.085,466.085,466.085,466.438,NA,NA,NA,NA,NA,NA,NA,TRUE,5,0.606,463.088,466.084,0,94,94,28,1,21,32,NA,NA,NA,NA,NA,1,95,"likert"
"3D6D27F2764846F28AA44565B5F845C1",1,"01990a98-560d-7de2-9e1c-b37ccd187dc0","01990a84-c4ee-73c2-a87b-ff46a7d3dde5","2025-09-02_09h24.55.945",NA,NA,469.434,469.434,469.434,469.801,NA,NA,NA,NA,NA,NA,NA,TRUE,1,0.882,466.44,469.434,0,95,95,60,1,50,27,NA,NA,NA,NA,NA,1,96,"likert"
"3D6D27F2764846F28AA44565B5F845C1",1,"01990a98-560d-7de2-9e1c-b37ccd187dc0","01990a84-c4ee-73c2-a87b-ff46a7d3dde5","2025-09-02_09h24.55.945",NA,NA,472.801,472.801,472.801,473.15,NA,NA,NA,NA,NA,NA,NA,TRUE,1,1.018,469.803,472.8,0,96,96,92,1,150,35,NA,NA,NA,NA,NA,1,97,"likert"
"3D6D27F2764846F28AA44565B5F845C1",1,"01990a98-560d-7de2-9e1c-b37ccd187dc0","01990a84-c4ee-73c2-a87b-ff46a7d3dde5","2025-09-02_09h24.55.945",NA,NA,476.149,476.149,476.15,476.499,NA,NA,NA,NA,NA,NA,NA,TRUE,5,1.167,473.152,476.149,0,97,97,13,1,12,26,NA,NA,NA,NA,NA,1,98,"likert"
"3D6D27F2764846F28AA44565B5F845C1",1,"01990a98-560d-7de2-9e1c-b37ccd187dc0","01990a84-c4ee-73c2-a87b-ff46a7d3dde5","2025-09-02_09h24.55.945",NA,NA,479.505,479.505,479.505,479.849,NA,NA,NA,NA,NA,NA,NA,TRUE,5,1.365,476.502,479.504,0,98,98,53,1,40,54,NA,NA,NA,NA,NA,1,99,"likert"
"3D6D27F2764846F28AA44565B5F845C1",1,"01990a98-560d-7de2-9e1c-b37ccd187dc0","01990a84-c4ee-73c2-a87b-ff46a7d3dde5","2025-09-02_09h24.55.945",NA,NA,482.847,482.848,482.848,483.197,NA,NA,NA,NA,NA,NA,NA,TRUE,5,1.497,479.86,482.847,0,99,99,40,1,28,39,NA,NA,NA,NA,NA,1,100,"likert"
"3D6D27F2764846F28AA44565B5F845C1",1,"01990a98-560d-7de2-9e1c-b37ccd187dc0","01990a84-c4ee-73c2-a87b-ff46a7d3dde5","2025-09-02_09h24.55.945",NA,NA,486.197,486.197,486.197,486.547,NA,NA,NA,NA,NA,NA,NA,TRUE,5,1.099,483.199,486.197,0,100,100,49,1,40,33,NA,NA,NA,NA,NA,1,101,"likert"
"3D6D27F2764846F28AA44565B5F845C1",1,"01990a98-560d-7de2-9e1c-b37ccd187dc0","01990a84-c4ee-73c2-a87b-ff46a7d3dde5","2025-09-02_09h24.55.945",NA,NA,489.546,489.546,489.546,489.896,NA,NA,NA,NA,NA,NA,NA,TRUE,5,0.887,486.549,489.546,0,101,101,10,1,10,30,NA,NA,NA,NA,NA,1,102,"likert"
"3D6D27F2764846F28AA44565B5F845C1",1,"01990a98-560d-7de2-9e1c-b37ccd187dc0","01990a84-c4ee-73c2-a87b-ff46a7d3dde5","2025-09-02_09h24.55.945",NA,NA,492.896,492.896,492.896,493.245,NA,NA,NA,NA,NA,NA,NA,TRUE,1,0.869,489.899,492.895,0,102,102,90,1,150,31,NA,NA,NA,NA,NA,1,103,"likert"
"3D6D27F2764846F28AA44565B5F845C1",1,"01990a98-560d-7de2-9e1c-b37ccd187dc0","01990a84-c4ee-73c2-a87b-ff46a7d3dde5","2025-09-02_09h24.55.945",NA,NA,496.244,496.244,496.244,496.594,NA,NA,NA,NA,NA,NA,NA,TRUE,5,0.922,493.248,496.244,0,103,103,32,1,25,31,NA,NA,NA,NA,NA,1,104,"likert"
"3D6D27F2764846F28AA44565B5F845C1",1,"01990a98-560d-7de2-9e1c-b37ccd187dc0","01990a84-c4ee-73c2-a87b-ff46a7d3dde5","2025-09-02_09h24.55.945",NA,NA,499.594,499.594,499.594,499.943,NA,NA,NA,NA,NA,NA,NA,TRUE,5,1.395,496.597,499.593,0,104,104,27,1,21,30,NA,NA,NA,NA,NA,1,105,"likert"
"3D6D27F2764846F28AA44565B5F845C1",1,"01990a98-560d-7de2-9e1c-b37ccd187dc0","01990a84-c4ee-73c2-a87b-ff46a7d3dde5","2025-09-02_09h24.55.945",NA,NA,502.943,502.943,502.943,503.293,NA,NA,NA,NA,NA,NA,NA,TRUE,5,0.837,499.944,502.942,0,105,105,38,1,28,32,NA,NA,NA,NA,NA,1,106,"likert"
"3D6D27F2764846F28AA44565B5F845C1",1,"01990a98-560d-7de2-9e1c-b37ccd187dc0","01990a84-c4ee-73c2-a87b-ff46a7d3dde5","2025-09-02_09h24.55.945",NA,NA,506.299,506.299,506.299,506.641,NA,NA,NA,NA,NA,NA,NA,TRUE,1,0.638,503.295,506.299,0,106,106,94,1,150,47,NA,NA,NA,NA,NA,1,107,"likert"
"3D6D27F2764846F28AA44565B5F845C1",1,"01990a98-560d-7de2-9e1c-b37ccd187dc0","01990a84-c4ee-73c2-a87b-ff46a7d3dde5","2025-09-02_09h24.55.945",NA,NA,509.641,509.641,509.641,509.99,NA,NA,NA,NA,NA,NA,NA,TRUE,5,0.856,506.644,509.641,0,107,107,101,1,180,54,NA,NA,NA,NA,NA,1,108,"likert"
"3D6D27F2764846F28AA44565B5F845C1",1,"01990a98-560d-7de2-9e1c-b37ccd187dc0","01990a84-c4ee-73c2-a87b-ff46a7d3dde5","2025-09-02_09h24.55.945",NA,NA,593.204,593.204,593.204,593.554,NA,NA,NA,NA,NA,NA,NA,TRUE,5,2.188,590.227,593.204,NA,NA,NA,NA,NA,28,46,0,0,0,41,1,2,1,"likert"
"3D6D27F2764846F28AA44565B5F845C1",1,"01990a98-560d-7de2-9e1c-b37ccd187dc0","01990a84-c4ee-73c2-a87b-ff46a7d3dde5","2025-09-02_09h24.55.945",NA,NA,596.553,596.553,596.553,596.903,NA,NA,NA,NA,NA,NA,NA,TRUE,5,1.6,593.556,596.553,NA,NA,NA,NA,NA,12,33,0,1,1,16,1,2,2,"likert"
"3D6D27F2764846F28AA44565B5F845C1",1,"01990a98-560d-7de2-9e1c-b37ccd187dc0","01990a84-c4ee-73c2-a87b-ff46a7d3dde5","2025-09-02_09h24.55.945",NA,NA,599.903,599.903,599.903,600.252,NA,NA,NA,NA,NA,NA,NA,TRUE,3,1.699,596.907,599.902,NA,NA,NA,NA,NA,28,28,0,2,2,37,1,2,3,"likert"
"3D6D27F2764846F28AA44565B5F845C1",1,"01990a98-560d-7de2-9e1c-b37ccd187dc0","01990a84-c4ee-73c2-a87b-ff46a7d3dde5","2025-09-02_09h24.55.945",NA,NA,603.252,603.252,603.252,603.601,NA,NA,NA,NA,NA,NA,NA,TRUE,1,1.271,600.256,603.251,NA,NA,NA,NA,NA,100,26,0,3,3,84,1,2,4,"likert"
"3D6D27F2764846F28AA44565B5F845C1",1,"01990a98-560d-7de2-9e1c-b37ccd187dc0","01990a84-c4ee-73c2-a87b-ff46a7d3dde5","2025-09-02_09h24.55.945",NA,NA,606.601,606.601,606.601,606.95,NA,NA,NA,NA,NA,NA,NA,TRUE,1,1.202,603.604,606.6,NA,NA,NA,NA,NA,90,30,0,4,4,73,1,2,5,"likert"
"3D6D27F2764846F28AA44565B5F845C1",1,"01990a98-560d-7de2-9e1c-b37ccd187dc0","01990a84-c4ee-73c2-a87b-ff46a7d3dde5","2025-09-02_09h24.55.945",NA,NA,609.95,609.95,609.95,610.299,NA,NA,NA,NA,NA,NA,NA,TRUE,1,1.742,606.952,609.95,NA,NA,NA,NA,NA,21,27,0,5,5,25,1,2,6,"likert"
"3D6D27F2764846F28AA44565B5F845C1",1,"01990a98-560d-7de2-9e1c-b37ccd187dc0","01990a84-c4ee-73c2-a87b-ff46a7d3dde5","2025-09-02_09h24.55.945",NA,NA,613.299,613.549,613.549,613.648,NA,NA,NA,NA,NA,NA,NA,FALSE,NA,NA,610.303,613.299,NA,NA,NA,NA,NA,7,25,0,6,6,0,1,2,7,"likert"
"3D6D27F2764846F28AA44565B5F845C1",1,"01990a98-560d-7de2-9e1c-b37ccd187dc0","01990a84-c4ee-73c2-a87b-ff46a7d3dde5","2025-09-02_09h24.55.945",NA,NA,616.649,616.649,616.649,616.998,NA,NA,NA,NA,NA,NA,NA,TRUE,3,1.714,613.649,616.648,NA,NA,NA,NA,NA,25,27,0,7,7,30,1,2,8,"likert"
"3D6D27F2764846F28AA44565B5F845C1",1,"01990a98-560d-7de2-9e1c-b37ccd187dc0","01990a84-c4ee-73c2-a87b-ff46a7d3dde5","2025-09-02_09h24.55.945",NA,NA,619.998,619.998,619.998,620.347,NA,NA,NA,NA,NA,NA,NA,TRUE,5,1.525,617.009,619.998,NA,NA,NA,NA,NA,60,40,0,8,8,69,1,2,9,"likert"
"3D6D27F2764846F28AA44565B5F845C1",1,"01990a98-560d-7de2-9e1c-b37ccd187dc0","01990a84-c4ee-73c2-a87b-ff46a7d3dde5","2025-09-02_09h24.55.945",NA,NA,623.346,623.346,623.346,623.696,NA,NA,NA,NA,NA,NA,NA,TRUE,1,1.901,620.348,623.346,NA,NA,NA,NA,NA,10,25,0,9,9,6,1,2,10,"likert"
"3D6D27F2764846F28AA44565B5F845C1",1,"01990a98-560d-7de2-9e1c-b37ccd187dc0","01990a84-c4ee-73c2-a87b-ff46a7d3dde5","2025-09-02_09h24.55.945",NA,NA,626.696,626.696,626.697,627.046,NA,NA,NA,NA,NA,NA,NA,TRUE,1,2.331,623.699,626.696,NA,NA,NA,NA,NA,100,31,0,10,10,85,1,2,11,"likert"
"3D6D27F2764846F28AA44565B5F845C1",1,"01990a98-560d-7de2-9e1c-b37ccd187dc0","01990a84-c4ee-73c2-a87b-ff46a7d3dde5","2025-09-02_09h24.55.945",NA,NA,630.044,630.044,630.044,630.395,NA,NA,NA,NA,NA,NA,NA,TRUE,5,1.016,627.05,630.044,NA,NA,NA,NA,NA,95,47,0,11,11,82,1,2,12,"likert"
"3D6D27F2764846F28AA44565B5F845C1",1,"01990a98-560d-7de2-9e1c-b37ccd187dc0","01990a84-c4ee-73c2-a87b-ff46a7d3dde5","2025-09-02_09h24.55.945",NA,NA,633.394,633.394,633.394,633.743,NA,NA,NA,NA,NA,NA,NA,TRUE,5,0.986,630.397,633.394,NA,NA,NA,NA,NA,21,30,0,12,12,27,1,2,13,"likert"
"3D6D27F2764846F28AA44565B5F845C1",1,"01990a98-560d-7de2-9e1c-b37ccd187dc0","01990a84-c4ee-73c2-a87b-ff46a7d3dde5","2025-09-02_09h24.55.945",NA,NA,636.76,636.76,636.76,637.093,NA,NA,NA,NA,NA,NA,NA,TRUE,2,0.918,633.745,636.76,NA,NA,NA,NA,NA,90,26,0,13,13,72,1,2,14,"likert"
"3D6D27F2764846F28AA44565B5F845C1",1,"01990a98-560d-7de2-9e1c-b37ccd187dc0","01990a84-c4ee-73c2-a87b-ff46a7d3dde5","2025-09-02_09h24.55.945",NA,NA,640.109,640.11,640.11,640.459,NA,NA,NA,NA,NA,NA,NA,TRUE,5,1.3,637.095,640.109,NA,NA,NA,NA,NA,12,35,0,14,14,17,1,2,15,"likert"
"3D6D27F2764846F28AA44565B5F845C1",1,"01990a98-560d-7de2-9e1c-b37ccd187dc0","01990a84-c4ee-73c2-a87b-ff46a7d3dde5","2025-09-02_09h24.55.945",NA,NA,643.458,643.458,643.458,643.808,NA,NA,NA,NA,NA,NA,NA,TRUE,5,0.649,640.46,643.458,NA,NA,NA,NA,NA,30,29,0,15,15,44,1,2,16,"likert"
"3D6D27F2764846F28AA44565B5F845C1",1,"01990a98-560d-7de2-9e1c-b37ccd187dc0","01990a84-c4ee-73c2-a87b-ff46a7d3dde5","2025-09-02_09h24.55.945",NA,NA,646.807,646.807,646.807,647.157,NA,NA,NA,NA,NA,NA,NA,TRUE,2,0.571,643.809,646.807,NA,NA,NA,NA,NA,150,33,0,16,16,91,1,2,17,"likert"
"3D6D27F2764846F28AA44565B5F845C1",1,"01990a98-560d-7de2-9e1c-b37ccd187dc0","01990a84-c4ee-73c2-a87b-ff46a7d3dde5","2025-09-02_09h24.55.945",NA,NA,650.159,650.16,650.16,650.507,NA,NA,NA,NA,NA,NA,NA,TRUE,1,1.755,647.159,650.157,NA,NA,NA,NA,NA,180,31,0,17,17,97,1,2,18,"likert"
"3D6D27F2764846F28AA44565B5F845C1",1,"01990a98-560d-7de2-9e1c-b37ccd187dc0","01990a84-c4ee-73c2-a87b-ff46a7d3dde5","2025-09-02_09h24.55.945",NA,NA,653.506,653.506,653.506,653.856,NA,NA,NA,NA,NA,NA,NA,TRUE,5,1.543,650.517,653.505,NA,NA,NA,NA,NA,10,30,0,18,18,10,1,2,19,"likert"
"3D6D27F2764846F28AA44565B5F845C1",1,"01990a98-560d-7de2-9e1c-b37ccd187dc0","01990a84-c4ee-73c2-a87b-ff46a7d3dde5","2025-09-02_09h24.55.945",NA,NA,656.855,656.855,656.855,657.205,NA,NA,NA,NA,NA,NA,NA,TRUE,1,1.164,653.859,656.855,NA,NA,NA,NA,NA,200,28,0,19,19,103,1,2,20,"likert"
"3D6D27F2764846F28AA44565B5F845C1",1,"01990a98-560d-7de2-9e1c-b37ccd187dc0","01990a84-c4ee-73c2-a87b-ff46a7d3dde5","2025-09-02_09h24.55.945",NA,NA,660.204,660.204,660.204,660.554,NA,NA,NA,NA,NA,NA,NA,TRUE,5,0.985,657.208,660.204,NA,NA,NA,NA,NA,10,26,0,20,20,7,1,2,21,"likert"
"3D6D27F2764846F28AA44565B5F845C1",1,"01990a98-560d-7de2-9e1c-b37ccd187dc0","01990a84-c4ee-73c2-a87b-ff46a7d3dde5","2025-09-02_09h24.55.945",NA,NA,663.553,663.554,663.554,663.903,NA,NA,NA,NA,NA,NA,NA,TRUE,5,0.937,660.557,663.552,NA,NA,NA,NA,NA,95,54,0,21,21,83,1,2,22,"likert"
"3D6D27F2764846F28AA44565B5F845C1",1,"01990a98-560d-7de2-9e1c-b37ccd187dc0","01990a84-c4ee-73c2-a87b-ff46a7d3dde5","2025-09-02_09h24.55.945",NA,NA,666.903,666.903,666.903,667.253,NA,NA,NA,NA,NA,NA,NA,TRUE,5,0.809,663.906,666.902,NA,NA,NA,NA,NA,90,33,0,22,22,74,1,2,23,"likert"
"3D6D27F2764846F28AA44565B5F845C1",1,"01990a98-560d-7de2-9e1c-b37ccd187dc0","01990a84-c4ee-73c2-a87b-ff46a7d3dde5","2025-09-02_09h24.55.945",NA,NA,670.252,670.252,670.252,670.606,NA,NA,NA,NA,NA,NA,NA,TRUE,5,0.656,667.255,670.252,NA,NA,NA,NA,NA,50,54,0,23,23,65,1,2,24,"likert"
"3D6D27F2764846F28AA44565B5F845C1",1,"01990a98-560d-7de2-9e1c-b37ccd187dc0","01990a84-c4ee-73c2-a87b-ff46a7d3dde5","2025-09-02_09h24.55.945",NA,NA,673.6,673.6,673.6,673.951,NA,NA,NA,NA,NA,NA,NA,TRUE,1,0.852,670.607,673.6,NA,NA,NA,NA,NA,150,47,0,24,24,94,1,2,25,"likert"
"3D6D27F2764846F28AA44565B5F845C1",1,"01990a98-560d-7de2-9e1c-b37ccd187dc0","01990a84-c4ee-73c2-a87b-ff46a7d3dde5","2025-09-02_09h24.55.945",NA,NA,676.95,676.95,676.95,677.3,NA,NA,NA,NA,NA,NA,NA,TRUE,5,1.031,673.953,676.95,NA,NA,NA,NA,NA,200,54,0,25,25,107,1,2,26,"likert"
"3D6D27F2764846F28AA44565B5F845C1",1,"01990a98-560d-7de2-9e1c-b37ccd187dc0","01990a84-c4ee-73c2-a87b-ff46a7d3dde5","2025-09-02_09h24.55.945",NA,NA,680.299,680.3,680.3,680.649,NA,NA,NA,NA,NA,NA,NA,TRUE,5,0.618,677.301,680.299,NA,NA,NA,NA,NA,40,47,0,26,26,52,1,2,27,"likert"
"3D6D27F2764846F28AA44565B5F845C1",1,"01990a98-560d-7de2-9e1c-b37ccd187dc0","01990a84-c4ee-73c2-a87b-ff46a7d3dde5","2025-09-02_09h24.55.945",NA,NA,683.649,683.649,683.649,683.998,NA,NA,NA,NA,NA,NA,NA,TRUE,5,0.78,680.651,683.649,NA,NA,NA,NA,NA,14,39,0,27,27,23,1,2,28,"likert"
"3D6D27F2764846F28AA44565B5F845C1",1,"01990a98-560d-7de2-9e1c-b37ccd187dc0","01990a84-c4ee-73c2-a87b-ff46a7d3dde5","2025-09-02_09h24.55.945",NA,NA,686.998,686.998,686.998,687.348,NA,NA,NA,NA,NA,NA,NA,TRUE,5,0.771,684.004,686.998,NA,NA,NA,NA,NA,30,38,0,28,28,47,1,2,29,"likert"
"3D6D27F2764846F28AA44565B5F845C1",1,"01990a98-560d-7de2-9e1c-b37ccd187dc0","01990a84-c4ee-73c2-a87b-ff46a7d3dde5","2025-09-02_09h24.55.945",NA,NA,690.346,690.347,690.347,690.696,NA,NA,NA,NA,NA,NA,NA,TRUE,5,0.777,687.351,690.346,NA,NA,NA,NA,NA,10,27,0,29,29,8,1,2,30,"likert"
"3D6D27F2764846F28AA44565B5F845C1",1,"01990a98-560d-7de2-9e1c-b37ccd187dc0","01990a84-c4ee-73c2-a87b-ff46a7d3dde5","2025-09-02_09h24.55.945",NA,NA,693.696,693.696,693.696,694.045,NA,NA,NA,NA,NA,NA,NA,TRUE,5,1.017,690.698,693.695,NA,NA,NA,NA,NA,40,35,0,30,30,50,1,2,31,"likert"
"3D6D27F2764846F28AA44565B5F845C1",1,"01990a98-560d-7de2-9e1c-b37ccd187dc0","01990a84-c4ee-73c2-a87b-ff46a7d3dde5","2025-09-02_09h24.55.945",NA,NA,697.046,697.046,697.046,697.395,NA,NA,NA,NA,NA,NA,NA,TRUE,5,0.985,694.048,697.045,NA,NA,NA,NA,NA,90,54,0,31,31,77,1,2,32,"likert"
"3D6D27F2764846F28AA44565B5F845C1",1,"01990a98-560d-7de2-9e1c-b37ccd187dc0","01990a84-c4ee-73c2-a87b-ff46a7d3dde5","2025-09-02_09h24.55.945",NA,NA,700.397,700.397,700.397,700.743,NA,NA,NA,NA,NA,NA,NA,TRUE,5,1.621,697.397,700.397,NA,NA,NA,NA,NA,25,33,0,32,32,33,1,2,33,"likert"
"3D6D27F2764846F28AA44565B5F845C1",1,"01990a98-560d-7de2-9e1c-b37ccd187dc0","01990a84-c4ee-73c2-a87b-ff46a7d3dde5","2025-09-02_09h24.55.945",NA,NA,703.744,703.744,703.744,704.093,NA,NA,NA,NA,NA,NA,NA,TRUE,5,1.226,700.747,703.744,NA,NA,NA,NA,NA,45,40,0,33,33,58,1,2,34,"likert"
"3D6D27F2764846F28AA44565B5F845C1",1,"01990a98-560d-7de2-9e1c-b37ccd187dc0","01990a84-c4ee-73c2-a87b-ff46a7d3dde5","2025-09-02_09h24.55.945",NA,NA,707.11,707.11,707.11,707.459,NA,NA,NA,NA,NA,NA,NA,TRUE,1,1.434,704.094,707.11,NA,NA,NA,NA,NA,180,39,0,34,34,99,1,2,35,"likert"
"3D6D27F2764846F28AA44565B5F845C1",1,"01990a98-560d-7de2-9e1c-b37ccd187dc0","01990a84-c4ee-73c2-a87b-ff46a7d3dde5","2025-09-02_09h24.55.945",NA,NA,710.459,710.459,710.459,710.808,NA,NA,NA,NA,NA,NA,NA,TRUE,3,1.636,707.461,710.459,NA,NA,NA,NA,NA,30,30,0,35,35,45,1,2,36,"likert"
"3D6D27F2764846F28AA44565B5F845C1",1,"01990a98-560d-7de2-9e1c-b37ccd187dc0","01990a84-c4ee-73c2-a87b-ff46a7d3dde5","2025-09-02_09h24.55.945",NA,NA,713.808,713.808,713.808,714.161,NA,NA,NA,NA,NA,NA,NA,TRUE,1,1.686,710.81,713.807,NA,NA,NA,NA,NA,100,39,0,36,36,87,1,2,37,"likert"
"3D6D27F2764846F28AA44565B5F845C1",1,"01990a98-560d-7de2-9e1c-b37ccd187dc0","01990a84-c4ee-73c2-a87b-ff46a7d3dde5","2025-09-02_09h24.55.945",NA,NA,717.157,717.157,717.157,717.506,NA,NA,NA,NA,NA,NA,NA,TRUE,3,1.4,714.163,717.157,NA,NA,NA,NA,NA,10,29,0,37,37,9,1,2,38,"likert"
"3D6D27F2764846F28AA44565B5F845C1",1,"01990a98-560d-7de2-9e1c-b37ccd187dc0","01990a84-c4ee-73c2-a87b-ff46a7d3dde5","2025-09-02_09h24.55.945",NA,NA,720.507,720.507,720.507,720.855,NA,NA,NA,NA,NA,NA,NA,TRUE,4,2.504,717.516,720.506,NA,NA,NA,NA,NA,7,28,0,38,38,2,1,2,39,"likert"
"3D6D27F2764846F28AA44565B5F845C1",1,"01990a98-560d-7de2-9e1c-b37ccd187dc0","01990a84-c4ee-73c2-a87b-ff46a7d3dde5","2025-09-02_09h24.55.945",NA,NA,723.855,723.855,723.855,724.204,NA,NA,NA,NA,NA,NA,NA,TRUE,4,2.156,720.857,723.855,NA,NA,NA,NA,NA,14,28,0,39,39,20,1,2,40,"likert"
"3D6D27F2764846F28AA44565B5F845C1",1,"01990a98-560d-7de2-9e1c-b37ccd187dc0","01990a84-c4ee-73c2-a87b-ff46a7d3dde5","2025-09-02_09h24.55.945",NA,NA,727.205,727.205,727.205,727.553,NA,NA,NA,NA,NA,NA,NA,TRUE,5,1.875,724.207,727.204,NA,NA,NA,NA,NA,180,46,0,40,40,100,1,2,41,"likert"
"3D6D27F2764846F28AA44565B5F845C1",1,"01990a98-560d-7de2-9e1c-b37ccd187dc0","01990a84-c4ee-73c2-a87b-ff46a7d3dde5","2025-09-02_09h24.55.945",NA,NA,730.553,730.553,730.554,730.904,NA,NA,NA,NA,NA,NA,NA,TRUE,5,1.596,727.555,730.553,NA,NA,NA,NA,NA,12,28,0,41,41,14,1,2,42,"likert"
"3D6D27F2764846F28AA44565B5F845C1",1,"01990a98-560d-7de2-9e1c-b37ccd187dc0","01990a84-c4ee-73c2-a87b-ff46a7d3dde5","2025-09-02_09h24.55.945",NA,NA,733.902,733.902,733.902,734.252,NA,NA,NA,NA,NA,NA,NA,TRUE,3,2.483,730.907,733.902,NA,NA,NA,NA,NA,25,31,0,42,42,32,1,2,43,"likert"
"3D6D27F2764846F28AA44565B5F845C1",1,"01990a98-560d-7de2-9e1c-b37ccd187dc0","01990a84-c4ee-73c2-a87b-ff46a7d3dde5","2025-09-02_09h24.55.945",NA,NA,737.252,737.252,737.252,737.602,NA,NA,NA,NA,NA,NA,NA,TRUE,1,1.509,734.254,737.252,NA,NA,NA,NA,NA,180,27,0,43,43,96,1,2,44,"likert"
"3D6D27F2764846F28AA44565B5F845C1",1,"01990a98-560d-7de2-9e1c-b37ccd187dc0","01990a84-c4ee-73c2-a87b-ff46a7d3dde5","2025-09-02_09h24.55.945",NA,NA,740.601,740.601,740.601,740.951,NA,NA,NA,NA,NA,NA,NA,TRUE,5,1.452,737.603,740.601,NA,NA,NA,NA,NA,14,35,0,44,44,22,1,2,45,"likert"
"3D6D27F2764846F28AA44565B5F845C1",1,"01990a98-560d-7de2-9e1c-b37ccd187dc0","01990a84-c4ee-73c2-a87b-ff46a7d3dde5","2025-09-02_09h24.55.945",NA,NA,743.949,743.95,743.95,744.3,NA,NA,NA,NA,NA,NA,NA,TRUE,1,0.949,740.954,743.949,NA,NA,NA,NA,NA,180,35,0,45,45,98,1,2,46,"likert"
"3D6D27F2764846F28AA44565B5F845C1",1,"01990a98-560d-7de2-9e1c-b37ccd187dc0","01990a84-c4ee-73c2-a87b-ff46a7d3dde5","2025-09-02_09h24.55.945",NA,NA,747.301,747.301,747.301,747.649,NA,NA,NA,NA,NA,NA,NA,TRUE,5,0.987,744.302,747.3,NA,NA,NA,NA,NA,7,32,0,46,46,4,1,2,47,"likert"
"3D6D27F2764846F28AA44565B5F845C1",1,"01990a98-560d-7de2-9e1c-b37ccd187dc0","01990a84-c4ee-73c2-a87b-ff46a7d3dde5","2025-09-02_09h24.55.945",NA,NA,750.65,750.65,750.65,750.998,NA,NA,NA,NA,NA,NA,NA,TRUE,5,1.142,747.655,750.649,NA,NA,NA,NA,NA,30,32,0,47,47,46,1,2,48,"likert"
"3D6D27F2764846F28AA44565B5F845C1",1,"01990a98-560d-7de2-9e1c-b37ccd187dc0","01990a84-c4ee-73c2-a87b-ff46a7d3dde5","2025-09-02_09h24.55.945",NA,NA,753.998,753.998,753.999,754.347,NA,NA,NA,NA,NA,NA,NA,TRUE,5,1.02,751.001,753.998,NA,NA,NA,NA,NA,14,26,0,48,48,19,1,2,49,"likert"
"3D6D27F2764846F28AA44565B5F845C1",1,"01990a98-560d-7de2-9e1c-b37ccd187dc0","01990a84-c4ee-73c2-a87b-ff46a7d3dde5","2025-09-02_09h24.55.945",NA,NA,757.346,757.346,757.346,757.696,NA,NA,NA,NA,NA,NA,NA,TRUE,5,1.319,754.352,757.346,NA,NA,NA,NA,NA,45,31,0,49,49,56,1,2,50,"likert"
"3D6D27F2764846F28AA44565B5F845C1",1,"01990a98-560d-7de2-9e1c-b37ccd187dc0","01990a84-c4ee-73c2-a87b-ff46a7d3dde5","2025-09-02_09h24.55.945",NA,NA,760.696,760.696,760.696,761.046,NA,NA,NA,NA,NA,NA,NA,TRUE,1,1.727,757.698,760.696,NA,NA,NA,NA,NA,45,29,0,50,50,55,1,2,51,"likert"
"3D6D27F2764846F28AA44565B5F845C1",1,"01990a98-560d-7de2-9e1c-b37ccd187dc0","01990a84-c4ee-73c2-a87b-ff46a7d3dde5","2025-09-02_09h24.55.945",NA,NA,764.046,764.046,764.046,764.395,NA,NA,NA,NA,NA,NA,NA,TRUE,3,1.191,761.047,764.045,NA,NA,NA,NA,NA,12,26,0,51,51,13,1,2,52,"likert"
"3D6D27F2764846F28AA44565B5F845C1",1,"01990a98-560d-7de2-9e1c-b37ccd187dc0","01990a84-c4ee-73c2-a87b-ff46a7d3dde5","2025-09-02_09h24.55.945",NA,NA,767.394,767.394,767.394,767.744,NA,NA,NA,NA,NA,NA,NA,TRUE,5,1.187,764.397,767.394,NA,NA,NA,NA,NA,95,40,0,52,52,81,1,2,53,"likert"
"3D6D27F2764846F28AA44565B5F845C1",1,"01990a98-560d-7de2-9e1c-b37ccd187dc0","01990a84-c4ee-73c2-a87b-ff46a7d3dde5","2025-09-02_09h24.55.945",NA,NA,770.744,770.744,770.744,771.093,NA,NA,NA,NA,NA,NA,NA,TRUE,5,1.066,767.745,770.744,NA,NA,NA,NA,NA,150,54,0,53,53,95,1,2,54,"likert"
"3D6D27F2764846F28AA44565B5F845C1",1,"01990a98-560d-7de2-9e1c-b37ccd187dc0","01990a84-c4ee-73c2-a87b-ff46a7d3dde5","2025-09-02_09h24.55.945",NA,NA,774.093,774.093,774.093,774.459,NA,NA,NA,NA,NA,NA,NA,TRUE,1,1.526,771.095,774.093,NA,NA,NA,NA,NA,45,26,0,54,54,54,1,2,55,"likert"
"3D6D27F2764846F28AA44565B5F845C1",1,"01990a98-560d-7de2-9e1c-b37ccd187dc0","01990a84-c4ee-73c2-a87b-ff46a7d3dde5","2025-09-02_09h24.55.945",NA,NA,777.459,777.459,777.459,777.808,NA,NA,NA,NA,NA,NA,NA,TRUE,5,0.9,774.46,777.459,NA,NA,NA,NA,NA,7,30,0,55,55,3,1,2,56,"likert"
"3D6D27F2764846F28AA44565B5F845C1",1,"01990a98-560d-7de2-9e1c-b37ccd187dc0","01990a84-c4ee-73c2-a87b-ff46a7d3dde5","2025-09-02_09h24.55.945",NA,NA,780.81,780.811,780.811,781.158,NA,NA,NA,NA,NA,NA,NA,TRUE,5,1.207,777.81,780.809,NA,NA,NA,NA,NA,100,46,0,56,56,88,1,2,57,"likert"
"3D6D27F2764846F28AA44565B5F845C1",1,"01990a98-560d-7de2-9e1c-b37ccd187dc0","01990a84-c4ee-73c2-a87b-ff46a7d3dde5","2025-09-02_09h24.55.945",NA,NA,784.158,784.158,784.158,784.507,NA,NA,NA,NA,NA,NA,NA,TRUE,1,1.662,781.17,784.158,NA,NA,NA,NA,NA,60,35,0,57,57,68,1,2,58,"likert"
"3D6D27F2764846F28AA44565B5F845C1",1,"01990a98-560d-7de2-9e1c-b37ccd187dc0","01990a84-c4ee-73c2-a87b-ff46a7d3dde5","2025-09-02_09h24.55.945",NA,NA,787.506,787.506,787.506,787.855,NA,NA,NA,NA,NA,NA,NA,TRUE,5,1.257,784.51,787.506,NA,NA,NA,NA,NA,12,25,0,58,58,12,1,2,59,"likert"
"3D6D27F2764846F28AA44565B5F845C1",1,"01990a98-560d-7de2-9e1c-b37ccd187dc0","01990a84-c4ee-73c2-a87b-ff46a7d3dde5","2025-09-02_09h24.55.945",NA,NA,790.855,790.855,790.856,791.205,NA,NA,NA,NA,NA,NA,NA,TRUE,1,2.665,787.859,790.855,NA,NA,NA,NA,NA,95,35,0,59,59,80,1,2,60,"likert"
"3D6D27F2764846F28AA44565B5F845C1",1,"01990a98-560d-7de2-9e1c-b37ccd187dc0","01990a84-c4ee-73c2-a87b-ff46a7d3dde5","2025-09-02_09h24.55.945",NA,NA,794.204,794.205,794.205,794.554,NA,NA,NA,NA,NA,NA,NA,TRUE,3,1.136,791.208,794.204,NA,NA,NA,NA,NA,30,26,0,60,60,42,1,2,61,"likert"
"3D6D27F2764846F28AA44565B5F845C1",1,"01990a98-560d-7de2-9e1c-b37ccd187dc0","01990a84-c4ee-73c2-a87b-ff46a7d3dde5","2025-09-02_09h24.55.945",NA,NA,797.553,797.553,797.553,797.903,NA,NA,NA,NA,NA,NA,NA,TRUE,1,1.264,794.557,797.553,NA,NA,NA,NA,NA,200,35,0,61,61,104,1,2,62,"likert"
"3D6D27F2764846F28AA44565B5F845C1",1,"01990a98-560d-7de2-9e1c-b37ccd187dc0","01990a84-c4ee-73c2-a87b-ff46a7d3dde5","2025-09-02_09h24.55.945",NA,NA,800.903,800.903,800.903,801.253,NA,NA,NA,NA,NA,NA,NA,TRUE,5,1.3,797.906,800.903,NA,NA,NA,NA,NA,50,46,0,62,62,64,1,2,63,"likert"
"3D6D27F2764846F28AA44565B5F845C1",1,"01990a98-560d-7de2-9e1c-b37ccd187dc0","01990a84-c4ee-73c2-a87b-ff46a7d3dde5","2025-09-02_09h24.55.945",NA,NA,804.252,804.252,804.252,804.602,NA,NA,NA,NA,NA,NA,NA,TRUE,1,1.022,801.254,804.252,NA,NA,NA,NA,NA,50,27,0,63,63,60,1,2,64,"likert"
"3D6D27F2764846F28AA44565B5F845C1",1,"01990a98-560d-7de2-9e1c-b37ccd187dc0","01990a84-c4ee-73c2-a87b-ff46a7d3dde5","2025-09-02_09h24.55.945",NA,NA,807.601,807.601,807.601,807.951,NA,NA,NA,NA,NA,NA,NA,TRUE,4,1.508,804.604,807.601,NA,NA,NA,NA,NA,14,32,0,64,64,21,1,2,65,"likert"
"3D6D27F2764846F28AA44565B5F845C1",1,"01990a98-560d-7de2-9e1c-b37ccd187dc0","01990a84-c4ee-73c2-a87b-ff46a7d3dde5","2025-09-02_09h24.55.945",NA,NA,810.951,810.951,810.952,811.3,NA,NA,NA,NA,NA,NA,NA,TRUE,1,1.05,807.952,810.951,NA,NA,NA,NA,NA,50,30,0,65,65,61,1,2,66,"likert"
"3D6D27F2764846F28AA44565B5F845C1",1,"01990a98-560d-7de2-9e1c-b37ccd187dc0","01990a84-c4ee-73c2-a87b-ff46a7d3dde5","2025-09-02_09h24.55.945",NA,NA,814.299,814.3,814.3,814.65,NA,NA,NA,NA,NA,NA,NA,TRUE,5,1.833,811.304,814.299,NA,NA,NA,NA,NA,150,40,0,66,66,93,1,2,67,"likert"
"3D6D27F2764846F28AA44565B5F845C1",1,"01990a98-560d-7de2-9e1c-b37ccd187dc0","01990a84-c4ee-73c2-a87b-ff46a7d3dde5","2025-09-02_09h24.55.945",NA,NA,817.649,817.65,817.65,817.999,NA,NA,NA,NA,NA,NA,NA,TRUE,5,1.23,814.654,817.649,NA,NA,NA,NA,NA,7,35,0,67,67,5,1,2,68,"likert"
"3D6D27F2764846F28AA44565B5F845C1",1,"01990a98-560d-7de2-9e1c-b37ccd187dc0","01990a84-c4ee-73c2-a87b-ff46a7d3dde5","2025-09-02_09h24.55.945",NA,NA,820.998,820.998,820.998,821.347,NA,NA,NA,NA,NA,NA,NA,TRUE,5,1.289,818.002,820.997,NA,NA,NA,NA,NA,40,54,0,68,68,53,1,2,69,"likert"
"3D6D27F2764846F28AA44565B5F845C1",1,"01990a98-560d-7de2-9e1c-b37ccd187dc0","01990a84-c4ee-73c2-a87b-ff46a7d3dde5","2025-09-02_09h24.55.945",NA,NA,824.348,824.348,824.348,824.697,NA,NA,NA,NA,NA,NA,NA,TRUE,1,1.122,821.35,824.347,NA,NA,NA,NA,NA,95,31,0,69,69,78,1,2,70,"likert"
"3D6D27F2764846F28AA44565B5F845C1",1,"01990a98-560d-7de2-9e1c-b37ccd187dc0","01990a84-c4ee-73c2-a87b-ff46a7d3dde5","2025-09-02_09h24.55.945",NA,NA,827.697,827.697,827.697,828.046,NA,NA,NA,NA,NA,NA,NA,TRUE,5,1.515,824.7,827.696,NA,NA,NA,NA,NA,100,54,0,70,70,89,1,2,71,"likert"
"3D6D27F2764846F28AA44565B5F845C1",1,"01990a98-560d-7de2-9e1c-b37ccd187dc0","01990a84-c4ee-73c2-a87b-ff46a7d3dde5","2025-09-02_09h24.55.945",NA,NA,831.045,831.045,831.045,831.395,NA,NA,NA,NA,NA,NA,NA,TRUE,5,1.522,828.049,831.045,NA,NA,NA,NA,NA,50,40,0,71,71,63,1,2,72,"likert"
"3D6D27F2764846F28AA44565B5F845C1",1,"01990a98-560d-7de2-9e1c-b37ccd187dc0","01990a84-c4ee-73c2-a87b-ff46a7d3dde5","2025-09-02_09h24.55.945",NA,NA,834.394,834.394,834.394,834.745,NA,NA,NA,NA,NA,NA,NA,TRUE,5,2.318,831.396,834.394,NA,NA,NA,NA,NA,25,35,0,72,72,34,1,2,73,"likert"
"3D6D27F2764846F28AA44565B5F845C1",1,"01990a98-560d-7de2-9e1c-b37ccd187dc0","01990a84-c4ee-73c2-a87b-ff46a7d3dde5","2025-09-02_09h24.55.945",NA,NA,837.744,837.744,837.744,838.093,NA,NA,NA,NA,NA,NA,NA,TRUE,5,2.131,834.745,837.744,NA,NA,NA,NA,NA,28,39,0,73,73,40,1,2,74,"likert"
"3D6D27F2764846F28AA44565B5F845C1",1,"01990a98-560d-7de2-9e1c-b37ccd187dc0","01990a84-c4ee-73c2-a87b-ff46a7d3dde5","2025-09-02_09h24.55.945",NA,NA,841.094,841.094,841.094,841.46,NA,NA,NA,NA,NA,NA,NA,TRUE,1,1.897,838.096,841.093,NA,NA,NA,NA,NA,21,26,0,74,74,24,1,2,75,"likert"
"3D6D27F2764846F28AA44565B5F845C1",1,"01990a98-560d-7de2-9e1c-b37ccd187dc0","01990a84-c4ee-73c2-a87b-ff46a7d3dde5","2025-09-02_09h24.55.945",NA,NA,844.461,844.461,844.461,844.808,NA,NA,NA,NA,NA,NA,NA,TRUE,1,1.044,841.467,844.46,NA,NA,NA,NA,NA,150,31,0,75,75,90,1,2,76,"likert"
"3D6D27F2764846F28AA44565B5F845C1",1,"01990a98-560d-7de2-9e1c-b37ccd187dc0","01990a84-c4ee-73c2-a87b-ff46a7d3dde5","2025-09-02_09h24.55.945",NA,NA,847.808,847.808,847.808,848.158,NA,NA,NA,NA,NA,NA,NA,TRUE,1,1.337,844.81,847.808,NA,NA,NA,NA,NA,28,26,0,76,76,36,1,2,77,"likert"
"3D6D27F2764846F28AA44565B5F845C1",1,"01990a98-560d-7de2-9e1c-b37ccd187dc0","01990a84-c4ee-73c2-a87b-ff46a7d3dde5","2025-09-02_09h24.55.945",NA,NA,851.157,851.157,851.157,851.507,NA,NA,NA,NA,NA,NA,NA,TRUE,5,1.283,848.162,851.157,NA,NA,NA,NA,NA,90,46,0,77,77,76,1,2,78,"likert"
"3D6D27F2764846F28AA44565B5F845C1",1,"01990a98-560d-7de2-9e1c-b37ccd187dc0","01990a84-c4ee-73c2-a87b-ff46a7d3dde5","2025-09-02_09h24.55.945",NA,NA,854.506,854.506,854.507,854.856,NA,NA,NA,NA,NA,NA,NA,TRUE,1,1.787,851.511,854.506,NA,NA,NA,NA,NA,60,33,0,78,78,67,1,2,79,"likert"
"3D6D27F2764846F28AA44565B5F845C1",1,"01990a98-560d-7de2-9e1c-b37ccd187dc0","01990a84-c4ee-73c2-a87b-ff46a7d3dde5","2025-09-02_09h24.55.945",NA,NA,857.856,857.856,857.856,858.206,NA,NA,NA,NA,NA,NA,NA,TRUE,1,1.254,854.857,857.855,NA,NA,NA,NA,NA,200,26,0,79,79,102,1,2,80,"likert"
"3D6D27F2764846F28AA44565B5F845C1",1,"01990a98-560d-7de2-9e1c-b37ccd187dc0","01990a84-c4ee-73c2-a87b-ff46a7d3dde5","2025-09-02_09h24.55.945",NA,NA,861.205,861.205,861.205,861.554,NA,NA,NA,NA,NA,NA,NA,TRUE,1,1.701,858.208,861.205,NA,NA,NA,NA,NA,21,29,0,80,80,26,1,2,81,"likert"
"3D6D27F2764846F28AA44565B5F845C1",1,"01990a98-560d-7de2-9e1c-b37ccd187dc0","01990a84-c4ee-73c2-a87b-ff46a7d3dde5","2025-09-02_09h24.55.945",NA,NA,864.554,864.554,864.554,864.904,NA,NA,NA,NA,NA,NA,NA,TRUE,5,1.369,861.555,864.554,NA,NA,NA,NA,NA,10,32,0,81,81,11,1,2,82,"likert"
"3D6D27F2764846F28AA44565B5F845C1",1,"01990a98-560d-7de2-9e1c-b37ccd187dc0","01990a84-c4ee-73c2-a87b-ff46a7d3dde5","2025-09-02_09h24.55.945",NA,NA,867.903,867.903,867.903,868.253,NA,NA,NA,NA,NA,NA,NA,TRUE,1,0.953,864.905,867.903,NA,NA,NA,NA,NA,60,29,0,82,82,66,1,2,83,"likert"
"3D6D27F2764846F28AA44565B5F845C1",1,"01990a98-560d-7de2-9e1c-b37ccd187dc0","01990a84-c4ee-73c2-a87b-ff46a7d3dde5","2025-09-02_09h24.55.945",NA,NA,871.252,871.252,871.252,871.602,NA,NA,NA,NA,NA,NA,NA,TRUE,1,1.187,868.255,871.252,NA,NA,NA,NA,NA,95,33,0,83,83,79,1,2,84,"likert"
"3D6D27F2764846F28AA44565B5F845C1",1,"01990a98-560d-7de2-9e1c-b37ccd187dc0","01990a84-c4ee-73c2-a87b-ff46a7d3dde5","2025-09-02_09h24.55.945",NA,NA,874.603,874.603,874.603,874.951,NA,NA,NA,NA,NA,NA,NA,TRUE,5,1.563,871.604,874.602,NA,NA,NA,NA,NA,40,40,0,84,84,51,1,2,85,"likert"
"3D6D27F2764846F28AA44565B5F845C1",1,"01990a98-560d-7de2-9e1c-b37ccd187dc0","01990a84-c4ee-73c2-a87b-ff46a7d3dde5","2025-09-02_09h24.55.945",NA,NA,877.951,877.951,877.951,878.302,NA,NA,NA,NA,NA,NA,NA,TRUE,5,1.208,874.962,877.951,NA,NA,NA,NA,NA,14,25,0,85,85,18,1,2,86,"likert"
"3D6D27F2764846F28AA44565B5F845C1",1,"01990a98-560d-7de2-9e1c-b37ccd187dc0","01990a84-c4ee-73c2-a87b-ff46a7d3dde5","2025-09-02_09h24.55.945",NA,NA,881.299,881.299,881.299,881.649,NA,NA,NA,NA,NA,NA,NA,TRUE,5,1.805,878.304,881.299,NA,NA,NA,NA,NA,28,35,0,86,86,39,1,2,87,"likert"
"3D6D27F2764846F28AA44565B5F845C1",1,"01990a98-560d-7de2-9e1c-b37ccd187dc0","01990a84-c4ee-73c2-a87b-ff46a7d3dde5","2025-09-02_09h24.55.945",NA,NA,884.649,884.649,884.649,884.998,NA,NA,NA,NA,NA,NA,NA,TRUE,1,1.156,881.653,884.649,NA,NA,NA,NA,NA,7,26,0,87,87,1,1,2,88,"likert"
"3D6D27F2764846F28AA44565B5F845C1",1,"01990a98-560d-7de2-9e1c-b37ccd187dc0","01990a84-c4ee-73c2-a87b-ff46a7d3dde5","2025-09-02_09h24.55.945",NA,NA,887.998,887.998,887.998,888.348,NA,NA,NA,NA,NA,NA,NA,TRUE,5,1.669,885.004,887.998,NA,NA,NA,NA,NA,21,38,0,88,88,29,1,2,89,"likert"
"3D6D27F2764846F28AA44565B5F845C1",1,"01990a98-560d-7de2-9e1c-b37ccd187dc0","01990a84-c4ee-73c2-a87b-ff46a7d3dde5","2025-09-02_09h24.55.945",NA,NA,891.347,891.347,891.347,891.697,NA,NA,NA,NA,NA,NA,NA,TRUE,5,1.692,888.35,891.347,NA,NA,NA,NA,NA,200,47,0,89,89,106,1,2,90,"likert"
"3D6D27F2764846F28AA44565B5F845C1",1,"01990a98-560d-7de2-9e1c-b37ccd187dc0","01990a84-c4ee-73c2-a87b-ff46a7d3dde5","2025-09-02_09h24.55.945",NA,NA,894.696,894.696,894.696,895.046,NA,NA,NA,NA,NA,NA,NA,TRUE,1,1.268,891.699,894.696,NA,NA,NA,NA,NA,200,39,0,90,90,105,1,2,91,"likert"
"3D6D27F2764846F28AA44565B5F845C1",1,"01990a98-560d-7de2-9e1c-b37ccd187dc0","01990a84-c4ee-73c2-a87b-ff46a7d3dde5","2025-09-02_09h24.55.945",NA,NA,898.045,898.045,898.045,898.395,NA,NA,NA,NA,NA,NA,NA,TRUE,5,0.918,895.048,898.045,NA,NA,NA,NA,NA,90,40,0,91,91,75,1,2,92,"likert"
"3D6D27F2764846F28AA44565B5F845C1",1,"01990a98-560d-7de2-9e1c-b37ccd187dc0","01990a84-c4ee-73c2-a87b-ff46a7d3dde5","2025-09-02_09h24.55.945",NA,NA,901.395,901.395,901.395,901.745,NA,NA,NA,NA,NA,NA,NA,TRUE,1,1.429,898.397,901.394,NA,NA,NA,NA,NA,100,38,0,92,92,86,1,2,93,"likert"
"3D6D27F2764846F28AA44565B5F845C1",1,"01990a98-560d-7de2-9e1c-b37ccd187dc0","01990a84-c4ee-73c2-a87b-ff46a7d3dde5","2025-09-02_09h24.55.945",NA,NA,904.746,904.746,904.747,905.095,NA,NA,NA,NA,NA,NA,NA,TRUE,5,1.065,901.747,904.745,NA,NA,NA,NA,NA,40,27,0,93,93,48,1,2,94,"likert"
"3D6D27F2764846F28AA44565B5F845C1",1,"01990a98-560d-7de2-9e1c-b37ccd187dc0","01990a84-c4ee-73c2-a87b-ff46a7d3dde5","2025-09-02_09h24.55.945",NA,NA,908.094,908.095,908.095,908.46,NA,NA,NA,NA,NA,NA,NA,TRUE,5,1.454,905.099,908.093,NA,NA,NA,NA,NA,45,46,0,94,94,59,1,2,95,"likert"
"3D6D27F2764846F28AA44565B5F845C1",1,"01990a98-560d-7de2-9e1c-b37ccd187dc0","01990a84-c4ee-73c2-a87b-ff46a7d3dde5","2025-09-02_09h24.55.945",NA,NA,911.459,911.459,911.459,911.809,NA,NA,NA,NA,NA,NA,NA,TRUE,5,1.738,908.463,911.459,NA,NA,NA,NA,NA,25,46,0,95,95,35,1,2,96,"likert"
"3D6D27F2764846F28AA44565B5F845C1",1,"01990a98-560d-7de2-9e1c-b37ccd187dc0","01990a84-c4ee-73c2-a87b-ff46a7d3dde5","2025-09-02_09h24.55.945",NA,NA,914.808,914.808,914.809,915.158,NA,NA,NA,NA,NA,NA,NA,TRUE,1,1.871,911.814,914.808,NA,NA,NA,NA,NA,30,27,0,96,96,43,1,2,97,"likert"
"3D6D27F2764846F28AA44565B5F845C1",1,"01990a98-560d-7de2-9e1c-b37ccd187dc0","01990a84-c4ee-73c2-a87b-ff46a7d3dde5","2025-09-02_09h24.55.945",NA,NA,918.157,918.158,918.158,918.507,NA,NA,NA,NA,NA,NA,NA,TRUE,1,1.239,915.162,918.157,NA,NA,NA,NA,NA,25,29,0,97,97,31,1,2,98,"likert"
"3D6D27F2764846F28AA44565B5F845C1",1,"01990a98-560d-7de2-9e1c-b37ccd187dc0","01990a84-c4ee-73c2-a87b-ff46a7d3dde5","2025-09-02_09h24.55.945",NA,NA,921.506,921.506,921.507,921.857,NA,NA,NA,NA,NA,NA,NA,TRUE,5,1.011,918.51,921.506,NA,NA,NA,NA,NA,28,32,0,98,98,38,1,2,99,"likert"
"3D6D27F2764846F28AA44565B5F845C1",1,"01990a98-560d-7de2-9e1c-b37ccd187dc0","01990a84-c4ee-73c2-a87b-ff46a7d3dde5","2025-09-02_09h24.55.945",NA,NA,924.857,924.857,924.857,925.206,NA,NA,NA,NA,NA,NA,NA,TRUE,1,1.285,921.857,924.856,NA,NA,NA,NA,NA,50,35,0,99,99,62,1,2,100,"likert"
"3D6D27F2764846F28AA44565B5F845C1",1,"01990a98-560d-7de2-9e1c-b37ccd187dc0","01990a84-c4ee-73c2-a87b-ff46a7d3dde5","2025-09-02_09h24.55.945",NA,NA,928.205,928.205,928.205,928.555,NA,NA,NA,NA,NA,NA,NA,TRUE,1,0.944,925.209,928.205,NA,NA,NA,NA,NA,150,35,0,100,100,92,1,2,101,"likert"
"3D6D27F2764846F28AA44565B5F845C1",1,"01990a98-560d-7de2-9e1c-b37ccd187dc0","01990a84-c4ee-73c2-a87b-ff46a7d3dde5","2025-09-02_09h24.55.945",NA,NA,931.555,931.555,931.555,931.904,NA,NA,NA,NA,NA,NA,NA,TRUE,1,2.795,928.555,931.555,NA,NA,NA,NA,NA,45,35,0,101,101,57,1,2,102,"likert"
"3D6D27F2764846F28AA44565B5F845C1",1,"01990a98-560d-7de2-9e1c-b37ccd187dc0","01990a84-c4ee-73c2-a87b-ff46a7d3dde5","2025-09-02_09h24.55.945",NA,NA,934.903,934.903,934.903,935.253,NA,NA,NA,NA,NA,NA,NA,TRUE,4,1.598,931.906,934.903,NA,NA,NA,NA,NA,12,31,0,102,102,15,1,2,103,"likert"
"3D6D27F2764846F28AA44565B5F845C1",1,"01990a98-560d-7de2-9e1c-b37ccd187dc0","01990a84-c4ee-73c2-a87b-ff46a7d3dde5","2025-09-02_09h24.55.945",NA,NA,938.254,938.254,938.254,938.602,NA,NA,NA,NA,NA,NA,NA,TRUE,5,1.019,935.255,938.253,NA,NA,NA,NA,NA,21,32,0,103,103,28,1,2,104,"likert"
"3D6D27F2764846F28AA44565B5F845C1",1,"01990a98-560d-7de2-9e1c-b37ccd187dc0","01990a84-c4ee-73c2-a87b-ff46a7d3dde5","2025-09-02_09h24.55.945",NA,NA,941.601,941.601,941.601,941.952,NA,NA,NA,NA,NA,NA,NA,TRUE,1,0.828,938.611,941.601,NA,NA,NA,NA,NA,180,54,0,104,104,101,1,2,105,"likert"
"3D6D27F2764846F28AA44565B5F845C1",1,"01990a98-560d-7de2-9e1c-b37ccd187dc0","01990a84-c4ee-73c2-a87b-ff46a7d3dde5","2025-09-02_09h24.55.945",NA,NA,944.952,944.952,944.952,945.3,NA,NA,NA,NA,NA,NA,NA,TRUE,5,1.151,941.953,944.952,NA,NA,NA,NA,NA,60,47,0,105,105,70,1,2,106,"likert"
"3D6D27F2764846F28AA44565B5F845C1",1,"01990a98-560d-7de2-9e1c-b37ccd187dc0","01990a84-c4ee-73c2-a87b-ff46a7d3dde5","2025-09-02_09h24.55.945",NA,NA,948.3,948.301,948.301,948.65,NA,NA,NA,NA,NA,NA,NA,TRUE,5,1.589,945.303,948.3,NA,NA,NA,NA,NA,60,54,0,106,106,71,1,2,107,"likert"
"3D6D27F2764846F28AA44565B5F845C1",1,"01990a98-560d-7de2-9e1c-b37ccd187dc0","01990a84-c4ee-73c2-a87b-ff46a7d3dde5","2025-09-02_09h24.55.945",NA,NA,951.649,951.649,951.649,951.999,NA,NA,NA,NA,NA,NA,NA,TRUE,5,1.617,948.653,951.649,NA,NA,NA,NA,NA,40,33,0,107,107,49,1,2,108,"likert"
