"participant","session","assignmentId","projectId","date","practiceTrial.started","practiceTrial.stopped","tooLate.started","tooLate.stopped","blank.started","blank.stopped","trials_pract.thisRepN","trials_pract.thisTrialN","trials_pract.thisN","trials_pract.thisIndex","trials_pract.ran","delay_pract","amount_pract","responseMade","key","rt","trial.started","trial.stopped","trials.thisRepN","trials.thisTrialN","trials.thisN","trials.thisIndex","trials.ran","delay","amount","trials_2.thisRepN","trials_2.thisTrialN","trials_2.thisN","trials_2.thisIndex","trials_2.ran","block","trial","taskType"
"3D7D72CEA1F6413D961CE185176CE502",1,"01990a97-fcff-7eac-ad82-f099b767d6cd","01990a84-c4ee-73c2-a87b-ff46a7d3dde5","2025-09-02_09h23.02.958",102.9506,105.8715,105.8745,106.1197,106.1199,106.2198,0,0,0,4,1,30,40,FALSE,NA,NA,NA,NA,NA,NA,NA,NA,NA,NA,NA,NA,NA,NA,NA,NA,0,1,"likert"
"3D7D72CEA1F6413D961CE185176CE502",1,"01990a97-fcff-7eac-ad82-f099b767d6cd","01990a84-c4ee-73c2-a87b-ff46a7d3dde5","2025-09-02_09h23.02.958",106.2217,109.2199,109.2202,109.2203,109.2204,109.5697,0,1,1,3,1,3,27,TRUE,3,1.4846,NA,NA,NA,NA,NA,NA,NA,NA,NA,NA,NA,NA,NA,NA,0,2,"likert"
"3D7D72CEA1F6413D961CE185176CE502",1,"01990a97-fcff-7eac-ad82-f099b767d6cd","01990a84-c4ee-73c2-a87b-ff46a7d3dde5","2025-09-02_09h23.02.958",109.5736,112.5727,112.573,112.5732,112.5735,112.9192,0,2,2,0,1,7,30,TRUE,4,2.9537,NA,NA,NA,NA,NA,NA,NA,NA,NA,NA,NA,NA,NA,NA,0,3,"likert"
"3D7D72CEA1F6413D961CE185176CE502",1,"01990a97-fcff-7eac-ad82-f099b767d6cd","01990a84-c4ee-73c2-a87b-ff46a7d3dde5","2025-09-02_09h23.02.958",112.9206,115.9195,115.9199,115.92,115.92,116.2692,0,3,3,1,1,100,50,TRUE,4,1.8753,NA,NA,NA,NA,NA,NA,NA,NA,NA,NA,NA,NA,NA,NA,0,4,"likert"
"3D7D72CEA1F6413D961CE185176CE502",1,"01990a97-fcff-7eac-ad82-f099b767d6cd","01990a84-c4ee-73c2-a87b-ff46a7d3dde5","2025-09-02_09h23.02.958",116.2716,119.2694,119.2698,119.27,119.2701,119.6194,0,4,4,2,1,14,45,TRUE,4,1.8157,NA,NA,NA,NA,NA,NA,NA,NA,NA,NA,NA,NA,NA,NA,0,5,"likert"
"3D7D72CEA1F6413D961CE185176CE502",1,"01990a97-fcff-7eac-ad82-f099b767d6cd","01990a84-c4ee-73c2-a87b-ff46a7d3dde5","2025-09-02_09h23.02.958",NA,NA,266.5143,266.5146,266.5149,266.8632,NA,NA,NA,NA,NA,NA,NA,TRUE,4,2.0325,263.5646,266.5134,0,0,0,100,1,180,46,NA,NA,NA,NA,NA,1,1,"likert"
"3D7D72CEA1F6413D961CE185176CE502",1,"01990a97-fcff-7eac-ad82-f099b767d6cd","01990a84-c4ee-73c2-a87b-ff46a7d3dde5","2025-09-02_09h23.02.958",NA,NA,269.8624,270.1124,270.1126,270.2121,NA,NA,NA,NA,NA,NA,NA,FALSE,NA,NA,266.8664,269.8622,0,1,1,67,1,60,33,NA,NA,NA,NA,NA,1,2,"likert"
"3D7D72CEA1F6413D961CE185176CE502",1,"01990a97-fcff-7eac-ad82-f099b767d6cd","01990a84-c4ee-73c2-a87b-ff46a7d3dde5","2025-09-02_09h23.02.958",NA,NA,273.2131,273.2132,273.2133,273.5622,NA,NA,NA,NA,NA,NA,NA,TRUE,3,2.2017,270.2136,273.2128,0,2,2,63,1,50,40,NA,NA,NA,NA,NA,1,3,"likert"
"3D7D72CEA1F6413D961CE185176CE502",1,"01990a97-fcff-7eac-ad82-f099b767d6cd","01990a84-c4ee-73c2-a87b-ff46a7d3dde5","2025-09-02_09h23.02.958",NA,NA,276.5627,276.5628,276.5628,276.912,NA,NA,NA,NA,NA,NA,NA,TRUE,2,1.5016,273.5649,276.5624,0,3,3,30,1,25,27,NA,NA,NA,NA,NA,1,4,"likert"
"3D7D72CEA1F6413D961CE185176CE502",1,"01990a97-fcff-7eac-ad82-f099b767d6cd","01990a84-c4ee-73c2-a87b-ff46a7d3dde5","2025-09-02_09h23.02.958",NA,NA,279.913,279.9131,279.9131,280.2619,NA,NA,NA,NA,NA,NA,NA,TRUE,3,1.3737,276.9148,279.9126,0,4,4,41,1,28,46,NA,NA,NA,NA,NA,1,5,"likert"
"3D7D72CEA1F6413D961CE185176CE502",1,"01990a97-fcff-7eac-ad82-f099b767d6cd","01990a84-c4ee-73c2-a87b-ff46a7d3dde5","2025-09-02_09h23.02.958",NA,NA,283.2624,283.2624,283.2625,283.6118,NA,NA,NA,NA,NA,NA,NA,TRUE,2,2.1123,280.2649,283.2621,0,5,5,60,1,50,27,NA,NA,NA,NA,NA,1,6,"likert"
"3D7D72CEA1F6413D961CE185176CE502",1,"01990a97-fcff-7eac-ad82-f099b767d6cd","01990a84-c4ee-73c2-a87b-ff46a7d3dde5","2025-09-02_09h23.02.958",NA,NA,286.6121,286.6122,286.6122,286.9619,NA,NA,NA,NA,NA,NA,NA,TRUE,1,1.6587,283.6145,286.6118,0,6,6,6,1,10,25,NA,NA,NA,NA,NA,1,7,"likert"
"3D7D72CEA1F6413D961CE185176CE502",1,"01990a97-fcff-7eac-ad82-f099b767d6cd","01990a84-c4ee-73c2-a87b-ff46a7d3dde5","2025-09-02_09h23.02.958",NA,NA,289.962,289.9629,289.963,290.3113,NA,NA,NA,NA,NA,NA,NA,TRUE,2,1.8318,286.9648,289.9616,0,7,7,104,1,200,35,NA,NA,NA,NA,NA,1,8,"likert"
"3D7D72CEA1F6413D961CE185176CE502",1,"01990a97-fcff-7eac-ad82-f099b767d6cd","01990a84-c4ee-73c2-a87b-ff46a7d3dde5","2025-09-02_09h23.02.958",NA,NA,293.3115,293.3116,293.3117,293.6609,NA,NA,NA,NA,NA,NA,NA,TRUE,2,2.2988,290.313,293.3111,0,8,8,49,1,40,33,NA,NA,NA,NA,NA,1,9,"likert"
"3D7D72CEA1F6413D961CE185176CE502",1,"01990a97-fcff-7eac-ad82-f099b767d6cd","01990a84-c4ee-73c2-a87b-ff46a7d3dde5","2025-09-02_09h23.02.958",NA,NA,296.6609,296.661,296.661,297.0108,NA,NA,NA,NA,NA,NA,NA,TRUE,2,1.5507,293.6622,296.6607,0,9,9,2,1,7,28,NA,NA,NA,NA,NA,1,10,"likert"
"3D7D72CEA1F6413D961CE185176CE502",1,"01990a97-fcff-7eac-ad82-f099b767d6cd","01990a84-c4ee-73c2-a87b-ff46a7d3dde5","2025-09-02_09h23.02.958",NA,NA,300.0114,300.0115,300.0115,300.3605,NA,NA,NA,NA,NA,NA,NA,TRUE,3,0.9342,297.0122,300.0111,0,10,10,87,1,100,39,NA,NA,NA,NA,NA,1,11,"likert"
"3D7D72CEA1F6413D961CE185176CE502",1,"01990a97-fcff-7eac-ad82-f099b767d6cd","01990a84-c4ee-73c2-a87b-ff46a7d3dde5","2025-09-02_09h23.02.958",NA,NA,303.3612,303.3612,303.3613,303.7108,NA,NA,NA,NA,NA,NA,NA,TRUE,2,1.5746,300.3618,303.3609,0,11,11,9,1,10,29,NA,NA,NA,NA,NA,1,12,"likert"
"3D7D72CEA1F6413D961CE185176CE502",1,"01990a97-fcff-7eac-ad82-f099b767d6cd","01990a84-c4ee-73c2-a87b-ff46a7d3dde5","2025-09-02_09h23.02.958",NA,NA,306.7112,306.7112,306.7114,307.0603,NA,NA,NA,NA,NA,NA,NA,TRUE,2,2.2556,303.7134,306.7109,0,12,12,32,1,25,31,NA,NA,NA,NA,NA,1,13,"likert"
"3D7D72CEA1F6413D961CE185176CE502",1,"01990a97-fcff-7eac-ad82-f099b767d6cd","01990a84-c4ee-73c2-a87b-ff46a7d3dde5","2025-09-02_09h23.02.958",NA,NA,310.0611,310.0611,310.0611,310.4106,NA,NA,NA,NA,NA,NA,NA,TRUE,3,2.1969,307.0615,310.0608,0,13,13,21,1,14,32,NA,NA,NA,NA,NA,1,14,"likert"
"3D7D72CEA1F6413D961CE185176CE502",1,"01990a97-fcff-7eac-ad82-f099b767d6cd","01990a84-c4ee-73c2-a87b-ff46a7d3dde5","2025-09-02_09h23.02.958",NA,NA,313.4106,313.4107,313.4107,313.7602,NA,NA,NA,NA,NA,NA,NA,TRUE,1,1.6959,310.4134,313.4103,0,14,14,102,1,200,26,NA,NA,NA,NA,NA,1,15,"likert"
"3D7D72CEA1F6413D961CE185176CE502",1,"01990a97-fcff-7eac-ad82-f099b767d6cd","01990a84-c4ee-73c2-a87b-ff46a7d3dde5","2025-09-02_09h23.02.958",NA,NA,316.761,316.7611,316.7611,317.1103,NA,NA,NA,NA,NA,NA,NA,TRUE,3,1.7669,313.7614,316.7606,0,15,15,92,1,150,35,NA,NA,NA,NA,NA,1,16,"likert"
"3D7D72CEA1F6413D961CE185176CE502",1,"01990a97-fcff-7eac-ad82-f099b767d6cd","01990a84-c4ee-73c2-a87b-ff46a7d3dde5","2025-09-02_09h23.02.958",NA,NA,320.1108,320.111,320.111,320.4596,NA,NA,NA,NA,NA,NA,NA,TRUE,2,1.3955,317.1128,320.11,0,16,16,26,1,21,29,NA,NA,NA,NA,NA,1,17,"likert"
"3D7D72CEA1F6413D961CE185176CE502",1,"01990a97-fcff-7eac-ad82-f099b767d6cd","01990a84-c4ee-73c2-a87b-ff46a7d3dde5","2025-09-02_09h23.02.958",NA,NA,323.4603,323.4603,323.4603,323.8098,NA,NA,NA,NA,NA,NA,NA,TRUE,1,1.5157,320.4609,323.46,0,17,17,13,1,12,26,NA,NA,NA,NA,NA,1,18,"likert"
"3D7D72CEA1F6413D961CE185176CE502",1,"01990a97-fcff-7eac-ad82-f099b767d6cd","01990a84-c4ee-73c2-a87b-ff46a7d3dde5","2025-09-02_09h23.02.958",NA,NA,326.8104,326.8104,326.8105,327.1598,NA,NA,NA,NA,NA,NA,NA,TRUE,3,1.7717,323.8124,326.81,0,18,18,95,1,150,54,NA,NA,NA,NA,NA,1,19,"likert"
"3D7D72CEA1F6413D961CE185176CE502",1,"01990a97-fcff-7eac-ad82-f099b767d6cd","01990a84-c4ee-73c2-a87b-ff46a7d3dde5","2025-09-02_09h23.02.958",NA,NA,330.1598,330.1598,330.16,330.5095,NA,NA,NA,NA,NA,NA,NA,TRUE,2,2.3801,327.1624,330.1596,0,19,19,45,1,30,30,NA,NA,NA,NA,NA,1,20,"likert"
"3D7D72CEA1F6413D961CE185176CE502",1,"01990a97-fcff-7eac-ad82-f099b767d6cd","01990a84-c4ee-73c2-a87b-ff46a7d3dde5","2025-09-02_09h23.02.958",NA,NA,333.5101,333.5102,333.5103,333.8596,NA,NA,NA,NA,NA,NA,NA,TRUE,3,1.3987,330.5122,333.5096,0,20,20,93,1,150,40,NA,NA,NA,NA,NA,1,21,"likert"
"3D7D72CEA1F6413D961CE185176CE502",1,"01990a97-fcff-7eac-ad82-f099b767d6cd","01990a84-c4ee-73c2-a87b-ff46a7d3dde5","2025-09-02_09h23.02.958",NA,NA,336.8601,336.861,336.861,337.2092,NA,NA,NA,NA,NA,NA,NA,TRUE,3,1.1358,333.8623,336.8598,0,21,21,91,1,150,33,NA,NA,NA,NA,NA,1,22,"likert"
"3D7D72CEA1F6413D961CE185176CE502",1,"01990a97-fcff-7eac-ad82-f099b767d6cd","01990a84-c4ee-73c2-a87b-ff46a7d3dde5","2025-09-02_09h23.02.958",NA,NA,340.2099,340.2099,340.21,340.5595,NA,NA,NA,NA,NA,NA,NA,TRUE,3,1.1158,337.2116,340.2094,0,22,22,64,1,50,46,NA,NA,NA,NA,NA,1,23,"likert"
"3D7D72CEA1F6413D961CE185176CE502",1,"01990a97-fcff-7eac-ad82-f099b767d6cd","01990a84-c4ee-73c2-a87b-ff46a7d3dde5","2025-09-02_09h23.02.958",NA,NA,343.5593,343.5594,343.5595,343.9109,NA,NA,NA,NA,NA,NA,NA,TRUE,3,1.43,340.5621,343.5591,0,23,23,71,1,60,54,NA,NA,NA,NA,NA,1,24,"likert"
"3D7D72CEA1F6413D961CE185176CE502",1,"01990a97-fcff-7eac-ad82-f099b767d6cd","01990a84-c4ee-73c2-a87b-ff46a7d3dde5","2025-09-02_09h23.02.958",NA,NA,346.9102,346.9104,346.9104,347.2585,NA,NA,NA,NA,NA,NA,NA,TRUE,3,1.9232,343.9153,346.91,0,24,24,51,1,40,40,NA,NA,NA,NA,NA,1,25,"likert"
"3D7D72CEA1F6413D961CE185176CE502",1,"01990a97-fcff-7eac-ad82-f099b767d6cd","01990a84-c4ee-73c2-a87b-ff46a7d3dde5","2025-09-02_09h23.02.958",NA,NA,350.2592,350.2594,350.2594,350.6088,NA,NA,NA,NA,NA,NA,NA,TRUE,2,1.6391,347.2596,350.2589,0,25,25,78,1,95,31,NA,NA,NA,NA,NA,1,26,"likert"
"3D7D72CEA1F6413D961CE185176CE502",1,"01990a97-fcff-7eac-ad82-f099b767d6cd","01990a84-c4ee-73c2-a87b-ff46a7d3dde5","2025-09-02_09h23.02.958",NA,NA,353.6096,353.6099,353.6099,353.9586,NA,NA,NA,NA,NA,NA,NA,TRUE,3,2.015,350.6123,353.6093,0,26,26,15,1,12,31,NA,NA,NA,NA,NA,1,27,"likert"
"3D7D72CEA1F6413D961CE185176CE502",1,"01990a97-fcff-7eac-ad82-f099b767d6cd","01990a84-c4ee-73c2-a87b-ff46a7d3dde5","2025-09-02_09h23.02.958",NA,NA,356.9581,356.9582,356.9582,357.3085,NA,NA,NA,NA,NA,NA,NA,TRUE,3,2.7385,353.9612,356.958,0,27,27,61,1,50,30,NA,NA,NA,NA,NA,1,28,"likert"
"3D7D72CEA1F6413D961CE185176CE502",1,"01990a97-fcff-7eac-ad82-f099b767d6cd","01990a84-c4ee-73c2-a87b-ff46a7d3dde5","2025-09-02_09h23.02.958",NA,NA,360.3085,360.3085,360.3086,360.6582,NA,NA,NA,NA,NA,NA,NA,TRUE,3,1.9142,357.3112,360.3082,0,28,28,68,1,60,35,NA,NA,NA,NA,NA,1,29,"likert"
"3D7D72CEA1F6413D961CE185176CE502",1,"01990a97-fcff-7eac-ad82-f099b767d6cd","01990a84-c4ee-73c2-a87b-ff46a7d3dde5","2025-09-02_09h23.02.958",NA,NA,363.6582,363.6582,363.6582,364.0078,NA,NA,NA,NA,NA,NA,NA,TRUE,2,1.3593,360.6609,363.658,0,29,29,28,1,21,32,NA,NA,NA,NA,NA,1,30,"likert"
"3D7D72CEA1F6413D961CE185176CE502",1,"01990a97-fcff-7eac-ad82-f099b767d6cd","01990a84-c4ee-73c2-a87b-ff46a7d3dde5","2025-09-02_09h23.02.958",NA,NA,367.008,367.0081,367.0082,367.3578,NA,NA,NA,NA,NA,NA,NA,TRUE,2,1.9986,364.0097,367.0078,0,30,30,7,1,10,26,NA,NA,NA,NA,NA,1,31,"likert"
"3D7D72CEA1F6413D961CE185176CE502",1,"01990a97-fcff-7eac-ad82-f099b767d6cd","01990a84-c4ee-73c2-a87b-ff46a7d3dde5","2025-09-02_09h23.02.958",NA,NA,370.3584,370.3587,370.3587,370.7078,NA,NA,NA,NA,NA,NA,NA,TRUE,3,1.4121,367.3607,370.3582,0,31,31,98,1,180,35,NA,NA,NA,NA,NA,1,32,"likert"
"3D7D72CEA1F6413D961CE185176CE502",1,"01990a97-fcff-7eac-ad82-f099b767d6cd","01990a84-c4ee-73c2-a87b-ff46a7d3dde5","2025-09-02_09h23.02.958",NA,NA,373.7075,373.7075,373.7075,374.0571,NA,NA,NA,NA,NA,NA,NA,TRUE,2,1.4951,370.7119,373.7073,0,32,32,11,1,10,32,NA,NA,NA,NA,NA,1,33,"likert"
"3D7D72CEA1F6413D961CE185176CE502",1,"01990a97-fcff-7eac-ad82-f099b767d6cd","01990a84-c4ee-73c2-a87b-ff46a7d3dde5","2025-09-02_09h23.02.958",NA,NA,377.0572,377.0572,377.0573,377.4073,NA,NA,NA,NA,NA,NA,NA,TRUE,2,1.3779,374.0582,377.0571,0,33,33,25,1,21,27,NA,NA,NA,NA,NA,1,34,"likert"
"3D7D72CEA1F6413D961CE185176CE502",1,"01990a97-fcff-7eac-ad82-f099b767d6cd","01990a84-c4ee-73c2-a87b-ff46a7d3dde5","2025-09-02_09h23.02.958",NA,NA,380.4099,380.4099,380.4101,380.7572,NA,NA,NA,NA,NA,NA,NA,TRUE,3,1.1672,377.4103,380.4076,0,34,34,69,1,60,40,NA,NA,NA,NA,NA,1,35,"likert"
"3D7D72CEA1F6413D961CE185176CE502",1,"01990a97-fcff-7eac-ad82-f099b767d6cd","01990a84-c4ee-73c2-a87b-ff46a7d3dde5","2025-09-02_09h23.02.958",NA,NA,383.7568,383.7569,383.7569,384.1068,NA,NA,NA,NA,NA,NA,NA,TRUE,3,1.2633,380.7601,383.7567,0,35,35,86,1,100,38,NA,NA,NA,NA,NA,1,36,"likert"
"3D7D72CEA1F6413D961CE185176CE502",1,"01990a97-fcff-7eac-ad82-f099b767d6cd","01990a84-c4ee-73c2-a87b-ff46a7d3dde5","2025-09-02_09h23.02.958",NA,NA,387.1068,387.107,387.1071,387.4565,NA,NA,NA,NA,NA,NA,NA,TRUE,2,1.6333,384.108,387.1067,0,36,36,66,1,60,29,NA,NA,NA,NA,NA,1,37,"likert"
"3D7D72CEA1F6413D961CE185176CE502",1,"01990a97-fcff-7eac-ad82-f099b767d6cd","01990a84-c4ee-73c2-a87b-ff46a7d3dde5","2025-09-02_09h23.02.958",NA,NA,390.4575,390.4576,390.4576,390.8068,NA,NA,NA,NA,NA,NA,NA,TRUE,3,1.67,387.4577,390.4572,0,37,37,46,1,30,32,NA,NA,NA,NA,NA,1,38,"likert"
"3D7D72CEA1F6413D961CE185176CE502",1,"01990a97-fcff-7eac-ad82-f099b767d6cd","01990a84-c4ee-73c2-a87b-ff46a7d3dde5","2025-09-02_09h23.02.958",NA,NA,393.8072,393.8073,393.8074,394.1564,NA,NA,NA,NA,NA,NA,NA,TRUE,3,2.0918,390.8094,393.807,0,38,38,16,1,12,33,NA,NA,NA,NA,NA,1,39,"likert"
"3D7D72CEA1F6413D961CE185176CE502",1,"01990a97-fcff-7eac-ad82-f099b767d6cd","01990a84-c4ee-73c2-a87b-ff46a7d3dde5","2025-09-02_09h23.02.958",NA,NA,397.1564,397.1564,397.1564,397.5061,NA,NA,NA,NA,NA,NA,NA,TRUE,4,1.9379,394.1585,397.1562,0,39,39,81,1,95,40,NA,NA,NA,NA,NA,1,40,"likert"
"3D7D72CEA1F6413D961CE185176CE502",1,"01990a97-fcff-7eac-ad82-f099b767d6cd","01990a84-c4ee-73c2-a87b-ff46a7d3dde5","2025-09-02_09h23.02.958",NA,NA,400.5061,400.5063,400.5063,400.8572,NA,NA,NA,NA,NA,NA,NA,TRUE,3,1.6052,397.5076,400.506,0,40,40,17,1,12,35,NA,NA,NA,NA,NA,1,41,"likert"
"3D7D72CEA1F6413D961CE185176CE502",1,"01990a97-fcff-7eac-ad82-f099b767d6cd","01990a84-c4ee-73c2-a87b-ff46a7d3dde5","2025-09-02_09h23.02.958",NA,NA,403.8567,403.8568,403.8568,404.2057,NA,NA,NA,NA,NA,NA,NA,TRUE,2,1.3192,400.8612,403.8564,0,41,41,79,1,95,33,NA,NA,NA,NA,NA,1,42,"likert"
"3D7D72CEA1F6413D961CE185176CE502",1,"01990a97-fcff-7eac-ad82-f099b767d6cd","01990a84-c4ee-73c2-a87b-ff46a7d3dde5","2025-09-02_09h23.02.958",NA,NA,407.2058,407.2058,407.2058,407.5562,NA,NA,NA,NA,NA,NA,NA,TRUE,3,1.6689,404.2074,407.2056,0,42,42,59,1,45,46,NA,NA,NA,NA,NA,1,43,"likert"
"3D7D72CEA1F6413D961CE185176CE502",1,"01990a97-fcff-7eac-ad82-f099b767d6cd","01990a84-c4ee-73c2-a87b-ff46a7d3dde5","2025-09-02_09h23.02.958",NA,NA,410.5564,410.5565,410.5566,410.907,NA,NA,NA,NA,NA,NA,NA,TRUE,1,1.7661,407.5579,410.5562,0,43,43,54,1,45,26,NA,NA,NA,NA,NA,1,44,"likert"
"3D7D72CEA1F6413D961CE185176CE502",1,"01990a97-fcff-7eac-ad82-f099b767d6cd","01990a84-c4ee-73c2-a87b-ff46a7d3dde5","2025-09-02_09h23.02.958",NA,NA,413.9063,413.9065,413.9065,414.2557,NA,NA,NA,NA,NA,NA,NA,TRUE,4,1.4069,410.9095,413.9061,0,44,44,88,1,100,46,NA,NA,NA,NA,NA,1,45,"likert"
"3D7D72CEA1F6413D961CE185176CE502",1,"01990a97-fcff-7eac-ad82-f099b767d6cd","01990a84-c4ee-73c2-a87b-ff46a7d3dde5","2025-09-02_09h23.02.958",NA,NA,417.2562,417.2562,417.2562,417.6057,NA,NA,NA,NA,NA,NA,NA,TRUE,3,1.9104,414.2579,417.2559,0,45,45,103,1,200,28,NA,NA,NA,NA,NA,1,46,"likert"
"3D7D72CEA1F6413D961CE185176CE502",1,"01990a97-fcff-7eac-ad82-f099b767d6cd","01990a84-c4ee-73c2-a87b-ff46a7d3dde5","2025-09-02_09h23.02.958",NA,NA,420.6058,420.6058,420.6058,420.9562,NA,NA,NA,NA,NA,NA,NA,TRUE,2,1.8771,417.6082,420.6055,0,46,46,24,1,21,26,NA,NA,NA,NA,NA,1,47,"likert"
"3D7D72CEA1F6413D961CE185176CE502",1,"01990a97-fcff-7eac-ad82-f099b767d6cd","01990a84-c4ee-73c2-a87b-ff46a7d3dde5","2025-09-02_09h23.02.958",NA,NA,423.9556,423.9556,423.9557,424.3216,NA,NA,NA,NA,NA,NA,NA,TRUE,4,1.8029,420.9601,423.9553,0,47,47,107,1,200,54,NA,NA,NA,NA,NA,1,48,"likert"
"3D7D72CEA1F6413D961CE185176CE502",1,"01990a97-fcff-7eac-ad82-f099b767d6cd","01990a84-c4ee-73c2-a87b-ff46a7d3dde5","2025-09-02_09h23.02.958",NA,NA,427.3214,427.3215,427.3216,427.6551,NA,NA,NA,NA,NA,NA,NA,TRUE,3,1.5048,424.3228,427.3213,0,48,48,14,1,12,28,NA,NA,NA,NA,NA,1,49,"likert"
"3D7D72CEA1F6413D961CE185176CE502",1,"01990a97-fcff-7eac-ad82-f099b767d6cd","01990a84-c4ee-73c2-a87b-ff46a7d3dde5","2025-09-02_09h23.02.958",NA,NA,430.6721,430.6722,430.6723,431.0219,NA,NA,NA,NA,NA,NA,NA,TRUE,2,2.1754,427.6578,430.6713,0,49,49,38,1,28,32,NA,NA,NA,NA,NA,1,50,"likert"
"3D7D72CEA1F6413D961CE185176CE502",1,"01990a97-fcff-7eac-ad82-f099b767d6cd","01990a84-c4ee-73c2-a87b-ff46a7d3dde5","2025-09-02_09h23.02.958",NA,NA,434.0165,434.0165,434.0165,434.3711,NA,NA,NA,NA,NA,NA,NA,TRUE,3,1.9598,431.0249,434.0163,0,50,50,89,1,100,54,NA,NA,NA,NA,NA,1,51,"likert"
"3D7D72CEA1F6413D961CE185176CE502",1,"01990a97-fcff-7eac-ad82-f099b767d6cd","01990a84-c4ee-73c2-a87b-ff46a7d3dde5","2025-09-02_09h23.02.958",NA,NA,437.3717,437.372,437.372,437.7213,NA,NA,NA,NA,NA,NA,NA,TRUE,3,1.7529,434.3732,437.3715,0,51,51,4,1,7,32,NA,NA,NA,NA,NA,1,52,"likert"
"3D7D72CEA1F6413D961CE185176CE502",1,"01990a97-fcff-7eac-ad82-f099b767d6cd","01990a84-c4ee-73c2-a87b-ff46a7d3dde5","2025-09-02_09h23.02.958",NA,NA,440.7214,440.7215,440.7215,441.0707,NA,NA,NA,NA,NA,NA,NA,TRUE,4,1.2093,437.7239,440.7211,0,52,52,40,1,28,39,NA,NA,NA,NA,NA,1,53,"likert"
"3D7D72CEA1F6413D961CE185176CE502",1,"01990a97-fcff-7eac-ad82-f099b767d6cd","01990a84-c4ee-73c2-a87b-ff46a7d3dde5","2025-09-02_09h23.02.958",NA,NA,444.0714,444.0715,444.0716,444.4206,NA,NA,NA,NA,NA,NA,NA,TRUE,3,1.5308,441.0721,444.0711,0,53,53,80,1,95,35,NA,NA,NA,NA,NA,1,54,"likert"
"3D7D72CEA1F6413D961CE185176CE502",1,"01990a97-fcff-7eac-ad82-f099b767d6cd","01990a84-c4ee-73c2-a87b-ff46a7d3dde5","2025-09-02_09h23.02.958",NA,NA,447.4214,447.4214,447.4215,447.7707,NA,NA,NA,NA,NA,NA,NA,TRUE,4,1.1131,444.4234,447.421,0,54,54,99,1,180,39,NA,NA,NA,NA,NA,1,55,"likert"
"3D7D72CEA1F6413D961CE185176CE502",1,"01990a97-fcff-7eac-ad82-f099b767d6cd","01990a84-c4ee-73c2-a87b-ff46a7d3dde5","2025-09-02_09h23.02.958",NA,NA,450.7712,450.7714,450.7714,451.1207,NA,NA,NA,NA,NA,NA,NA,TRUE,2,1.5579,447.7739,450.7709,0,55,55,1,1,7,26,NA,NA,NA,NA,NA,1,56,"likert"
"3D7D72CEA1F6413D961CE185176CE502",1,"01990a97-fcff-7eac-ad82-f099b767d6cd","01990a84-c4ee-73c2-a87b-ff46a7d3dde5","2025-09-02_09h23.02.958",NA,NA,454.1204,454.1205,454.1205,454.4706,NA,NA,NA,NA,NA,NA,NA,TRUE,2,1.3271,451.1234,454.1202,0,56,56,36,1,28,26,NA,NA,NA,NA,NA,1,57,"likert"
"3D7D72CEA1F6413D961CE185176CE502",1,"01990a97-fcff-7eac-ad82-f099b767d6cd","01990a84-c4ee-73c2-a87b-ff46a7d3dde5","2025-09-02_09h23.02.958",NA,NA,457.4709,457.471,457.4711,457.8205,NA,NA,NA,NA,NA,NA,NA,TRUE,2,2.6454,454.4734,457.4706,0,57,57,10,1,10,30,NA,NA,NA,NA,NA,1,58,"likert"
"3D7D72CEA1F6413D961CE185176CE502",1,"01990a97-fcff-7eac-ad82-f099b767d6cd","01990a84-c4ee-73c2-a87b-ff46a7d3dde5","2025-09-02_09h23.02.958",NA,NA,460.8206,460.8206,460.8206,461.1702,NA,NA,NA,NA,NA,NA,NA,TRUE,3,1.272,457.8233,460.8204,0,58,58,22,1,14,35,NA,NA,NA,NA,NA,1,59,"likert"
"3D7D72CEA1F6413D961CE185176CE502",1,"01990a97-fcff-7eac-ad82-f099b767d6cd","01990a84-c4ee-73c2-a87b-ff46a7d3dde5","2025-09-02_09h23.02.958",NA,NA,464.1703,464.1705,464.1705,464.5201,NA,NA,NA,NA,NA,NA,NA,TRUE,4,1.507,461.1728,464.17,0,59,59,58,1,45,40,NA,NA,NA,NA,NA,1,60,"likert"
"3D7D72CEA1F6413D961CE185176CE502",1,"01990a97-fcff-7eac-ad82-f099b767d6cd","01990a84-c4ee-73c2-a87b-ff46a7d3dde5","2025-09-02_09h23.02.958",NA,NA,467.5201,467.5202,467.5203,467.8697,NA,NA,NA,NA,NA,NA,NA,TRUE,4,1.4305,464.5223,467.5198,0,60,60,101,1,180,54,NA,NA,NA,NA,NA,1,61,"likert"
"3D7D72CEA1F6413D961CE185176CE502",1,"01990a97-fcff-7eac-ad82-f099b767d6cd","01990a84-c4ee-73c2-a87b-ff46a7d3dde5","2025-09-02_09h23.02.958",NA,NA,470.8701,470.8704,470.8705,471.2196,NA,NA,NA,NA,NA,NA,NA,TRUE,3,1.5461,467.8717,470.8699,0,61,61,62,1,50,35,NA,NA,NA,NA,NA,1,62,"likert"
"3D7D72CEA1F6413D961CE185176CE502",1,"01990a97-fcff-7eac-ad82-f099b767d6cd","01990a84-c4ee-73c2-a87b-ff46a7d3dde5","2025-09-02_09h23.02.958",NA,NA,474.2194,474.2194,474.2194,474.5696,NA,NA,NA,NA,NA,NA,NA,TRUE,4,1.9491,471.2222,474.2193,0,62,62,105,1,200,39,NA,NA,NA,NA,NA,1,63,"likert"
"3D7D72CEA1F6413D961CE185176CE502",1,"01990a97-fcff-7eac-ad82-f099b767d6cd","01990a84-c4ee-73c2-a87b-ff46a7d3dde5","2025-09-02_09h23.02.958",NA,NA,477.5699,477.5701,477.5701,477.9196,NA,NA,NA,NA,NA,NA,NA,TRUE,1,1.9768,474.5722,477.5696,0,63,63,12,1,12,25,NA,NA,NA,NA,NA,1,64,"likert"
"3D7D72CEA1F6413D961CE185176CE502",1,"01990a97-fcff-7eac-ad82-f099b767d6cd","01990a84-c4ee-73c2-a87b-ff46a7d3dde5","2025-09-02_09h23.02.958",NA,NA,480.9198,480.92,480.92,481.2693,NA,NA,NA,NA,NA,NA,NA,TRUE,4,2.0063,477.9222,480.9196,0,64,64,35,1,25,46,NA,NA,NA,NA,NA,1,65,"likert"
"3D7D72CEA1F6413D961CE185176CE502",1,"01990a97-fcff-7eac-ad82-f099b767d6cd","01990a84-c4ee-73c2-a87b-ff46a7d3dde5","2025-09-02_09h23.02.958",NA,NA,484.2695,484.2697,484.2698,484.6191,NA,NA,NA,NA,NA,NA,NA,TRUE,2,1.8759,481.2732,484.2693,0,65,65,43,1,30,27,NA,NA,NA,NA,NA,1,66,"likert"
"3D7D72CEA1F6413D961CE185176CE502",1,"01990a97-fcff-7eac-ad82-f099b767d6cd","01990a84-c4ee-73c2-a87b-ff46a7d3dde5","2025-09-02_09h23.02.958",NA,NA,487.6192,487.6193,487.6193,487.9686,NA,NA,NA,NA,NA,NA,NA,TRUE,1,1.1116,484.6226,487.6189,0,66,66,18,1,14,25,NA,NA,NA,NA,NA,1,67,"likert"
"3D7D72CEA1F6413D961CE185176CE502",1,"01990a97-fcff-7eac-ad82-f099b767d6cd","01990a84-c4ee-73c2-a87b-ff46a7d3dde5","2025-09-02_09h23.02.958",NA,NA,490.9697,490.9699,490.9701,491.3182,NA,NA,NA,NA,NA,NA,NA,TRUE,3,1.5449,487.9699,490.9691,0,67,67,33,1,25,33,NA,NA,NA,NA,NA,1,68,"likert"
"3D7D72CEA1F6413D961CE185176CE502",1,"01990a97-fcff-7eac-ad82-f099b767d6cd","01990a84-c4ee-73c2-a87b-ff46a7d3dde5","2025-09-02_09h23.02.958",NA,NA,494.3185,494.3185,494.3185,494.6688,NA,NA,NA,NA,NA,NA,NA,TRUE,3,1.366,491.3194,494.3183,0,68,68,74,1,90,33,NA,NA,NA,NA,NA,1,69,"likert"
"3D7D72CEA1F6413D961CE185176CE502",1,"01990a97-fcff-7eac-ad82-f099b767d6cd","01990a84-c4ee-73c2-a87b-ff46a7d3dde5","2025-09-02_09h23.02.958",NA,NA,497.6692,497.6693,497.6693,498.0185,NA,NA,NA,NA,NA,NA,NA,TRUE,4,1.333,494.6702,497.6687,0,69,69,76,1,90,46,NA,NA,NA,NA,NA,1,70,"likert"
"3D7D72CEA1F6413D961CE185176CE502",1,"01990a97-fcff-7eac-ad82-f099b767d6cd","01990a84-c4ee-73c2-a87b-ff46a7d3dde5","2025-09-02_09h23.02.958",NA,NA,501.0195,501.0197,501.0197,501.3687,NA,NA,NA,NA,NA,NA,NA,TRUE,4,1.4441,498.0212,501.0192,0,70,70,77,1,90,54,NA,NA,NA,NA,NA,1,71,"likert"
"3D7D72CEA1F6413D961CE185176CE502",1,"01990a97-fcff-7eac-ad82-f099b767d6cd","01990a84-c4ee-73c2-a87b-ff46a7d3dde5","2025-09-02_09h23.02.958",NA,NA,504.368,504.368,504.368,504.7179,NA,NA,NA,NA,NA,NA,NA,TRUE,3,1.6737,501.3729,504.3678,0,71,71,44,1,30,29,NA,NA,NA,NA,NA,1,72,"likert"
"3D7D72CEA1F6413D961CE185176CE502",1,"01990a97-fcff-7eac-ad82-f099b767d6cd","01990a84-c4ee-73c2-a87b-ff46a7d3dde5","2025-09-02_09h23.02.958",NA,NA,507.719,507.7193,507.7193,508.0677,NA,NA,NA,NA,NA,NA,NA,TRUE,4,0.9811,504.7191,507.7187,0,72,72,94,1,150,47,NA,NA,NA,NA,NA,1,73,"likert"
"3D7D72CEA1F6413D961CE185176CE502",1,"01990a97-fcff-7eac-ad82-f099b767d6cd","01990a84-c4ee-73c2-a87b-ff46a7d3dde5","2025-09-02_09h23.02.958",NA,NA,511.0689,511.069,511.069,511.4186,NA,NA,NA,NA,NA,NA,NA,TRUE,3,2.1503,508.0695,511.0684,0,73,73,23,1,14,39,NA,NA,NA,NA,NA,1,74,"likert"
"3D7D72CEA1F6413D961CE185176CE502",1,"01990a97-fcff-7eac-ad82-f099b767d6cd","01990a84-c4ee-73c2-a87b-ff46a7d3dde5","2025-09-02_09h23.02.958",NA,NA,514.4187,514.4192,514.4193,514.7674,NA,NA,NA,NA,NA,NA,NA,TRUE,2,1.9628,511.4218,514.4184,0,74,74,19,1,14,26,NA,NA,NA,NA,NA,1,75,"likert"
"3D7D72CEA1F6413D961CE185176CE502",1,"01990a97-fcff-7eac-ad82-f099b767d6cd","01990a84-c4ee-73c2-a87b-ff46a7d3dde5","2025-09-02_09h23.02.958",NA,NA,517.7674,517.7677,517.7678,518.118,NA,NA,NA,NA,NA,NA,NA,TRUE,4,1.8848,514.7686,517.7673,0,75,75,82,1,95,47,NA,NA,NA,NA,NA,1,76,"likert"
"3D7D72CEA1F6413D961CE185176CE502",1,"01990a97-fcff-7eac-ad82-f099b767d6cd","01990a84-c4ee-73c2-a87b-ff46a7d3dde5","2025-09-02_09h23.02.958",NA,NA,521.1185,521.1186,521.1187,521.4678,NA,NA,NA,NA,NA,NA,NA,TRUE,1,2.3308,518.1195,521.118,0,76,76,0,1,7,25,NA,NA,NA,NA,NA,1,77,"likert"
"3D7D72CEA1F6413D961CE185176CE502",1,"01990a97-fcff-7eac-ad82-f099b767d6cd","01990a84-c4ee-73c2-a87b-ff46a7d3dde5","2025-09-02_09h23.02.958",NA,NA,524.468,524.4685,524.4686,524.8174,NA,NA,NA,NA,NA,NA,NA,TRUE,2,1.566,521.4708,524.4676,0,77,77,37,1,28,28,NA,NA,NA,NA,NA,1,78,"likert"
"3D7D72CEA1F6413D961CE185176CE502",1,"01990a97-fcff-7eac-ad82-f099b767d6cd","01990a84-c4ee-73c2-a87b-ff46a7d3dde5","2025-09-02_09h23.02.958",NA,NA,527.8176,527.8178,527.8178,528.1667,NA,NA,NA,NA,NA,NA,NA,TRUE,2,1.9242,524.8211,527.8174,0,78,78,85,1,100,31,NA,NA,NA,NA,NA,1,79,"likert"
"3D7D72CEA1F6413D961CE185176CE502",1,"01990a97-fcff-7eac-ad82-f099b767d6cd","01990a84-c4ee-73c2-a87b-ff46a7d3dde5","2025-09-02_09h23.02.958",NA,NA,531.1675,531.1677,531.1678,531.5171,NA,NA,NA,NA,NA,NA,NA,TRUE,4,1.668,528.1684,531.1672,0,79,79,5,1,7,35,NA,NA,NA,NA,NA,1,80,"likert"
"3D7D72CEA1F6413D961CE185176CE502",1,"01990a97-fcff-7eac-ad82-f099b767d6cd","01990a84-c4ee-73c2-a87b-ff46a7d3dde5","2025-09-02_09h23.02.958",NA,NA,534.5167,534.5167,534.5168,534.8668,NA,NA,NA,NA,NA,NA,NA,TRUE,4,0.8528,531.5197,534.5167,0,80,80,50,1,40,35,NA,NA,NA,NA,NA,1,81,"likert"
"3D7D72CEA1F6413D961CE185176CE502",1,"01990a97-fcff-7eac-ad82-f099b767d6cd","01990a84-c4ee-73c2-a87b-ff46a7d3dde5","2025-09-02_09h23.02.958",NA,NA,537.8673,537.8674,537.8674,538.2183,NA,NA,NA,NA,NA,NA,NA,TRUE,3,1.097,534.8691,537.8669,0,81,81,97,1,180,31,NA,NA,NA,NA,NA,1,82,"likert"
"3D7D72CEA1F6413D961CE185176CE502",1,"01990a97-fcff-7eac-ad82-f099b767d6cd","01990a84-c4ee-73c2-a87b-ff46a7d3dde5","2025-09-02_09h23.02.958",NA,NA,541.2172,541.2172,541.2173,541.5663,NA,NA,NA,NA,NA,NA,NA,TRUE,2,1.8662,538.2214,541.2168,0,82,82,90,1,150,31,NA,NA,NA,NA,NA,1,83,"likert"
"3D7D72CEA1F6413D961CE185176CE502",1,"01990a97-fcff-7eac-ad82-f099b767d6cd","01990a84-c4ee-73c2-a87b-ff46a7d3dde5","2025-09-02_09h23.02.958",NA,NA,544.5663,544.5663,544.5663,544.9167,NA,NA,NA,NA,NA,NA,NA,TRUE,2,2.0819,541.5677,544.5662,0,83,83,55,1,45,29,NA,NA,NA,NA,NA,1,84,"likert"
"3D7D72CEA1F6413D961CE185176CE502",1,"01990a97-fcff-7eac-ad82-f099b767d6cd","01990a84-c4ee-73c2-a87b-ff46a7d3dde5","2025-09-02_09h23.02.958",NA,NA,547.9169,547.917,547.917,548.2665,NA,NA,NA,NA,NA,NA,NA,TRUE,1,2.0731,544.9192,547.9167,0,84,84,72,1,90,26,NA,NA,NA,NA,NA,1,85,"likert"
"3D7D72CEA1F6413D961CE185176CE502",1,"01990a97-fcff-7eac-ad82-f099b767d6cd","01990a84-c4ee-73c2-a87b-ff46a7d3dde5","2025-09-02_09h23.02.958",NA,NA,551.266,551.2661,551.2663,551.6165,NA,NA,NA,NA,NA,NA,NA,TRUE,1,1.4827,548.2677,551.2658,0,85,85,42,1,30,26,NA,NA,NA,NA,NA,1,86,"likert"
"3D7D72CEA1F6413D961CE185176CE502",1,"01990a97-fcff-7eac-ad82-f099b767d6cd","01990a84-c4ee-73c2-a87b-ff46a7d3dde5","2025-09-02_09h23.02.958",NA,NA,554.6162,554.6164,554.6164,554.9659,NA,NA,NA,NA,NA,NA,NA,TRUE,2,1.6277,551.6198,554.616,0,86,86,8,1,10,27,NA,NA,NA,NA,NA,1,87,"likert"
"3D7D72CEA1F6413D961CE185176CE502",1,"01990a97-fcff-7eac-ad82-f099b767d6cd","01990a84-c4ee-73c2-a87b-ff46a7d3dde5","2025-09-02_09h23.02.958",NA,NA,557.9662,557.9663,557.9664,558.3157,NA,NA,NA,NA,NA,NA,NA,TRUE,4,2.2105,554.9684,557.9659,0,87,87,83,1,95,54,NA,NA,NA,NA,NA,1,88,"likert"
"3D7D72CEA1F6413D961CE185176CE502",1,"01990a97-fcff-7eac-ad82-f099b767d6cd","01990a84-c4ee-73c2-a87b-ff46a7d3dde5","2025-09-02_09h23.02.958",NA,NA,561.3172,561.3176,561.3177,561.6657,NA,NA,NA,NA,NA,NA,NA,TRUE,3,1.0442,558.3182,561.3161,0,88,88,31,1,25,29,NA,NA,NA,NA,NA,1,89,"likert"
"3D7D72CEA1F6413D961CE185176CE502",1,"01990a97-fcff-7eac-ad82-f099b767d6cd","01990a84-c4ee-73c2-a87b-ff46a7d3dde5","2025-09-02_09h23.02.958",NA,NA,564.6666,564.6666,564.6666,565.0155,NA,NA,NA,NA,NA,NA,NA,TRUE,4,1.6464,561.6684,564.6662,0,89,89,53,1,40,54,NA,NA,NA,NA,NA,1,90,"likert"
"3D7D72CEA1F6413D961CE185176CE502",1,"01990a97-fcff-7eac-ad82-f099b767d6cd","01990a84-c4ee-73c2-a87b-ff46a7d3dde5","2025-09-02_09h23.02.958",NA,NA,568.0157,568.0158,568.0158,568.3661,NA,NA,NA,NA,NA,NA,NA,TRUE,4,1.2483,565.018,568.0154,0,90,90,29,1,21,38,NA,NA,NA,NA,NA,1,91,"likert"
"3D7D72CEA1F6413D961CE185176CE502",1,"01990a97-fcff-7eac-ad82-f099b767d6cd","01990a84-c4ee-73c2-a87b-ff46a7d3dde5","2025-09-02_09h23.02.958",NA,NA,571.3655,571.3656,571.3657,571.7148,NA,NA,NA,NA,NA,NA,NA,TRUE,1,1.7391,568.3702,571.3653,0,91,91,84,1,100,26,NA,NA,NA,NA,NA,1,92,"likert"
"3D7D72CEA1F6413D961CE185176CE502",1,"01990a97-fcff-7eac-ad82-f099b767d6cd","01990a84-c4ee-73c2-a87b-ff46a7d3dde5","2025-09-02_09h23.02.958",NA,NA,574.7147,574.715,574.715,575.0654,NA,NA,NA,NA,NA,NA,NA,TRUE,2,1.9621,571.7172,574.7146,0,92,92,52,1,40,47,NA,NA,NA,NA,NA,1,93,"likert"
"3D7D72CEA1F6413D961CE185176CE502",1,"01990a97-fcff-7eac-ad82-f099b767d6cd","01990a84-c4ee-73c2-a87b-ff46a7d3dde5","2025-09-02_09h23.02.958",NA,NA,578.065,578.065,578.0651,578.4151,NA,NA,NA,NA,NA,NA,NA,TRUE,3,1.7488,575.0679,578.0647,0,93,93,73,1,90,30,NA,NA,NA,NA,NA,1,94,"likert"
"3D7D72CEA1F6413D961CE185176CE502",1,"01990a97-fcff-7eac-ad82-f099b767d6cd","01990a84-c4ee-73c2-a87b-ff46a7d3dde5","2025-09-02_09h23.02.958",NA,NA,581.416,581.416,581.4164,581.7651,NA,NA,NA,NA,NA,NA,NA,TRUE,4,1.4197,578.4177,581.4154,0,94,94,75,1,90,40,NA,NA,NA,NA,NA,1,95,"likert"
"3D7D72CEA1F6413D961CE185176CE502",1,"01990a97-fcff-7eac-ad82-f099b767d6cd","01990a84-c4ee-73c2-a87b-ff46a7d3dde5","2025-09-02_09h23.02.958",NA,NA,584.7644,584.7644,584.7644,585.1142,NA,NA,NA,NA,NA,NA,NA,TRUE,2,1.6616,581.7677,584.7642,0,95,95,48,1,40,27,NA,NA,NA,NA,NA,1,96,"likert"
"3D7D72CEA1F6413D961CE185176CE502",1,"01990a97-fcff-7eac-ad82-f099b767d6cd","01990a84-c4ee-73c2-a87b-ff46a7d3dde5","2025-09-02_09h23.02.958",NA,NA,588.1171,588.1171,588.1171,588.464,NA,NA,NA,NA,NA,NA,NA,TRUE,3,1.6308,585.1154,588.1167,0,96,96,27,1,21,30,NA,NA,NA,NA,NA,1,97,"likert"
"3D7D72CEA1F6413D961CE185176CE502",1,"01990a97-fcff-7eac-ad82-f099b767d6cd","01990a84-c4ee-73c2-a87b-ff46a7d3dde5","2025-09-02_09h23.02.958",NA,NA,591.4651,591.4653,591.4653,591.8143,NA,NA,NA,NA,NA,NA,NA,TRUE,4,1.3274,588.4653,591.4648,0,97,97,39,1,28,35,NA,NA,NA,NA,NA,1,98,"likert"
"3D7D72CEA1F6413D961CE185176CE502",1,"01990a97-fcff-7eac-ad82-f099b767d6cd","01990a84-c4ee-73c2-a87b-ff46a7d3dde5","2025-09-02_09h23.02.958",NA,NA,594.8138,594.8139,594.8139,595.1637,NA,NA,NA,NA,NA,NA,NA,TRUE,4,1.0326,591.8173,594.8137,0,98,98,106,1,200,47,NA,NA,NA,NA,NA,1,99,"likert"
"3D7D72CEA1F6413D961CE185176CE502",1,"01990a97-fcff-7eac-ad82-f099b767d6cd","01990a84-c4ee-73c2-a87b-ff46a7d3dde5","2025-09-02_09h23.02.958",NA,NA,598.1648,598.1649,598.1649,598.5142,NA,NA,NA,NA,NA,NA,NA,TRUE,3,1.5858,595.1649,598.1645,0,99,99,96,1,180,27,NA,NA,NA,NA,NA,1,100,"likert"
"3D7D72CEA1F6413D961CE185176CE502",1,"01990a97-fcff-7eac-ad82-f099b767d6cd","01990a84-c4ee-73c2-a87b-ff46a7d3dde5","2025-09-02_09h23.02.958",NA,NA,601.5139,601.5139,601.5139,601.864,NA,NA,NA,NA,NA,NA,NA,TRUE,3,1.5944,598.5182,601.5137,0,100,100,20,1,14,28,NA,NA,NA,NA,NA,1,101,"likert"
"3D7D72CEA1F6413D961CE185176CE502",1,"01990a97-fcff-7eac-ad82-f099b767d6cd","01990a84-c4ee-73c2-a87b-ff46a7d3dde5","2025-09-02_09h23.02.958",NA,NA,604.8635,604.8636,604.8636,605.2133,NA,NA,NA,NA,NA,NA,NA,TRUE,4,1.1767,601.8667,604.8634,0,101,101,3,1,7,30,NA,NA,NA,NA,NA,1,102,"likert"
"3D7D72CEA1F6413D961CE185176CE502",1,"01990a97-fcff-7eac-ad82-f099b767d6cd","01990a84-c4ee-73c2-a87b-ff46a7d3dde5","2025-09-02_09h23.02.958",NA,NA,608.214,608.2141,608.2141,608.5651,NA,NA,NA,NA,NA,NA,NA,TRUE,4,1.8344,605.2147,608.2137,0,102,102,57,1,45,35,NA,NA,NA,NA,NA,1,103,"likert"
"3D7D72CEA1F6413D961CE185176CE502",1,"01990a97-fcff-7eac-ad82-f099b767d6cd","01990a84-c4ee-73c2-a87b-ff46a7d3dde5","2025-09-02_09h23.02.958",NA,NA,611.5633,611.5633,611.5633,611.9131,NA,NA,NA,NA,NA,NA,NA,TRUE,4,1.0831,608.5677,611.5631,0,103,103,70,1,60,47,NA,NA,NA,NA,NA,1,104,"likert"
"3D7D72CEA1F6413D961CE185176CE502",1,"01990a97-fcff-7eac-ad82-f099b767d6cd","01990a84-c4ee-73c2-a87b-ff46a7d3dde5","2025-09-02_09h23.02.958",NA,NA,614.914,614.914,614.914,615.2628,NA,NA,NA,NA,NA,NA,NA,TRUE,3,2.1437,611.9146,614.9136,0,104,104,34,1,25,35,NA,NA,NA,NA,NA,1,105,"likert"
"3D7D72CEA1F6413D961CE185176CE502",1,"01990a97-fcff-7eac-ad82-f099b767d6cd","01990a84-c4ee-73c2-a87b-ff46a7d3dde5","2025-09-02_09h23.02.958",NA,NA,618.2647,618.2647,618.2648,618.6128,NA,NA,NA,NA,NA,NA,NA,TRUE,3,1.3867,615.2641,618.2642,0,105,105,47,1,30,38,NA,NA,NA,NA,NA,1,106,"likert"
"3D7D72CEA1F6413D961CE185176CE502",1,"01990a97-fcff-7eac-ad82-f099b767d6cd","01990a84-c4ee-73c2-a87b-ff46a7d3dde5","2025-09-02_09h23.02.958",NA,NA,621.6134,621.6134,621.6134,621.9626,NA,NA,NA,NA,NA,NA,NA,TRUE,3,1.0031,618.6143,621.6131,0,106,106,56,1,45,31,NA,NA,NA,NA,NA,1,107,"likert"
"3D7D72CEA1F6413D961CE185176CE502",1,"01990a97-fcff-7eac-ad82-f099b767d6cd","01990a84-c4ee-73c2-a87b-ff46a7d3dde5","2025-09-02_09h23.02.958",NA,NA,624.9646,624.9647,624.9651,625.3146,NA,NA,NA,NA,NA,NA,NA,TRUE,4,0.7987,621.9641,624.9642,0,107,107,65,1,50,54,NA,NA,NA,NA,NA,1,108,"likert"
"3D7D72CEA1F6413D961CE185176CE502",1,"01990a97-fcff-7eac-ad82-f099b767d6cd","01990a84-c4ee-73c2-a87b-ff46a7d3dde5","2025-09-02_09h23.02.958",NA,NA,671.0437,671.0437,671.0437,671.3934,NA,NA,NA,NA,NA,NA,NA,TRUE,5,1.197,668.1216,671.0435,NA,NA,NA,NA,NA,180,54,0,0,0,101,1,2,1,"likert"
"3D7D72CEA1F6413D961CE185176CE502",1,"01990a97-fcff-7eac-ad82-f099b767d6cd","01990a84-c4ee-73c2-a87b-ff46a7d3dde5","2025-09-02_09h23.02.958",NA,NA,674.3935,674.3936,674.3936,674.7598,NA,NA,NA,NA,NA,NA,NA,TRUE,4,1.6254,671.3957,674.3933,NA,NA,NA,NA,NA,180,46,0,1,1,100,1,2,2,"likert"
"3D7D72CEA1F6413D961CE185176CE502",1,"01990a97-fcff-7eac-ad82-f099b767d6cd","01990a84-c4ee-73c2-a87b-ff46a7d3dde5","2025-09-02_09h23.02.958",NA,NA,677.744,677.744,677.7441,678.1097,NA,NA,NA,NA,NA,NA,NA,TRUE,3,1.3808,674.7611,677.7437,NA,NA,NA,NA,NA,7,32,0,2,2,4,1,2,3,"likert"
"3D7D72CEA1F6413D961CE185176CE502",1,"01990a97-fcff-7eac-ad82-f099b767d6cd","01990a84-c4ee-73c2-a87b-ff46a7d3dde5","2025-09-02_09h23.02.958",NA,NA,681.1106,681.1109,681.1109,681.4596,NA,NA,NA,NA,NA,NA,NA,TRUE,3,1.0008,678.1111,681.1103,NA,NA,NA,NA,NA,12,35,0,3,3,17,1,2,4,"likert"
"3D7D72CEA1F6413D961CE185176CE502",1,"01990a97-fcff-7eac-ad82-f099b767d6cd","01990a84-c4ee-73c2-a87b-ff46a7d3dde5","2025-09-02_09h23.02.958",NA,NA,684.4605,684.4606,684.4607,684.8094,NA,NA,NA,NA,NA,NA,NA,TRUE,2,1.451,681.4608,684.4601,NA,NA,NA,NA,NA,100,26,0,4,4,84,1,2,5,"likert"
"3D7D72CEA1F6413D961CE185176CE502",1,"01990a97-fcff-7eac-ad82-f099b767d6cd","01990a84-c4ee-73c2-a87b-ff46a7d3dde5","2025-09-02_09h23.02.958",NA,NA,687.8095,687.8096,687.8096,688.1593,NA,NA,NA,NA,NA,NA,NA,TRUE,3,1.3435,684.8244,687.8094,NA,NA,NA,NA,NA,21,32,0,5,5,28,1,2,6,"likert"
"3D7D72CEA1F6413D961CE185176CE502",1,"01990a97-fcff-7eac-ad82-f099b767d6cd","01990a84-c4ee-73c2-a87b-ff46a7d3dde5","2025-09-02_09h23.02.958",NA,NA,691.1594,691.1595,691.1595,691.5091,NA,NA,NA,NA,NA,NA,NA,TRUE,4,1.4142,688.1612,691.1592,NA,NA,NA,NA,NA,95,54,0,6,6,83,1,2,7,"likert"
"3D7D72CEA1F6413D961CE185176CE502",1,"01990a97-fcff-7eac-ad82-f099b767d6cd","01990a84-c4ee-73c2-a87b-ff46a7d3dde5","2025-09-02_09h23.02.958",NA,NA,694.5104,694.5106,694.5106,694.8593,NA,NA,NA,NA,NA,NA,NA,TRUE,4,1.6575,691.5107,694.5099,NA,NA,NA,NA,NA,100,38,0,7,7,86,1,2,8,"likert"
"3D7D72CEA1F6413D961CE185176CE502",1,"01990a97-fcff-7eac-ad82-f099b767d6cd","01990a84-c4ee-73c2-a87b-ff46a7d3dde5","2025-09-02_09h23.02.958",NA,NA,697.8591,697.8592,697.8592,698.2094,NA,NA,NA,NA,NA,NA,NA,TRUE,3,1.4382,694.8618,697.8589,NA,NA,NA,NA,NA,14,28,0,8,8,20,1,2,9,"likert"
"3D7D72CEA1F6413D961CE185176CE502",1,"01990a97-fcff-7eac-ad82-f099b767d6cd","01990a84-c4ee-73c2-a87b-ff46a7d3dde5","2025-09-02_09h23.02.958",NA,NA,701.2092,701.2092,701.2092,701.5586,NA,NA,NA,NA,NA,NA,NA,TRUE,4,0.8791,698.212,701.209,NA,NA,NA,NA,NA,30,29,0,9,9,44,1,2,10,"likert"
"3D7D72CEA1F6413D961CE185176CE502",1,"01990a97-fcff-7eac-ad82-f099b767d6cd","01990a84-c4ee-73c2-a87b-ff46a7d3dde5","2025-09-02_09h23.02.958",NA,NA,704.5587,704.5587,704.5587,704.9083,NA,NA,NA,NA,NA,NA,NA,TRUE,4,1.0789,701.5599,704.5585,NA,NA,NA,NA,NA,100,46,0,10,10,88,1,2,11,"likert"
"3D7D72CEA1F6413D961CE185176CE502",1,"01990a97-fcff-7eac-ad82-f099b767d6cd","01990a84-c4ee-73c2-a87b-ff46a7d3dde5","2025-09-02_09h23.02.958",NA,NA,707.9092,707.9094,707.9094,708.2585,NA,NA,NA,NA,NA,NA,NA,TRUE,4,1.4962,704.9097,707.909,NA,NA,NA,NA,NA,21,38,0,11,11,29,1,2,12,"likert"
"3D7D72CEA1F6413D961CE185176CE502",1,"01990a97-fcff-7eac-ad82-f099b767d6cd","01990a84-c4ee-73c2-a87b-ff46a7d3dde5","2025-09-02_09h23.02.958",NA,NA,711.2585,711.2586,711.2586,711.6082,NA,NA,NA,NA,NA,NA,NA,TRUE,4,1.2633,708.2605,711.2584,NA,NA,NA,NA,NA,30,38,0,12,12,47,1,2,13,"likert"
"3D7D72CEA1F6413D961CE185176CE502",1,"01990a97-fcff-7eac-ad82-f099b767d6cd","01990a84-c4ee-73c2-a87b-ff46a7d3dde5","2025-09-02_09h23.02.958",NA,NA,714.6091,714.61,714.6101,714.9588,NA,NA,NA,NA,NA,NA,NA,TRUE,4,1.5976,711.6096,714.6087,NA,NA,NA,NA,NA,150,35,0,13,13,92,1,2,14,"likert"
"3D7D72CEA1F6413D961CE185176CE502",1,"01990a97-fcff-7eac-ad82-f099b767d6cd","01990a84-c4ee-73c2-a87b-ff46a7d3dde5","2025-09-02_09h23.02.958",NA,NA,717.9582,717.9583,717.9583,718.3084,NA,NA,NA,NA,NA,NA,NA,TRUE,4,1.013,714.9613,717.958,NA,NA,NA,NA,NA,95,35,0,14,14,80,1,2,15,"likert"
"3D7D72CEA1F6413D961CE185176CE502",1,"01990a97-fcff-7eac-ad82-f099b767d6cd","01990a84-c4ee-73c2-a87b-ff46a7d3dde5","2025-09-02_09h23.02.958",NA,NA,721.308,721.308,721.308,721.6578,NA,NA,NA,NA,NA,NA,NA,TRUE,4,2.3434,718.3115,721.3078,NA,NA,NA,NA,NA,28,39,0,15,15,40,1,2,16,"likert"
"3D7D72CEA1F6413D961CE185176CE502",1,"01990a97-fcff-7eac-ad82-f099b767d6cd","01990a84-c4ee-73c2-a87b-ff46a7d3dde5","2025-09-02_09h23.02.958",NA,NA,724.6576,724.6576,724.6576,725.0076,NA,NA,NA,NA,NA,NA,NA,TRUE,3,1.296,721.6591,724.6575,NA,NA,NA,NA,NA,25,29,0,16,16,31,1,2,17,"likert"
"3D7D72CEA1F6413D961CE185176CE502",1,"01990a97-fcff-7eac-ad82-f099b767d6cd","01990a84-c4ee-73c2-a87b-ff46a7d3dde5","2025-09-02_09h23.02.958",NA,NA,728.0076,728.0077,728.0078,728.3574,NA,NA,NA,NA,NA,NA,NA,TRUE,4,0.863,725.0088,728.0075,NA,NA,NA,NA,NA,150,33,0,17,17,91,1,2,18,"likert"
"3D7D72CEA1F6413D961CE185176CE502",1,"01990a97-fcff-7eac-ad82-f099b767d6cd","01990a84-c4ee-73c2-a87b-ff46a7d3dde5","2025-09-02_09h23.02.958",NA,NA,731.3584,731.359,731.359,731.7071,NA,NA,NA,NA,NA,NA,NA,TRUE,4,0.9637,728.3586,731.3582,NA,NA,NA,NA,NA,60,35,0,18,18,68,1,2,19,"likert"
"3D7D72CEA1F6413D961CE185176CE502",1,"01990a97-fcff-7eac-ad82-f099b767d6cd","01990a84-c4ee-73c2-a87b-ff46a7d3dde5","2025-09-02_09h23.02.958",NA,NA,734.7075,734.7075,734.7075,735.057,NA,NA,NA,NA,NA,NA,NA,TRUE,3,1.1947,731.7084,734.7072,NA,NA,NA,NA,NA,40,27,0,19,19,48,1,2,20,"likert"
"3D7D72CEA1F6413D961CE185176CE502",1,"01990a97-fcff-7eac-ad82-f099b767d6cd","01990a84-c4ee-73c2-a87b-ff46a7d3dde5","2025-09-02_09h23.02.958",NA,NA,738.0578,738.058,738.0581,738.4071,NA,NA,NA,NA,NA,NA,NA,TRUE,3,1.027,735.0582,738.0576,NA,NA,NA,NA,NA,25,33,0,20,20,33,1,2,21,"likert"
"3D7D72CEA1F6413D961CE185176CE502",1,"01990a97-fcff-7eac-ad82-f099b767d6cd","01990a84-c4ee-73c2-a87b-ff46a7d3dde5","2025-09-02_09h23.02.958",NA,NA,741.4084,741.4088,741.4088,741.7572,NA,NA,NA,NA,NA,NA,NA,TRUE,4,0.8591,738.4089,741.4081,NA,NA,NA,NA,NA,50,54,0,21,21,65,1,2,22,"likert"
"3D7D72CEA1F6413D961CE185176CE502",1,"01990a97-fcff-7eac-ad82-f099b767d6cd","01990a84-c4ee-73c2-a87b-ff46a7d3dde5","2025-09-02_09h23.02.958",NA,NA,744.7572,744.7572,744.7572,745.1071,NA,NA,NA,NA,NA,NA,NA,TRUE,2,2.0177,741.7616,744.757,NA,NA,NA,NA,NA,7,26,0,22,22,1,1,2,23,"likert"
"3D7D72CEA1F6413D961CE185176CE502",1,"01990a97-fcff-7eac-ad82-f099b767d6cd","01990a84-c4ee-73c2-a87b-ff46a7d3dde5","2025-09-02_09h23.02.958",NA,NA,748.1065,748.1067,748.1067,748.457,NA,NA,NA,NA,NA,NA,NA,TRUE,3,0.9754,745.1096,748.1065,NA,NA,NA,NA,NA,25,31,0,23,23,32,1,2,24,"likert"
"3D7D72CEA1F6413D961CE185176CE502",1,"01990a97-fcff-7eac-ad82-f099b767d6cd","01990a84-c4ee-73c2-a87b-ff46a7d3dde5","2025-09-02_09h23.02.958",NA,NA,751.4572,751.4573,751.4574,751.8071,NA,NA,NA,NA,NA,NA,NA,TRUE,3,0.944,748.4596,751.4569,NA,NA,NA,NA,NA,28,26,0,24,24,36,1,2,25,"likert"
"3D7D72CEA1F6413D961CE185176CE502",1,"01990a97-fcff-7eac-ad82-f099b767d6cd","01990a84-c4ee-73c2-a87b-ff46a7d3dde5","2025-09-02_09h23.02.958",NA,NA,754.8067,754.8068,754.8069,755.1573,NA,NA,NA,NA,NA,NA,NA,TRUE,4,1.5038,751.8106,754.8065,NA,NA,NA,NA,NA,180,35,0,25,25,98,1,2,26,"likert"
"3D7D72CEA1F6413D961CE185176CE502",1,"01990a97-fcff-7eac-ad82-f099b767d6cd","01990a84-c4ee-73c2-a87b-ff46a7d3dde5","2025-09-02_09h23.02.958",NA,NA,758.1563,758.1564,758.1564,758.5069,NA,NA,NA,NA,NA,NA,NA,TRUE,4,1.5098,755.1601,758.1562,NA,NA,NA,NA,NA,12,33,0,26,26,16,1,2,27,"likert"
"3D7D72CEA1F6413D961CE185176CE502",1,"01990a97-fcff-7eac-ad82-f099b767d6cd","01990a84-c4ee-73c2-a87b-ff46a7d3dde5","2025-09-02_09h23.02.958",NA,NA,761.5061,761.5062,761.5062,761.8563,NA,NA,NA,NA,NA,NA,NA,TRUE,4,1.1636,758.5095,761.506,NA,NA,NA,NA,NA,50,35,0,27,27,62,1,2,28,"likert"
"3D7D72CEA1F6413D961CE185176CE502",1,"01990a97-fcff-7eac-ad82-f099b767d6cd","01990a84-c4ee-73c2-a87b-ff46a7d3dde5","2025-09-02_09h23.02.958",NA,NA,764.8561,764.8561,764.8561,765.2057,NA,NA,NA,NA,NA,NA,NA,TRUE,3,0.949,761.8621,764.8558,NA,NA,NA,NA,NA,14,39,0,28,28,23,1,2,29,"likert"
"3D7D72CEA1F6413D961CE185176CE502",1,"01990a97-fcff-7eac-ad82-f099b767d6cd","01990a84-c4ee-73c2-a87b-ff46a7d3dde5","2025-09-02_09h23.02.958",NA,NA,768.2066,768.2066,768.2067,768.5561,NA,NA,NA,NA,NA,NA,NA,TRUE,5,1.4356,765.207,768.2063,NA,NA,NA,NA,NA,50,46,0,29,29,64,1,2,30,"likert"
"3D7D72CEA1F6413D961CE185176CE502",1,"01990a97-fcff-7eac-ad82-f099b767d6cd","01990a84-c4ee-73c2-a87b-ff46a7d3dde5","2025-09-02_09h23.02.958",NA,NA,771.5562,771.5574,771.5575,771.9055,NA,NA,NA,NA,NA,NA,NA,TRUE,4,1.9428,768.5595,771.556,NA,NA,NA,NA,NA,60,33,0,30,30,67,1,2,31,"likert"
"3D7D72CEA1F6413D961CE185176CE502",1,"01990a97-fcff-7eac-ad82-f099b767d6cd","01990a84-c4ee-73c2-a87b-ff46a7d3dde5","2025-09-02_09h23.02.958",NA,NA,774.9071,774.9073,774.9073,775.2554,NA,NA,NA,NA,NA,NA,NA,TRUE,2,1.5804,771.9068,774.9068,NA,NA,NA,NA,NA,90,26,0,31,31,72,1,2,32,"likert"
"3D7D72CEA1F6413D961CE185176CE502",1,"01990a97-fcff-7eac-ad82-f099b767d6cd","01990a84-c4ee-73c2-a87b-ff46a7d3dde5","2025-09-02_09h23.02.958",NA,NA,778.256,778.2561,778.2562,778.6056,NA,NA,NA,NA,NA,NA,NA,TRUE,2,2.6007,775.2566,778.2557,NA,NA,NA,NA,NA,30,27,0,32,32,43,1,2,33,"likert"
"3D7D72CEA1F6413D961CE185176CE502",1,"01990a97-fcff-7eac-ad82-f099b767d6cd","01990a84-c4ee-73c2-a87b-ff46a7d3dde5","2025-09-02_09h23.02.958",NA,NA,781.6053,781.6053,781.6053,781.9557,NA,NA,NA,NA,NA,NA,NA,TRUE,4,1.0954,778.6083,781.6052,NA,NA,NA,NA,NA,150,47,0,33,33,94,1,2,34,"likert"
"3D7D72CEA1F6413D961CE185176CE502",1,"01990a97-fcff-7eac-ad82-f099b767d6cd","01990a84-c4ee-73c2-a87b-ff46a7d3dde5","2025-09-02_09h23.02.958",NA,NA,784.9559,784.9563,784.9563,785.3047,NA,NA,NA,NA,NA,NA,NA,TRUE,1,1.5911,781.9582,784.9556,NA,NA,NA,NA,NA,45,26,0,34,34,54,1,2,35,"likert"
"3D7D72CEA1F6413D961CE185176CE502",1,"01990a97-fcff-7eac-ad82-f099b767d6cd","01990a84-c4ee-73c2-a87b-ff46a7d3dde5","2025-09-02_09h23.02.958",NA,NA,788.3047,788.3047,788.3047,788.6553,NA,NA,NA,NA,NA,NA,NA,TRUE,3,1.5821,785.3059,788.3045,NA,NA,NA,NA,NA,21,30,0,35,35,27,1,2,36,"likert"
"3D7D72CEA1F6413D961CE185176CE502",1,"01990a97-fcff-7eac-ad82-f099b767d6cd","01990a84-c4ee-73c2-a87b-ff46a7d3dde5","2025-09-02_09h23.02.958",NA,NA,791.6548,791.6549,791.6549,792.0045,NA,NA,NA,NA,NA,NA,NA,TRUE,3,1.3935,788.6596,791.6546,NA,NA,NA,NA,NA,50,27,0,36,36,60,1,2,37,"likert"
"3D7D72CEA1F6413D961CE185176CE502",1,"01990a97-fcff-7eac-ad82-f099b767d6cd","01990a84-c4ee-73c2-a87b-ff46a7d3dde5","2025-09-02_09h23.02.958",NA,NA,795.005,795.005,795.005,795.3542,NA,NA,NA,NA,NA,NA,NA,TRUE,4,1.215,792.0058,795.0047,NA,NA,NA,NA,NA,100,54,0,37,37,89,1,2,38,"likert"
"3D7D72CEA1F6413D961CE185176CE502",1,"01990a97-fcff-7eac-ad82-f099b767d6cd","01990a84-c4ee-73c2-a87b-ff46a7d3dde5","2025-09-02_09h23.02.958",NA,NA,798.3543,798.3543,798.3543,798.7045,NA,NA,NA,NA,NA,NA,NA,TRUE,3,1.2472,795.3555,798.3541,NA,NA,NA,NA,NA,25,35,0,38,38,34,1,2,39,"likert"
"3D7D72CEA1F6413D961CE185176CE502",1,"01990a97-fcff-7eac-ad82-f099b767d6cd","01990a84-c4ee-73c2-a87b-ff46a7d3dde5","2025-09-02_09h23.02.958",NA,NA,801.7042,801.7043,801.7043,802.0545,NA,NA,NA,NA,NA,NA,NA,TRUE,3,1.9902,798.7067,801.7041,NA,NA,NA,NA,NA,45,31,0,39,39,56,1,2,40,"likert"
"3D7D72CEA1F6413D961CE185176CE502",1,"01990a97-fcff-7eac-ad82-f099b767d6cd","01990a84-c4ee-73c2-a87b-ff46a7d3dde5","2025-09-02_09h23.02.958",NA,NA,805.0545,805.0546,805.0546,805.4038,NA,NA,NA,NA,NA,NA,NA,TRUE,2,1.8617,802.057,805.0543,NA,NA,NA,NA,NA,10,26,0,40,40,7,1,2,41,"likert"
"3D7D72CEA1F6413D961CE185176CE502",1,"01990a97-fcff-7eac-ad82-f099b767d6cd","01990a84-c4ee-73c2-a87b-ff46a7d3dde5","2025-09-02_09h23.02.958",NA,NA,808.4049,808.405,808.405,808.7538,NA,NA,NA,NA,NA,NA,NA,TRUE,2,2.2682,805.405,808.4046,NA,NA,NA,NA,NA,21,27,0,41,41,25,1,2,42,"likert"
"3D7D72CEA1F6413D961CE185176CE502",1,"01990a97-fcff-7eac-ad82-f099b767d6cd","01990a84-c4ee-73c2-a87b-ff46a7d3dde5","2025-09-02_09h23.02.958",NA,NA,811.7539,811.754,811.754,812.1042,NA,NA,NA,NA,NA,NA,NA,TRUE,3,1.1825,808.7551,811.7538,NA,NA,NA,NA,NA,14,32,0,42,42,21,1,2,43,"likert"
"3D7D72CEA1F6413D961CE185176CE502",1,"01990a97-fcff-7eac-ad82-f099b767d6cd","01990a84-c4ee-73c2-a87b-ff46a7d3dde5","2025-09-02_09h23.02.958",NA,NA,815.1042,815.1043,815.1043,815.4536,NA,NA,NA,NA,NA,NA,NA,TRUE,1,1.4813,812.1066,815.104,NA,NA,NA,NA,NA,12,25,0,43,43,12,1,2,44,"likert"
"3D7D72CEA1F6413D961CE185176CE502",1,"01990a97-fcff-7eac-ad82-f099b767d6cd","01990a84-c4ee-73c2-a87b-ff46a7d3dde5","2025-09-02_09h23.02.958",NA,NA,818.4534,818.4534,818.4534,818.8033,NA,NA,NA,NA,NA,NA,NA,TRUE,2,1.3623,815.4561,818.4533,NA,NA,NA,NA,NA,25,27,0,44,44,30,1,2,45,"likert"
"3D7D72CEA1F6413D961CE185176CE502",1,"01990a97-fcff-7eac-ad82-f099b767d6cd","01990a84-c4ee-73c2-a87b-ff46a7d3dde5","2025-09-02_09h23.02.958",NA,NA,821.8031,821.8031,821.8031,822.153,NA,NA,NA,NA,NA,NA,NA,TRUE,4,0.877,818.8046,821.803,NA,NA,NA,NA,NA,25,46,0,45,45,35,1,2,46,"likert"
"3D7D72CEA1F6413D961CE185176CE502",1,"01990a97-fcff-7eac-ad82-f099b767d6cd","01990a84-c4ee-73c2-a87b-ff46a7d3dde5","2025-09-02_09h23.02.958",NA,NA,825.1532,825.1532,825.1532,825.5034,NA,NA,NA,NA,NA,NA,NA,TRUE,4,1.3544,822.1542,825.153,NA,NA,NA,NA,NA,95,40,0,46,46,81,1,2,47,"likert"
"3D7D72CEA1F6413D961CE185176CE502",1,"01990a97-fcff-7eac-ad82-f099b767d6cd","01990a84-c4ee-73c2-a87b-ff46a7d3dde5","2025-09-02_09h23.02.958",NA,NA,828.5038,828.5039,828.5039,828.8534,NA,NA,NA,NA,NA,NA,NA,TRUE,3,1.8147,825.5059,828.5035,NA,NA,NA,NA,NA,7,30,0,47,47,3,1,2,48,"likert"
"3D7D72CEA1F6413D961CE185176CE502",1,"01990a97-fcff-7eac-ad82-f099b767d6cd","01990a84-c4ee-73c2-a87b-ff46a7d3dde5","2025-09-02_09h23.02.958",NA,NA,831.8528,831.8528,831.8528,832.2025,NA,NA,NA,NA,NA,NA,NA,TRUE,3,2.7508,828.856,831.8526,NA,NA,NA,NA,NA,12,31,0,48,48,15,1,2,49,"likert"
"3D7D72CEA1F6413D961CE185176CE502",1,"01990a97-fcff-7eac-ad82-f099b767d6cd","01990a84-c4ee-73c2-a87b-ff46a7d3dde5","2025-09-02_09h23.02.958",NA,NA,835.2027,835.2028,835.2028,835.5524,NA,NA,NA,NA,NA,NA,NA,TRUE,4,1.151,832.2037,835.2026,NA,NA,NA,NA,NA,40,40,0,49,49,51,1,2,50,"likert"
"3D7D72CEA1F6413D961CE185176CE502",1,"01990a97-fcff-7eac-ad82-f099b767d6cd","01990a84-c4ee-73c2-a87b-ff46a7d3dde5","2025-09-02_09h23.02.958",NA,NA,838.5525,838.5525,838.5525,838.903,NA,NA,NA,NA,NA,NA,NA,TRUE,3,0.9198,835.5536,838.5524,NA,NA,NA,NA,NA,10,32,0,50,50,11,1,2,51,"likert"
"3D7D72CEA1F6413D961CE185176CE502",1,"01990a97-fcff-7eac-ad82-f099b767d6cd","01990a84-c4ee-73c2-a87b-ff46a7d3dde5","2025-09-02_09h23.02.958",NA,NA,841.9033,841.9035,841.9035,842.2524,NA,NA,NA,NA,NA,NA,NA,TRUE,2,1.1271,838.9054,841.903,NA,NA,NA,NA,NA,30,26,0,51,51,42,1,2,52,"likert"
"3D7D72CEA1F6413D961CE185176CE502",1,"01990a97-fcff-7eac-ad82-f099b767d6cd","01990a84-c4ee-73c2-a87b-ff46a7d3dde5","2025-09-02_09h23.02.958",NA,NA,845.2524,845.2524,845.2524,845.6027,NA,NA,NA,NA,NA,NA,NA,TRUE,4,0.7665,842.2546,845.2523,NA,NA,NA,NA,NA,200,47,0,52,52,106,1,2,53,"likert"
"3D7D72CEA1F6413D961CE185176CE502",1,"01990a97-fcff-7eac-ad82-f099b767d6cd","01990a84-c4ee-73c2-a87b-ff46a7d3dde5","2025-09-02_09h23.02.958",NA,NA,848.6021,848.6022,848.6022,848.9533,NA,NA,NA,NA,NA,NA,NA,TRUE,4,0.7789,845.6058,848.6019,NA,NA,NA,NA,NA,60,47,0,53,53,70,1,2,54,"likert"
"3D7D72CEA1F6413D961CE185176CE502",1,"01990a97-fcff-7eac-ad82-f099b767d6cd","01990a84-c4ee-73c2-a87b-ff46a7d3dde5","2025-09-02_09h23.02.958",NA,NA,851.9522,851.9522,851.9522,852.3018,NA,NA,NA,NA,NA,NA,NA,TRUE,3,1.4727,848.9567,851.952,NA,NA,NA,NA,NA,10,29,0,54,54,9,1,2,55,"likert"
"3D7D72CEA1F6413D961CE185176CE502",1,"01990a97-fcff-7eac-ad82-f099b767d6cd","01990a84-c4ee-73c2-a87b-ff46a7d3dde5","2025-09-02_09h23.02.958",NA,NA,855.302,855.302,855.302,855.6516,NA,NA,NA,NA,NA,NA,NA,TRUE,4,0.8167,852.3033,855.3018,NA,NA,NA,NA,NA,30,30,0,55,55,45,1,2,56,"likert"
"3D7D72CEA1F6413D961CE185176CE502",1,"01990a97-fcff-7eac-ad82-f099b767d6cd","01990a84-c4ee-73c2-a87b-ff46a7d3dde5","2025-09-02_09h23.02.958",NA,NA,858.6537,858.6538,858.6539,859.0019,NA,NA,NA,NA,NA,NA,NA,TRUE,3,0.9342,855.6542,858.6533,NA,NA,NA,NA,NA,40,33,0,56,56,49,1,2,57,"likert"
"3D7D72CEA1F6413D961CE185176CE502",1,"01990a97-fcff-7eac-ad82-f099b767d6cd","01990a84-c4ee-73c2-a87b-ff46a7d3dde5","2025-09-02_09h23.02.958",NA,NA,862.0015,862.0015,862.0015,862.3517,NA,NA,NA,NA,NA,NA,NA,TRUE,3,2.0448,859.0046,862.0013,NA,NA,NA,NA,NA,60,29,0,57,57,66,1,2,58,"likert"
"3D7D72CEA1F6413D961CE185176CE502",1,"01990a97-fcff-7eac-ad82-f099b767d6cd","01990a84-c4ee-73c2-a87b-ff46a7d3dde5","2025-09-02_09h23.02.958",NA,NA,865.3525,865.3526,865.3527,865.7009,NA,NA,NA,NA,NA,NA,NA,TRUE,4,1.0681,862.3542,865.3517,NA,NA,NA,NA,NA,14,35,0,58,58,22,1,2,59,"likert"
"3D7D72CEA1F6413D961CE185176CE502",1,"01990a97-fcff-7eac-ad82-f099b767d6cd","01990a84-c4ee-73c2-a87b-ff46a7d3dde5","2025-09-02_09h23.02.958",NA,NA,868.701,868.701,868.701,869.0513,NA,NA,NA,NA,NA,NA,NA,TRUE,4,1.4056,865.7021,868.7009,NA,NA,NA,NA,NA,90,46,0,59,59,76,1,2,60,"likert"
"3D7D72CEA1F6413D961CE185176CE502",1,"01990a97-fcff-7eac-ad82-f099b767d6cd","01990a84-c4ee-73c2-a87b-ff46a7d3dde5","2025-09-02_09h23.02.958",NA,NA,872.0511,872.0512,872.0512,872.4014,NA,NA,NA,NA,NA,NA,NA,TRUE,4,1.7877,869.0538,872.051,NA,NA,NA,NA,NA,150,31,0,60,60,90,1,2,61,"likert"
"3D7D72CEA1F6413D961CE185176CE502",1,"01990a97-fcff-7eac-ad82-f099b767d6cd","01990a84-c4ee-73c2-a87b-ff46a7d3dde5","2025-09-02_09h23.02.958",NA,NA,875.401,875.401,875.401,875.7506,NA,NA,NA,NA,NA,NA,NA,TRUE,3,1.7966,872.4039,875.4007,NA,NA,NA,NA,NA,50,30,0,61,61,61,1,2,62,"likert"
"3D7D72CEA1F6413D961CE185176CE502",1,"01990a97-fcff-7eac-ad82-f099b767d6cd","01990a84-c4ee-73c2-a87b-ff46a7d3dde5","2025-09-02_09h23.02.958",NA,NA,878.7505,878.7505,878.7505,879.1004,NA,NA,NA,NA,NA,NA,NA,TRUE,3,1.1631,875.7517,878.7504,NA,NA,NA,NA,NA,180,27,0,62,62,96,1,2,63,"likert"
"3D7D72CEA1F6413D961CE185176CE502",1,"01990a97-fcff-7eac-ad82-f099b767d6cd","01990a84-c4ee-73c2-a87b-ff46a7d3dde5","2025-09-02_09h23.02.958",NA,NA,882.1018,882.102,882.102,882.4509,NA,NA,NA,NA,NA,NA,NA,TRUE,4,0.9544,879.1015,882.101,NA,NA,NA,NA,NA,100,39,0,63,63,87,1,2,64,"likert"
"3D7D72CEA1F6413D961CE185176CE502",1,"01990a97-fcff-7eac-ad82-f099b767d6cd","01990a84-c4ee-73c2-a87b-ff46a7d3dde5","2025-09-02_09h23.02.958",NA,NA,885.4507,885.4508,885.4508,885.8007,NA,NA,NA,NA,NA,NA,NA,TRUE,1,1.4151,882.4549,885.4505,NA,NA,NA,NA,NA,10,25,0,64,64,6,1,2,65,"likert"
"3D7D72CEA1F6413D961CE185176CE502",1,"01990a97-fcff-7eac-ad82-f099b767d6cd","01990a84-c4ee-73c2-a87b-ff46a7d3dde5","2025-09-02_09h23.02.958",NA,NA,888.8003,888.8004,888.8004,889.1503,NA,NA,NA,NA,NA,NA,NA,TRUE,2,2.1284,885.8033,888.8002,NA,NA,NA,NA,NA,21,29,0,65,65,26,1,2,66,"likert"
"3D7D72CEA1F6413D961CE185176CE502",1,"01990a97-fcff-7eac-ad82-f099b767d6cd","01990a84-c4ee-73c2-a87b-ff46a7d3dde5","2025-09-02_09h23.02.958",NA,NA,892.1505,892.1507,892.1508,892.5003,NA,NA,NA,NA,NA,NA,NA,TRUE,2,2.3568,889.1515,892.1502,NA,NA,NA,NA,NA,95,31,0,66,66,78,1,2,67,"likert"
"3D7D72CEA1F6413D961CE185176CE502",1,"01990a97-fcff-7eac-ad82-f099b767d6cd","01990a84-c4ee-73c2-a87b-ff46a7d3dde5","2025-09-02_09h23.02.958",NA,NA,895.5007,895.5007,895.5007,895.8501,NA,NA,NA,NA,NA,NA,NA,TRUE,4,1.3486,892.5024,895.5002,NA,NA,NA,NA,NA,150,40,0,67,67,93,1,2,68,"likert"
"3D7D72CEA1F6413D961CE185176CE502",1,"01990a97-fcff-7eac-ad82-f099b767d6cd","01990a84-c4ee-73c2-a87b-ff46a7d3dde5","2025-09-02_09h23.02.958",NA,NA,898.8505,898.8506,898.8506,899.2006,NA,NA,NA,NA,NA,NA,NA,TRUE,4,1.6726,895.853,898.8502,NA,NA,NA,NA,NA,28,35,0,68,68,39,1,2,69,"likert"
"3D7D72CEA1F6413D961CE185176CE502",1,"01990a97-fcff-7eac-ad82-f099b767d6cd","01990a84-c4ee-73c2-a87b-ff46a7d3dde5","2025-09-02_09h23.02.958",NA,NA,902.2004,902.2015,902.2016,902.5493,NA,NA,NA,NA,NA,NA,NA,TRUE,4,1.4662,899.2041,902.2002,NA,NA,NA,NA,NA,45,46,0,69,69,59,1,2,70,"likert"
"3D7D72CEA1F6413D961CE185176CE502",1,"01990a97-fcff-7eac-ad82-f099b767d6cd","01990a84-c4ee-73c2-a87b-ff46a7d3dde5","2025-09-02_09h23.02.958",NA,NA,905.55,905.5501,905.5502,905.8992,NA,NA,NA,NA,NA,NA,NA,TRUE,4,2.5143,902.5506,905.5498,NA,NA,NA,NA,NA,200,35,0,70,70,104,1,2,71,"likert"
"3D7D72CEA1F6413D961CE185176CE502",1,"01990a97-fcff-7eac-ad82-f099b767d6cd","01990a84-c4ee-73c2-a87b-ff46a7d3dde5","2025-09-02_09h23.02.958",NA,NA,908.8992,908.8992,908.8992,909.2494,NA,NA,NA,NA,NA,NA,NA,TRUE,4,1.8692,905.9005,908.899,NA,NA,NA,NA,NA,180,39,0,71,71,99,1,2,72,"likert"
"3D7D72CEA1F6413D961CE185176CE502",1,"01990a97-fcff-7eac-ad82-f099b767d6cd","01990a84-c4ee-73c2-a87b-ff46a7d3dde5","2025-09-02_09h23.02.958",NA,NA,912.25,912.2503,912.2503,912.5991,NA,NA,NA,NA,NA,NA,NA,TRUE,4,0.7831,909.2517,912.2497,NA,NA,NA,NA,NA,150,54,0,72,72,95,1,2,73,"likert"
"3D7D72CEA1F6413D961CE185176CE502",1,"01990a97-fcff-7eac-ad82-f099b767d6cd","01990a84-c4ee-73c2-a87b-ff46a7d3dde5","2025-09-02_09h23.02.958",NA,NA,915.5994,915.5995,915.5995,915.9487,NA,NA,NA,NA,NA,NA,NA,TRUE,3,2.1347,912.6007,915.5992,NA,NA,NA,NA,NA,90,40,0,73,73,75,1,2,74,"likert"
"3D7D72CEA1F6413D961CE185176CE502",1,"01990a97-fcff-7eac-ad82-f099b767d6cd","01990a84-c4ee-73c2-a87b-ff46a7d3dde5","2025-09-02_09h23.02.958",NA,NA,918.9492,918.9493,918.9494,919.2986,NA,NA,NA,NA,NA,NA,NA,TRUE,2,1.8442,915.9499,918.9489,NA,NA,NA,NA,NA,28,28,0,74,74,37,1,2,75,"likert"
"3D7D72CEA1F6413D961CE185176CE502",1,"01990a97-fcff-7eac-ad82-f099b767d6cd","01990a84-c4ee-73c2-a87b-ff46a7d3dde5","2025-09-02_09h23.02.958",NA,NA,922.2986,922.2988,922.2988,922.6492,NA,NA,NA,NA,NA,NA,NA,TRUE,2,1.247,919.3002,922.2985,NA,NA,NA,NA,NA,10,27,0,75,75,8,1,2,76,"likert"
"3D7D72CEA1F6413D961CE185176CE502",1,"01990a97-fcff-7eac-ad82-f099b767d6cd","01990a84-c4ee-73c2-a87b-ff46a7d3dde5","2025-09-02_09h23.02.958",NA,NA,925.6486,925.6486,925.6486,925.9989,NA,NA,NA,NA,NA,NA,NA,TRUE,1,2.3564,922.6516,925.6484,NA,NA,NA,NA,NA,14,26,0,76,76,19,1,2,77,"likert"
"3D7D72CEA1F6413D961CE185176CE502",1,"01990a97-fcff-7eac-ad82-f099b767d6cd","01990a84-c4ee-73c2-a87b-ff46a7d3dde5","2025-09-02_09h23.02.958",NA,NA,928.9992,928.9993,928.9993,929.3489,NA,NA,NA,NA,NA,NA,NA,TRUE,4,2.2272,926.0015,928.9988,NA,NA,NA,NA,NA,45,40,0,77,77,58,1,2,78,"likert"
"3D7D72CEA1F6413D961CE185176CE502",1,"01990a97-fcff-7eac-ad82-f099b767d6cd","01990a84-c4ee-73c2-a87b-ff46a7d3dde5","2025-09-02_09h23.02.958",NA,NA,932.3491,932.3492,932.3493,932.6985,NA,NA,NA,NA,NA,NA,NA,TRUE,2,1.3935,929.3533,932.349,NA,NA,NA,NA,NA,45,29,0,78,78,55,1,2,79,"likert"
"3D7D72CEA1F6413D961CE185176CE502",1,"01990a97-fcff-7eac-ad82-f099b767d6cd","01990a84-c4ee-73c2-a87b-ff46a7d3dde5","2025-09-02_09h23.02.958",NA,NA,935.698,935.698,935.698,936.0478,NA,NA,NA,NA,NA,NA,NA,TRUE,3,1.9462,932.7007,935.6977,NA,NA,NA,NA,NA,180,31,0,79,79,97,1,2,80,"likert"
"3D7D72CEA1F6413D961CE185176CE502",1,"01990a97-fcff-7eac-ad82-f099b767d6cd","01990a84-c4ee-73c2-a87b-ff46a7d3dde5","2025-09-02_09h23.02.958",NA,NA,939.0486,939.0486,939.0486,939.3976,NA,NA,NA,NA,NA,NA,NA,TRUE,4,1.6505,936.0495,939.0483,NA,NA,NA,NA,NA,200,39,0,80,80,105,1,2,81,"likert"
"3D7D72CEA1F6413D961CE185176CE502",1,"01990a97-fcff-7eac-ad82-f099b767d6cd","01990a84-c4ee-73c2-a87b-ff46a7d3dde5","2025-09-02_09h23.02.958",NA,NA,942.3983,942.3983,942.3984,942.7479,NA,NA,NA,NA,NA,NA,NA,TRUE,4,1.6917,939.3997,942.3981,NA,NA,NA,NA,NA,45,35,0,81,81,57,1,2,82,"likert"
"3D7D72CEA1F6413D961CE185176CE502",1,"01990a97-fcff-7eac-ad82-f099b767d6cd","01990a84-c4ee-73c2-a87b-ff46a7d3dde5","2025-09-02_09h23.02.958",NA,NA,945.7489,945.7491,945.7491,946.0978,NA,NA,NA,NA,NA,NA,NA,TRUE,2,1.8458,942.7508,945.7481,NA,NA,NA,NA,NA,200,28,0,82,82,103,1,2,83,"likert"
"3D7D72CEA1F6413D961CE185176CE502",1,"01990a97-fcff-7eac-ad82-f099b767d6cd","01990a84-c4ee-73c2-a87b-ff46a7d3dde5","2025-09-02_09h23.02.958",NA,NA,949.0975,949.0975,949.0975,949.4476,NA,NA,NA,NA,NA,NA,NA,TRUE,3,1.8991,946.1003,949.0973,NA,NA,NA,NA,NA,12,28,0,83,83,14,1,2,84,"likert"
"3D7D72CEA1F6413D961CE185176CE502",1,"01990a97-fcff-7eac-ad82-f099b767d6cd","01990a84-c4ee-73c2-a87b-ff46a7d3dde5","2025-09-02_09h23.02.958",NA,NA,952.4482,952.4482,952.4483,952.7971,NA,NA,NA,NA,NA,NA,NA,TRUE,3,1.4181,949.4496,952.4478,NA,NA,NA,NA,NA,7,28,0,84,84,2,1,2,85,"likert"
"3D7D72CEA1F6413D961CE185176CE502",1,"01990a97-fcff-7eac-ad82-f099b767d6cd","01990a84-c4ee-73c2-a87b-ff46a7d3dde5","2025-09-02_09h23.02.958",NA,NA,955.7982,955.7983,955.7983,956.147,NA,NA,NA,NA,NA,NA,NA,TRUE,4,1.9637,952.7991,955.7979,NA,NA,NA,NA,NA,60,40,0,85,85,69,1,2,86,"likert"
"3D7D72CEA1F6413D961CE185176CE502",1,"01990a97-fcff-7eac-ad82-f099b767d6cd","01990a84-c4ee-73c2-a87b-ff46a7d3dde5","2025-09-02_09h23.02.958",NA,NA,959.1479,959.1481,959.1482,959.4972,NA,NA,NA,NA,NA,NA,NA,TRUE,3,1.652,956.1482,959.1475,NA,NA,NA,NA,NA,90,30,0,86,86,73,1,2,87,"likert"
"3D7D72CEA1F6413D961CE185176CE502",1,"01990a97-fcff-7eac-ad82-f099b767d6cd","01990a84-c4ee-73c2-a87b-ff46a7d3dde5","2025-09-02_09h23.02.958",NA,NA,962.4974,962.4975,962.4976,962.8472,NA,NA,NA,NA,NA,NA,NA,TRUE,4,1.158,959.5004,962.4972,NA,NA,NA,NA,NA,30,32,0,87,87,46,1,2,88,"likert"
"3D7D72CEA1F6413D961CE185176CE502",1,"01990a97-fcff-7eac-ad82-f099b767d6cd","01990a84-c4ee-73c2-a87b-ff46a7d3dde5","2025-09-02_09h23.02.958",NA,NA,965.8486,965.8486,965.8486,966.1963,NA,NA,NA,NA,NA,NA,NA,TRUE,4,0.7765,962.8494,965.8482,NA,NA,NA,NA,NA,28,46,0,88,88,41,1,2,89,"likert"
"3D7D72CEA1F6413D961CE185176CE502",1,"01990a97-fcff-7eac-ad82-f099b767d6cd","01990a84-c4ee-73c2-a87b-ff46a7d3dde5","2025-09-02_09h23.02.958",NA,NA,969.1972,969.1973,969.1973,969.5463,NA,NA,NA,NA,NA,NA,NA,TRUE,2,1.4489,966.1975,969.197,NA,NA,NA,NA,NA,21,26,0,89,89,24,1,2,90,"likert"
"3D7D72CEA1F6413D961CE185176CE502",1,"01990a97-fcff-7eac-ad82-f099b767d6cd","01990a84-c4ee-73c2-a87b-ff46a7d3dde5","2025-09-02_09h23.02.958",NA,NA,972.5465,972.5465,972.5466,972.8962,NA,NA,NA,NA,NA,NA,NA,TRUE,4,2.3342,969.5475,972.5463,NA,NA,NA,NA,NA,40,54,0,90,90,53,1,2,91,"likert"
"3D7D72CEA1F6413D961CE185176CE502",1,"01990a97-fcff-7eac-ad82-f099b767d6cd","01990a84-c4ee-73c2-a87b-ff46a7d3dde5","2025-09-02_09h23.02.958",NA,NA,975.8984,975.8985,975.8985,976.2469,NA,NA,NA,NA,NA,NA,NA,TRUE,1,2.0461,972.8975,975.8982,NA,NA,NA,NA,NA,200,26,0,91,91,102,1,2,92,"likert"
"3D7D72CEA1F6413D961CE185176CE502",1,"01990a97-fcff-7eac-ad82-f099b767d6cd","01990a84-c4ee-73c2-a87b-ff46a7d3dde5","2025-09-02_09h23.02.958",NA,NA,979.2463,979.2463,979.2463,979.5969,NA,NA,NA,NA,NA,NA,NA,TRUE,3,2.461,976.2505,979.246,NA,NA,NA,NA,NA,95,47,0,92,92,82,1,2,93,"likert"
"3D7D72CEA1F6413D961CE185176CE502",1,"01990a97-fcff-7eac-ad82-f099b767d6cd","01990a84-c4ee-73c2-a87b-ff46a7d3dde5","2025-09-02_09h23.02.958",NA,NA,982.5976,982.5976,982.5977,982.9464,NA,NA,NA,NA,NA,NA,NA,TRUE,3,1.9126,979.6003,982.5967,NA,NA,NA,NA,NA,28,32,0,93,93,38,1,2,94,"likert"
"3D7D72CEA1F6413D961CE185176CE502",1,"01990a97-fcff-7eac-ad82-f099b767d6cd","01990a84-c4ee-73c2-a87b-ff46a7d3dde5","2025-09-02_09h23.02.958",NA,NA,985.9466,985.9466,985.9467,986.2956,NA,NA,NA,NA,NA,NA,NA,TRUE,4,1.0911,982.9491,985.9463,NA,NA,NA,NA,NA,60,54,0,94,94,71,1,2,95,"likert"
"3D7D72CEA1F6413D961CE185176CE502",1,"01990a97-fcff-7eac-ad82-f099b767d6cd","01990a84-c4ee-73c2-a87b-ff46a7d3dde5","2025-09-02_09h23.02.958",NA,NA,989.2964,989.2965,989.2965,989.6455,NA,NA,NA,NA,NA,NA,NA,TRUE,4,0.9694,986.2968,989.2961,NA,NA,NA,NA,NA,7,35,0,95,95,5,1,2,96,"likert"
"3D7D72CEA1F6413D961CE185176CE502",1,"01990a97-fcff-7eac-ad82-f099b767d6cd","01990a84-c4ee-73c2-a87b-ff46a7d3dde5","2025-09-02_09h23.02.958",NA,NA,992.6466,992.6466,992.6466,992.9962,NA,NA,NA,NA,NA,NA,NA,TRUE,4,1.1446,989.6468,992.6465,NA,NA,NA,NA,NA,90,33,0,96,96,74,1,2,97,"likert"
"3D7D72CEA1F6413D961CE185176CE502",1,"01990a97-fcff-7eac-ad82-f099b767d6cd","01990a84-c4ee-73c2-a87b-ff46a7d3dde5","2025-09-02_09h23.02.958",NA,NA,995.9982,995.9984,995.9984,996.3456,NA,NA,NA,NA,NA,NA,NA,TRUE,3,1.3849,992.9975,995.9979,NA,NA,NA,NA,NA,10,30,0,97,97,10,1,2,98,"likert"
"3D7D72CEA1F6413D961CE185176CE502",1,"01990a97-fcff-7eac-ad82-f099b767d6cd","01990a84-c4ee-73c2-a87b-ff46a7d3dde5","2025-09-02_09h23.02.958",NA,NA,999.3464,999.3465,999.3465,999.6953,NA,NA,NA,NA,NA,NA,NA,TRUE,3,1.1774,996.3489,999.3459,NA,NA,NA,NA,NA,100,31,0,98,98,85,1,2,99,"likert"
"3D7D72CEA1F6413D961CE185176CE502",1,"01990a97-fcff-7eac-ad82-f099b767d6cd","01990a84-c4ee-73c2-a87b-ff46a7d3dde5","2025-09-02_09h23.02.958",NA,NA,1002.6987,1002.6988,1002.6988,1003.0455,NA,NA,NA,NA,NA,NA,NA,TRUE,4,0.7813,999.6969,1002.698,NA,NA,NA,NA,NA,40,47,0,99,99,52,1,2,100,"likert"
"3D7D72CEA1F6413D961CE185176CE502",1,"01990a97-fcff-7eac-ad82-f099b767d6cd","01990a84-c4ee-73c2-a87b-ff46a7d3dde5","2025-09-02_09h23.02.958",NA,NA,1006.0456,1006.0456,1006.0456,1006.3953,NA,NA,NA,NA,NA,NA,NA,TRUE,2,2.0573,1003.0484,1006.0453,NA,NA,NA,NA,NA,12,26,0,100,100,13,1,2,101,"likert"
"3D7D72CEA1F6413D961CE185176CE502",1,"01990a97-fcff-7eac-ad82-f099b767d6cd","01990a84-c4ee-73c2-a87b-ff46a7d3dde5","2025-09-02_09h23.02.958",NA,NA,1009.3955,1009.3956,1009.3956,1009.7443,NA,NA,NA,NA,NA,NA,NA,TRUE,3,1.6378,1006.3985,1009.3952,NA,NA,NA,NA,NA,40,35,0,101,101,50,1,2,102,"likert"
"3D7D72CEA1F6413D961CE185176CE502",1,"01990a97-fcff-7eac-ad82-f099b767d6cd","01990a84-c4ee-73c2-a87b-ff46a7d3dde5","2025-09-02_09h23.02.958",NA,NA,1012.7451,1012.7452,1012.7452,1013.0944,NA,NA,NA,NA,NA,NA,NA,TRUE,4,0.9461,1009.7455,1012.7449,NA,NA,NA,NA,NA,200,54,0,102,102,107,1,2,103,"likert"
"3D7D72CEA1F6413D961CE185176CE502",1,"01990a97-fcff-7eac-ad82-f099b767d6cd","01990a84-c4ee-73c2-a87b-ff46a7d3dde5","2025-09-02_09h23.02.958",NA,NA,1016.0954,1016.0955,1016.0955,1016.445,NA,NA,NA,NA,NA,NA,NA,TRUE,1,1.2838,1013.0957,1016.095,NA,NA,NA,NA,NA,14,25,0,103,103,18,1,2,104,"likert"
"3D7D72CEA1F6413D961CE185176CE502",1,"01990a97-fcff-7eac-ad82-f099b767d6cd","01990a84-c4ee-73c2-a87b-ff46a7d3dde5","2025-09-02_09h23.02.958",NA,NA,1019.4454,1019.4455,1019.4456,1019.7945,NA,NA,NA,NA,NA,NA,NA,TRUE,5,1.7805,1016.4484,1019.445,NA,NA,NA,NA,NA,90,54,0,104,104,77,1,2,105,"likert"
"3D7D72CEA1F6413D961CE185176CE502",1,"01990a97-fcff-7eac-ad82-f099b767d6cd","01990a84-c4ee-73c2-a87b-ff46a7d3dde5","2025-09-02_09h23.02.958",NA,NA,1022.7944,1022.7944,1022.7944,1023.1443,NA,NA,NA,NA,NA,NA,NA,TRUE,1,1.6241,1019.7972,1022.7943,NA,NA,NA,NA,NA,7,25,0,105,105,0,1,2,106,"likert"
"3D7D72CEA1F6413D961CE185176CE502",1,"01990a97-fcff-7eac-ad82-f099b767d6cd","01990a84-c4ee-73c2-a87b-ff46a7d3dde5","2025-09-02_09h23.02.958",NA,NA,1026.1473,1026.1473,1026.1473,1026.4939,NA,NA,NA,NA,NA,NA,NA,TRUE,3,1.0145,1023.1468,1026.1472,NA,NA,NA,NA,NA,95,33,0,106,106,79,1,2,107,"likert"
"3D7D72CEA1F6413D961CE185176CE502",1,"01990a97-fcff-7eac-ad82-f099b767d6cd","01990a84-c4ee-73c2-a87b-ff46a7d3dde5","2025-09-02_09h23.02.958",NA,NA,1029.495,1029.495,1029.4951,1029.8437,NA,NA,NA,NA,NA,NA,NA,TRUE,4,0.9011,1026.4951,1029.4947,NA,NA,NA,NA,NA,50,40,0,107,107,63,1,2,108,"likert"
