"participant","session","assignmentId","projectId","date","practiceTrial.started","practiceTrial.stopped","tooLate.started","tooLate.stopped","blank.started","blank.stopped","trials_pract.thisRepN","trials_pract.thisTrialN","trials_pract.thisN","trials_pract.thisIndex","trials_pract.ran","delay_pract","amount_pract","responseMade","key","rt","trial.started","trial.stopped","trials.thisRepN","trials.thisTrialN","trials.thisN","trials.thisIndex","trials.ran","delay","amount","trials_2.thisRepN","trials_2.thisTrialN","trials_2.thisN","trials_2.thisIndex","trials_2.ran","block","trial","taskType"
"46C36D77E4B247AE95721BC9779FE422",1,"0198eced-51e9-7e98-8320-4f713cae0a8f","0198c493-061b-72b6-9f09-7b914e79ecc0","2025-08-27_15h26.25.161",29.3772,32.344,32.3445,32.3447,32.3448,32.7028,0,0,0,1,1,100,50,TRUE,4,2.8088,NA,NA,NA,NA,NA,NA,NA,NA,NA,NA,NA,NA,NA,NA,0,1,"likert"
"46C36D77E4B247AE95721BC9779FE422",1,"0198eced-51e9-7e98-8320-4f713cae0a8f","0198c493-061b-72b6-9f09-7b914e79ecc0","2025-08-27_15h26.25.161",32.7045,35.6997,35.6999,35.9504,35.9505,36.0403,0,1,1,3,1,3,27,FALSE,NA,NA,NA,NA,NA,NA,NA,NA,NA,NA,NA,NA,NA,NA,NA,NA,0,2,"likert"
"46C36D77E4B247AE95721BC9779FE422",1,"0198eced-51e9-7e98-8320-4f713cae0a8f","0198c493-061b-72b6-9f09-7b914e79ecc0","2025-08-27_15h26.25.161",36.0423,39.0373,39.0374,39.0374,39.0374,39.3963,0,2,2,0,1,7,30,TRUE,5,0.0355,NA,NA,NA,NA,NA,NA,NA,NA,NA,NA,NA,NA,NA,NA,0,3,"likert"
"46C36D77E4B247AE95721BC9779FE422",1,"0198eced-51e9-7e98-8320-4f713cae0a8f","0198c493-061b-72b6-9f09-7b914e79ecc0","2025-08-27_15h26.25.161",39.3973,42.393,42.3932,42.3933,42.3933,42.752,0,3,3,2,1,14,45,TRUE,2,2.3694,NA,NA,NA,NA,NA,NA,NA,NA,NA,NA,NA,NA,NA,NA,0,4,"likert"
"46C36D77E4B247AE95721BC9779FE422",1,"0198eced-51e9-7e98-8320-4f713cae0a8f","0198c493-061b-72b6-9f09-7b914e79ecc0","2025-08-27_15h26.25.161",42.7534,45.7491,45.7492,45.7492,45.7492,46.0902,0,4,4,4,1,30,40,TRUE,2,1.7469,NA,NA,NA,NA,NA,NA,NA,NA,NA,NA,NA,NA,NA,NA,0,5,"likert"
"46C36D77E4B247AE95721BC9779FE422",1,"0198eced-51e9-7e98-8320-4f713cae0a8f","0198c493-061b-72b6-9f09-7b914e79ecc0","2025-08-27_15h26.25.161",NA,NA,65.9396,65.9402,65.9405,66.2791,NA,NA,NA,NA,NA,NA,NA,TRUE,1,1.6456,62.9647,65.9391,0,0,0,52,1,40,47,NA,NA,NA,NA,NA,1,1,"likert"
"46C36D77E4B247AE95721BC9779FE422",1,"0198eced-51e9-7e98-8320-4f713cae0a8f","0198c493-061b-72b6-9f09-7b914e79ecc0","2025-08-27_15h26.25.161",NA,NA,69.2945,69.5275,69.5275,69.6353,NA,NA,NA,NA,NA,NA,NA,FALSE,NA,NA,66.2811,69.2944,0,1,1,72,1,90,26,NA,NA,NA,NA,NA,1,2,"likert"
"46C36D77E4B247AE95721BC9779FE422",1,"0198eced-51e9-7e98-8320-4f713cae0a8f","0198c493-061b-72b6-9f09-7b914e79ecc0","2025-08-27_15h26.25.161",NA,NA,72.6338,72.6338,72.6339,72.9915,NA,NA,NA,NA,NA,NA,NA,TRUE,3,2.4026,69.6364,72.6337,0,2,2,51,1,40,40,NA,NA,NA,NA,NA,1,3,"likert"
"46C36D77E4B247AE95721BC9779FE422",1,"0198eced-51e9-7e98-8320-4f713cae0a8f","0198c493-061b-72b6-9f09-7b914e79ecc0","2025-08-27_15h26.25.161",NA,NA,75.9887,75.9887,75.9887,76.3296,NA,NA,NA,NA,NA,NA,NA,TRUE,2,1.6285,72.9934,75.9886,0,3,3,99,1,180,39,NA,NA,NA,NA,NA,1,4,"likert"
"46C36D77E4B247AE95721BC9779FE422",1,"0198eced-51e9-7e98-8320-4f713cae0a8f","0198c493-061b-72b6-9f09-7b914e79ecc0","2025-08-27_15h26.25.161",NA,NA,79.3273,79.3273,79.3275,79.6862,NA,NA,NA,NA,NA,NA,NA,TRUE,5,1.9231,76.3303,79.3273,0,4,4,17,1,12,35,NA,NA,NA,NA,NA,1,5,"likert"
"46C36D77E4B247AE95721BC9779FE422",1,"0198eced-51e9-7e98-8320-4f713cae0a8f","0198c493-061b-72b6-9f09-7b914e79ecc0","2025-08-27_15h26.25.161",NA,NA,82.6832,82.6832,82.6832,83.042,NA,NA,NA,NA,NA,NA,NA,TRUE,4,2.1171,79.6873,82.683,0,5,5,95,1,150,54,NA,NA,NA,NA,NA,1,6,"likert"
"46C36D77E4B247AE95721BC9779FE422",1,"0198eced-51e9-7e98-8320-4f713cae0a8f","0198c493-061b-72b6-9f09-7b914e79ecc0","2025-08-27_15h26.25.161",NA,NA,86.0401,86.0401,86.0401,86.3811,NA,NA,NA,NA,NA,NA,NA,TRUE,1,1.4286,83.0428,86.04,0,6,6,36,1,28,26,NA,NA,NA,NA,NA,1,7,"likert"
"46C36D77E4B247AE95721BC9779FE422",1,"0198eced-51e9-7e98-8320-4f713cae0a8f","0198c493-061b-72b6-9f09-7b914e79ecc0","2025-08-27_15h26.25.161",NA,NA,89.3945,89.3946,89.3946,89.7349,NA,NA,NA,NA,NA,NA,NA,TRUE,2,1.881,86.3817,89.3944,0,7,7,20,1,14,28,NA,NA,NA,NA,NA,1,8,"likert"
"46C36D77E4B247AE95721BC9779FE422",1,"0198eced-51e9-7e98-8320-4f713cae0a8f","0198c493-061b-72b6-9f09-7b914e79ecc0","2025-08-27_15h26.25.161",NA,NA,92.7315,92.7316,92.7316,93.0904,NA,NA,NA,NA,NA,NA,NA,TRUE,4,2.0774,89.7358,92.7315,0,8,8,71,1,60,54,NA,NA,NA,NA,NA,1,9,"likert"
"46C36D77E4B247AE95721BC9779FE422",1,"0198eced-51e9-7e98-8320-4f713cae0a8f","0198c493-061b-72b6-9f09-7b914e79ecc0","2025-08-27_15h26.25.161",NA,NA,96.0876,96.0876,96.0876,96.4286,NA,NA,NA,NA,NA,NA,NA,TRUE,1,1.6723,93.0911,96.0874,0,9,9,6,1,10,25,NA,NA,NA,NA,NA,1,10,"likert"
"46C36D77E4B247AE95721BC9779FE422",1,"0198eced-51e9-7e98-8320-4f713cae0a8f","0198c493-061b-72b6-9f09-7b914e79ecc0","2025-08-27_15h26.25.161",NA,NA,99.4441,99.4442,99.4442,99.7855,NA,NA,NA,NA,NA,NA,NA,TRUE,1,1.2193,96.4295,99.444,0,10,10,37,1,28,28,NA,NA,NA,NA,NA,1,11,"likert"
"46C36D77E4B247AE95721BC9779FE422",1,"0198eced-51e9-7e98-8320-4f713cae0a8f","0198c493-061b-72b6-9f09-7b914e79ecc0","2025-08-27_15h26.25.161",NA,NA,102.7823,102.7823,102.7823,103.1413,NA,NA,NA,NA,NA,NA,NA,TRUE,1,1.0957,99.7869,102.7821,0,11,11,31,1,25,29,NA,NA,NA,NA,NA,1,12,"likert"
"46C36D77E4B247AE95721BC9779FE422",1,"0198eced-51e9-7e98-8320-4f713cae0a8f","0198c493-061b-72b6-9f09-7b914e79ecc0","2025-08-27_15h26.25.161",NA,NA,106.1394,106.1394,106.1394,106.4801,NA,NA,NA,NA,NA,NA,NA,TRUE,2,1.8503,103.1422,106.1392,0,12,12,59,1,45,46,NA,NA,NA,NA,NA,1,13,"likert"
"46C36D77E4B247AE95721BC9779FE422",1,"0198eced-51e9-7e98-8320-4f713cae0a8f","0198c493-061b-72b6-9f09-7b914e79ecc0","2025-08-27_15h26.25.161",NA,NA,109.4779,109.4779,109.4779,109.8368,NA,NA,NA,NA,NA,NA,NA,TRUE,1,1.4521,106.4808,109.4778,0,13,13,90,1,150,31,NA,NA,NA,NA,NA,1,14,"likert"
"46C36D77E4B247AE95721BC9779FE422",1,"0198eced-51e9-7e98-8320-4f713cae0a8f","0198c493-061b-72b6-9f09-7b914e79ecc0","2025-08-27_15h26.25.161",NA,NA,112.832,112.8321,112.8321,113.1909,NA,NA,NA,NA,NA,NA,NA,TRUE,3,1.6833,109.8379,112.832,0,14,14,15,1,12,31,NA,NA,NA,NA,NA,1,15,"likert"
"46C36D77E4B247AE95721BC9779FE422",1,"0198eced-51e9-7e98-8320-4f713cae0a8f","0198c493-061b-72b6-9f09-7b914e79ecc0","2025-08-27_15h26.25.161",NA,NA,116.1877,116.1877,116.1877,116.5284,NA,NA,NA,NA,NA,NA,NA,TRUE,1,1.6208,113.1916,116.1875,0,15,15,1,1,7,26,NA,NA,NA,NA,NA,1,16,"likert"
"46C36D77E4B247AE95721BC9779FE422",1,"0198eced-51e9-7e98-8320-4f713cae0a8f","0198c493-061b-72b6-9f09-7b914e79ecc0","2025-08-27_15h26.25.161",NA,NA,119.5415,119.5415,119.5416,119.8814,NA,NA,NA,NA,NA,NA,NA,TRUE,4,2.2048,116.5291,119.5414,0,16,16,28,1,21,32,NA,NA,NA,NA,NA,1,17,"likert"
"46C36D77E4B247AE95721BC9779FE422",1,"0198eced-51e9-7e98-8320-4f713cae0a8f","0198c493-061b-72b6-9f09-7b914e79ecc0","2025-08-27_15h26.25.161",NA,NA,122.8892,122.8892,122.8892,123.2295,NA,NA,NA,NA,NA,NA,NA,TRUE,1,2.0226,119.882,122.889,0,17,17,68,1,60,35,NA,NA,NA,NA,NA,1,18,"likert"
"46C36D77E4B247AE95721BC9779FE422",1,"0198eced-51e9-7e98-8320-4f713cae0a8f","0198c493-061b-72b6-9f09-7b914e79ecc0","2025-08-27_15h26.25.161",NA,NA,126.2271,126.2271,126.2271,126.5859,NA,NA,NA,NA,NA,NA,NA,TRUE,1,1.8458,123.2305,126.2269,0,18,18,50,1,40,35,NA,NA,NA,NA,NA,1,19,"likert"
"46C36D77E4B247AE95721BC9779FE422",1,"0198eced-51e9-7e98-8320-4f713cae0a8f","0198c493-061b-72b6-9f09-7b914e79ecc0","2025-08-27_15h26.25.161",NA,NA,129.5846,129.5846,129.5847,129.9426,NA,NA,NA,NA,NA,NA,NA,TRUE,1,1.7085,126.5868,129.5843,0,19,19,0,1,7,25,NA,NA,NA,NA,NA,1,20,"likert"
"46C36D77E4B247AE95721BC9779FE422",1,"0198eced-51e9-7e98-8320-4f713cae0a8f","0198c493-061b-72b6-9f09-7b914e79ecc0","2025-08-27_15h26.25.161",NA,NA,132.9399,132.94,132.94,133.2807,NA,NA,NA,NA,NA,NA,NA,TRUE,4,2.2663,129.9435,132.9398,0,20,20,22,1,14,35,NA,NA,NA,NA,NA,1,21,"likert"
"46C36D77E4B247AE95721BC9779FE422",1,"0198eced-51e9-7e98-8320-4f713cae0a8f","0198c493-061b-72b6-9f09-7b914e79ecc0","2025-08-27_15h26.25.161",NA,NA,136.2788,136.2789,136.2789,136.6378,NA,NA,NA,NA,NA,NA,NA,TRUE,1,2.2764,133.2815,136.2787,0,21,21,107,1,200,54,NA,NA,NA,NA,NA,1,22,"likert"
"46C36D77E4B247AE95721BC9779FE422",1,"0198eced-51e9-7e98-8320-4f713cae0a8f","0198c493-061b-72b6-9f09-7b914e79ecc0","2025-08-27_15h26.25.161",NA,NA,139.6361,139.6361,139.6361,139.9769,NA,NA,NA,NA,NA,NA,NA,TRUE,2,2.2585,136.6385,139.6359,0,22,22,2,1,7,28,NA,NA,NA,NA,NA,1,23,"likert"
"46C36D77E4B247AE95721BC9779FE422",1,"0198eced-51e9-7e98-8320-4f713cae0a8f","0198c493-061b-72b6-9f09-7b914e79ecc0","2025-08-27_15h26.25.161",NA,NA,142.9929,142.9929,142.9929,143.3339,NA,NA,NA,NA,NA,NA,NA,TRUE,1,2.1066,139.978,142.9928,0,23,23,56,1,45,31,NA,NA,NA,NA,NA,1,24,"likert"
"46C36D77E4B247AE95721BC9779FE422",1,"0198eced-51e9-7e98-8320-4f713cae0a8f","0198c493-061b-72b6-9f09-7b914e79ecc0","2025-08-27_15h26.25.161",NA,NA,146.3316,146.3316,146.3316,146.6905,NA,NA,NA,NA,NA,NA,NA,TRUE,1,2.5115,143.3348,146.3314,0,24,24,18,1,14,25,NA,NA,NA,NA,NA,1,25,"likert"
"46C36D77E4B247AE95721BC9779FE422",1,"0198eced-51e9-7e98-8320-4f713cae0a8f","0198c493-061b-72b6-9f09-7b914e79ecc0","2025-08-27_15h26.25.161",NA,NA,149.6889,149.9397,149.9398,150.0295,NA,NA,NA,NA,NA,NA,NA,FALSE,NA,NA,146.6915,149.6887,0,25,25,16,1,12,33,NA,NA,NA,NA,NA,1,26,"likert"
"46C36D77E4B247AE95721BC9779FE422",1,"0198eced-51e9-7e98-8320-4f713cae0a8f","0198c493-061b-72b6-9f09-7b914e79ecc0","2025-08-27_15h26.25.161",NA,NA,153.0368,153.0368,153.0368,153.3775,NA,NA,NA,NA,NA,NA,NA,TRUE,2,1.6211,150.0303,153.0368,0,26,26,92,1,150,35,NA,NA,NA,NA,NA,1,27,"likert"
"46C36D77E4B247AE95721BC9779FE422",1,"0198eced-51e9-7e98-8320-4f713cae0a8f","0198c493-061b-72b6-9f09-7b914e79ecc0","2025-08-27_15h26.25.161",NA,NA,156.392,156.3921,156.3921,156.7327,NA,NA,NA,NA,NA,NA,NA,TRUE,2,1.8619,153.3786,156.3919,0,27,27,94,1,150,47,NA,NA,NA,NA,NA,1,28,"likert"
"46C36D77E4B247AE95721BC9779FE422",1,"0198eced-51e9-7e98-8320-4f713cae0a8f","0198c493-061b-72b6-9f09-7b914e79ecc0","2025-08-27_15h26.25.161",NA,NA,159.7291,159.7292,159.7292,160.088,NA,NA,NA,NA,NA,NA,NA,TRUE,1,1.3462,156.7335,159.729,0,28,28,44,1,30,29,NA,NA,NA,NA,NA,1,29,"likert"
"46C36D77E4B247AE95721BC9779FE422",1,"0198eced-51e9-7e98-8320-4f713cae0a8f","0198c493-061b-72b6-9f09-7b914e79ecc0","2025-08-27_15h26.25.161",NA,NA,163.0878,163.0879,163.088,163.428,NA,NA,NA,NA,NA,NA,NA,TRUE,1,1.259,160.0905,163.0875,0,29,29,104,1,200,35,NA,NA,NA,NA,NA,1,30,"likert"
"46C36D77E4B247AE95721BC9779FE422",1,"0198eced-51e9-7e98-8320-4f713cae0a8f","0198c493-061b-72b6-9f09-7b914e79ecc0","2025-08-27_15h26.25.161",NA,NA,166.4445,166.4445,166.4445,166.7851,NA,NA,NA,NA,NA,NA,NA,TRUE,2,1.6463,163.4303,166.4443,0,30,30,39,1,28,35,NA,NA,NA,NA,NA,1,31,"likert"
"46C36D77E4B247AE95721BC9779FE422",1,"0198eced-51e9-7e98-8320-4f713cae0a8f","0198c493-061b-72b6-9f09-7b914e79ecc0","2025-08-27_15h26.25.161",NA,NA,169.7833,169.7833,169.7834,170.142,NA,NA,NA,NA,NA,NA,NA,TRUE,2,1.4247,166.7872,169.783,0,31,31,81,1,95,40,NA,NA,NA,NA,NA,1,32,"likert"
"46C36D77E4B247AE95721BC9779FE422",1,"0198eced-51e9-7e98-8320-4f713cae0a8f","0198c493-061b-72b6-9f09-7b914e79ecc0","2025-08-27_15h26.25.161",NA,NA,173.1403,173.1403,173.1403,173.4811,NA,NA,NA,NA,NA,NA,NA,TRUE,1,1.3967,170.1446,173.1401,0,32,32,26,1,21,29,NA,NA,NA,NA,NA,1,33,"likert"
"46C36D77E4B247AE95721BC9779FE422",1,"0198eced-51e9-7e98-8320-4f713cae0a8f","0198c493-061b-72b6-9f09-7b914e79ecc0","2025-08-27_15h26.25.161",NA,NA,176.4783,176.4784,176.4784,176.8372,NA,NA,NA,NA,NA,NA,NA,TRUE,1,1.1206,173.4823,176.4781,0,33,33,43,1,30,27,NA,NA,NA,NA,NA,1,34,"likert"
"46C36D77E4B247AE95721BC9779FE422",1,"0198eced-51e9-7e98-8320-4f713cae0a8f","0198c493-061b-72b6-9f09-7b914e79ecc0","2025-08-27_15h26.25.161",NA,NA,179.834,179.8341,179.8341,180.1931,NA,NA,NA,NA,NA,NA,NA,TRUE,2,1.7368,176.8386,179.8338,0,34,34,80,1,95,35,NA,NA,NA,NA,NA,1,35,"likert"
"46C36D77E4B247AE95721BC9779FE422",1,"0198eced-51e9-7e98-8320-4f713cae0a8f","0198c493-061b-72b6-9f09-7b914e79ecc0","2025-08-27_15h26.25.161",NA,NA,183.1915,183.1917,183.1918,183.5322,NA,NA,NA,NA,NA,NA,NA,TRUE,2,1.3483,180.1945,183.1912,0,35,35,105,1,200,39,NA,NA,NA,NA,NA,1,36,"likert"
"46C36D77E4B247AE95721BC9779FE422",1,"0198eced-51e9-7e98-8320-4f713cae0a8f","0198c493-061b-72b6-9f09-7b914e79ecc0","2025-08-27_15h26.25.161",NA,NA,186.5301,186.5301,186.5301,186.889,NA,NA,NA,NA,NA,NA,NA,TRUE,2,1.5455,183.5334,186.53,0,36,36,75,1,90,40,NA,NA,NA,NA,NA,1,37,"likert"
"46C36D77E4B247AE95721BC9779FE422",1,"0198eced-51e9-7e98-8320-4f713cae0a8f","0198c493-061b-72b6-9f09-7b914e79ecc0","2025-08-27_15h26.25.161",NA,NA,189.8861,189.8862,189.8862,190.2271,NA,NA,NA,NA,NA,NA,NA,TRUE,1,1.2119,186.8898,189.886,0,37,37,48,1,40,27,NA,NA,NA,NA,NA,1,38,"likert"
"46C36D77E4B247AE95721BC9779FE422",1,"0198eced-51e9-7e98-8320-4f713cae0a8f","0198c493-061b-72b6-9f09-7b914e79ecc0","2025-08-27_15h26.25.161",NA,NA,193.2424,193.2425,193.2425,193.5831,NA,NA,NA,NA,NA,NA,NA,TRUE,4,1.9792,190.228,193.2423,0,38,38,65,1,50,54,NA,NA,NA,NA,NA,1,39,"likert"
"46C36D77E4B247AE95721BC9779FE422",1,"0198eced-51e9-7e98-8320-4f713cae0a8f","0198c493-061b-72b6-9f09-7b914e79ecc0","2025-08-27_15h26.25.161",NA,NA,196.5812,196.5812,196.5812,196.9402,NA,NA,NA,NA,NA,NA,NA,TRUE,1,1.5262,193.5839,196.5811,0,39,39,3,1,7,30,NA,NA,NA,NA,NA,1,40,"likert"
"46C36D77E4B247AE95721BC9779FE422",1,"0198eced-51e9-7e98-8320-4f713cae0a8f","0198c493-061b-72b6-9f09-7b914e79ecc0","2025-08-27_15h26.25.161",NA,NA,199.9377,199.9377,199.9377,200.2784,NA,NA,NA,NA,NA,NA,NA,TRUE,1,1.4848,196.941,199.9375,0,40,40,85,1,100,31,NA,NA,NA,NA,NA,1,41,"likert"
"46C36D77E4B247AE95721BC9779FE422",1,"0198eced-51e9-7e98-8320-4f713cae0a8f","0198c493-061b-72b6-9f09-7b914e79ecc0","2025-08-27_15h26.25.161",NA,NA,203.2942,203.2942,203.2942,203.6351,NA,NA,NA,NA,NA,NA,NA,TRUE,1,1.076,200.2791,203.294,0,41,41,30,1,25,27,NA,NA,NA,NA,NA,1,42,"likert"
"46C36D77E4B247AE95721BC9779FE422",1,"0198eced-51e9-7e98-8320-4f713cae0a8f","0198c493-061b-72b6-9f09-7b914e79ecc0","2025-08-27_15h26.25.161",NA,NA,206.6326,206.6326,206.6327,206.9916,NA,NA,NA,NA,NA,NA,NA,TRUE,1,1.2203,203.636,206.6325,0,42,42,38,1,28,32,NA,NA,NA,NA,NA,1,43,"likert"
"46C36D77E4B247AE95721BC9779FE422",1,"0198eced-51e9-7e98-8320-4f713cae0a8f","0198c493-061b-72b6-9f09-7b914e79ecc0","2025-08-27_15h26.25.161",NA,NA,209.9892,209.9892,209.9893,210.3301,NA,NA,NA,NA,NA,NA,NA,TRUE,1,1.2221,206.9925,209.9891,0,43,43,67,1,60,33,NA,NA,NA,NA,NA,1,44,"likert"
"46C36D77E4B247AE95721BC9779FE422",1,"0198eced-51e9-7e98-8320-4f713cae0a8f","0198c493-061b-72b6-9f09-7b914e79ecc0","2025-08-27_15h26.25.161",NA,NA,213.3276,213.3276,213.3276,213.6866,NA,NA,NA,NA,NA,NA,NA,TRUE,2,1.258,210.3307,213.3276,0,44,44,63,1,50,40,NA,NA,NA,NA,NA,1,45,"likert"
"46C36D77E4B247AE95721BC9779FE422",1,"0198eced-51e9-7e98-8320-4f713cae0a8f","0198c493-061b-72b6-9f09-7b914e79ecc0","2025-08-27_15h26.25.161",NA,NA,216.6805,216.6806,216.6806,217.0389,NA,NA,NA,NA,NA,NA,NA,TRUE,1,1.1981,213.6874,216.6804,0,45,45,87,1,100,39,NA,NA,NA,NA,NA,1,46,"likert"
"46C36D77E4B247AE95721BC9779FE422",1,"0198eced-51e9-7e98-8320-4f713cae0a8f","0198c493-061b-72b6-9f09-7b914e79ecc0","2025-08-27_15h26.25.161",NA,NA,220.0319,220.0319,220.0319,220.3907,NA,NA,NA,NA,NA,NA,NA,TRUE,1,1.3192,217.0395,220.0317,0,46,46,47,1,30,38,NA,NA,NA,NA,NA,1,47,"likert"
"46C36D77E4B247AE95721BC9779FE422",1,"0198eced-51e9-7e98-8320-4f713cae0a8f","0198c493-061b-72b6-9f09-7b914e79ecc0","2025-08-27_15h26.25.161",NA,NA,223.3874,223.3874,223.3875,223.7285,NA,NA,NA,NA,NA,NA,NA,TRUE,1,1.4227,220.3914,223.3873,0,47,47,61,1,50,30,NA,NA,NA,NA,NA,1,48,"likert"
"46C36D77E4B247AE95721BC9779FE422",1,"0198eced-51e9-7e98-8320-4f713cae0a8f","0198c493-061b-72b6-9f09-7b914e79ecc0","2025-08-27_15h26.25.161",NA,NA,226.7446,226.7446,226.7446,227.0854,NA,NA,NA,NA,NA,NA,NA,TRUE,1,1.451,223.7296,226.7444,0,48,48,12,1,12,25,NA,NA,NA,NA,NA,1,49,"likert"
"46C36D77E4B247AE95721BC9779FE422",1,"0198eced-51e9-7e98-8320-4f713cae0a8f","0198c493-061b-72b6-9f09-7b914e79ecc0","2025-08-27_15h26.25.161",NA,NA,230.0838,230.0838,230.0838,230.4425,NA,NA,NA,NA,NA,NA,NA,TRUE,1,1.7129,227.086,230.0836,0,49,49,29,1,21,38,NA,NA,NA,NA,NA,1,50,"likert"
"46C36D77E4B247AE95721BC9779FE422",1,"0198eced-51e9-7e98-8320-4f713cae0a8f","0198c493-061b-72b6-9f09-7b914e79ecc0","2025-08-27_15h26.25.161",NA,NA,233.4395,233.4395,233.4395,233.7804,NA,NA,NA,NA,NA,NA,NA,TRUE,2,1.5968,230.4438,233.4394,0,50,50,41,1,28,46,NA,NA,NA,NA,NA,1,51,"likert"
"46C36D77E4B247AE95721BC9779FE422",1,"0198eced-51e9-7e98-8320-4f713cae0a8f","0198c493-061b-72b6-9f09-7b914e79ecc0","2025-08-27_15h26.25.161",NA,NA,236.7786,236.7786,236.7786,237.1376,NA,NA,NA,NA,NA,NA,NA,TRUE,1,1.5924,233.781,236.7785,0,51,51,58,1,45,40,NA,NA,NA,NA,NA,1,52,"likert"
"46C36D77E4B247AE95721BC9779FE422",1,"0198eced-51e9-7e98-8320-4f713cae0a8f","0198c493-061b-72b6-9f09-7b914e79ecc0","2025-08-27_15h26.25.161",NA,NA,240.1338,240.1339,240.1339,240.4927,NA,NA,NA,NA,NA,NA,NA,TRUE,1,1.1027,237.1389,240.1337,0,52,52,103,1,200,28,NA,NA,NA,NA,NA,1,53,"likert"
"46C36D77E4B247AE95721BC9779FE422",1,"0198eced-51e9-7e98-8320-4f713cae0a8f","0198c493-061b-72b6-9f09-7b914e79ecc0","2025-08-27_15h26.25.161",NA,NA,243.4912,243.4914,243.4914,243.8316,NA,NA,NA,NA,NA,NA,NA,TRUE,1,1.4096,240.4936,243.4912,0,53,53,79,1,95,33,NA,NA,NA,NA,NA,1,54,"likert"
"46C36D77E4B247AE95721BC9779FE422",1,"0198eced-51e9-7e98-8320-4f713cae0a8f","0198c493-061b-72b6-9f09-7b914e79ecc0","2025-08-27_15h26.25.161",NA,NA,246.8285,246.8285,246.8285,247.1875,NA,NA,NA,NA,NA,NA,NA,TRUE,1,0.964,243.8323,246.8284,0,54,54,97,1,180,31,NA,NA,NA,NA,NA,1,55,"likert"
"46C36D77E4B247AE95721BC9779FE422",1,"0198eced-51e9-7e98-8320-4f713cae0a8f","0198c493-061b-72b6-9f09-7b914e79ecc0","2025-08-27_15h26.25.161",NA,NA,250.1945,250.1945,250.1945,250.5345,NA,NA,NA,NA,NA,NA,NA,TRUE,2,1.1874,247.1883,250.194,0,55,55,35,1,25,46,NA,NA,NA,NA,NA,1,56,"likert"
"46C36D77E4B247AE95721BC9779FE422",1,"0198eced-51e9-7e98-8320-4f713cae0a8f","0198c493-061b-72b6-9f09-7b914e79ecc0","2025-08-27_15h26.25.161",NA,NA,253.5327,253.5327,253.5328,253.8913,NA,NA,NA,NA,NA,NA,NA,TRUE,1,2.0348,250.535,253.5326,0,56,56,21,1,14,32,NA,NA,NA,NA,NA,1,57,"likert"
"46C36D77E4B247AE95721BC9779FE422",1,"0198eced-51e9-7e98-8320-4f713cae0a8f","0198c493-061b-72b6-9f09-7b914e79ecc0","2025-08-27_15h26.25.161",NA,NA,256.8893,256.8893,256.8893,257.23,NA,NA,NA,NA,NA,NA,NA,TRUE,1,1.1146,253.892,256.8891,0,57,57,19,1,14,26,NA,NA,NA,NA,NA,1,58,"likert"
"46C36D77E4B247AE95721BC9779FE422",1,"0198eced-51e9-7e98-8320-4f713cae0a8f","0198c493-061b-72b6-9f09-7b914e79ecc0","2025-08-27_15h26.25.161",NA,NA,260.245,260.245,260.245,260.5855,NA,NA,NA,NA,NA,NA,NA,TRUE,1,1.3427,257.2309,260.2449,0,58,58,84,1,100,26,NA,NA,NA,NA,NA,1,59,"likert"
"46C36D77E4B247AE95721BC9779FE422",1,"0198eced-51e9-7e98-8320-4f713cae0a8f","0198c493-061b-72b6-9f09-7b914e79ecc0","2025-08-27_15h26.25.161",NA,NA,263.5828,263.5829,263.5829,263.9417,NA,NA,NA,NA,NA,NA,NA,TRUE,4,1.8004,260.5869,263.5827,0,59,59,64,1,50,46,NA,NA,NA,NA,NA,1,60,"likert"
"46C36D77E4B247AE95721BC9779FE422",1,"0198eced-51e9-7e98-8320-4f713cae0a8f","0198c493-061b-72b6-9f09-7b914e79ecc0","2025-08-27_15h26.25.161",NA,NA,266.9384,266.9384,266.9384,267.2791,NA,NA,NA,NA,NA,NA,NA,TRUE,2,1.4765,263.9425,266.9382,0,60,60,100,1,180,46,NA,NA,NA,NA,NA,1,61,"likert"
"46C36D77E4B247AE95721BC9779FE422",1,"0198eced-51e9-7e98-8320-4f713cae0a8f","0198c493-061b-72b6-9f09-7b914e79ecc0","2025-08-27_15h26.25.161",NA,NA,270.2775,270.2775,270.2775,270.636,NA,NA,NA,NA,NA,NA,NA,TRUE,2,1.8647,267.2797,270.2773,0,61,61,69,1,60,40,NA,NA,NA,NA,NA,1,62,"likert"
"46C36D77E4B247AE95721BC9779FE422",1,"0198eced-51e9-7e98-8320-4f713cae0a8f","0198c493-061b-72b6-9f09-7b914e79ecc0","2025-08-27_15h26.25.161",NA,NA,273.6338,273.6339,273.6339,273.9929,NA,NA,NA,NA,NA,NA,NA,TRUE,1,1.2355,270.637,273.6337,0,62,62,33,1,25,33,NA,NA,NA,NA,NA,1,63,"likert"
"46C36D77E4B247AE95721BC9779FE422",1,"0198eced-51e9-7e98-8320-4f713cae0a8f","0198c493-061b-72b6-9f09-7b914e79ecc0","2025-08-27_15h26.25.161",NA,NA,276.9898,276.9899,276.9899,277.331,NA,NA,NA,NA,NA,NA,NA,TRUE,1,1.5235,273.9939,276.9897,0,63,63,60,1,50,27,NA,NA,NA,NA,NA,1,64,"likert"
"46C36D77E4B247AE95721BC9779FE422",1,"0198eced-51e9-7e98-8320-4f713cae0a8f","0198c493-061b-72b6-9f09-7b914e79ecc0","2025-08-27_15h26.25.161",NA,NA,280.3283,280.3283,280.3283,280.6866,NA,NA,NA,NA,NA,NA,NA,TRUE,1,1.3068,277.3323,280.3282,0,64,64,9,1,10,29,NA,NA,NA,NA,NA,1,65,"likert"
"46C36D77E4B247AE95721BC9779FE422",1,"0198eced-51e9-7e98-8320-4f713cae0a8f","0198c493-061b-72b6-9f09-7b914e79ecc0","2025-08-27_15h26.25.161",NA,NA,283.678,283.678,283.678,284.0366,NA,NA,NA,NA,NA,NA,NA,TRUE,1,1.4327,280.6873,283.6779,0,65,65,74,1,90,33,NA,NA,NA,NA,NA,1,66,"likert"
"46C36D77E4B247AE95721BC9779FE422",1,"0198eced-51e9-7e98-8320-4f713cae0a8f","0198c493-061b-72b6-9f09-7b914e79ecc0","2025-08-27_15h26.25.161",NA,NA,287.0348,287.0348,287.0348,287.3934,NA,NA,NA,NA,NA,NA,NA,TRUE,1,1.3014,284.0373,287.0346,0,66,66,8,1,10,27,NA,NA,NA,NA,NA,1,67,"likert"
"46C36D77E4B247AE95721BC9779FE422",1,"0198eced-51e9-7e98-8320-4f713cae0a8f","0198c493-061b-72b6-9f09-7b914e79ecc0","2025-08-27_15h26.25.161",NA,NA,290.3912,290.3913,290.3913,290.7318,NA,NA,NA,NA,NA,NA,NA,TRUE,2,1.6327,287.3943,290.3911,0,67,67,40,1,28,39,NA,NA,NA,NA,NA,1,68,"likert"
"46C36D77E4B247AE95721BC9779FE422",1,"0198eced-51e9-7e98-8320-4f713cae0a8f","0198c493-061b-72b6-9f09-7b914e79ecc0","2025-08-27_15h26.25.161",NA,NA,293.7292,293.7292,293.7292,294.0882,NA,NA,NA,NA,NA,NA,NA,TRUE,1,1.3428,290.7328,293.7291,0,68,68,46,1,30,32,NA,NA,NA,NA,NA,1,69,"likert"
"46C36D77E4B247AE95721BC9779FE422",1,"0198eced-51e9-7e98-8320-4f713cae0a8f","0198c493-061b-72b6-9f09-7b914e79ecc0","2025-08-27_15h26.25.161",NA,NA,297.0865,297.0865,297.0865,297.4279,NA,NA,NA,NA,NA,NA,NA,TRUE,1,1.0223,294.0889,297.0864,0,69,69,96,1,180,27,NA,NA,NA,NA,NA,1,70,"likert"
"46C36D77E4B247AE95721BC9779FE422",1,"0198eced-51e9-7e98-8320-4f713cae0a8f","0198c493-061b-72b6-9f09-7b914e79ecc0","2025-08-27_15h26.25.161",NA,NA,300.4435,300.4435,300.4435,300.7842,NA,NA,NA,NA,NA,NA,NA,TRUE,1,0.9657,297.4287,300.4434,0,70,70,102,1,200,26,NA,NA,NA,NA,NA,1,71,"likert"
"46C36D77E4B247AE95721BC9779FE422",1,"0198eced-51e9-7e98-8320-4f713cae0a8f","0198c493-061b-72b6-9f09-7b914e79ecc0","2025-08-27_15h26.25.161",NA,NA,303.7826,303.7827,303.7827,304.1409,NA,NA,NA,NA,NA,NA,NA,TRUE,2,1.6719,300.785,303.7824,0,71,71,93,1,150,40,NA,NA,NA,NA,NA,1,72,"likert"
"46C36D77E4B247AE95721BC9779FE422",1,"0198eced-51e9-7e98-8320-4f713cae0a8f","0198c493-061b-72b6-9f09-7b914e79ecc0","2025-08-27_15h26.25.161",NA,NA,307.138,307.138,307.138,307.4791,NA,NA,NA,NA,NA,NA,NA,TRUE,1,2.1037,304.142,307.1379,0,72,72,91,1,150,33,NA,NA,NA,NA,NA,1,73,"likert"
"46C36D77E4B247AE95721BC9779FE422",1,"0198eced-51e9-7e98-8320-4f713cae0a8f","0198c493-061b-72b6-9f09-7b914e79ecc0","2025-08-27_15h26.25.161",NA,NA,310.4942,310.4943,310.4943,310.8355,NA,NA,NA,NA,NA,NA,NA,TRUE,1,1.0822,307.4801,310.4941,0,73,73,32,1,25,31,NA,NA,NA,NA,NA,1,74,"likert"
"46C36D77E4B247AE95721BC9779FE422",1,"0198eced-51e9-7e98-8320-4f713cae0a8f","0198c493-061b-72b6-9f09-7b914e79ecc0","2025-08-27_15h26.25.161",NA,NA,313.8321,313.8321,313.8322,314.1899,NA,NA,NA,NA,NA,NA,NA,TRUE,1,1.3178,310.8366,313.832,0,74,74,24,1,21,26,NA,NA,NA,NA,NA,1,75,"likert"
"46C36D77E4B247AE95721BC9779FE422",1,"0198eced-51e9-7e98-8320-4f713cae0a8f","0198c493-061b-72b6-9f09-7b914e79ecc0","2025-08-27_15h26.25.161",NA,NA,317.1875,317.1875,317.1875,317.5287,NA,NA,NA,NA,NA,NA,NA,TRUE,1,2.2757,314.1906,317.1874,0,75,75,13,1,12,26,NA,NA,NA,NA,NA,1,76,"likert"
"46C36D77E4B247AE95721BC9779FE422",1,"0198eced-51e9-7e98-8320-4f713cae0a8f","0198c493-061b-72b6-9f09-7b914e79ecc0","2025-08-27_15h26.25.161",NA,NA,320.5435,320.5435,320.5435,320.8842,NA,NA,NA,NA,NA,NA,NA,TRUE,1,2.7285,317.5301,320.5433,0,76,76,11,1,10,32,NA,NA,NA,NA,NA,1,77,"likert"
"46C36D77E4B247AE95721BC9779FE422",1,"0198eced-51e9-7e98-8320-4f713cae0a8f","0198c493-061b-72b6-9f09-7b914e79ecc0","2025-08-27_15h26.25.161",NA,NA,323.8825,323.8826,323.8826,324.2416,NA,NA,NA,NA,NA,NA,NA,TRUE,1,2.3588,320.8849,323.8823,0,77,77,49,1,40,33,NA,NA,NA,NA,NA,1,78,"likert"
"46C36D77E4B247AE95721BC9779FE422",1,"0198eced-51e9-7e98-8320-4f713cae0a8f","0198c493-061b-72b6-9f09-7b914e79ecc0","2025-08-27_15h26.25.161",NA,NA,327.2387,327.2387,327.2387,327.5796,NA,NA,NA,NA,NA,NA,NA,TRUE,1,2.458,324.2428,327.2385,0,78,78,82,1,95,47,NA,NA,NA,NA,NA,1,79,"likert"
"46C36D77E4B247AE95721BC9779FE422",1,"0198eced-51e9-7e98-8320-4f713cae0a8f","0198c493-061b-72b6-9f09-7b914e79ecc0","2025-08-27_15h26.25.161",NA,NA,330.5773,330.5773,330.5773,330.9361,NA,NA,NA,NA,NA,NA,NA,TRUE,1,1.3026,327.5804,330.5772,0,79,79,66,1,60,29,NA,NA,NA,NA,NA,1,80,"likert"
"46C36D77E4B247AE95721BC9779FE422",1,"0198eced-51e9-7e98-8320-4f713cae0a8f","0198c493-061b-72b6-9f09-7b914e79ecc0","2025-08-27_15h26.25.161",NA,NA,333.933,333.933,333.933,334.292,NA,NA,NA,NA,NA,NA,NA,TRUE,1,1.5749,330.9367,333.9329,0,80,80,73,1,90,30,NA,NA,NA,NA,NA,1,81,"likert"
"46C36D77E4B247AE95721BC9779FE422",1,"0198eced-51e9-7e98-8320-4f713cae0a8f","0198c493-061b-72b6-9f09-7b914e79ecc0","2025-08-27_15h26.25.161",NA,NA,337.29,337.29,337.29,337.6301,NA,NA,NA,NA,NA,NA,NA,TRUE,1,1.2755,334.2927,337.2898,0,81,81,53,1,40,54,NA,NA,NA,NA,NA,1,82,"likert"
"46C36D77E4B247AE95721BC9779FE422",1,"0198eced-51e9-7e98-8320-4f713cae0a8f","0198c493-061b-72b6-9f09-7b914e79ecc0","2025-08-27_15h26.25.161",NA,NA,340.6271,340.6271,340.6271,340.986,NA,NA,NA,NA,NA,NA,NA,TRUE,1,1.5301,337.6308,340.627,0,82,82,83,1,95,54,NA,NA,NA,NA,NA,1,83,"likert"
"46C36D77E4B247AE95721BC9779FE422",1,"0198eced-51e9-7e98-8320-4f713cae0a8f","0198c493-061b-72b6-9f09-7b914e79ecc0","2025-08-27_15h26.25.161",NA,NA,343.9842,343.9842,343.9842,344.3432,NA,NA,NA,NA,NA,NA,NA,TRUE,1,1.3909,340.9867,343.9841,0,83,83,25,1,21,27,NA,NA,NA,NA,NA,1,84,"likert"
"46C36D77E4B247AE95721BC9779FE422",1,"0198eced-51e9-7e98-8320-4f713cae0a8f","0198c493-061b-72b6-9f09-7b914e79ecc0","2025-08-27_15h26.25.161",NA,NA,347.3363,347.3363,347.3363,347.6947,NA,NA,NA,NA,NA,NA,NA,TRUE,2,1.3878,344.3442,347.3362,0,84,84,101,1,180,54,NA,NA,NA,NA,NA,1,85,"likert"
"46C36D77E4B247AE95721BC9779FE422",1,"0198eced-51e9-7e98-8320-4f713cae0a8f","0198c493-061b-72b6-9f09-7b914e79ecc0","2025-08-27_15h26.25.161",NA,NA,350.692,350.692,350.692,351.0329,NA,NA,NA,NA,NA,NA,NA,TRUE,1,1.1322,347.6955,350.6919,0,85,85,54,1,45,26,NA,NA,NA,NA,NA,1,86,"likert"
"46C36D77E4B247AE95721BC9779FE422",1,"0198eced-51e9-7e98-8320-4f713cae0a8f","0198c493-061b-72b6-9f09-7b914e79ecc0","2025-08-27_15h26.25.161",NA,NA,354.03,354.03,354.03,354.3888,NA,NA,NA,NA,NA,NA,NA,TRUE,1,1.432,351.0341,354.0299,0,86,86,86,1,100,38,NA,NA,NA,NA,NA,1,87,"likert"
"46C36D77E4B247AE95721BC9779FE422",1,"0198eced-51e9-7e98-8320-4f713cae0a8f","0198c493-061b-72b6-9f09-7b914e79ecc0","2025-08-27_15h26.25.161",NA,NA,357.3839,357.3839,357.3839,357.743,NA,NA,NA,NA,NA,NA,NA,TRUE,1,1.5319,354.3895,357.3838,0,87,87,23,1,14,39,NA,NA,NA,NA,NA,1,88,"likert"
"46C36D77E4B247AE95721BC9779FE422",1,"0198eced-51e9-7e98-8320-4f713cae0a8f","0198c493-061b-72b6-9f09-7b914e79ecc0","2025-08-27_15h26.25.161",NA,NA,360.7411,360.7411,360.7411,361.0821,NA,NA,NA,NA,NA,NA,NA,TRUE,1,2.179,357.7439,360.741,0,88,88,98,1,180,35,NA,NA,NA,NA,NA,1,89,"likert"
"46C36D77E4B247AE95721BC9779FE422",1,"0198eced-51e9-7e98-8320-4f713cae0a8f","0198c493-061b-72b6-9f09-7b914e79ecc0","2025-08-27_15h26.25.161",NA,NA,364.0787,364.0787,364.0787,364.4373,NA,NA,NA,NA,NA,NA,NA,TRUE,1,1.3126,361.0831,364.0785,0,89,89,45,1,30,30,NA,NA,NA,NA,NA,1,90,"likert"
"46C36D77E4B247AE95721BC9779FE422",1,"0198eced-51e9-7e98-8320-4f713cae0a8f","0198c493-061b-72b6-9f09-7b914e79ecc0","2025-08-27_15h26.25.161",NA,NA,367.4341,367.4342,367.4342,367.7923,NA,NA,NA,NA,NA,NA,NA,TRUE,1,1.1941,364.438,367.4341,0,90,90,57,1,45,35,NA,NA,NA,NA,NA,1,91,"likert"
"46C36D77E4B247AE95721BC9779FE422",1,"0198eced-51e9-7e98-8320-4f713cae0a8f","0198c493-061b-72b6-9f09-7b914e79ecc0","2025-08-27_15h26.25.161",NA,NA,370.7897,370.7897,370.7897,371.1308,NA,NA,NA,NA,NA,NA,NA,TRUE,1,1.0292,367.7931,370.7896,0,91,91,14,1,12,28,NA,NA,NA,NA,NA,1,92,"likert"
"46C36D77E4B247AE95721BC9779FE422",1,"0198eced-51e9-7e98-8320-4f713cae0a8f","0198c493-061b-72b6-9f09-7b914e79ecc0","2025-08-27_15h26.25.161",NA,NA,374.1281,374.1281,374.1281,374.4869,NA,NA,NA,NA,NA,NA,NA,TRUE,2,1.4679,371.1318,374.128,0,92,92,10,1,10,30,NA,NA,NA,NA,NA,1,93,"likert"
"46C36D77E4B247AE95721BC9779FE422",1,"0198eced-51e9-7e98-8320-4f713cae0a8f","0198c493-061b-72b6-9f09-7b914e79ecc0","2025-08-27_15h26.25.161",NA,NA,377.4851,377.4851,377.4852,377.844,NA,NA,NA,NA,NA,NA,NA,TRUE,1,0.9527,374.4877,377.485,0,93,93,4,1,7,32,NA,NA,NA,NA,NA,1,94,"likert"
"46C36D77E4B247AE95721BC9779FE422",1,"0198eced-51e9-7e98-8320-4f713cae0a8f","0198c493-061b-72b6-9f09-7b914e79ecc0","2025-08-27_15h26.25.161",NA,NA,380.8357,380.8358,380.8358,381.1949,NA,NA,NA,NA,NA,NA,NA,TRUE,2,1.6206,377.8448,380.8357,0,94,94,76,1,90,46,NA,NA,NA,NA,NA,1,95,"likert"
"46C36D77E4B247AE95721BC9779FE422",1,"0198eced-51e9-7e98-8320-4f713cae0a8f","0198c493-061b-72b6-9f09-7b914e79ecc0","2025-08-27_15h26.25.161",NA,NA,384.1925,384.1926,384.1926,384.5333,NA,NA,NA,NA,NA,NA,NA,TRUE,1,1.7199,381.1963,384.1924,0,95,95,106,1,200,47,NA,NA,NA,NA,NA,1,96,"likert"
"46C36D77E4B247AE95721BC9779FE422",1,"0198eced-51e9-7e98-8320-4f713cae0a8f","0198c493-061b-72b6-9f09-7b914e79ecc0","2025-08-27_15h26.25.161",NA,NA,387.5303,387.5304,387.5304,387.8886,NA,NA,NA,NA,NA,NA,NA,TRUE,2,2.1844,384.5348,387.5302,0,96,96,77,1,90,54,NA,NA,NA,NA,NA,1,97,"likert"
"46C36D77E4B247AE95721BC9779FE422",1,"0198eced-51e9-7e98-8320-4f713cae0a8f","0198c493-061b-72b6-9f09-7b914e79ecc0","2025-08-27_15h26.25.161",NA,NA,390.8867,390.8867,390.8867,391.2453,NA,NA,NA,NA,NA,NA,NA,TRUE,4,2.1757,387.8893,390.8866,0,97,97,5,1,7,35,NA,NA,NA,NA,NA,1,98,"likert"
"46C36D77E4B247AE95721BC9779FE422",1,"0198eced-51e9-7e98-8320-4f713cae0a8f","0198c493-061b-72b6-9f09-7b914e79ecc0","2025-08-27_15h26.25.161",NA,NA,394.2425,394.2425,394.2425,394.5835,NA,NA,NA,NA,NA,NA,NA,TRUE,2,2.2758,391.2461,394.2424,0,98,98,88,1,100,46,NA,NA,NA,NA,NA,1,99,"likert"
"46C36D77E4B247AE95721BC9779FE422",1,"0198eced-51e9-7e98-8320-4f713cae0a8f","0198c493-061b-72b6-9f09-7b914e79ecc0","2025-08-27_15h26.25.161",NA,NA,397.5815,397.8328,397.8328,397.94,NA,NA,NA,NA,NA,NA,NA,FALSE,NA,NA,394.5841,397.5815,0,99,99,55,1,45,29,NA,NA,NA,NA,NA,1,100,"likert"
"46C36D77E4B247AE95721BC9779FE422",1,"0198eced-51e9-7e98-8320-4f713cae0a8f","0198c493-061b-72b6-9f09-7b914e79ecc0","2025-08-27_15h26.25.161",NA,NA,400.9368,400.9368,400.9368,401.2777,NA,NA,NA,NA,NA,NA,NA,TRUE,1,1.5266,397.9407,400.9367,0,100,100,34,1,25,35,NA,NA,NA,NA,NA,1,101,"likert"
"46C36D77E4B247AE95721BC9779FE422",1,"0198eced-51e9-7e98-8320-4f713cae0a8f","0198c493-061b-72b6-9f09-7b914e79ecc0","2025-08-27_15h26.25.161",NA,NA,404.2928,404.2929,404.2929,404.6339,NA,NA,NA,NA,NA,NA,NA,TRUE,1,1.3007,401.2786,404.2928,0,101,101,78,1,95,31,NA,NA,NA,NA,NA,1,102,"likert"
"46C36D77E4B247AE95721BC9779FE422",1,"0198eced-51e9-7e98-8320-4f713cae0a8f","0198c493-061b-72b6-9f09-7b914e79ecc0","2025-08-27_15h26.25.161",NA,NA,407.6304,407.6305,407.6305,407.9893,NA,NA,NA,NA,NA,NA,NA,TRUE,4,1.5341,404.6345,407.6303,0,102,102,89,1,100,54,NA,NA,NA,NA,NA,1,103,"likert"
"46C36D77E4B247AE95721BC9779FE422",1,"0198eced-51e9-7e98-8320-4f713cae0a8f","0198c493-061b-72b6-9f09-7b914e79ecc0","2025-08-27_15h26.25.161",NA,NA,410.9799,410.9799,410.9799,411.3387,NA,NA,NA,NA,NA,NA,NA,TRUE,1,1.0484,407.99,410.9798,0,103,103,7,1,10,26,NA,NA,NA,NA,NA,1,104,"likert"
"46C36D77E4B247AE95721BC9779FE422",1,"0198eced-51e9-7e98-8320-4f713cae0a8f","0198c493-061b-72b6-9f09-7b914e79ecc0","2025-08-27_15h26.25.161",NA,NA,414.3332,414.3332,414.3332,414.692,NA,NA,NA,NA,NA,NA,NA,TRUE,1,0.997,411.3393,414.3331,0,104,104,42,1,30,26,NA,NA,NA,NA,NA,1,105,"likert"
"46C36D77E4B247AE95721BC9779FE422",1,"0198eced-51e9-7e98-8320-4f713cae0a8f","0198c493-061b-72b6-9f09-7b914e79ecc0","2025-08-27_15h26.25.161",NA,NA,417.6874,417.6874,417.6874,418.0286,NA,NA,NA,NA,NA,NA,NA,TRUE,4,1.5936,414.6931,417.6874,0,105,105,70,1,60,47,NA,NA,NA,NA,NA,1,106,"likert"
"46C36D77E4B247AE95721BC9779FE422",1,"0198eced-51e9-7e98-8320-4f713cae0a8f","0198c493-061b-72b6-9f09-7b914e79ecc0","2025-08-27_15h26.25.161",NA,NA,421.0437,421.0437,421.0438,421.3845,NA,NA,NA,NA,NA,NA,NA,TRUE,1,1.5217,418.0299,421.0436,0,106,106,27,1,21,30,NA,NA,NA,NA,NA,1,107,"likert"
"46C36D77E4B247AE95721BC9779FE422",1,"0198eced-51e9-7e98-8320-4f713cae0a8f","0198c493-061b-72b6-9f09-7b914e79ecc0","2025-08-27_15h26.25.161",NA,NA,424.3819,424.382,424.382,424.7396,NA,NA,NA,NA,NA,NA,NA,TRUE,1,1.4155,421.3853,424.3817,0,107,107,62,1,50,35,NA,NA,NA,NA,NA,1,108,"likert"
"46C36D77E4B247AE95721BC9779FE422",1,"0198eced-51e9-7e98-8320-4f713cae0a8f","0198c493-061b-72b6-9f09-7b914e79ecc0","2025-08-27_15h26.25.161",NA,NA,430.6808,430.6808,430.6808,431.0218,NA,NA,NA,NA,NA,NA,NA,TRUE,1,1.5992,427.6966,430.6807,NA,NA,NA,NA,NA,40,27,0,0,0,48,1,2,1,"likert"
"46C36D77E4B247AE95721BC9779FE422",1,"0198eced-51e9-7e98-8320-4f713cae0a8f","0198c493-061b-72b6-9f09-7b914e79ecc0","2025-08-27_15h26.25.161",NA,NA,434.0379,434.038,434.038,434.3789,NA,NA,NA,NA,NA,NA,NA,TRUE,4,1.6321,431.0226,434.0378,NA,NA,NA,NA,NA,50,54,0,1,1,65,1,2,2,"likert"
"46C36D77E4B247AE95721BC9779FE422",1,"0198eced-51e9-7e98-8320-4f713cae0a8f","0198c493-061b-72b6-9f09-7b914e79ecc0","2025-08-27_15h26.25.161",NA,NA,437.3766,437.3767,437.3767,437.7349,NA,NA,NA,NA,NA,NA,NA,TRUE,1,1.0439,434.3795,437.3766,NA,NA,NA,NA,NA,30,26,0,2,2,42,1,2,3,"likert"
"46C36D77E4B247AE95721BC9779FE422",1,"0198eced-51e9-7e98-8320-4f713cae0a8f","0198c493-061b-72b6-9f09-7b914e79ecc0","2025-08-27_15h26.25.161",NA,NA,440.7323,440.7324,440.7324,441.0727,NA,NA,NA,NA,NA,NA,NA,TRUE,1,1.3461,437.7356,440.7322,NA,NA,NA,NA,NA,28,26,0,3,3,36,1,2,4,"likert"
"46C36D77E4B247AE95721BC9779FE422",1,"0198eced-51e9-7e98-8320-4f713cae0a8f","0198c493-061b-72b6-9f09-7b914e79ecc0","2025-08-27_15h26.25.161",NA,NA,444.08,444.0801,444.0801,444.4382,NA,NA,NA,NA,NA,NA,NA,TRUE,3,2.0848,441.0739,444.08,NA,NA,NA,NA,NA,100,46,0,4,4,88,1,2,5,"likert"
"46C36D77E4B247AE95721BC9779FE422",1,"0198eced-51e9-7e98-8320-4f713cae0a8f","0198c493-061b-72b6-9f09-7b914e79ecc0","2025-08-27_15h26.25.161",NA,NA,447.4365,447.4365,447.4365,447.7774,NA,NA,NA,NA,NA,NA,NA,TRUE,2,1.2536,444.4389,447.4363,NA,NA,NA,NA,NA,14,35,0,5,5,22,1,2,6,"likert"
"46C36D77E4B247AE95721BC9779FE422",1,"0198eced-51e9-7e98-8320-4f713cae0a8f","0198c493-061b-72b6-9f09-7b914e79ecc0","2025-08-27_15h26.25.161",NA,NA,450.7734,450.7735,450.7735,451.1327,NA,NA,NA,NA,NA,NA,NA,TRUE,1,1.4216,447.7784,450.7734,NA,NA,NA,NA,NA,180,35,0,6,6,98,1,2,7,"likert"
"46C36D77E4B247AE95721BC9779FE422",1,"0198eced-51e9-7e98-8320-4f713cae0a8f","0198c493-061b-72b6-9f09-7b914e79ecc0","2025-08-27_15h26.25.161",NA,NA,454.13,454.13,454.13,454.4707,NA,NA,NA,NA,NA,NA,NA,TRUE,1,1.3324,451.1337,454.1298,NA,NA,NA,NA,NA,21,26,0,7,7,24,1,2,8,"likert"
"46C36D77E4B247AE95721BC9779FE422",1,"0198eced-51e9-7e98-8320-4f713cae0a8f","0198c493-061b-72b6-9f09-7b914e79ecc0","2025-08-27_15h26.25.161",NA,NA,457.4848,457.4849,457.4849,457.8258,NA,NA,NA,NA,NA,NA,NA,TRUE,2,1.9947,454.4717,457.4847,NA,NA,NA,NA,NA,28,39,0,8,8,40,1,2,9,"likert"
"46C36D77E4B247AE95721BC9779FE422",1,"0198eced-51e9-7e98-8320-4f713cae0a8f","0198c493-061b-72b6-9f09-7b914e79ecc0","2025-08-27_15h26.25.161",NA,NA,460.8211,460.8211,460.8211,461.18,NA,NA,NA,NA,NA,NA,NA,TRUE,1,1.3227,457.8265,460.8209,NA,NA,NA,NA,NA,50,30,0,9,9,61,1,2,10,"likert"
"46C36D77E4B247AE95721BC9779FE422",1,"0198eced-51e9-7e98-8320-4f713cae0a8f","0198c493-061b-72b6-9f09-7b914e79ecc0","2025-08-27_15h26.25.161",NA,NA,464.1776,464.1777,464.1777,464.5365,NA,NA,NA,NA,NA,NA,NA,TRUE,1,1.5118,461.1807,464.1776,NA,NA,NA,NA,NA,21,30,0,10,10,27,1,2,11,"likert"
"46C36D77E4B247AE95721BC9779FE422",1,"0198eced-51e9-7e98-8320-4f713cae0a8f","0198c493-061b-72b6-9f09-7b914e79ecc0","2025-08-27_15h26.25.161",NA,NA,467.5338,467.5338,467.5338,467.8749,NA,NA,NA,NA,NA,NA,NA,TRUE,2,1.7948,464.5374,467.5337,NA,NA,NA,NA,NA,40,40,0,11,11,51,1,2,12,"likert"
"46C36D77E4B247AE95721BC9779FE422",1,"0198eced-51e9-7e98-8320-4f713cae0a8f","0198c493-061b-72b6-9f09-7b914e79ecc0","2025-08-27_15h26.25.161",NA,NA,470.873,470.873,470.8731,471.2327,NA,NA,NA,NA,NA,NA,NA,TRUE,1,1.1654,467.8758,470.8729,NA,NA,NA,NA,NA,10,27,0,12,12,8,1,2,13,"likert"
"46C36D77E4B247AE95721BC9779FE422",1,"0198eced-51e9-7e98-8320-4f713cae0a8f","0198c493-061b-72b6-9f09-7b914e79ecc0","2025-08-27_15h26.25.161",NA,NA,474.2294,474.2294,474.2294,474.5874,NA,NA,NA,NA,NA,NA,NA,TRUE,2,1.9215,471.2334,474.2294,NA,NA,NA,NA,NA,10,30,0,13,13,10,1,2,14,"likert"
"46C36D77E4B247AE95721BC9779FE422",1,"0198eced-51e9-7e98-8320-4f713cae0a8f","0198c493-061b-72b6-9f09-7b914e79ecc0","2025-08-27_15h26.25.161",NA,NA,477.5816,477.5816,477.5816,477.9224,NA,NA,NA,NA,NA,NA,NA,TRUE,1,1.457,474.588,477.5815,NA,NA,NA,NA,NA,100,26,0,14,14,84,1,2,15,"likert"
"46C36D77E4B247AE95721BC9779FE422",1,"0198eced-51e9-7e98-8320-4f713cae0a8f","0198c493-061b-72b6-9f09-7b914e79ecc0","2025-08-27_15h26.25.161",NA,NA,480.9207,480.9207,480.9207,481.2795,NA,NA,NA,NA,NA,NA,NA,TRUE,4,2.1683,477.923,480.9206,NA,NA,NA,NA,NA,90,46,0,15,15,76,1,2,16,"likert"
"46C36D77E4B247AE95721BC9779FE422",1,"0198eced-51e9-7e98-8320-4f713cae0a8f","0198c493-061b-72b6-9f09-7b914e79ecc0","2025-08-27_15h26.25.161",NA,NA,484.2776,484.2776,484.2776,484.6365,NA,NA,NA,NA,NA,NA,NA,TRUE,2,2.0482,481.2803,484.2775,NA,NA,NA,NA,NA,150,54,0,16,16,95,1,2,17,"likert"
"46C36D77E4B247AE95721BC9779FE422",1,"0198eced-51e9-7e98-8320-4f713cae0a8f","0198c493-061b-72b6-9f09-7b914e79ecc0","2025-08-27_15h26.25.161",NA,NA,487.634,487.6341,487.6341,487.9751,NA,NA,NA,NA,NA,NA,NA,TRUE,1,1.2293,484.6372,487.6339,NA,NA,NA,NA,NA,28,35,0,17,17,39,1,2,18,"likert"
"46C36D77E4B247AE95721BC9779FE422",1,"0198eced-51e9-7e98-8320-4f713cae0a8f","0198c493-061b-72b6-9f09-7b914e79ecc0","2025-08-27_15h26.25.161",NA,NA,490.9727,490.9727,490.9728,491.3317,NA,NA,NA,NA,NA,NA,NA,TRUE,2,1.5141,487.9759,490.9727,NA,NA,NA,NA,NA,50,40,0,18,18,63,1,2,19,"likert"
"46C36D77E4B247AE95721BC9779FE422",1,"0198eced-51e9-7e98-8320-4f713cae0a8f","0198c493-061b-72b6-9f09-7b914e79ecc0","2025-08-27_15h26.25.161",NA,NA,494.328,494.328,494.328,494.6866,NA,NA,NA,NA,NA,NA,NA,TRUE,2,1.5059,491.3326,494.3279,NA,NA,NA,NA,NA,95,47,0,19,19,82,1,2,20,"likert"
"46C36D77E4B247AE95721BC9779FE422",1,"0198eced-51e9-7e98-8320-4f713cae0a8f","0198c493-061b-72b6-9f09-7b914e79ecc0","2025-08-27_15h26.25.161",NA,NA,497.6825,497.6825,497.6825,498.0234,NA,NA,NA,NA,NA,NA,NA,TRUE,1,1.5219,494.6873,497.6824,NA,NA,NA,NA,NA,7,25,0,20,20,0,1,2,21,"likert"
"46C36D77E4B247AE95721BC9779FE422",1,"0198eced-51e9-7e98-8320-4f713cae0a8f","0198c493-061b-72b6-9f09-7b914e79ecc0","2025-08-27_15h26.25.161",NA,NA,501.0209,501.0209,501.0209,501.3797,NA,NA,NA,NA,NA,NA,NA,TRUE,2,1.4323,498.0243,501.0209,NA,NA,NA,NA,NA,28,46,0,21,21,41,1,2,22,"likert"
"46C36D77E4B247AE95721BC9779FE422",1,"0198eced-51e9-7e98-8320-4f713cae0a8f","0198c493-061b-72b6-9f09-7b914e79ecc0","2025-08-27_15h26.25.161",NA,NA,504.3771,504.3771,504.3771,504.7358,NA,NA,NA,NA,NA,NA,NA,TRUE,1,1.1214,501.3804,504.377,NA,NA,NA,NA,NA,14,25,0,22,22,18,1,2,23,"likert"
"46C36D77E4B247AE95721BC9779FE422",1,"0198eced-51e9-7e98-8320-4f713cae0a8f","0198c493-061b-72b6-9f09-7b914e79ecc0","2025-08-27_15h26.25.161",NA,NA,507.73,507.73,507.73,508.0712,NA,NA,NA,NA,NA,NA,NA,TRUE,4,1.2286,504.7366,507.7299,NA,NA,NA,NA,NA,25,46,0,23,23,35,1,2,24,"likert"
"46C36D77E4B247AE95721BC9779FE422",1,"0198eced-51e9-7e98-8320-4f713cae0a8f","0198c493-061b-72b6-9f09-7b914e79ecc0","2025-08-27_15h26.25.161",NA,NA,511.0859,511.0859,511.086,511.4269,NA,NA,NA,NA,NA,NA,NA,TRUE,4,1.8823,508.0718,511.0858,NA,NA,NA,NA,NA,10,32,0,24,24,11,1,2,25,"likert"
"46C36D77E4B247AE95721BC9779FE422",1,"0198eced-51e9-7e98-8320-4f713cae0a8f","0198c493-061b-72b6-9f09-7b914e79ecc0","2025-08-27_15h26.25.161",NA,NA,514.4252,514.4252,514.4252,514.7834,NA,NA,NA,NA,NA,NA,NA,TRUE,1,1.1161,511.4279,514.425,NA,NA,NA,NA,NA,150,33,0,25,25,91,1,2,26,"likert"
"46C36D77E4B247AE95721BC9779FE422",1,"0198eced-51e9-7e98-8320-4f713cae0a8f","0198c493-061b-72b6-9f09-7b914e79ecc0","2025-08-27_15h26.25.161",NA,NA,517.7817,517.7817,517.7817,518.1226,NA,NA,NA,NA,NA,NA,NA,TRUE,1,1.4152,514.7845,517.7815,NA,NA,NA,NA,NA,28,32,0,26,26,38,1,2,27,"likert"
"46C36D77E4B247AE95721BC9779FE422",1,"0198eced-51e9-7e98-8320-4f713cae0a8f","0198c493-061b-72b6-9f09-7b914e79ecc0","2025-08-27_15h26.25.161",NA,NA,521.1381,521.1383,521.1383,521.4792,NA,NA,NA,NA,NA,NA,NA,TRUE,1,1.6471,518.1236,521.1381,NA,NA,NA,NA,NA,12,33,0,27,27,16,1,2,28,"likert"
"46C36D77E4B247AE95721BC9779FE422",1,"0198eced-51e9-7e98-8320-4f713cae0a8f","0198c493-061b-72b6-9f09-7b914e79ecc0","2025-08-27_15h26.25.161",NA,NA,524.4767,524.4767,524.4767,524.8357,NA,NA,NA,NA,NA,NA,NA,TRUE,2,2.0089,521.4805,524.4766,NA,NA,NA,NA,NA,21,38,0,28,28,29,1,2,29,"likert"
"46C36D77E4B247AE95721BC9779FE422",1,"0198eced-51e9-7e98-8320-4f713cae0a8f","0198c493-061b-72b6-9f09-7b914e79ecc0","2025-08-27_15h26.25.161",NA,NA,527.8333,527.8334,527.8334,528.1745,NA,NA,NA,NA,NA,NA,NA,TRUE,1,1.6134,524.8366,527.8333,NA,NA,NA,NA,NA,200,47,0,29,29,106,1,2,30,"likert"
"46C36D77E4B247AE95721BC9779FE422",1,"0198eced-51e9-7e98-8320-4f713cae0a8f","0198c493-061b-72b6-9f09-7b914e79ecc0","2025-08-27_15h26.25.161",NA,NA,531.1709,531.1709,531.1709,531.5297,NA,NA,NA,NA,NA,NA,NA,TRUE,1,1.2553,528.1755,531.1707,NA,NA,NA,NA,NA,90,30,0,30,30,73,1,2,31,"likert"
"46C36D77E4B247AE95721BC9779FE422",1,"0198eced-51e9-7e98-8320-4f713cae0a8f","0198c493-061b-72b6-9f09-7b914e79ecc0","2025-08-27_15h26.25.161",NA,NA,534.527,534.527,534.527,534.8859,NA,NA,NA,NA,NA,NA,NA,TRUE,2,1.7054,531.5307,534.5269,NA,NA,NA,NA,NA,7,35,0,31,31,5,1,2,32,"likert"
"46C36D77E4B247AE95721BC9779FE422",1,"0198eced-51e9-7e98-8320-4f713cae0a8f","0198c493-061b-72b6-9f09-7b914e79ecc0","2025-08-27_15h26.25.161",NA,NA,537.8825,537.8825,537.8825,538.2232,NA,NA,NA,NA,NA,NA,NA,TRUE,1,1.5598,534.8869,537.8824,NA,NA,NA,NA,NA,10,25,0,32,32,6,1,2,33,"likert"
"46C36D77E4B247AE95721BC9779FE422",1,"0198eced-51e9-7e98-8320-4f713cae0a8f","0198c493-061b-72b6-9f09-7b914e79ecc0","2025-08-27_15h26.25.161",NA,NA,541.2327,541.2327,541.2327,541.5736,NA,NA,NA,NA,NA,NA,NA,TRUE,2,1.7523,538.2239,541.2325,NA,NA,NA,NA,NA,90,40,0,33,33,75,1,2,34,"likert"
"46C36D77E4B247AE95721BC9779FE422",1,"0198eced-51e9-7e98-8320-4f713cae0a8f","0198c493-061b-72b6-9f09-7b914e79ecc0","2025-08-27_15h26.25.161",NA,NA,544.5712,544.5712,544.5712,544.9291,NA,NA,NA,NA,NA,NA,NA,TRUE,5,1.9351,541.5743,544.571,NA,NA,NA,NA,NA,95,54,0,34,34,83,1,2,35,"likert"
"46C36D77E4B247AE95721BC9779FE422",1,"0198eced-51e9-7e98-8320-4f713cae0a8f","0198c493-061b-72b6-9f09-7b914e79ecc0","2025-08-27_15h26.25.161",NA,NA,547.9279,547.9279,547.9279,548.286,NA,NA,NA,NA,NA,NA,NA,TRUE,1,1.2718,544.9302,547.9278,NA,NA,NA,NA,NA,45,29,0,35,35,55,1,2,36,"likert"
"46C36D77E4B247AE95721BC9779FE422",1,"0198eced-51e9-7e98-8320-4f713cae0a8f","0198c493-061b-72b6-9f09-7b914e79ecc0","2025-08-27_15h26.25.161",NA,NA,551.2839,551.2839,551.2839,551.6245,NA,NA,NA,NA,NA,NA,NA,TRUE,1,1.2032,548.2868,551.2837,NA,NA,NA,NA,NA,180,31,0,36,36,97,1,2,37,"likert"
"46C36D77E4B247AE95721BC9779FE422",1,"0198eced-51e9-7e98-8320-4f713cae0a8f","0198c493-061b-72b6-9f09-7b914e79ecc0","2025-08-27_15h26.25.161",NA,NA,554.6219,554.622,554.622,554.9812,NA,NA,NA,NA,NA,NA,NA,TRUE,1,1.2535,551.6252,554.6219,NA,NA,NA,NA,NA,100,31,0,37,37,85,1,2,38,"likert"
"46C36D77E4B247AE95721BC9779FE422",1,"0198eced-51e9-7e98-8320-4f713cae0a8f","0198c493-061b-72b6-9f09-7b914e79ecc0","2025-08-27_15h26.25.161",NA,NA,557.9787,557.9788,557.9788,558.3374,NA,NA,NA,NA,NA,NA,NA,TRUE,1,1.3969,554.9822,557.9786,NA,NA,NA,NA,NA,28,28,0,38,38,37,1,2,39,"likert"
"46C36D77E4B247AE95721BC9779FE422",1,"0198eced-51e9-7e98-8320-4f713cae0a8f","0198c493-061b-72b6-9f09-7b914e79ecc0","2025-08-27_15h26.25.161",NA,NA,561.3345,561.3346,561.3346,561.6755,NA,NA,NA,NA,NA,NA,NA,TRUE,5,2.0636,558.338,561.3345,NA,NA,NA,NA,NA,14,39,0,39,39,23,1,2,40,"likert"
"46C36D77E4B247AE95721BC9779FE422",1,"0198eced-51e9-7e98-8320-4f713cae0a8f","0198c493-061b-72b6-9f09-7b914e79ecc0","2025-08-27_15h26.25.161",NA,NA,564.6735,564.6736,564.6736,565.0322,NA,NA,NA,NA,NA,NA,NA,TRUE,2,1.565,561.6762,564.6735,NA,NA,NA,NA,NA,200,54,0,40,40,107,1,2,41,"likert"
"46C36D77E4B247AE95721BC9779FE422",1,"0198eced-51e9-7e98-8320-4f713cae0a8f","0198c493-061b-72b6-9f09-7b914e79ecc0","2025-08-27_15h26.25.161",NA,NA,568.0297,568.0297,568.0297,568.3707,NA,NA,NA,NA,NA,NA,NA,TRUE,1,1.6486,565.033,568.0296,NA,NA,NA,NA,NA,30,32,0,41,41,46,1,2,42,"likert"
"46C36D77E4B247AE95721BC9779FE422",1,"0198eced-51e9-7e98-8320-4f713cae0a8f","0198c493-061b-72b6-9f09-7b914e79ecc0","2025-08-27_15h26.25.161",NA,NA,571.3859,571.386,571.386,571.7261,NA,NA,NA,NA,NA,NA,NA,TRUE,1,1.2994,568.3713,571.3859,NA,NA,NA,NA,NA,95,35,0,42,42,80,1,2,43,"likert"
"46C36D77E4B247AE95721BC9779FE422",1,"0198eced-51e9-7e98-8320-4f713cae0a8f","0198c493-061b-72b6-9f09-7b914e79ecc0","2025-08-27_15h26.25.161",NA,NA,574.7215,574.7216,574.7216,575.0805,NA,NA,NA,NA,NA,NA,NA,TRUE,2,1.7103,571.7267,574.7215,NA,NA,NA,NA,NA,100,38,0,43,43,86,1,2,44,"likert"
"46C36D77E4B247AE95721BC9779FE422",1,"0198eced-51e9-7e98-8320-4f713cae0a8f","0198c493-061b-72b6-9f09-7b914e79ecc0","2025-08-27_15h26.25.161",NA,NA,578.077,578.077,578.077,578.4356,NA,NA,NA,NA,NA,NA,NA,TRUE,1,1.3504,575.0812,578.0769,NA,NA,NA,NA,NA,150,31,0,44,44,90,1,2,45,"likert"
"46C36D77E4B247AE95721BC9779FE422",1,"0198eced-51e9-7e98-8320-4f713cae0a8f","0198c493-061b-72b6-9f09-7b914e79ecc0","2025-08-27_15h26.25.161",NA,NA,581.4331,581.4332,581.4332,581.7729,NA,NA,NA,NA,NA,NA,NA,TRUE,5,1.9008,578.4364,581.433,NA,NA,NA,NA,NA,60,40,0,45,45,69,1,2,46,"likert"
"46C36D77E4B247AE95721BC9779FE422",1,"0198eced-51e9-7e98-8320-4f713cae0a8f","0198c493-061b-72b6-9f09-7b914e79ecc0","2025-08-27_15h26.25.161",NA,NA,584.7856,584.7856,584.7856,585.1266,NA,NA,NA,NA,NA,NA,NA,TRUE,1,2.3878,581.7739,584.7855,NA,NA,NA,NA,NA,150,40,0,46,46,93,1,2,47,"likert"
"46C36D77E4B247AE95721BC9779FE422",1,"0198eced-51e9-7e98-8320-4f713cae0a8f","0198c493-061b-72b6-9f09-7b914e79ecc0","2025-08-27_15h26.25.161",NA,NA,588.1237,588.1237,588.1237,588.4821,NA,NA,NA,NA,NA,NA,NA,TRUE,1,2.035,585.1273,588.1235,NA,NA,NA,NA,NA,25,33,0,47,47,33,1,2,48,"likert"
"46C36D77E4B247AE95721BC9779FE422",1,"0198eced-51e9-7e98-8320-4f713cae0a8f","0198c493-061b-72b6-9f09-7b914e79ecc0","2025-08-27_15h26.25.161",NA,NA,591.4802,591.4802,591.4802,591.8212,NA,NA,NA,NA,NA,NA,NA,TRUE,1,0.9829,588.4829,591.4801,NA,NA,NA,NA,NA,10,29,0,48,48,9,1,2,49,"likert"
"46C36D77E4B247AE95721BC9779FE422",1,"0198eced-51e9-7e98-8320-4f713cae0a8f","0198c493-061b-72b6-9f09-7b914e79ecc0","2025-08-27_15h26.25.161",NA,NA,594.8362,594.8362,594.8362,595.1772,NA,NA,NA,NA,NA,NA,NA,TRUE,1,1.2904,591.822,594.8361,NA,NA,NA,NA,NA,14,28,0,49,49,20,1,2,50,"likert"
"46C36D77E4B247AE95721BC9779FE422",1,"0198eced-51e9-7e98-8320-4f713cae0a8f","0198c493-061b-72b6-9f09-7b914e79ecc0","2025-08-27_15h26.25.161",NA,NA,598.1748,598.1748,598.1748,598.5331,NA,NA,NA,NA,NA,NA,NA,TRUE,4,1.5377,595.1779,598.1746,NA,NA,NA,NA,NA,40,54,0,50,50,53,1,2,51,"likert"
"46C36D77E4B247AE95721BC9779FE422",1,"0198eced-51e9-7e98-8320-4f713cae0a8f","0198c493-061b-72b6-9f09-7b914e79ecc0","2025-08-27_15h26.25.161",NA,NA,601.53,601.53,601.53,601.871,NA,NA,NA,NA,NA,NA,NA,TRUE,1,1.2281,598.5339,601.5299,NA,NA,NA,NA,NA,30,27,0,51,51,43,1,2,52,"likert"
"46C36D77E4B247AE95721BC9779FE422",1,"0198eced-51e9-7e98-8320-4f713cae0a8f","0198c493-061b-72b6-9f09-7b914e79ecc0","2025-08-27_15h26.25.161",NA,NA,604.8826,604.8826,604.8827,605.2222,NA,NA,NA,NA,NA,NA,NA,TRUE,1,1.0216,601.8721,604.8825,NA,NA,NA,NA,NA,150,35,0,52,52,92,1,2,53,"likert"
"46C36D77E4B247AE95721BC9779FE422",1,"0198eced-51e9-7e98-8320-4f713cae0a8f","0198c493-061b-72b6-9f09-7b914e79ecc0","2025-08-27_15h26.25.161",NA,NA,608.2368,608.2368,608.2368,608.5773,NA,NA,NA,NA,NA,NA,NA,TRUE,1,1.0885,605.2228,608.2366,NA,NA,NA,NA,NA,60,35,0,53,53,68,1,2,54,"likert"
"46C36D77E4B247AE95721BC9779FE422",1,"0198eced-51e9-7e98-8320-4f713cae0a8f","0198c493-061b-72b6-9f09-7b914e79ecc0","2025-08-27_15h26.25.161",NA,NA,611.5739,611.5739,611.5739,611.9327,NA,NA,NA,NA,NA,NA,NA,TRUE,4,1.7564,608.5783,611.5738,NA,NA,NA,NA,NA,60,54,0,54,54,71,1,2,55,"likert"
"46C36D77E4B247AE95721BC9779FE422",1,"0198eced-51e9-7e98-8320-4f713cae0a8f","0198c493-061b-72b6-9f09-7b914e79ecc0","2025-08-27_15h26.25.161",NA,NA,614.93,614.93,614.93,615.271,NA,NA,NA,NA,NA,NA,NA,TRUE,1,1.4933,611.9333,614.9299,NA,NA,NA,NA,NA,14,32,0,55,55,21,1,2,56,"likert"
"46C36D77E4B247AE95721BC9779FE422",1,"0198eced-51e9-7e98-8320-4f713cae0a8f","0198c493-061b-72b6-9f09-7b914e79ecc0","2025-08-27_15h26.25.161",NA,NA,618.2855,618.2856,618.2856,618.6268,NA,NA,NA,NA,NA,NA,NA,TRUE,1,1.1721,615.2719,618.2854,NA,NA,NA,NA,NA,200,26,0,56,56,102,1,2,57,"likert"
"46C36D77E4B247AE95721BC9779FE422",1,"0198eced-51e9-7e98-8320-4f713cae0a8f","0198c493-061b-72b6-9f09-7b914e79ecc0","2025-08-27_15h26.25.161",NA,NA,621.6243,621.6243,621.6243,621.9829,NA,NA,NA,NA,NA,NA,NA,TRUE,1,1.6342,618.628,621.6241,NA,NA,NA,NA,NA,180,46,0,57,57,100,1,2,58,"likert"
"46C36D77E4B247AE95721BC9779FE422",1,"0198eced-51e9-7e98-8320-4f713cae0a8f","0198c493-061b-72b6-9f09-7b914e79ecc0","2025-08-27_15h26.25.161",NA,NA,624.9801,624.9801,624.9801,625.3212,NA,NA,NA,NA,NA,NA,NA,TRUE,4,2.2767,621.9835,624.98,NA,NA,NA,NA,NA,100,54,0,58,58,89,1,2,59,"likert"
"46C36D77E4B247AE95721BC9779FE422",1,"0198eced-51e9-7e98-8320-4f713cae0a8f","0198c493-061b-72b6-9f09-7b914e79ecc0","2025-08-27_15h26.25.161",NA,NA,628.3363,628.3364,628.3364,628.6768,NA,NA,NA,NA,NA,NA,NA,TRUE,1,1.294,625.322,628.3363,NA,NA,NA,NA,NA,12,25,0,59,59,12,1,2,60,"likert"
"46C36D77E4B247AE95721BC9779FE422",1,"0198eced-51e9-7e98-8320-4f713cae0a8f","0198c493-061b-72b6-9f09-7b914e79ecc0","2025-08-27_15h26.25.161",NA,NA,631.6738,631.6739,631.6739,632.0328,NA,NA,NA,NA,NA,NA,NA,TRUE,1,1.4318,628.6777,631.6738,NA,NA,NA,NA,NA,95,33,0,60,60,79,1,2,61,"likert"
"46C36D77E4B247AE95721BC9779FE422",1,"0198eced-51e9-7e98-8320-4f713cae0a8f","0198c493-061b-72b6-9f09-7b914e79ecc0","2025-08-27_15h26.25.161",NA,NA,635.0295,635.0295,635.0295,635.3881,NA,NA,NA,NA,NA,NA,NA,TRUE,2,2.1884,632.0335,635.0293,NA,NA,NA,NA,NA,30,38,0,61,61,47,1,2,62,"likert"
"46C36D77E4B247AE95721BC9779FE422",1,"0198eced-51e9-7e98-8320-4f713cae0a8f","0198c493-061b-72b6-9f09-7b914e79ecc0","2025-08-27_15h26.25.161",NA,NA,638.3803,638.3803,638.3803,638.7213,NA,NA,NA,NA,NA,NA,NA,TRUE,1,1.525,635.3887,638.3802,NA,NA,NA,NA,NA,100,39,0,62,62,87,1,2,63,"likert"
"46C36D77E4B247AE95721BC9779FE422",1,"0198eced-51e9-7e98-8320-4f713cae0a8f","0198c493-061b-72b6-9f09-7b914e79ecc0","2025-08-27_15h26.25.161",NA,NA,641.737,641.7371,641.7371,642.078,NA,NA,NA,NA,NA,NA,NA,TRUE,2,2.5702,638.7223,641.7369,NA,NA,NA,NA,NA,45,46,0,63,63,59,1,2,64,"likert"
"46C36D77E4B247AE95721BC9779FE422",1,"0198eced-51e9-7e98-8320-4f713cae0a8f","0198c493-061b-72b6-9f09-7b914e79ecc0","2025-08-27_15h26.25.161",NA,NA,645.0763,645.0763,645.0763,645.4347,NA,NA,NA,NA,NA,NA,NA,TRUE,1,1.1859,642.0792,645.0762,NA,NA,NA,NA,NA,21,27,0,64,64,25,1,2,65,"likert"
"46C36D77E4B247AE95721BC9779FE422",1,"0198eced-51e9-7e98-8320-4f713cae0a8f","0198c493-061b-72b6-9f09-7b914e79ecc0","2025-08-27_15h26.25.161",NA,NA,648.4329,648.4329,648.4329,648.7735,NA,NA,NA,NA,NA,NA,NA,TRUE,4,1.3433,645.4354,648.4327,NA,NA,NA,NA,NA,40,47,0,65,65,52,1,2,66,"likert"
"46C36D77E4B247AE95721BC9779FE422",1,"0198eced-51e9-7e98-8320-4f713cae0a8f","0198c493-061b-72b6-9f09-7b914e79ecc0","2025-08-27_15h26.25.161",NA,NA,651.7706,651.7707,651.7707,652.1293,NA,NA,NA,NA,NA,NA,NA,TRUE,1,1.2888,648.7744,651.7705,NA,NA,NA,NA,NA,200,28,0,66,66,103,1,2,67,"likert"
"46C36D77E4B247AE95721BC9779FE422",1,"0198eced-51e9-7e98-8320-4f713cae0a8f","0198c493-061b-72b6-9f09-7b914e79ecc0","2025-08-27_15h26.25.161",NA,NA,655.1272,655.1272,655.1272,655.4862,NA,NA,NA,NA,NA,NA,NA,TRUE,3,1.7922,652.13,655.1271,NA,NA,NA,NA,NA,95,31,0,67,67,78,1,2,68,"likert"
"46C36D77E4B247AE95721BC9779FE422",1,"0198eced-51e9-7e98-8320-4f713cae0a8f","0198c493-061b-72b6-9f09-7b914e79ecc0","2025-08-27_15h26.25.161",NA,NA,658.4839,658.4839,658.484,658.8249,NA,NA,NA,NA,NA,NA,NA,TRUE,4,1.7911,655.4871,658.4838,NA,NA,NA,NA,NA,50,46,0,68,68,64,1,2,69,"likert"
"46C36D77E4B247AE95721BC9779FE422",1,"0198eced-51e9-7e98-8320-4f713cae0a8f","0198c493-061b-72b6-9f09-7b914e79ecc0","2025-08-27_15h26.25.161",NA,NA,661.822,661.822,661.822,662.1808,NA,NA,NA,NA,NA,NA,NA,TRUE,1,1.6892,658.8259,661.8218,NA,NA,NA,NA,NA,50,27,0,69,69,60,1,2,70,"likert"
"46C36D77E4B247AE95721BC9779FE422",1,"0198eced-51e9-7e98-8320-4f713cae0a8f","0198c493-061b-72b6-9f09-7b914e79ecc0","2025-08-27_15h26.25.161",NA,NA,665.1767,665.1767,665.1767,665.5358,NA,NA,NA,NA,NA,NA,NA,TRUE,1,1.7931,662.1816,665.1766,NA,NA,NA,NA,NA,10,26,0,70,70,7,1,2,71,"likert"
"46C36D77E4B247AE95721BC9779FE422",1,"0198eced-51e9-7e98-8320-4f713cae0a8f","0198c493-061b-72b6-9f09-7b914e79ecc0","2025-08-27_15h26.25.161",NA,NA,668.5308,668.5309,668.5309,668.8879,NA,NA,NA,NA,NA,NA,NA,TRUE,2,1.3445,665.5364,668.5308,NA,NA,NA,NA,NA,21,29,0,71,71,26,1,2,72,"likert"
"46C36D77E4B247AE95721BC9779FE422",1,"0198eced-51e9-7e98-8320-4f713cae0a8f","0198c493-061b-72b6-9f09-7b914e79ecc0","2025-08-27_15h26.25.161",NA,NA,671.8825,671.8825,671.8825,672.2235,NA,NA,NA,NA,NA,NA,NA,TRUE,4,1.7058,668.8885,671.8824,NA,NA,NA,NA,NA,60,47,0,72,72,70,1,2,73,"likert"
"46C36D77E4B247AE95721BC9779FE422",1,"0198eced-51e9-7e98-8320-4f713cae0a8f","0198c493-061b-72b6-9f09-7b914e79ecc0","2025-08-27_15h26.25.161",NA,NA,675.2212,675.2213,675.2213,675.5802,NA,NA,NA,NA,NA,NA,NA,TRUE,3,0.3644,672.2244,675.2211,NA,NA,NA,NA,NA,95,40,0,73,73,81,1,2,74,"likert"
"46C36D77E4B247AE95721BC9779FE422",1,"0198eced-51e9-7e98-8320-4f713cae0a8f","0198c493-061b-72b6-9f09-7b914e79ecc0","2025-08-27_15h26.25.161",NA,NA,678.5782,678.5782,678.5782,678.9371,NA,NA,NA,NA,NA,NA,NA,TRUE,1,1.5186,675.5808,678.578,NA,NA,NA,NA,NA,60,33,0,74,74,67,1,2,75,"likert"
"46C36D77E4B247AE95721BC9779FE422",1,"0198eced-51e9-7e98-8320-4f713cae0a8f","0198c493-061b-72b6-9f09-7b914e79ecc0","2025-08-27_15h26.25.161",NA,NA,681.935,681.935,681.935,682.2744,NA,NA,NA,NA,NA,NA,NA,TRUE,1,1.565,678.9378,681.9348,NA,NA,NA,NA,NA,25,35,0,75,75,34,1,2,76,"likert"
"46C36D77E4B247AE95721BC9779FE422",1,"0198eced-51e9-7e98-8320-4f713cae0a8f","0198c493-061b-72b6-9f09-7b914e79ecc0","2025-08-27_15h26.25.161",NA,NA,685.2719,685.272,685.272,685.6309,NA,NA,NA,NA,NA,NA,NA,TRUE,1,1.6534,682.2753,685.2719,NA,NA,NA,NA,NA,45,26,0,76,76,54,1,2,77,"likert"
"46C36D77E4B247AE95721BC9779FE422",1,"0198eced-51e9-7e98-8320-4f713cae0a8f","0198c493-061b-72b6-9f09-7b914e79ecc0","2025-08-27_15h26.25.161",NA,NA,688.6281,688.6281,688.6282,688.9865,NA,NA,NA,NA,NA,NA,NA,TRUE,1,1.1646,685.6316,688.628,NA,NA,NA,NA,NA,14,26,0,77,77,19,1,2,78,"likert"
"46C36D77E4B247AE95721BC9779FE422",1,"0198eced-51e9-7e98-8320-4f713cae0a8f","0198c493-061b-72b6-9f09-7b914e79ecc0","2025-08-27_15h26.25.161",NA,NA,691.9844,691.9844,691.9844,692.3252,NA,NA,NA,NA,NA,NA,NA,TRUE,1,1.4059,688.9875,691.9843,NA,NA,NA,NA,NA,200,35,0,78,78,104,1,2,79,"likert"
"46C36D77E4B247AE95721BC9779FE422",1,"0198eced-51e9-7e98-8320-4f713cae0a8f","0198c493-061b-72b6-9f09-7b914e79ecc0","2025-08-27_15h26.25.161",NA,NA,695.3211,695.3211,695.3211,695.6801,NA,NA,NA,NA,NA,NA,NA,TRUE,2,1.7466,692.3259,695.321,NA,NA,NA,NA,NA,7,30,0,79,79,3,1,2,80,"likert"
"46C36D77E4B247AE95721BC9779FE422",1,"0198eced-51e9-7e98-8320-4f713cae0a8f","0198c493-061b-72b6-9f09-7b914e79ecc0","2025-08-27_15h26.25.161",NA,NA,698.6767,698.6767,698.6767,699.036,NA,NA,NA,NA,NA,NA,NA,TRUE,1,1.8311,695.6813,698.6766,NA,NA,NA,NA,NA,150,47,0,80,80,94,1,2,81,"likert"
"46C36D77E4B247AE95721BC9779FE422",1,"0198eced-51e9-7e98-8320-4f713cae0a8f","0198c493-061b-72b6-9f09-7b914e79ecc0","2025-08-27_15h26.25.161",NA,NA,702.0254,702.0254,702.0254,702.3824,NA,NA,NA,NA,NA,NA,NA,TRUE,4,2.2883,699.0372,702.0253,NA,NA,NA,NA,NA,12,35,0,81,81,17,1,2,82,"likert"
"46C36D77E4B247AE95721BC9779FE422",1,"0198eced-51e9-7e98-8320-4f713cae0a8f","0198c493-061b-72b6-9f09-7b914e79ecc0","2025-08-27_15h26.25.161",NA,NA,705.3804,705.3804,705.3804,705.7213,NA,NA,NA,NA,NA,NA,NA,TRUE,1,1.3518,702.3833,705.3803,NA,NA,NA,NA,NA,30,29,0,82,82,44,1,2,83,"likert"
"46C36D77E4B247AE95721BC9779FE422",1,"0198eced-51e9-7e98-8320-4f713cae0a8f","0198c493-061b-72b6-9f09-7b914e79ecc0","2025-08-27_15h26.25.161",NA,NA,708.7374,708.7374,708.7374,709.0783,NA,NA,NA,NA,NA,NA,NA,TRUE,2,1.5401,705.7223,708.7372,NA,NA,NA,NA,NA,12,31,0,83,83,15,1,2,84,"likert"
"46C36D77E4B247AE95721BC9779FE422",1,"0198eced-51e9-7e98-8320-4f713cae0a8f","0198c493-061b-72b6-9f09-7b914e79ecc0","2025-08-27_15h26.25.161",NA,NA,712.0761,712.0761,712.0761,712.4343,NA,NA,NA,NA,NA,NA,NA,TRUE,2,1.5438,709.079,712.0759,NA,NA,NA,NA,NA,7,32,0,84,84,4,1,2,85,"likert"
"46C36D77E4B247AE95721BC9779FE422",1,"0198eced-51e9-7e98-8320-4f713cae0a8f","0198c493-061b-72b6-9f09-7b914e79ecc0","2025-08-27_15h26.25.161",NA,NA,715.4324,715.4324,715.4324,715.7727,NA,NA,NA,NA,NA,NA,NA,TRUE,1,1.4306,712.4352,715.4323,NA,NA,NA,NA,NA,7,28,0,85,85,2,1,2,86,"likert"
"46C36D77E4B247AE95721BC9779FE422",1,"0198eced-51e9-7e98-8320-4f713cae0a8f","0198c493-061b-72b6-9f09-7b914e79ecc0","2025-08-27_15h26.25.161",NA,NA,718.771,718.771,718.771,719.1297,NA,NA,NA,NA,NA,NA,NA,TRUE,1,1.743,715.7734,718.7709,NA,NA,NA,NA,NA,45,35,0,86,86,57,1,2,87,"likert"
"46C36D77E4B247AE95721BC9779FE422",1,"0198eced-51e9-7e98-8320-4f713cae0a8f","0198c493-061b-72b6-9f09-7b914e79ecc0","2025-08-27_15h26.25.161",NA,NA,722.128,722.1281,722.1281,722.4868,NA,NA,NA,NA,NA,NA,NA,TRUE,1,1.1744,719.1304,722.1279,NA,NA,NA,NA,NA,90,33,0,87,87,74,1,2,88,"likert"
"46C36D77E4B247AE95721BC9779FE422",1,"0198eced-51e9-7e98-8320-4f713cae0a8f","0198c493-061b-72b6-9f09-7b914e79ecc0","2025-08-27_15h26.25.161",NA,NA,725.485,725.485,725.4851,725.8262,NA,NA,NA,NA,NA,NA,NA,TRUE,2,1.9284,722.4874,725.4849,NA,NA,NA,NA,NA,21,32,0,88,88,28,1,2,89,"likert"
"46C36D77E4B247AE95721BC9779FE422",1,"0198eced-51e9-7e98-8320-4f713cae0a8f","0198c493-061b-72b6-9f09-7b914e79ecc0","2025-08-27_15h26.25.161",NA,NA,728.8241,728.8242,728.8242,729.1832,NA,NA,NA,NA,NA,NA,NA,TRUE,1,1.2755,725.8272,728.8241,NA,NA,NA,NA,NA,30,30,0,89,89,45,1,2,90,"likert"
"46C36D77E4B247AE95721BC9779FE422",1,"0198eced-51e9-7e98-8320-4f713cae0a8f","0198c493-061b-72b6-9f09-7b914e79ecc0","2025-08-27_15h26.25.161",NA,NA,732.1813,732.1814,732.1814,732.5218,NA,NA,NA,NA,NA,NA,NA,TRUE,1,1.0801,729.1841,732.1813,NA,NA,NA,NA,NA,45,31,0,90,90,56,1,2,91,"likert"
"46C36D77E4B247AE95721BC9779FE422",1,"0198eced-51e9-7e98-8320-4f713cae0a8f","0198c493-061b-72b6-9f09-7b914e79ecc0","2025-08-27_15h26.25.161",NA,NA,735.5308,735.5308,735.5308,735.8715,NA,NA,NA,NA,NA,NA,NA,TRUE,1,1.1372,732.5224,735.5307,NA,NA,NA,NA,NA,90,26,0,91,91,72,1,2,92,"likert"
"46C36D77E4B247AE95721BC9779FE422",1,"0198eced-51e9-7e98-8320-4f713cae0a8f","0198c493-061b-72b6-9f09-7b914e79ecc0","2025-08-27_15h26.25.161",NA,NA,738.887,738.8871,738.8871,739.228,NA,NA,NA,NA,NA,NA,NA,TRUE,1,1.522,735.8724,738.8869,NA,NA,NA,NA,NA,45,40,0,92,92,58,1,2,93,"likert"
"46C36D77E4B247AE95721BC9779FE422",1,"0198eced-51e9-7e98-8320-4f713cae0a8f","0198c493-061b-72b6-9f09-7b914e79ecc0","2025-08-27_15h26.25.161",NA,NA,742.2231,742.2232,742.2232,742.5819,NA,NA,NA,NA,NA,NA,NA,TRUE,1,2.1022,739.2289,742.223,NA,NA,NA,NA,NA,180,54,0,93,93,101,1,2,94,"likert"
"46C36D77E4B247AE95721BC9779FE422",1,"0198eced-51e9-7e98-8320-4f713cae0a8f","0198c493-061b-72b6-9f09-7b914e79ecc0","2025-08-27_15h26.25.161",NA,NA,745.5782,745.5782,745.5783,745.9373,NA,NA,NA,NA,NA,NA,NA,TRUE,1,1.9571,742.5831,745.5781,NA,NA,NA,NA,NA,200,39,0,94,94,105,1,2,95,"likert"
"46C36D77E4B247AE95721BC9779FE422",1,"0198eced-51e9-7e98-8320-4f713cae0a8f","0198c493-061b-72b6-9f09-7b914e79ecc0","2025-08-27_15h26.25.161",NA,NA,748.9353,748.9354,748.9354,749.2761,NA,NA,NA,NA,NA,NA,NA,TRUE,1,1.4697,745.9383,748.9351,NA,NA,NA,NA,NA,25,31,0,95,95,32,1,2,96,"likert"
"46C36D77E4B247AE95721BC9779FE422",1,"0198eced-51e9-7e98-8320-4f713cae0a8f","0198c493-061b-72b6-9f09-7b914e79ecc0","2025-08-27_15h26.25.161",NA,NA,752.2734,752.2735,752.2735,752.6316,NA,NA,NA,NA,NA,NA,NA,TRUE,1,1.3534,749.277,752.2734,NA,NA,NA,NA,NA,25,29,0,96,96,31,1,2,97,"likert"
"46C36D77E4B247AE95721BC9779FE422",1,"0198eced-51e9-7e98-8320-4f713cae0a8f","0198c493-061b-72b6-9f09-7b914e79ecc0","2025-08-27_15h26.25.161",NA,NA,755.6288,755.6288,755.6288,755.9868,NA,NA,NA,NA,NA,NA,NA,TRUE,1,1.1221,752.6323,755.6287,NA,NA,NA,NA,NA,60,29,0,97,97,66,1,2,98,"likert"
"46C36D77E4B247AE95721BC9779FE422",1,"0198eced-51e9-7e98-8320-4f713cae0a8f","0198c493-061b-72b6-9f09-7b914e79ecc0","2025-08-27_15h26.25.161",NA,NA,758.9851,758.9851,758.9851,759.3259,NA,NA,NA,NA,NA,NA,NA,TRUE,1,1.3631,755.9876,758.985,NA,NA,NA,NA,NA,40,33,0,98,98,49,1,2,99,"likert"
"46C36D77E4B247AE95721BC9779FE422",1,"0198eced-51e9-7e98-8320-4f713cae0a8f","0198c493-061b-72b6-9f09-7b914e79ecc0","2025-08-27_15h26.25.161",NA,NA,762.3226,762.3226,762.3226,762.6814,NA,NA,NA,NA,NA,NA,NA,TRUE,1,1.6746,759.3266,762.3225,NA,NA,NA,NA,NA,50,35,0,99,99,62,1,2,100,"likert"
"46C36D77E4B247AE95721BC9779FE422",1,"0198eced-51e9-7e98-8320-4f713cae0a8f","0198c493-061b-72b6-9f09-7b914e79ecc0","2025-08-27_15h26.25.161",NA,NA,765.6749,765.675,765.675,766.0302,NA,NA,NA,NA,NA,NA,NA,TRUE,1,1.3896,762.6822,765.6749,NA,NA,NA,NA,NA,12,28,0,100,100,14,1,2,101,"likert"
"46C36D77E4B247AE95721BC9779FE422",1,"0198eced-51e9-7e98-8320-4f713cae0a8f","0198c493-061b-72b6-9f09-7b914e79ecc0","2025-08-27_15h26.25.161",NA,NA,769.026,769.026,769.0261,769.384,NA,NA,NA,NA,NA,NA,NA,TRUE,4,2.0922,766.0307,769.0259,NA,NA,NA,NA,NA,90,54,0,101,101,77,1,2,102,"likert"
"46C36D77E4B247AE95721BC9779FE422",1,"0198eced-51e9-7e98-8320-4f713cae0a8f","0198c493-061b-72b6-9f09-7b914e79ecc0","2025-08-27_15h26.25.161",NA,NA,772.381,772.3811,772.3811,772.7221,NA,NA,NA,NA,NA,NA,NA,TRUE,1,2.486,769.385,772.381,NA,NA,NA,NA,NA,40,35,0,102,102,50,1,2,103,"likert"
"46C36D77E4B247AE95721BC9779FE422",1,"0198eced-51e9-7e98-8320-4f713cae0a8f","0198c493-061b-72b6-9f09-7b914e79ecc0","2025-08-27_15h26.25.161",NA,NA,775.7372,775.7372,775.7372,776.0783,NA,NA,NA,NA,NA,NA,NA,TRUE,1,2.0516,772.723,775.7371,NA,NA,NA,NA,NA,25,27,0,103,103,30,1,2,104,"likert"
"46C36D77E4B247AE95721BC9779FE422",1,"0198eced-51e9-7e98-8320-4f713cae0a8f","0198c493-061b-72b6-9f09-7b914e79ecc0","2025-08-27_15h26.25.161",NA,NA,779.0758,779.0758,779.0758,779.4347,NA,NA,NA,NA,NA,NA,NA,TRUE,1,1.562,776.0793,779.0757,NA,NA,NA,NA,NA,180,27,0,104,104,96,1,2,105,"likert"
"46C36D77E4B247AE95721BC9779FE422",1,"0198eced-51e9-7e98-8320-4f713cae0a8f","0198c493-061b-72b6-9f09-7b914e79ecc0","2025-08-27_15h26.25.161",NA,NA,782.4323,782.4323,782.4324,782.773,NA,NA,NA,NA,NA,NA,NA,TRUE,1,0.9375,779.4355,782.4321,NA,NA,NA,NA,NA,7,26,0,105,105,1,1,2,106,"likert"
"46C36D77E4B247AE95721BC9779FE422",1,"0198eced-51e9-7e98-8320-4f713cae0a8f","0198c493-061b-72b6-9f09-7b914e79ecc0","2025-08-27_15h26.25.161",NA,NA,785.7867,785.7868,785.7868,786.1278,NA,NA,NA,NA,NA,NA,NA,TRUE,1,0.9478,782.774,785.7866,NA,NA,NA,NA,NA,12,26,0,106,106,13,1,2,107,"likert"
"46C36D77E4B247AE95721BC9779FE422",1,"0198eced-51e9-7e98-8320-4f713cae0a8f","0198c493-061b-72b6-9f09-7b914e79ecc0","2025-08-27_15h26.25.161",NA,NA,789.1256,789.1256,789.1256,789.4846,NA,NA,NA,NA,NA,NA,NA,TRUE,1,1.7068,786.1289,789.1255,NA,NA,NA,NA,NA,180,39,0,107,107,99,1,2,108,"likert"
