"participant","session","assignmentId","projectId","date","practiceTrial.started","practiceTrial.stopped","tooLate.started","tooLate.stopped","blank.started","blank.stopped","trials_pract.thisRepN","trials_pract.thisTrialN","trials_pract.thisN","trials_pract.thisIndex","trials_pract.ran","delay_pract","amount_pract","responseMade","key","rt","trial.started","trial.stopped","trials.thisRepN","trials.thisTrialN","trials.thisN","trials.thisIndex","trials.ran","delay","amount","trials_2.thisRepN","trials_2.thisTrialN","trials_2.thisN","trials_2.thisIndex","trials_2.ran","block","trial","taskType"
"4AAAF30F5B9349E4B8D844AD91FE0336",1,"0198f77d-0d3a-7339-bb63-4eb7b85057a3","0198f768-e4d2-711c-944b-6f03c09216de","2025-08-29_16h21.09.275",26.351,29.3379,29.3384,29.5879,29.588,29.685,0,0,0,0,1,7,30,FALSE,NA,NA,NA,NA,NA,NA,NA,NA,NA,NA,NA,NA,NA,NA,NA,NA,0,1,"likert"
"4AAAF30F5B9349E4B8D844AD91FE0336",1,"0198f77d-0d3a-7339-bb63-4eb7b85057a3","0198f768-e4d2-711c-944b-6f03c09216de","2025-08-29_16h21.09.275",29.6858,32.6855,32.6856,32.6856,32.6856,33.0329,0,1,1,4,1,30,40,TRUE,4,1.17,NA,NA,NA,NA,NA,NA,NA,NA,NA,NA,NA,NA,NA,NA,0,2,"likert"
"4AAAF30F5B9349E4B8D844AD91FE0336",1,"0198f77d-0d3a-7339-bb63-4eb7b85057a3","0198f768-e4d2-711c-944b-6f03c09216de","2025-08-29_16h21.09.275",33.0339,36.0331,36.0333,36.0333,36.0333,36.3873,0,2,2,2,1,14,45,TRUE,3,1.0836,NA,NA,NA,NA,NA,NA,NA,NA,NA,NA,NA,NA,NA,NA,0,3,"likert"
"4AAAF30F5B9349E4B8D844AD91FE0336",1,"0198f77d-0d3a-7339-bb63-4eb7b85057a3","0198f768-e4d2-711c-944b-6f03c09216de","2025-08-29_16h21.09.275",36.3878,39.3878,39.3878,39.3878,39.3879,39.735,0,3,3,3,1,3,27,TRUE,3,1.9464,NA,NA,NA,NA,NA,NA,NA,NA,NA,NA,NA,NA,NA,NA,0,4,"likert"
"4AAAF30F5B9349E4B8D844AD91FE0336",1,"0198f77d-0d3a-7339-bb63-4eb7b85057a3","0198f768-e4d2-711c-944b-6f03c09216de","2025-08-29_16h21.09.275",39.7358,42.7354,42.7356,42.7356,42.7356,43.0828,0,4,4,1,1,100,50,TRUE,4,2.0348,NA,NA,NA,NA,NA,NA,NA,NA,NA,NA,NA,NA,NA,NA,0,5,"likert"
"4AAAF30F5B9349E4B8D844AD91FE0336",1,"0198f77d-0d3a-7339-bb63-4eb7b85057a3","0198f768-e4d2-711c-944b-6f03c09216de","2025-08-29_16h21.09.275",NA,NA,128.7963,128.7964,128.7964,129.1433,NA,NA,NA,NA,NA,NA,NA,TRUE,3,1.0973,125.8069,128.796,0,0,0,58,1,45,40,NA,NA,NA,NA,NA,1,1,"likert"
"4AAAF30F5B9349E4B8D844AD91FE0336",1,"0198f77d-0d3a-7339-bb63-4eb7b85057a3","0198f768-e4d2-711c-944b-6f03c09216de","2025-08-29_16h21.09.275",NA,NA,132.1436,132.1437,132.1437,132.4909,NA,NA,NA,NA,NA,NA,NA,TRUE,4,2.3639,129.1448,132.1435,0,1,1,41,1,28,46,NA,NA,NA,NA,NA,1,2,"likert"
"4AAAF30F5B9349E4B8D844AD91FE0336",1,"0198f77d-0d3a-7339-bb63-4eb7b85057a3","0198f768-e4d2-711c-944b-6f03c09216de","2025-08-29_16h21.09.275",NA,NA,135.4913,135.4913,135.4913,135.8453,NA,NA,NA,NA,NA,NA,NA,TRUE,5,2.8198,132.4915,135.4912,0,2,2,28,1,21,32,NA,NA,NA,NA,NA,1,3,"likert"
"4AAAF30F5B9349E4B8D844AD91FE0336",1,"0198f77d-0d3a-7339-bb63-4eb7b85057a3","0198f768-e4d2-711c-944b-6f03c09216de","2025-08-29_16h21.09.275",NA,NA,138.8459,138.8459,138.8459,139.1932,NA,NA,NA,NA,NA,NA,NA,TRUE,4,2.5633,135.8462,138.8458,0,3,3,2,1,7,28,NA,NA,NA,NA,NA,1,4,"likert"
"4AAAF30F5B9349E4B8D844AD91FE0336",1,"0198f77d-0d3a-7339-bb63-4eb7b85057a3","0198f768-e4d2-711c-944b-6f03c09216de","2025-08-29_16h21.09.275",NA,NA,142.1936,142.1936,142.1936,142.5409,NA,NA,NA,NA,NA,NA,NA,TRUE,3,2.5073,139.1942,142.1935,0,4,4,66,1,60,29,NA,NA,NA,NA,NA,1,5,"likert"
"4AAAF30F5B9349E4B8D844AD91FE0336",1,"0198f77d-0d3a-7339-bb63-4eb7b85057a3","0198f768-e4d2-711c-944b-6f03c09216de","2025-08-29_16h21.09.275",NA,NA,145.5413,145.5413,145.5413,145.8954,NA,NA,NA,NA,NA,NA,NA,TRUE,1,2.3192,142.5419,145.5413,0,5,5,0,1,7,25,NA,NA,NA,NA,NA,1,6,"likert"
"4AAAF30F5B9349E4B8D844AD91FE0336",1,"0198f77d-0d3a-7339-bb63-4eb7b85057a3","0198f768-e4d2-711c-944b-6f03c09216de","2025-08-29_16h21.09.275",NA,NA,148.8958,148.8959,148.896,149.2432,NA,NA,NA,NA,NA,NA,NA,TRUE,3,2.1637,145.8962,148.8958,0,6,6,85,1,100,31,NA,NA,NA,NA,NA,1,7,"likert"
"4AAAF30F5B9349E4B8D844AD91FE0336",1,"0198f77d-0d3a-7339-bb63-4eb7b85057a3","0198f768-e4d2-711c-944b-6f03c09216de","2025-08-29_16h21.09.275",NA,NA,152.2436,152.2436,152.2436,152.5908,NA,NA,NA,NA,NA,NA,NA,TRUE,4,2.4995,149.2442,152.2435,0,7,7,76,1,90,46,NA,NA,NA,NA,NA,1,8,"likert"
"4AAAF30F5B9349E4B8D844AD91FE0336",1,"0198f77d-0d3a-7339-bb63-4eb7b85057a3","0198f768-e4d2-711c-944b-6f03c09216de","2025-08-29_16h21.09.275",NA,NA,155.5913,155.5913,155.5913,155.9454,NA,NA,NA,NA,NA,NA,NA,TRUE,4,2.3968,152.5912,155.5911,0,8,8,23,1,14,39,NA,NA,NA,NA,NA,1,9,"likert"
"4AAAF30F5B9349E4B8D844AD91FE0336",1,"0198f77d-0d3a-7339-bb63-4eb7b85057a3","0198f768-e4d2-711c-944b-6f03c09216de","2025-08-29_16h21.09.275",NA,NA,158.9459,158.946,158.946,159.2931,NA,NA,NA,NA,NA,NA,NA,TRUE,2,2.3764,155.9462,158.9458,0,9,9,91,1,150,33,NA,NA,NA,NA,NA,1,10,"likert"
"4AAAF30F5B9349E4B8D844AD91FE0336",1,"0198f77d-0d3a-7339-bb63-4eb7b85057a3","0198f768-e4d2-711c-944b-6f03c09216de","2025-08-29_16h21.09.275",NA,NA,162.2937,162.2937,162.2937,162.6407,NA,NA,NA,NA,NA,NA,NA,TRUE,4,1.7205,159.2937,162.2935,0,10,10,4,1,7,32,NA,NA,NA,NA,NA,1,11,"likert"
"4AAAF30F5B9349E4B8D844AD91FE0336",1,"0198f77d-0d3a-7339-bb63-4eb7b85057a3","0198f768-e4d2-711c-944b-6f03c09216de","2025-08-29_16h21.09.275",NA,NA,165.6411,165.6411,165.6411,165.9954,NA,NA,NA,NA,NA,NA,NA,TRUE,2,1.8409,162.6414,165.6411,0,11,11,42,1,30,26,NA,NA,NA,NA,NA,1,12,"likert"
"4AAAF30F5B9349E4B8D844AD91FE0336",1,"0198f77d-0d3a-7339-bb63-4eb7b85057a3","0198f768-e4d2-711c-944b-6f03c09216de","2025-08-29_16h21.09.275",NA,NA,168.9959,168.9959,168.9959,169.343,NA,NA,NA,NA,NA,NA,NA,TRUE,4,1.8197,165.9961,168.9958,0,12,12,62,1,50,35,NA,NA,NA,NA,NA,1,13,"likert"
"4AAAF30F5B9349E4B8D844AD91FE0336",1,"0198f77d-0d3a-7339-bb63-4eb7b85057a3","0198f768-e4d2-711c-944b-6f03c09216de","2025-08-29_16h21.09.275",NA,NA,172.3435,172.3435,172.3435,172.6909,NA,NA,NA,NA,NA,NA,NA,TRUE,4,2.1195,169.3435,172.3435,0,13,13,71,1,60,54,NA,NA,NA,NA,NA,1,14,"likert"
"4AAAF30F5B9349E4B8D844AD91FE0336",1,"0198f77d-0d3a-7339-bb63-4eb7b85057a3","0198f768-e4d2-711c-944b-6f03c09216de","2025-08-29_16h21.09.275",NA,NA,175.6914,175.6915,175.6915,176.0453,NA,NA,NA,NA,NA,NA,NA,TRUE,3,2.0706,172.6916,175.6913,0,14,14,54,1,45,26,NA,NA,NA,NA,NA,1,15,"likert"
"4AAAF30F5B9349E4B8D844AD91FE0336",1,"0198f77d-0d3a-7339-bb63-4eb7b85057a3","0198f768-e4d2-711c-944b-6f03c09216de","2025-08-29_16h21.09.275",NA,NA,179.046,179.046,179.046,179.3932,NA,NA,NA,NA,NA,NA,NA,TRUE,4,2.2885,176.0459,179.0459,0,15,15,32,1,25,31,NA,NA,NA,NA,NA,1,16,"likert"
"4AAAF30F5B9349E4B8D844AD91FE0336",1,"0198f77d-0d3a-7339-bb63-4eb7b85057a3","0198f768-e4d2-711c-944b-6f03c09216de","2025-08-29_16h21.09.275",NA,NA,182.3935,182.3935,182.3935,182.7407,NA,NA,NA,NA,NA,NA,NA,TRUE,5,1.7256,179.3938,182.3935,0,16,16,8,1,10,27,NA,NA,NA,NA,NA,1,17,"likert"
"4AAAF30F5B9349E4B8D844AD91FE0336",1,"0198f77d-0d3a-7339-bb63-4eb7b85057a3","0198f768-e4d2-711c-944b-6f03c09216de","2025-08-29_16h21.09.275",NA,NA,185.7412,185.7413,185.7413,186.0954,NA,NA,NA,NA,NA,NA,NA,TRUE,4,2.2294,182.7413,185.7412,0,17,17,11,1,10,32,NA,NA,NA,NA,NA,1,18,"likert"
"4AAAF30F5B9349E4B8D844AD91FE0336",1,"0198f77d-0d3a-7339-bb63-4eb7b85057a3","0198f768-e4d2-711c-944b-6f03c09216de","2025-08-29_16h21.09.275",NA,NA,189.096,189.0961,189.0961,189.4431,NA,NA,NA,NA,NA,NA,NA,TRUE,4,2.0864,186.0959,189.0959,0,18,18,63,1,50,40,NA,NA,NA,NA,NA,1,19,"likert"
"4AAAF30F5B9349E4B8D844AD91FE0336",1,"0198f77d-0d3a-7339-bb63-4eb7b85057a3","0198f768-e4d2-711c-944b-6f03c09216de","2025-08-29_16h21.09.275",NA,NA,192.4435,192.4435,192.4436,192.7908,NA,NA,NA,NA,NA,NA,NA,TRUE,4,2.7799,189.4437,192.4434,0,19,19,51,1,40,40,NA,NA,NA,NA,NA,1,20,"likert"
"4AAAF30F5B9349E4B8D844AD91FE0336",1,"0198f77d-0d3a-7339-bb63-4eb7b85057a3","0198f768-e4d2-711c-944b-6f03c09216de","2025-08-29_16h21.09.275",NA,NA,195.7912,195.7912,195.7912,196.1455,NA,NA,NA,NA,NA,NA,NA,TRUE,2,2.3623,192.7913,195.7912,0,20,20,48,1,40,27,NA,NA,NA,NA,NA,1,21,"likert"
"4AAAF30F5B9349E4B8D844AD91FE0336",1,"0198f77d-0d3a-7339-bb63-4eb7b85057a3","0198f768-e4d2-711c-944b-6f03c09216de","2025-08-29_16h21.09.275",NA,NA,199.1459,199.1459,199.1459,199.493,NA,NA,NA,NA,NA,NA,NA,TRUE,2,2.4205,196.1463,199.1458,0,21,21,94,1,150,47,NA,NA,NA,NA,NA,1,22,"likert"
"4AAAF30F5B9349E4B8D844AD91FE0336",1,"0198f77d-0d3a-7339-bb63-4eb7b85057a3","0198f768-e4d2-711c-944b-6f03c09216de","2025-08-29_16h21.09.275",NA,NA,202.4936,202.4936,202.4936,202.8408,NA,NA,NA,NA,NA,NA,NA,TRUE,4,1.8016,199.4935,202.4935,0,22,22,43,1,30,27,NA,NA,NA,NA,NA,1,23,"likert"
"4AAAF30F5B9349E4B8D844AD91FE0336",1,"0198f77d-0d3a-7339-bb63-4eb7b85057a3","0198f768-e4d2-711c-944b-6f03c09216de","2025-08-29_16h21.09.275",NA,NA,205.8413,205.8413,205.8413,206.1954,NA,NA,NA,NA,NA,NA,NA,TRUE,3,2.8469,202.8413,205.8411,0,23,23,56,1,45,31,NA,NA,NA,NA,NA,1,24,"likert"
"4AAAF30F5B9349E4B8D844AD91FE0336",1,"0198f77d-0d3a-7339-bb63-4eb7b85057a3","0198f768-e4d2-711c-944b-6f03c09216de","2025-08-29_16h21.09.275",NA,NA,209.1959,209.196,209.196,209.5431,NA,NA,NA,NA,NA,NA,NA,TRUE,4,1.9943,206.1961,209.1959,0,24,24,17,1,12,35,NA,NA,NA,NA,NA,1,25,"likert"
"4AAAF30F5B9349E4B8D844AD91FE0336",1,"0198f77d-0d3a-7339-bb63-4eb7b85057a3","0198f768-e4d2-711c-944b-6f03c09216de","2025-08-29_16h21.09.275",NA,NA,212.5438,212.5438,212.5438,212.8907,NA,NA,NA,NA,NA,NA,NA,TRUE,4,2.3773,209.5437,212.5437,0,25,25,47,1,30,38,NA,NA,NA,NA,NA,1,26,"likert"
"4AAAF30F5B9349E4B8D844AD91FE0336",1,"0198f77d-0d3a-7339-bb63-4eb7b85057a3","0198f768-e4d2-711c-944b-6f03c09216de","2025-08-29_16h21.09.275",NA,NA,215.8912,215.8913,215.8913,216.2455,NA,NA,NA,NA,NA,NA,NA,TRUE,2,1.8438,212.8913,215.8911,0,26,26,86,1,100,38,NA,NA,NA,NA,NA,1,27,"likert"
"4AAAF30F5B9349E4B8D844AD91FE0336",1,"0198f77d-0d3a-7339-bb63-4eb7b85057a3","0198f768-e4d2-711c-944b-6f03c09216de","2025-08-29_16h21.09.275",NA,NA,219.2458,219.2458,219.2458,219.5931,NA,NA,NA,NA,NA,NA,NA,TRUE,5,1.8346,216.2461,219.2457,0,27,27,3,1,7,30,NA,NA,NA,NA,NA,1,28,"likert"
"4AAAF30F5B9349E4B8D844AD91FE0336",1,"0198f77d-0d3a-7339-bb63-4eb7b85057a3","0198f768-e4d2-711c-944b-6f03c09216de","2025-08-29_16h21.09.275",NA,NA,222.5936,222.5936,222.5936,222.9407,NA,NA,NA,NA,NA,NA,NA,TRUE,2,2.197,219.5936,222.5935,0,28,28,30,1,25,27,NA,NA,NA,NA,NA,1,29,"likert"
"4AAAF30F5B9349E4B8D844AD91FE0336",1,"0198f77d-0d3a-7339-bb63-4eb7b85057a3","0198f768-e4d2-711c-944b-6f03c09216de","2025-08-29_16h21.09.275",NA,NA,225.9414,225.9414,225.9414,226.2954,NA,NA,NA,NA,NA,NA,NA,TRUE,4,1.6184,222.9414,225.9414,0,29,29,15,1,12,31,NA,NA,NA,NA,NA,1,30,"likert"
"4AAAF30F5B9349E4B8D844AD91FE0336",1,"0198f77d-0d3a-7339-bb63-4eb7b85057a3","0198f768-e4d2-711c-944b-6f03c09216de","2025-08-29_16h21.09.275",NA,NA,229.2959,229.2959,229.2959,229.643,NA,NA,NA,NA,NA,NA,NA,TRUE,2,2.4486,226.2961,229.2958,0,30,30,60,1,50,27,NA,NA,NA,NA,NA,1,31,"likert"
"4AAAF30F5B9349E4B8D844AD91FE0336",1,"0198f77d-0d3a-7339-bb63-4eb7b85057a3","0198f768-e4d2-711c-944b-6f03c09216de","2025-08-29_16h21.09.275",NA,NA,232.6435,232.6435,232.6435,232.9908,NA,NA,NA,NA,NA,NA,NA,TRUE,2,1.4378,229.6437,232.6435,0,31,31,74,1,90,33,NA,NA,NA,NA,NA,1,32,"likert"
"4AAAF30F5B9349E4B8D844AD91FE0336",1,"0198f77d-0d3a-7339-bb63-4eb7b85057a3","0198f768-e4d2-711c-944b-6f03c09216de","2025-08-29_16h21.09.275",NA,NA,235.9913,235.9913,235.9913,236.3454,NA,NA,NA,NA,NA,NA,NA,TRUE,2,2.4399,232.9915,235.9912,0,32,32,50,1,40,35,NA,NA,NA,NA,NA,1,33,"likert"
"4AAAF30F5B9349E4B8D844AD91FE0336",1,"0198f77d-0d3a-7339-bb63-4eb7b85057a3","0198f768-e4d2-711c-944b-6f03c09216de","2025-08-29_16h21.09.275",NA,NA,239.3458,239.3458,239.3458,239.6929,NA,NA,NA,NA,NA,NA,NA,TRUE,4,2.8381,236.3462,239.3457,0,33,33,65,1,50,54,NA,NA,NA,NA,NA,1,34,"likert"
"4AAAF30F5B9349E4B8D844AD91FE0336",1,"0198f77d-0d3a-7339-bb63-4eb7b85057a3","0198f768-e4d2-711c-944b-6f03c09216de","2025-08-29_16h21.09.275",NA,NA,242.6935,242.6935,242.6936,243.0407,NA,NA,NA,NA,NA,NA,NA,TRUE,4,2.6018,239.6936,242.6934,0,34,34,53,1,40,54,NA,NA,NA,NA,NA,1,35,"likert"
"4AAAF30F5B9349E4B8D844AD91FE0336",1,"0198f77d-0d3a-7339-bb63-4eb7b85057a3","0198f768-e4d2-711c-944b-6f03c09216de","2025-08-29_16h21.09.275",NA,NA,246.0414,246.2913,246.2913,246.3953,NA,NA,NA,NA,NA,NA,NA,FALSE,NA,NA,243.0413,246.0412,0,35,35,82,1,95,47,NA,NA,NA,NA,NA,1,36,"likert"
"4AAAF30F5B9349E4B8D844AD91FE0336",1,"0198f77d-0d3a-7339-bb63-4eb7b85057a3","0198f768-e4d2-711c-944b-6f03c09216de","2025-08-29_16h21.09.275",NA,NA,249.3958,249.3958,249.3959,249.7432,NA,NA,NA,NA,NA,NA,NA,TRUE,2,2.5386,246.3958,249.3957,0,36,36,79,1,95,33,NA,NA,NA,NA,NA,1,37,"likert"
"4AAAF30F5B9349E4B8D844AD91FE0336",1,"0198f77d-0d3a-7339-bb63-4eb7b85057a3","0198f768-e4d2-711c-944b-6f03c09216de","2025-08-29_16h21.09.275",NA,NA,252.7437,252.7437,252.7437,253.0907,NA,NA,NA,NA,NA,NA,NA,TRUE,4,1.8896,249.7437,252.7436,0,37,37,38,1,28,32,NA,NA,NA,NA,NA,1,38,"likert"
"4AAAF30F5B9349E4B8D844AD91FE0336",1,"0198f77d-0d3a-7339-bb63-4eb7b85057a3","0198f768-e4d2-711c-944b-6f03c09216de","2025-08-29_16h21.09.275",NA,NA,256.0913,256.0913,256.0913,256.4454,NA,NA,NA,NA,NA,NA,NA,TRUE,2,1.5735,253.0915,256.0913,0,38,38,36,1,28,26,NA,NA,NA,NA,NA,1,39,"likert"
"4AAAF30F5B9349E4B8D844AD91FE0336",1,"0198f77d-0d3a-7339-bb63-4eb7b85057a3","0198f768-e4d2-711c-944b-6f03c09216de","2025-08-29_16h21.09.275",NA,NA,259.4459,259.446,259.446,259.793,NA,NA,NA,NA,NA,NA,NA,TRUE,4,2.3681,256.4461,259.4458,0,39,39,40,1,28,39,NA,NA,NA,NA,NA,1,40,"likert"
"4AAAF30F5B9349E4B8D844AD91FE0336",1,"0198f77d-0d3a-7339-bb63-4eb7b85057a3","0198f768-e4d2-711c-944b-6f03c09216de","2025-08-29_16h21.09.275",NA,NA,262.7934,262.7934,262.7934,263.1407,NA,NA,NA,NA,NA,NA,NA,TRUE,4,2.4932,259.7938,262.7934,0,40,40,64,1,50,46,NA,NA,NA,NA,NA,1,41,"likert"
"4AAAF30F5B9349E4B8D844AD91FE0336",1,"0198f77d-0d3a-7339-bb63-4eb7b85057a3","0198f768-e4d2-711c-944b-6f03c09216de","2025-08-29_16h21.09.275",NA,NA,266.1412,266.1412,266.1412,266.4952,NA,NA,NA,NA,NA,NA,NA,TRUE,5,1.4514,263.1414,266.1411,0,41,41,21,1,14,32,NA,NA,NA,NA,NA,1,42,"likert"
"4AAAF30F5B9349E4B8D844AD91FE0336",1,"0198f77d-0d3a-7339-bb63-4eb7b85057a3","0198f768-e4d2-711c-944b-6f03c09216de","2025-08-29_16h21.09.275",NA,NA,269.4958,269.4958,269.4958,269.843,NA,NA,NA,NA,NA,NA,NA,TRUE,4,1.9517,266.4959,269.4958,0,42,42,68,1,60,35,NA,NA,NA,NA,NA,1,43,"likert"
"4AAAF30F5B9349E4B8D844AD91FE0336",1,"0198f77d-0d3a-7339-bb63-4eb7b85057a3","0198f768-e4d2-711c-944b-6f03c09216de","2025-08-29_16h21.09.275",NA,NA,272.8435,272.8436,272.8436,273.1907,NA,NA,NA,NA,NA,NA,NA,TRUE,4,1.4376,269.8435,272.8434,0,43,43,104,1,200,35,NA,NA,NA,NA,NA,1,44,"likert"
"4AAAF30F5B9349E4B8D844AD91FE0336",1,"0198f77d-0d3a-7339-bb63-4eb7b85057a3","0198f768-e4d2-711c-944b-6f03c09216de","2025-08-29_16h21.09.275",NA,NA,276.1936,276.1936,276.1936,276.5453,NA,NA,NA,NA,NA,NA,NA,TRUE,2,2.6896,273.1914,276.1935,0,44,44,73,1,90,30,NA,NA,NA,NA,NA,1,45,"likert"
"4AAAF30F5B9349E4B8D844AD91FE0336",1,"0198f77d-0d3a-7339-bb63-4eb7b85057a3","0198f768-e4d2-711c-944b-6f03c09216de","2025-08-29_16h21.09.275",NA,NA,279.5458,279.5459,279.5459,279.8929,NA,NA,NA,NA,NA,NA,NA,TRUE,2,2.4684,276.5459,279.5457,0,45,45,99,1,180,39,NA,NA,NA,NA,NA,1,46,"likert"
"4AAAF30F5B9349E4B8D844AD91FE0336",1,"0198f77d-0d3a-7339-bb63-4eb7b85057a3","0198f768-e4d2-711c-944b-6f03c09216de","2025-08-29_16h21.09.275",NA,NA,282.8935,282.8935,282.8935,283.2408,NA,NA,NA,NA,NA,NA,NA,TRUE,2,2.0763,279.8936,282.8934,0,46,46,92,1,150,35,NA,NA,NA,NA,NA,1,47,"likert"
"4AAAF30F5B9349E4B8D844AD91FE0336",1,"0198f77d-0d3a-7339-bb63-4eb7b85057a3","0198f768-e4d2-711c-944b-6f03c09216de","2025-08-29_16h21.09.275",NA,NA,286.2412,286.2412,286.2412,286.5952,NA,NA,NA,NA,NA,NA,NA,TRUE,5,1.3819,283.2415,286.2411,0,47,47,10,1,10,30,NA,NA,NA,NA,NA,1,48,"likert"
"4AAAF30F5B9349E4B8D844AD91FE0336",1,"0198f77d-0d3a-7339-bb63-4eb7b85057a3","0198f768-e4d2-711c-944b-6f03c09216de","2025-08-29_16h21.09.275",NA,NA,289.5959,289.596,289.596,289.9429,NA,NA,NA,NA,NA,NA,NA,TRUE,2,2.2793,286.5959,289.5958,0,48,48,93,1,150,40,NA,NA,NA,NA,NA,1,49,"likert"
"4AAAF30F5B9349E4B8D844AD91FE0336",1,"0198f77d-0d3a-7339-bb63-4eb7b85057a3","0198f768-e4d2-711c-944b-6f03c09216de","2025-08-29_16h21.09.275",NA,NA,292.9435,292.9435,292.9435,293.2907,NA,NA,NA,NA,NA,NA,NA,TRUE,2,1.6786,289.9436,292.9434,0,49,49,24,1,21,26,NA,NA,NA,NA,NA,1,50,"likert"
"4AAAF30F5B9349E4B8D844AD91FE0336",1,"0198f77d-0d3a-7339-bb63-4eb7b85057a3","0198f768-e4d2-711c-944b-6f03c09216de","2025-08-29_16h21.09.275",NA,NA,296.2911,296.2911,296.2911,296.6453,NA,NA,NA,NA,NA,NA,NA,TRUE,4,2.1041,293.2915,296.2911,0,50,50,52,1,40,47,NA,NA,NA,NA,NA,1,51,"likert"
"4AAAF30F5B9349E4B8D844AD91FE0336",1,"0198f77d-0d3a-7339-bb63-4eb7b85057a3","0198f768-e4d2-711c-944b-6f03c09216de","2025-08-29_16h21.09.275",NA,NA,299.6458,299.6458,299.6458,299.9929,NA,NA,NA,NA,NA,NA,NA,TRUE,2,1.9907,296.6457,299.6458,0,51,51,80,1,95,35,NA,NA,NA,NA,NA,1,52,"likert"
"4AAAF30F5B9349E4B8D844AD91FE0336",1,"0198f77d-0d3a-7339-bb63-4eb7b85057a3","0198f768-e4d2-711c-944b-6f03c09216de","2025-08-29_16h21.09.275",NA,NA,302.9936,302.9936,302.9937,303.3406,NA,NA,NA,NA,NA,NA,NA,TRUE,1,1.8122,299.9935,302.9935,0,52,52,102,1,200,26,NA,NA,NA,NA,NA,1,53,"likert"
"4AAAF30F5B9349E4B8D844AD91FE0336",1,"0198f77d-0d3a-7339-bb63-4eb7b85057a3","0198f768-e4d2-711c-944b-6f03c09216de","2025-08-29_16h21.09.275",NA,NA,306.3411,306.3411,306.3411,306.6953,NA,NA,NA,NA,NA,NA,NA,TRUE,3,2.7829,303.3412,306.3411,0,53,53,57,1,45,35,NA,NA,NA,NA,NA,1,54,"likert"
"4AAAF30F5B9349E4B8D844AD91FE0336",1,"0198f77d-0d3a-7339-bb63-4eb7b85057a3","0198f768-e4d2-711c-944b-6f03c09216de","2025-08-29_16h21.09.275",NA,NA,309.6958,309.6958,309.6959,310.0429,NA,NA,NA,NA,NA,NA,NA,TRUE,1,1.8174,306.696,309.6957,0,54,54,6,1,10,25,NA,NA,NA,NA,NA,1,55,"likert"
"4AAAF30F5B9349E4B8D844AD91FE0336",1,"0198f77d-0d3a-7339-bb63-4eb7b85057a3","0198f768-e4d2-711c-944b-6f03c09216de","2025-08-29_16h21.09.275",NA,NA,313.0434,313.2935,313.2936,313.3907,NA,NA,NA,NA,NA,NA,NA,FALSE,NA,NA,310.0434,313.0434,0,55,55,70,1,60,47,NA,NA,NA,NA,NA,1,56,"likert"
"4AAAF30F5B9349E4B8D844AD91FE0336",1,"0198f77d-0d3a-7339-bb63-4eb7b85057a3","0198f768-e4d2-711c-944b-6f03c09216de","2025-08-29_16h21.09.275",NA,NA,316.3912,316.3912,316.3912,316.7453,NA,NA,NA,NA,NA,NA,NA,TRUE,4,2.2783,313.3915,316.3911,0,56,56,37,1,28,28,NA,NA,NA,NA,NA,1,57,"likert"
"4AAAF30F5B9349E4B8D844AD91FE0336",1,"0198f77d-0d3a-7339-bb63-4eb7b85057a3","0198f768-e4d2-711c-944b-6f03c09216de","2025-08-29_16h21.09.275",NA,NA,319.746,319.7461,319.7461,320.093,NA,NA,NA,NA,NA,NA,NA,TRUE,2,2.6792,316.7461,319.7458,0,57,57,7,1,10,26,NA,NA,NA,NA,NA,1,58,"likert"
"4AAAF30F5B9349E4B8D844AD91FE0336",1,"0198f77d-0d3a-7339-bb63-4eb7b85057a3","0198f768-e4d2-711c-944b-6f03c09216de","2025-08-29_16h21.09.275",NA,NA,323.0936,323.0937,323.0937,323.4407,NA,NA,NA,NA,NA,NA,NA,TRUE,2,2.8266,320.0939,323.0935,0,58,58,12,1,12,25,NA,NA,NA,NA,NA,1,59,"likert"
"4AAAF30F5B9349E4B8D844AD91FE0336",1,"0198f77d-0d3a-7339-bb63-4eb7b85057a3","0198f768-e4d2-711c-944b-6f03c09216de","2025-08-29_16h21.09.275",NA,NA,326.4413,326.4413,326.4413,326.7954,NA,NA,NA,NA,NA,NA,NA,TRUE,1,0.9822,323.4413,326.4411,0,59,59,13,1,12,26,NA,NA,NA,NA,NA,1,60,"likert"
"4AAAF30F5B9349E4B8D844AD91FE0336",1,"0198f77d-0d3a-7339-bb63-4eb7b85057a3","0198f768-e4d2-711c-944b-6f03c09216de","2025-08-29_16h21.09.275",NA,NA,329.7959,330.0456,330.0457,330.1429,NA,NA,NA,NA,NA,NA,NA,FALSE,NA,NA,326.796,329.7958,0,60,60,29,1,21,38,NA,NA,NA,NA,NA,1,61,"likert"
"4AAAF30F5B9349E4B8D844AD91FE0336",1,"0198f77d-0d3a-7339-bb63-4eb7b85057a3","0198f768-e4d2-711c-944b-6f03c09216de","2025-08-29_16h21.09.275",NA,NA,333.1435,333.1435,333.1435,333.4907,NA,NA,NA,NA,NA,NA,NA,TRUE,2,1.8715,330.1435,333.1434,0,61,61,90,1,150,31,NA,NA,NA,NA,NA,1,62,"likert"
"4AAAF30F5B9349E4B8D844AD91FE0336",1,"0198f77d-0d3a-7339-bb63-4eb7b85057a3","0198f768-e4d2-711c-944b-6f03c09216de","2025-08-29_16h21.09.275",NA,NA,336.4911,336.4911,336.4912,336.8452,NA,NA,NA,NA,NA,NA,NA,TRUE,4,2.42,333.4913,336.491,0,62,62,106,1,200,47,NA,NA,NA,NA,NA,1,63,"likert"
"4AAAF30F5B9349E4B8D844AD91FE0336",1,"0198f77d-0d3a-7339-bb63-4eb7b85057a3","0198f768-e4d2-711c-944b-6f03c09216de","2025-08-29_16h21.09.275",NA,NA,339.8459,339.8459,339.8459,340.193,NA,NA,NA,NA,NA,NA,NA,TRUE,4,2.6812,336.8456,339.8457,0,63,63,35,1,25,46,NA,NA,NA,NA,NA,1,64,"likert"
"4AAAF30F5B9349E4B8D844AD91FE0336",1,"0198f77d-0d3a-7339-bb63-4eb7b85057a3","0198f768-e4d2-711c-944b-6f03c09216de","2025-08-29_16h21.09.275",NA,NA,343.1934,343.1934,343.1934,343.5406,NA,NA,NA,NA,NA,NA,NA,TRUE,2,1.7034,340.194,343.1933,0,64,64,105,1,200,39,NA,NA,NA,NA,NA,1,65,"likert"
"4AAAF30F5B9349E4B8D844AD91FE0336",1,"0198f77d-0d3a-7339-bb63-4eb7b85057a3","0198f768-e4d2-711c-944b-6f03c09216de","2025-08-29_16h21.09.275",NA,NA,346.5411,346.5411,346.5411,346.8953,NA,NA,NA,NA,NA,NA,NA,TRUE,2,1.6979,343.5411,346.5411,0,65,65,88,1,100,46,NA,NA,NA,NA,NA,1,66,"likert"
"4AAAF30F5B9349E4B8D844AD91FE0336",1,"0198f77d-0d3a-7339-bb63-4eb7b85057a3","0198f768-e4d2-711c-944b-6f03c09216de","2025-08-29_16h21.09.275",NA,NA,349.8957,349.8957,349.8957,350.243,NA,NA,NA,NA,NA,NA,NA,TRUE,2,1.8067,346.896,349.8957,0,66,66,61,1,50,30,NA,NA,NA,NA,NA,1,67,"likert"
"4AAAF30F5B9349E4B8D844AD91FE0336",1,"0198f77d-0d3a-7339-bb63-4eb7b85057a3","0198f768-e4d2-711c-944b-6f03c09216de","2025-08-29_16h21.09.275",NA,NA,353.2435,353.2435,353.2435,353.5906,NA,NA,NA,NA,NA,NA,NA,TRUE,4,2.0065,350.2438,353.2433,0,67,67,14,1,12,28,NA,NA,NA,NA,NA,1,68,"likert"
"4AAAF30F5B9349E4B8D844AD91FE0336",1,"0198f77d-0d3a-7339-bb63-4eb7b85057a3","0198f768-e4d2-711c-944b-6f03c09216de","2025-08-29_16h21.09.275",NA,NA,356.5912,356.5912,356.5912,356.9453,NA,NA,NA,NA,NA,NA,NA,TRUE,5,1.3682,353.5912,356.5911,0,68,68,5,1,7,35,NA,NA,NA,NA,NA,1,69,"likert"
"4AAAF30F5B9349E4B8D844AD91FE0336",1,"0198f77d-0d3a-7339-bb63-4eb7b85057a3","0198f768-e4d2-711c-944b-6f03c09216de","2025-08-29_16h21.09.275",NA,NA,359.9457,359.9458,359.9458,360.293,NA,NA,NA,NA,NA,NA,NA,TRUE,2,1.8683,356.9459,359.9456,0,69,69,67,1,60,33,NA,NA,NA,NA,NA,1,70,"likert"
"4AAAF30F5B9349E4B8D844AD91FE0336",1,"0198f77d-0d3a-7339-bb63-4eb7b85057a3","0198f768-e4d2-711c-944b-6f03c09216de","2025-08-29_16h21.09.275",NA,NA,363.2934,363.2935,363.2935,363.6407,NA,NA,NA,NA,NA,NA,NA,TRUE,4,1.5296,360.2936,363.2934,0,70,70,31,1,25,29,NA,NA,NA,NA,NA,1,71,"likert"
"4AAAF30F5B9349E4B8D844AD91FE0336",1,"0198f77d-0d3a-7339-bb63-4eb7b85057a3","0198f768-e4d2-711c-944b-6f03c09216de","2025-08-29_16h21.09.275",NA,NA,366.6411,366.6411,366.6411,366.9952,NA,NA,NA,NA,NA,NA,NA,TRUE,4,1.6886,363.6414,366.641,0,71,71,18,1,14,25,NA,NA,NA,NA,NA,1,72,"likert"
"4AAAF30F5B9349E4B8D844AD91FE0336",1,"0198f77d-0d3a-7339-bb63-4eb7b85057a3","0198f768-e4d2-711c-944b-6f03c09216de","2025-08-29_16h21.09.275",NA,NA,369.9958,369.9958,369.9958,370.3429,NA,NA,NA,NA,NA,NA,NA,TRUE,1,1.3626,366.9958,369.9957,0,72,72,34,1,25,35,NA,NA,NA,NA,NA,1,73,"likert"
"4AAAF30F5B9349E4B8D844AD91FE0336",1,"0198f77d-0d3a-7339-bb63-4eb7b85057a3","0198f768-e4d2-711c-944b-6f03c09216de","2025-08-29_16h21.09.275",NA,NA,373.3437,373.3437,373.3437,373.6906,NA,NA,NA,NA,NA,NA,NA,TRUE,4,1.8478,370.3438,373.3435,0,73,73,46,1,30,32,NA,NA,NA,NA,NA,1,74,"likert"
"4AAAF30F5B9349E4B8D844AD91FE0336",1,"0198f77d-0d3a-7339-bb63-4eb7b85057a3","0198f768-e4d2-711c-944b-6f03c09216de","2025-08-29_16h21.09.275",NA,NA,376.6911,376.6912,376.6912,377.0453,NA,NA,NA,NA,NA,NA,NA,TRUE,2,1.4866,373.6912,376.691,0,74,74,95,1,150,54,NA,NA,NA,NA,NA,1,75,"likert"
"4AAAF30F5B9349E4B8D844AD91FE0336",1,"0198f77d-0d3a-7339-bb63-4eb7b85057a3","0198f768-e4d2-711c-944b-6f03c09216de","2025-08-29_16h21.09.275",NA,NA,380.0457,380.0458,380.0458,380.3929,NA,NA,NA,NA,NA,NA,NA,TRUE,2,1.8829,377.0459,380.0457,0,75,75,87,1,100,39,NA,NA,NA,NA,NA,1,76,"likert"
"4AAAF30F5B9349E4B8D844AD91FE0336",1,"0198f77d-0d3a-7339-bb63-4eb7b85057a3","0198f768-e4d2-711c-944b-6f03c09216de","2025-08-29_16h21.09.275",NA,NA,383.3935,383.3936,383.3936,383.7406,NA,NA,NA,NA,NA,NA,NA,TRUE,1,1.6878,380.3934,383.3934,0,76,76,84,1,100,26,NA,NA,NA,NA,NA,1,77,"likert"
"4AAAF30F5B9349E4B8D844AD91FE0336",1,"0198f77d-0d3a-7339-bb63-4eb7b85057a3","0198f768-e4d2-711c-944b-6f03c09216de","2025-08-29_16h21.09.275",NA,NA,386.7412,386.7412,386.7412,387.0953,NA,NA,NA,NA,NA,NA,NA,TRUE,4,1.8821,383.7413,386.7411,0,77,77,39,1,28,35,NA,NA,NA,NA,NA,1,78,"likert"
"4AAAF30F5B9349E4B8D844AD91FE0336",1,"0198f77d-0d3a-7339-bb63-4eb7b85057a3","0198f768-e4d2-711c-944b-6f03c09216de","2025-08-29_16h21.09.275",NA,NA,390.0957,390.0957,390.0957,390.4429,NA,NA,NA,NA,NA,NA,NA,TRUE,2,1.8722,387.096,390.0956,0,78,78,98,1,180,35,NA,NA,NA,NA,NA,1,79,"likert"
"4AAAF30F5B9349E4B8D844AD91FE0336",1,"0198f77d-0d3a-7339-bb63-4eb7b85057a3","0198f768-e4d2-711c-944b-6f03c09216de","2025-08-29_16h21.09.275",NA,NA,393.4435,393.4435,393.4436,393.7906,NA,NA,NA,NA,NA,NA,NA,TRUE,4,2.2677,390.4439,393.4434,0,79,79,77,1,90,54,NA,NA,NA,NA,NA,1,80,"likert"
"4AAAF30F5B9349E4B8D844AD91FE0336",1,"0198f77d-0d3a-7339-bb63-4eb7b85057a3","0198f768-e4d2-711c-944b-6f03c09216de","2025-08-29_16h21.09.275",NA,NA,396.7911,396.7911,396.7911,397.1452,NA,NA,NA,NA,NA,NA,NA,TRUE,2,1.9029,393.7914,396.791,0,80,80,55,1,45,29,NA,NA,NA,NA,NA,1,81,"likert"
"4AAAF30F5B9349E4B8D844AD91FE0336",1,"0198f77d-0d3a-7339-bb63-4eb7b85057a3","0198f768-e4d2-711c-944b-6f03c09216de","2025-08-29_16h21.09.275",NA,NA,400.1456,400.1457,400.1457,400.4928,NA,NA,NA,NA,NA,NA,NA,TRUE,2,1.6366,397.1459,400.1456,0,81,81,25,1,21,27,NA,NA,NA,NA,NA,1,82,"likert"
"4AAAF30F5B9349E4B8D844AD91FE0336",1,"0198f77d-0d3a-7339-bb63-4eb7b85057a3","0198f768-e4d2-711c-944b-6f03c09216de","2025-08-29_16h21.09.275",NA,NA,403.4935,403.4935,403.4935,403.8406,NA,NA,NA,NA,NA,NA,NA,TRUE,4,2.1876,400.4938,403.4933,0,82,82,44,1,30,29,NA,NA,NA,NA,NA,1,83,"likert"
"4AAAF30F5B9349E4B8D844AD91FE0336",1,"0198f77d-0d3a-7339-bb63-4eb7b85057a3","0198f768-e4d2-711c-944b-6f03c09216de","2025-08-29_16h21.09.275",NA,NA,406.8413,406.8413,406.8414,407.1951,NA,NA,NA,NA,NA,NA,NA,TRUE,2,1.7987,403.8415,406.8411,0,83,83,107,1,200,54,NA,NA,NA,NA,NA,1,84,"likert"
"4AAAF30F5B9349E4B8D844AD91FE0336",1,"0198f77d-0d3a-7339-bb63-4eb7b85057a3","0198f768-e4d2-711c-944b-6f03c09216de","2025-08-29_16h21.09.275",NA,NA,410.1958,410.1958,410.1958,410.5429,NA,NA,NA,NA,NA,NA,NA,TRUE,2,2.1462,407.1958,410.1958,0,84,84,27,1,21,30,NA,NA,NA,NA,NA,1,85,"likert"
"4AAAF30F5B9349E4B8D844AD91FE0336",1,"0198f77d-0d3a-7339-bb63-4eb7b85057a3","0198f768-e4d2-711c-944b-6f03c09216de","2025-08-29_16h21.09.275",NA,NA,413.5435,413.5435,413.5435,413.8906,NA,NA,NA,NA,NA,NA,NA,TRUE,4,2.7226,410.5436,413.5434,0,85,85,16,1,12,33,NA,NA,NA,NA,NA,1,86,"likert"
"4AAAF30F5B9349E4B8D844AD91FE0336",1,"0198f77d-0d3a-7339-bb63-4eb7b85057a3","0198f768-e4d2-711c-944b-6f03c09216de","2025-08-29_16h21.09.275",NA,NA,416.8912,416.8912,416.8912,417.2453,NA,NA,NA,NA,NA,NA,NA,TRUE,4,2.2199,413.8913,416.891,0,86,86,22,1,14,35,NA,NA,NA,NA,NA,1,87,"likert"
"4AAAF30F5B9349E4B8D844AD91FE0336",1,"0198f77d-0d3a-7339-bb63-4eb7b85057a3","0198f768-e4d2-711c-944b-6f03c09216de","2025-08-29_16h21.09.275",NA,NA,420.2457,420.2457,420.2458,420.5929,NA,NA,NA,NA,NA,NA,NA,TRUE,2,1.7683,417.2459,420.2457,0,87,87,69,1,60,40,NA,NA,NA,NA,NA,1,88,"likert"
"4AAAF30F5B9349E4B8D844AD91FE0336",1,"0198f77d-0d3a-7339-bb63-4eb7b85057a3","0198f768-e4d2-711c-944b-6f03c09216de","2025-08-29_16h21.09.275",NA,NA,423.5935,423.5935,423.5935,423.9405,NA,NA,NA,NA,NA,NA,NA,TRUE,2,2.1337,420.5935,423.5934,0,88,88,100,1,180,46,NA,NA,NA,NA,NA,1,89,"likert"
"4AAAF30F5B9349E4B8D844AD91FE0336",1,"0198f77d-0d3a-7339-bb63-4eb7b85057a3","0198f768-e4d2-711c-944b-6f03c09216de","2025-08-29_16h21.09.275",NA,NA,426.9411,426.9411,426.9411,427.2952,NA,NA,NA,NA,NA,NA,NA,TRUE,4,1.6355,423.9412,426.9411,0,89,89,59,1,45,46,NA,NA,NA,NA,NA,1,90,"likert"
"4AAAF30F5B9349E4B8D844AD91FE0336",1,"0198f77d-0d3a-7339-bb63-4eb7b85057a3","0198f768-e4d2-711c-944b-6f03c09216de","2025-08-29_16h21.09.275",NA,NA,430.2956,430.2956,430.2956,430.6429,NA,NA,NA,NA,NA,NA,NA,TRUE,4,1.5988,427.2958,430.2956,0,90,90,9,1,10,29,NA,NA,NA,NA,NA,1,91,"likert"
"4AAAF30F5B9349E4B8D844AD91FE0336",1,"0198f77d-0d3a-7339-bb63-4eb7b85057a3","0198f768-e4d2-711c-944b-6f03c09216de","2025-08-29_16h21.09.275",NA,NA,433.6435,433.6436,433.6436,433.9907,NA,NA,NA,NA,NA,NA,NA,TRUE,4,2.1881,430.6435,433.6435,0,91,91,33,1,25,33,NA,NA,NA,NA,NA,1,92,"likert"
"4AAAF30F5B9349E4B8D844AD91FE0336",1,"0198f77d-0d3a-7339-bb63-4eb7b85057a3","0198f768-e4d2-711c-944b-6f03c09216de","2025-08-29_16h21.09.275",NA,NA,436.9912,436.9913,436.9913,437.3451,NA,NA,NA,NA,NA,NA,NA,TRUE,5,1.536,433.9912,436.9911,0,92,92,45,1,30,30,NA,NA,NA,NA,NA,1,93,"likert"
"4AAAF30F5B9349E4B8D844AD91FE0336",1,"0198f77d-0d3a-7339-bb63-4eb7b85057a3","0198f768-e4d2-711c-944b-6f03c09216de","2025-08-29_16h21.09.275",NA,NA,440.3457,440.3458,440.3458,440.6929,NA,NA,NA,NA,NA,NA,NA,TRUE,2,1.4961,437.3456,440.3456,0,93,93,97,1,180,31,NA,NA,NA,NA,NA,1,94,"likert"
"4AAAF30F5B9349E4B8D844AD91FE0336",1,"0198f77d-0d3a-7339-bb63-4eb7b85057a3","0198f768-e4d2-711c-944b-6f03c09216de","2025-08-29_16h21.09.275",NA,NA,443.6934,443.6934,443.6934,444.041,NA,NA,NA,NA,NA,NA,NA,TRUE,4,1.6114,440.6935,443.6933,0,94,94,1,1,7,26,NA,NA,NA,NA,NA,1,95,"likert"
"4AAAF30F5B9349E4B8D844AD91FE0336",1,"0198f77d-0d3a-7339-bb63-4eb7b85057a3","0198f768-e4d2-711c-944b-6f03c09216de","2025-08-29_16h21.09.275",NA,NA,447.0412,447.0412,447.0412,447.3978,NA,NA,NA,NA,NA,NA,NA,TRUE,2,1.8116,444.0415,447.0411,0,95,95,81,1,95,40,NA,NA,NA,NA,NA,1,96,"likert"
"4AAAF30F5B9349E4B8D844AD91FE0336",1,"0198f77d-0d3a-7339-bb63-4eb7b85057a3","0198f768-e4d2-711c-944b-6f03c09216de","2025-08-29_16h21.09.275",NA,NA,450.3957,450.3958,450.3958,450.7429,NA,NA,NA,NA,NA,NA,NA,TRUE,4,2.6543,447.3984,450.3956,0,96,96,83,1,95,54,NA,NA,NA,NA,NA,1,97,"likert"
"4AAAF30F5B9349E4B8D844AD91FE0336",1,"0198f77d-0d3a-7339-bb63-4eb7b85057a3","0198f768-e4d2-711c-944b-6f03c09216de","2025-08-29_16h21.09.275",NA,NA,453.7434,453.7434,453.7434,454.0906,NA,NA,NA,NA,NA,NA,NA,TRUE,2,1.4476,450.7436,453.7433,0,97,97,78,1,95,31,NA,NA,NA,NA,NA,1,98,"likert"
"4AAAF30F5B9349E4B8D844AD91FE0336",1,"0198f77d-0d3a-7339-bb63-4eb7b85057a3","0198f768-e4d2-711c-944b-6f03c09216de","2025-08-29_16h21.09.275",NA,NA,457.0911,457.0912,457.0912,457.4453,NA,NA,NA,NA,NA,NA,NA,TRUE,1,1.4285,454.0914,457.091,0,98,98,96,1,180,27,NA,NA,NA,NA,NA,1,99,"likert"
"4AAAF30F5B9349E4B8D844AD91FE0336",1,"0198f77d-0d3a-7339-bb63-4eb7b85057a3","0198f768-e4d2-711c-944b-6f03c09216de","2025-08-29_16h21.09.275",NA,NA,460.4458,460.4458,460.4459,460.7929,NA,NA,NA,NA,NA,NA,NA,TRUE,4,2.4405,457.4459,460.4457,0,99,99,26,1,21,29,NA,NA,NA,NA,NA,1,100,"likert"
"4AAAF30F5B9349E4B8D844AD91FE0336",1,"0198f77d-0d3a-7339-bb63-4eb7b85057a3","0198f768-e4d2-711c-944b-6f03c09216de","2025-08-29_16h21.09.275",NA,NA,463.7936,463.7936,463.7936,464.1406,NA,NA,NA,NA,NA,NA,NA,TRUE,2,2.0973,460.7936,463.7935,0,100,100,101,1,180,54,NA,NA,NA,NA,NA,1,101,"likert"
"4AAAF30F5B9349E4B8D844AD91FE0336",1,"0198f77d-0d3a-7339-bb63-4eb7b85057a3","0198f768-e4d2-711c-944b-6f03c09216de","2025-08-29_16h21.09.275",NA,NA,467.141,467.141,467.141,467.4953,NA,NA,NA,NA,NA,NA,NA,TRUE,2,2.3614,464.1411,467.141,0,101,101,89,1,100,54,NA,NA,NA,NA,NA,1,102,"likert"
"4AAAF30F5B9349E4B8D844AD91FE0336",1,"0198f77d-0d3a-7339-bb63-4eb7b85057a3","0198f768-e4d2-711c-944b-6f03c09216de","2025-08-29_16h21.09.275",NA,NA,470.4957,470.4958,470.4958,470.8429,NA,NA,NA,NA,NA,NA,NA,TRUE,1,1.1265,467.4957,470.4956,0,102,102,103,1,200,28,NA,NA,NA,NA,NA,1,103,"likert"
"4AAAF30F5B9349E4B8D844AD91FE0336",1,"0198f77d-0d3a-7339-bb63-4eb7b85057a3","0198f768-e4d2-711c-944b-6f03c09216de","2025-08-29_16h21.09.275",NA,NA,473.8435,473.8435,473.8435,474.1906,NA,NA,NA,NA,NA,NA,NA,TRUE,1,1.1738,470.8438,473.8435,0,103,103,72,1,90,26,NA,NA,NA,NA,NA,1,104,"likert"
"4AAAF30F5B9349E4B8D844AD91FE0336",1,"0198f77d-0d3a-7339-bb63-4eb7b85057a3","0198f768-e4d2-711c-944b-6f03c09216de","2025-08-29_16h21.09.275",NA,NA,477.1911,477.1911,477.1911,477.5412,NA,NA,NA,NA,NA,NA,NA,TRUE,4,2.2989,474.1912,477.1909,0,104,104,19,1,14,26,NA,NA,NA,NA,NA,1,105,"likert"
"4AAAF30F5B9349E4B8D844AD91FE0336",1,"0198f77d-0d3a-7339-bb63-4eb7b85057a3","0198f768-e4d2-711c-944b-6f03c09216de","2025-08-29_16h21.09.275",NA,NA,480.5458,480.5458,480.5458,480.8928,NA,NA,NA,NA,NA,NA,NA,TRUE,1,1.6526,477.542,480.5457,0,105,105,75,1,90,40,NA,NA,NA,NA,NA,1,106,"likert"
"4AAAF30F5B9349E4B8D844AD91FE0336",1,"0198f77d-0d3a-7339-bb63-4eb7b85057a3","0198f768-e4d2-711c-944b-6f03c09216de","2025-08-29_16h21.09.275",NA,NA,483.8935,483.8935,483.8936,484.2408,NA,NA,NA,NA,NA,NA,NA,TRUE,4,1.8657,480.8934,483.8934,0,106,106,20,1,14,28,NA,NA,NA,NA,NA,1,107,"likert"
"4AAAF30F5B9349E4B8D844AD91FE0336",1,"0198f77d-0d3a-7339-bb63-4eb7b85057a3","0198f768-e4d2-711c-944b-6f03c09216de","2025-08-29_16h21.09.275",NA,NA,487.2412,487.2412,487.2413,487.5952,NA,NA,NA,NA,NA,NA,NA,TRUE,2,1.8543,484.2413,487.2411,0,107,107,49,1,40,33,NA,NA,NA,NA,NA,1,108,"likert"
"4AAAF30F5B9349E4B8D844AD91FE0336",1,"0198f77d-0d3a-7339-bb63-4eb7b85057a3","0198f768-e4d2-711c-944b-6f03c09216de","2025-08-29_16h21.09.275",NA,NA,496.0478,496.0478,496.0478,496.3951,NA,NA,NA,NA,NA,NA,NA,TRUE,2,1.4064,493.0591,496.0478,NA,NA,NA,NA,NA,60,35,0,0,0,68,1,2,1,"likert"
"4AAAF30F5B9349E4B8D844AD91FE0336",1,"0198f77d-0d3a-7339-bb63-4eb7b85057a3","0198f768-e4d2-711c-944b-6f03c09216de","2025-08-29_16h21.09.275",NA,NA,499.3954,499.3954,499.3954,499.7426,NA,NA,NA,NA,NA,NA,NA,TRUE,2,1.3961,496.3959,499.3954,NA,NA,NA,NA,NA,180,35,0,1,1,98,1,2,2,"likert"
"4AAAF30F5B9349E4B8D844AD91FE0336",1,"0198f77d-0d3a-7339-bb63-4eb7b85057a3","0198f768-e4d2-711c-944b-6f03c09216de","2025-08-29_16h21.09.275",NA,NA,502.7432,502.7433,502.7433,503.0973,NA,NA,NA,NA,NA,NA,NA,TRUE,2,2.3614,499.7435,502.7432,NA,NA,NA,NA,NA,21,26,0,2,2,24,1,2,3,"likert"
"4AAAF30F5B9349E4B8D844AD91FE0336",1,"0198f77d-0d3a-7339-bb63-4eb7b85057a3","0198f768-e4d2-711c-944b-6f03c09216de","2025-08-29_16h21.09.275",NA,NA,506.0979,506.0979,506.0979,506.4451,NA,NA,NA,NA,NA,NA,NA,TRUE,3,2.9522,503.0982,506.0978,NA,NA,NA,NA,NA,90,46,0,3,3,76,1,2,4,"likert"
"4AAAF30F5B9349E4B8D844AD91FE0336",1,"0198f77d-0d3a-7339-bb63-4eb7b85057a3","0198f768-e4d2-711c-944b-6f03c09216de","2025-08-29_16h21.09.275",NA,NA,509.4455,509.4455,509.4455,509.7937,NA,NA,NA,NA,NA,NA,NA,TRUE,2,1.6257,506.4455,509.4454,NA,NA,NA,NA,NA,150,47,0,4,4,94,1,2,5,"likert"
"4AAAF30F5B9349E4B8D844AD91FE0336",1,"0198f77d-0d3a-7339-bb63-4eb7b85057a3","0198f768-e4d2-711c-944b-6f03c09216de","2025-08-29_16h21.09.275",NA,NA,512.7932,512.7933,512.7933,513.1474,NA,NA,NA,NA,NA,NA,NA,TRUE,2,2.1947,509.7942,512.7931,NA,NA,NA,NA,NA,45,31,0,5,5,56,1,2,6,"likert"
"4AAAF30F5B9349E4B8D844AD91FE0336",1,"0198f77d-0d3a-7339-bb63-4eb7b85057a3","0198f768-e4d2-711c-944b-6f03c09216de","2025-08-29_16h21.09.275",NA,NA,516.1478,516.1478,516.1478,516.495,NA,NA,NA,NA,NA,NA,NA,TRUE,1,1.3705,513.1481,516.1477,NA,NA,NA,NA,NA,30,27,0,6,6,43,1,2,7,"likert"
"4AAAF30F5B9349E4B8D844AD91FE0336",1,"0198f77d-0d3a-7339-bb63-4eb7b85057a3","0198f768-e4d2-711c-944b-6f03c09216de","2025-08-29_16h21.09.275",NA,NA,519.4956,519.4956,519.4956,519.8427,NA,NA,NA,NA,NA,NA,NA,TRUE,5,2.1457,516.4955,519.4956,NA,NA,NA,NA,NA,28,46,0,7,7,41,1,2,8,"likert"
"4AAAF30F5B9349E4B8D844AD91FE0336",1,"0198f77d-0d3a-7339-bb63-4eb7b85057a3","0198f768-e4d2-711c-944b-6f03c09216de","2025-08-29_16h21.09.275",NA,NA,522.8432,522.8432,522.8433,523.1973,NA,NA,NA,NA,NA,NA,NA,TRUE,2,1.5135,519.8434,522.8431,NA,NA,NA,NA,NA,100,26,0,8,8,84,1,2,9,"likert"
"4AAAF30F5B9349E4B8D844AD91FE0336",1,"0198f77d-0d3a-7339-bb63-4eb7b85057a3","0198f768-e4d2-711c-944b-6f03c09216de","2025-08-29_16h21.09.275",NA,NA,526.1979,526.1979,526.198,526.5451,NA,NA,NA,NA,NA,NA,NA,TRUE,2,2.4482,523.1979,526.1978,NA,NA,NA,NA,NA,40,35,0,9,9,50,1,2,10,"likert"
"4AAAF30F5B9349E4B8D844AD91FE0336",1,"0198f77d-0d3a-7339-bb63-4eb7b85057a3","0198f768-e4d2-711c-944b-6f03c09216de","2025-08-29_16h21.09.275",NA,NA,529.5456,529.5456,529.5456,529.8927,NA,NA,NA,NA,NA,NA,NA,TRUE,2,2.5115,526.5456,529.5455,NA,NA,NA,NA,NA,100,54,0,10,10,89,1,2,11,"likert"
"4AAAF30F5B9349E4B8D844AD91FE0336",1,"0198f77d-0d3a-7339-bb63-4eb7b85057a3","0198f768-e4d2-711c-944b-6f03c09216de","2025-08-29_16h21.09.275",NA,NA,532.8931,532.8931,532.8931,533.2472,NA,NA,NA,NA,NA,NA,NA,TRUE,5,2.306,529.8938,532.893,NA,NA,NA,NA,NA,21,38,0,11,11,29,1,2,12,"likert"
"4AAAF30F5B9349E4B8D844AD91FE0336",1,"0198f77d-0d3a-7339-bb63-4eb7b85057a3","0198f768-e4d2-711c-944b-6f03c09216de","2025-08-29_16h21.09.275",NA,NA,536.2478,536.2479,536.2479,536.5949,NA,NA,NA,NA,NA,NA,NA,TRUE,4,1.9189,533.2477,536.2477,NA,NA,NA,NA,NA,25,31,0,12,12,32,1,2,13,"likert"
"4AAAF30F5B9349E4B8D844AD91FE0336",1,"0198f77d-0d3a-7339-bb63-4eb7b85057a3","0198f768-e4d2-711c-944b-6f03c09216de","2025-08-29_16h21.09.275",NA,NA,539.5956,539.5956,539.5956,539.9427,NA,NA,NA,NA,NA,NA,NA,TRUE,1,1.9475,536.5955,539.5956,NA,NA,NA,NA,NA,12,25,0,13,13,12,1,2,14,"likert"
"4AAAF30F5B9349E4B8D844AD91FE0336",1,"0198f77d-0d3a-7339-bb63-4eb7b85057a3","0198f768-e4d2-711c-944b-6f03c09216de","2025-08-29_16h21.09.275",NA,NA,542.9434,543.1931,543.1932,543.2973,NA,NA,NA,NA,NA,NA,NA,FALSE,NA,NA,539.9433,542.9433,NA,NA,NA,NA,NA,30,38,0,14,14,47,1,2,15,"likert"
"4AAAF30F5B9349E4B8D844AD91FE0336",1,"0198f77d-0d3a-7339-bb63-4eb7b85057a3","0198f768-e4d2-711c-944b-6f03c09216de","2025-08-29_16h21.09.275",NA,NA,546.2978,546.2978,546.2978,546.645,NA,NA,NA,NA,NA,NA,NA,TRUE,2,1.6289,543.2979,546.2977,NA,NA,NA,NA,NA,95,40,0,15,15,81,1,2,16,"likert"
"4AAAF30F5B9349E4B8D844AD91FE0336",1,"0198f77d-0d3a-7339-bb63-4eb7b85057a3","0198f768-e4d2-711c-944b-6f03c09216de","2025-08-29_16h21.09.275",NA,NA,549.6457,549.6457,549.6458,549.9927,NA,NA,NA,NA,NA,NA,NA,TRUE,1,1.4336,546.6455,549.6456,NA,NA,NA,NA,NA,12,26,0,16,16,13,1,2,17,"likert"
"4AAAF30F5B9349E4B8D844AD91FE0336",1,"0198f77d-0d3a-7339-bb63-4eb7b85057a3","0198f768-e4d2-711c-944b-6f03c09216de","2025-08-29_16h21.09.275",NA,NA,552.9932,552.9932,552.9932,553.3473,NA,NA,NA,NA,NA,NA,NA,TRUE,2,2.9032,549.9934,552.9931,NA,NA,NA,NA,NA,95,31,0,17,17,78,1,2,18,"likert"
"4AAAF30F5B9349E4B8D844AD91FE0336",1,"0198f77d-0d3a-7339-bb63-4eb7b85057a3","0198f768-e4d2-711c-944b-6f03c09216de","2025-08-29_16h21.09.275",NA,NA,556.3477,556.3478,556.3478,556.6949,NA,NA,NA,NA,NA,NA,NA,TRUE,1,2.2121,553.3479,556.3477,NA,NA,NA,NA,NA,45,29,0,18,18,55,1,2,19,"likert"
"4AAAF30F5B9349E4B8D844AD91FE0336",1,"0198f77d-0d3a-7339-bb63-4eb7b85057a3","0198f768-e4d2-711c-944b-6f03c09216de","2025-08-29_16h21.09.275",NA,NA,559.6955,559.6955,559.6956,560.0427,NA,NA,NA,NA,NA,NA,NA,TRUE,5,1.9114,556.6955,559.6954,NA,NA,NA,NA,NA,45,46,0,19,19,59,1,2,20,"likert"
"4AAAF30F5B9349E4B8D844AD91FE0336",1,"0198f77d-0d3a-7339-bb63-4eb7b85057a3","0198f768-e4d2-711c-944b-6f03c09216de","2025-08-29_16h21.09.275",NA,NA,563.0431,563.0431,563.0432,563.3973,NA,NA,NA,NA,NA,NA,NA,TRUE,5,1.524,560.0433,563.043,NA,NA,NA,NA,NA,7,26,0,20,20,1,1,2,21,"likert"
"4AAAF30F5B9349E4B8D844AD91FE0336",1,"0198f77d-0d3a-7339-bb63-4eb7b85057a3","0198f768-e4d2-711c-944b-6f03c09216de","2025-08-29_16h21.09.275",NA,NA,566.3979,566.398,566.398,566.7451,NA,NA,NA,NA,NA,NA,NA,TRUE,4,2.8582,563.3979,566.3978,NA,NA,NA,NA,NA,28,39,0,21,21,40,1,2,22,"likert"
"4AAAF30F5B9349E4B8D844AD91FE0336",1,"0198f77d-0d3a-7339-bb63-4eb7b85057a3","0198f768-e4d2-711c-944b-6f03c09216de","2025-08-29_16h21.09.275",NA,NA,569.7455,569.7455,569.7455,570.0927,NA,NA,NA,NA,NA,NA,NA,TRUE,2,2.0141,566.7457,569.7454,NA,NA,NA,NA,NA,180,54,0,22,22,101,1,2,23,"likert"
"4AAAF30F5B9349E4B8D844AD91FE0336",1,"0198f77d-0d3a-7339-bb63-4eb7b85057a3","0198f768-e4d2-711c-944b-6f03c09216de","2025-08-29_16h21.09.275",NA,NA,573.0933,573.0933,573.0933,573.4473,NA,NA,NA,NA,NA,NA,NA,TRUE,1,2.1057,570.0933,573.0932,NA,NA,NA,NA,NA,12,28,0,23,23,14,1,2,24,"likert"
"4AAAF30F5B9349E4B8D844AD91FE0336",1,"0198f77d-0d3a-7339-bb63-4eb7b85057a3","0198f768-e4d2-711c-944b-6f03c09216de","2025-08-29_16h21.09.275",NA,NA,576.4477,576.4477,576.4478,576.795,NA,NA,NA,NA,NA,NA,NA,TRUE,2,2.3683,573.4479,576.4477,NA,NA,NA,NA,NA,200,39,0,24,24,105,1,2,25,"likert"
"4AAAF30F5B9349E4B8D844AD91FE0336",1,"0198f77d-0d3a-7339-bb63-4eb7b85057a3","0198f768-e4d2-711c-944b-6f03c09216de","2025-08-29_16h21.09.275",NA,NA,579.7954,579.7954,579.7954,580.1428,NA,NA,NA,NA,NA,NA,NA,TRUE,1,1.6614,576.7955,579.7953,NA,NA,NA,NA,NA,180,27,0,25,25,96,1,2,26,"likert"
"4AAAF30F5B9349E4B8D844AD91FE0336",1,"0198f77d-0d3a-7339-bb63-4eb7b85057a3","0198f768-e4d2-711c-944b-6f03c09216de","2025-08-29_16h21.09.275",NA,NA,583.1431,583.1431,583.1431,583.4927,NA,NA,NA,NA,NA,NA,NA,TRUE,5,1.4168,580.1434,583.143,NA,NA,NA,NA,NA,10,30,0,26,26,10,1,2,27,"likert"
"4AAAF30F5B9349E4B8D844AD91FE0336",1,"0198f77d-0d3a-7339-bb63-4eb7b85057a3","0198f768-e4d2-711c-944b-6f03c09216de","2025-08-29_16h21.09.275",NA,NA,586.5,586.5001,586.5002,586.845,NA,NA,NA,NA,NA,NA,NA,TRUE,5,1.1809,583.4933,586.5,NA,NA,NA,NA,NA,21,27,0,27,27,25,1,2,28,"likert"
"4AAAF30F5B9349E4B8D844AD91FE0336",1,"0198f77d-0d3a-7339-bb63-4eb7b85057a3","0198f768-e4d2-711c-944b-6f03c09216de","2025-08-29_16h21.09.275",NA,NA,589.8457,589.8457,589.8457,590.1927,NA,NA,NA,NA,NA,NA,NA,TRUE,2,1.7799,586.8456,589.8455,NA,NA,NA,NA,NA,200,26,0,28,28,102,1,2,29,"likert"
"4AAAF30F5B9349E4B8D844AD91FE0336",1,"0198f77d-0d3a-7339-bb63-4eb7b85057a3","0198f768-e4d2-711c-944b-6f03c09216de","2025-08-29_16h21.09.275",NA,NA,593.1932,593.1932,593.1932,593.5472,NA,NA,NA,NA,NA,NA,NA,TRUE,1,1.6619,590.1934,593.1931,NA,NA,NA,NA,NA,200,35,0,29,29,104,1,2,30,"likert"
"4AAAF30F5B9349E4B8D844AD91FE0336",1,"0198f77d-0d3a-7339-bb63-4eb7b85057a3","0198f768-e4d2-711c-944b-6f03c09216de","2025-08-29_16h21.09.275",NA,NA,596.5479,596.5479,596.5479,596.895,NA,NA,NA,NA,NA,NA,NA,TRUE,4,2.2366,593.5479,596.5478,NA,NA,NA,NA,NA,28,28,0,30,30,37,1,2,31,"likert"
"4AAAF30F5B9349E4B8D844AD91FE0336",1,"0198f77d-0d3a-7339-bb63-4eb7b85057a3","0198f768-e4d2-711c-944b-6f03c09216de","2025-08-29_16h21.09.275",NA,NA,599.8955,599.8955,599.8955,600.2427,NA,NA,NA,NA,NA,NA,NA,TRUE,2,1.8093,596.8955,599.8953,NA,NA,NA,NA,NA,100,38,0,31,31,86,1,2,32,"likert"
"4AAAF30F5B9349E4B8D844AD91FE0336",1,"0198f77d-0d3a-7339-bb63-4eb7b85057a3","0198f768-e4d2-711c-944b-6f03c09216de","2025-08-29_16h21.09.275",NA,NA,603.2432,603.2432,603.2432,603.5973,NA,NA,NA,NA,NA,NA,NA,TRUE,2,2.2679,600.2435,603.2431,NA,NA,NA,NA,NA,45,35,0,32,32,57,1,2,33,"likert"
"4AAAF30F5B9349E4B8D844AD91FE0336",1,"0198f77d-0d3a-7339-bb63-4eb7b85057a3","0198f768-e4d2-711c-944b-6f03c09216de","2025-08-29_16h21.09.275",NA,NA,606.5977,606.5978,606.5978,606.9451,NA,NA,NA,NA,NA,NA,NA,TRUE,1,1.1363,603.598,606.5977,NA,NA,NA,NA,NA,28,26,0,33,33,36,1,2,34,"likert"
"4AAAF30F5B9349E4B8D844AD91FE0336",1,"0198f77d-0d3a-7339-bb63-4eb7b85057a3","0198f768-e4d2-711c-944b-6f03c09216de","2025-08-29_16h21.09.275",NA,NA,609.9475,609.9475,609.9475,610.2926,NA,NA,NA,NA,NA,NA,NA,TRUE,2,1.2934,606.946,609.9475,NA,NA,NA,NA,NA,100,31,0,34,34,85,1,2,35,"likert"
"4AAAF30F5B9349E4B8D844AD91FE0336",1,"0198f77d-0d3a-7339-bb63-4eb7b85057a3","0198f768-e4d2-711c-944b-6f03c09216de","2025-08-29_16h21.09.275",NA,NA,613.2932,613.2932,613.2932,613.6473,NA,NA,NA,NA,NA,NA,NA,TRUE,4,1.8976,610.2932,613.2931,NA,NA,NA,NA,NA,28,32,0,35,35,38,1,2,36,"likert"
"4AAAF30F5B9349E4B8D844AD91FE0336",1,"0198f77d-0d3a-7339-bb63-4eb7b85057a3","0198f768-e4d2-711c-944b-6f03c09216de","2025-08-29_16h21.09.275",NA,NA,616.6477,616.6478,616.6478,616.9949,NA,NA,NA,NA,NA,NA,NA,TRUE,1,1.8699,613.6481,616.6477,NA,NA,NA,NA,NA,90,30,0,36,36,73,1,2,37,"likert"
"4AAAF30F5B9349E4B8D844AD91FE0336",1,"0198f77d-0d3a-7339-bb63-4eb7b85057a3","0198f768-e4d2-711c-944b-6f03c09216de","2025-08-29_16h21.09.275",NA,NA,619.9956,619.9956,619.9956,620.3426,NA,NA,NA,NA,NA,NA,NA,TRUE,5,1.8291,616.9954,619.9954,NA,NA,NA,NA,NA,40,54,0,37,37,53,1,2,38,"likert"
"4AAAF30F5B9349E4B8D844AD91FE0336",1,"0198f77d-0d3a-7339-bb63-4eb7b85057a3","0198f768-e4d2-711c-944b-6f03c09216de","2025-08-29_16h21.09.275",NA,NA,623.3431,623.3431,623.3431,623.6972,NA,NA,NA,NA,NA,NA,NA,TRUE,4,1.7223,620.3434,623.343,NA,NA,NA,NA,NA,10,32,0,38,38,11,1,2,39,"likert"
"4AAAF30F5B9349E4B8D844AD91FE0336",1,"0198f77d-0d3a-7339-bb63-4eb7b85057a3","0198f768-e4d2-711c-944b-6f03c09216de","2025-08-29_16h21.09.275",NA,NA,626.6978,626.6978,626.6978,627.0449,NA,NA,NA,NA,NA,NA,NA,TRUE,5,2.0077,623.6979,626.6976,NA,NA,NA,NA,NA,40,47,0,39,39,52,1,2,40,"likert"
"4AAAF30F5B9349E4B8D844AD91FE0336",1,"0198f77d-0d3a-7339-bb63-4eb7b85057a3","0198f768-e4d2-711c-944b-6f03c09216de","2025-08-29_16h21.09.275",NA,NA,630.0454,630.2955,630.2955,630.3927,NA,NA,NA,NA,NA,NA,NA,FALSE,NA,NA,627.0457,630.0454,NA,NA,NA,NA,NA,40,33,0,40,40,49,1,2,41,"likert"
"4AAAF30F5B9349E4B8D844AD91FE0336",1,"0198f77d-0d3a-7339-bb63-4eb7b85057a3","0198f768-e4d2-711c-944b-6f03c09216de","2025-08-29_16h21.09.275",NA,NA,633.3931,633.3931,633.3932,633.7473,NA,NA,NA,NA,NA,NA,NA,TRUE,1,1.0906,630.3932,633.3931,NA,NA,NA,NA,NA,25,27,0,41,41,30,1,2,42,"likert"
"4AAAF30F5B9349E4B8D844AD91FE0336",1,"0198f77d-0d3a-7339-bb63-4eb7b85057a3","0198f768-e4d2-711c-944b-6f03c09216de","2025-08-29_16h21.09.275",NA,NA,636.7478,636.7478,636.7478,637.0951,NA,NA,NA,NA,NA,NA,NA,TRUE,1,1.7132,633.7478,636.7477,NA,NA,NA,NA,NA,95,54,0,42,42,83,1,2,43,"likert"
"4AAAF30F5B9349E4B8D844AD91FE0336",1,"0198f77d-0d3a-7339-bb63-4eb7b85057a3","0198f768-e4d2-711c-944b-6f03c09216de","2025-08-29_16h21.09.275",NA,NA,640.0954,640.0954,640.0954,640.4426,NA,NA,NA,NA,NA,NA,NA,TRUE,2,2.1582,637.0956,640.0954,NA,NA,NA,NA,NA,60,29,0,43,43,66,1,2,44,"likert"
"4AAAF30F5B9349E4B8D844AD91FE0336",1,"0198f77d-0d3a-7339-bb63-4eb7b85057a3","0198f768-e4d2-711c-944b-6f03c09216de","2025-08-29_16h21.09.275",NA,NA,643.4432,643.4433,643.4433,643.7974,NA,NA,NA,NA,NA,NA,NA,TRUE,5,1.6883,640.4431,643.4432,NA,NA,NA,NA,NA,10,29,0,44,44,9,1,2,45,"likert"
"4AAAF30F5B9349E4B8D844AD91FE0336",1,"0198f77d-0d3a-7339-bb63-4eb7b85057a3","0198f768-e4d2-711c-944b-6f03c09216de","2025-08-29_16h21.09.275",NA,NA,646.7977,646.7977,646.7978,647.145,NA,NA,NA,NA,NA,NA,NA,TRUE,5,0.972,643.7978,646.7976,NA,NA,NA,NA,NA,12,35,0,45,45,17,1,2,46,"likert"
"4AAAF30F5B9349E4B8D844AD91FE0336",1,"0198f77d-0d3a-7339-bb63-4eb7b85057a3","0198f768-e4d2-711c-944b-6f03c09216de","2025-08-29_16h21.09.275",NA,NA,650.1456,650.1456,650.1457,650.4927,NA,NA,NA,NA,NA,NA,NA,TRUE,5,1.5484,647.1459,650.1455,NA,NA,NA,NA,NA,7,28,0,46,46,2,1,2,47,"likert"
"4AAAF30F5B9349E4B8D844AD91FE0336",1,"0198f77d-0d3a-7339-bb63-4eb7b85057a3","0198f768-e4d2-711c-944b-6f03c09216de","2025-08-29_16h21.09.275",NA,NA,653.4931,653.4931,653.4931,653.8472,NA,NA,NA,NA,NA,NA,NA,TRUE,2,1.9289,650.4932,653.493,NA,NA,NA,NA,NA,30,29,0,47,47,44,1,2,48,"likert"
"4AAAF30F5B9349E4B8D844AD91FE0336",1,"0198f77d-0d3a-7339-bb63-4eb7b85057a3","0198f768-e4d2-711c-944b-6f03c09216de","2025-08-29_16h21.09.275",NA,NA,656.8478,656.8479,656.8479,657.195,NA,NA,NA,NA,NA,NA,NA,TRUE,5,2.4508,653.8478,656.8478,NA,NA,NA,NA,NA,21,29,0,48,48,26,1,2,49,"likert"
"4AAAF30F5B9349E4B8D844AD91FE0336",1,"0198f77d-0d3a-7339-bb63-4eb7b85057a3","0198f768-e4d2-711c-944b-6f03c09216de","2025-08-29_16h21.09.275",NA,NA,660.1954,660.4456,660.4456,660.5427,NA,NA,NA,NA,NA,NA,NA,FALSE,NA,NA,657.1956,660.1953,NA,NA,NA,NA,NA,100,46,0,49,49,88,1,2,50,"likert"
"4AAAF30F5B9349E4B8D844AD91FE0336",1,"0198f77d-0d3a-7339-bb63-4eb7b85057a3","0198f768-e4d2-711c-944b-6f03c09216de","2025-08-29_16h21.09.275",NA,NA,663.5432,663.5432,663.5433,663.8973,NA,NA,NA,NA,NA,NA,NA,TRUE,1,1.9508,660.5432,663.543,NA,NA,NA,NA,NA,150,33,0,50,50,91,1,2,51,"likert"
"4AAAF30F5B9349E4B8D844AD91FE0336",1,"0198f77d-0d3a-7339-bb63-4eb7b85057a3","0198f768-e4d2-711c-944b-6f03c09216de","2025-08-29_16h21.09.275",NA,NA,666.8978,666.8978,666.8979,667.245,NA,NA,NA,NA,NA,NA,NA,TRUE,2,2.2483,663.8978,666.8977,NA,NA,NA,NA,NA,150,40,0,51,51,93,1,2,52,"likert"
"4AAAF30F5B9349E4B8D844AD91FE0336",1,"0198f77d-0d3a-7339-bb63-4eb7b85057a3","0198f768-e4d2-711c-944b-6f03c09216de","2025-08-29_16h21.09.275",NA,NA,670.2453,670.2454,670.2454,670.5928,NA,NA,NA,NA,NA,NA,NA,TRUE,5,1.3526,667.2456,670.2453,NA,NA,NA,NA,NA,50,46,0,52,52,64,1,2,53,"likert"
"4AAAF30F5B9349E4B8D844AD91FE0336",1,"0198f77d-0d3a-7339-bb63-4eb7b85057a3","0198f768-e4d2-711c-944b-6f03c09216de","2025-08-29_16h21.09.275",NA,NA,673.5932,673.5933,673.5933,673.9472,NA,NA,NA,NA,NA,NA,NA,TRUE,2,2.2281,670.5933,673.5931,NA,NA,NA,NA,NA,95,47,0,53,53,82,1,2,54,"likert"
"4AAAF30F5B9349E4B8D844AD91FE0336",1,"0198f77d-0d3a-7339-bb63-4eb7b85057a3","0198f768-e4d2-711c-944b-6f03c09216de","2025-08-29_16h21.09.275",NA,NA,676.9477,676.9478,676.9479,677.295,NA,NA,NA,NA,NA,NA,NA,TRUE,2,2.9644,673.9479,676.9476,NA,NA,NA,NA,NA,60,40,0,54,54,69,1,2,55,"likert"
"4AAAF30F5B9349E4B8D844AD91FE0336",1,"0198f77d-0d3a-7339-bb63-4eb7b85057a3","0198f768-e4d2-711c-944b-6f03c09216de","2025-08-29_16h21.09.275",NA,NA,680.2955,680.2955,680.2955,680.6425,NA,NA,NA,NA,NA,NA,NA,TRUE,1,2.5396,677.2957,680.2954,NA,NA,NA,NA,NA,60,47,0,55,55,70,1,2,56,"likert"
"4AAAF30F5B9349E4B8D844AD91FE0336",1,"0198f77d-0d3a-7339-bb63-4eb7b85057a3","0198f768-e4d2-711c-944b-6f03c09216de","2025-08-29_16h21.09.275",NA,NA,683.6432,683.6433,683.6433,683.9971,NA,NA,NA,NA,NA,NA,NA,TRUE,2,2.3543,680.6431,683.6431,NA,NA,NA,NA,NA,14,26,0,56,56,19,1,2,57,"likert"
"4AAAF30F5B9349E4B8D844AD91FE0336",1,"0198f77d-0d3a-7339-bb63-4eb7b85057a3","0198f768-e4d2-711c-944b-6f03c09216de","2025-08-29_16h21.09.275",NA,NA,686.9977,686.9978,686.9978,687.3448,NA,NA,NA,NA,NA,NA,NA,TRUE,1,1.2923,683.9978,686.9976,NA,NA,NA,NA,NA,150,31,0,57,57,90,1,2,58,"likert"
"4AAAF30F5B9349E4B8D844AD91FE0336",1,"0198f77d-0d3a-7339-bb63-4eb7b85057a3","0198f768-e4d2-711c-944b-6f03c09216de","2025-08-29_16h21.09.275",NA,NA,690.3454,690.3455,690.3455,690.6926,NA,NA,NA,NA,NA,NA,NA,TRUE,1,1.8665,687.3454,690.3454,NA,NA,NA,NA,NA,10,27,0,58,58,8,1,2,59,"likert"
"4AAAF30F5B9349E4B8D844AD91FE0336",1,"0198f77d-0d3a-7339-bb63-4eb7b85057a3","0198f768-e4d2-711c-944b-6f03c09216de","2025-08-29_16h21.09.275",NA,NA,693.693,693.693,693.6931,694.0472,NA,NA,NA,NA,NA,NA,NA,TRUE,2,2.5053,690.6933,693.693,NA,NA,NA,NA,NA,28,35,0,59,59,39,1,2,60,"likert"
"4AAAF30F5B9349E4B8D844AD91FE0336",1,"0198f77d-0d3a-7339-bb63-4eb7b85057a3","0198f768-e4d2-711c-944b-6f03c09216de","2025-08-29_16h21.09.275",NA,NA,697.0477,697.0477,697.0477,697.3949,NA,NA,NA,NA,NA,NA,NA,TRUE,2,1.4465,694.0477,697.0476,NA,NA,NA,NA,NA,50,30,0,60,60,61,1,2,61,"likert"
"4AAAF30F5B9349E4B8D844AD91FE0336",1,"0198f77d-0d3a-7339-bb63-4eb7b85057a3","0198f768-e4d2-711c-944b-6f03c09216de","2025-08-29_16h21.09.275",NA,NA,700.3954,700.3954,700.3954,700.7429,NA,NA,NA,NA,NA,NA,NA,TRUE,2,2.2194,697.3957,700.3953,NA,NA,NA,NA,NA,10,26,0,61,61,7,1,2,62,"likert"
"4AAAF30F5B9349E4B8D844AD91FE0336",1,"0198f77d-0d3a-7339-bb63-4eb7b85057a3","0198f768-e4d2-711c-944b-6f03c09216de","2025-08-29_16h21.09.275",NA,NA,703.7431,703.7431,703.7431,704.0973,NA,NA,NA,NA,NA,NA,NA,TRUE,2,2.5934,700.7434,703.7429,NA,NA,NA,NA,NA,50,40,0,62,62,63,1,2,63,"likert"
"4AAAF30F5B9349E4B8D844AD91FE0336",1,"0198f77d-0d3a-7339-bb63-4eb7b85057a3","0198f768-e4d2-711c-944b-6f03c09216de","2025-08-29_16h21.09.275",NA,NA,707.0977,707.0977,707.0978,707.4472,NA,NA,NA,NA,NA,NA,NA,TRUE,5,1.356,704.0982,707.0976,NA,NA,NA,NA,NA,7,30,0,63,63,3,1,2,64,"likert"
"4AAAF30F5B9349E4B8D844AD91FE0336",1,"0198f77d-0d3a-7339-bb63-4eb7b85057a3","0198f768-e4d2-711c-944b-6f03c09216de","2025-08-29_16h21.09.275",NA,NA,710.4454,710.4454,710.4454,710.7927,NA,NA,NA,NA,NA,NA,NA,TRUE,2,1.8722,707.4477,710.4453,NA,NA,NA,NA,NA,45,26,0,64,64,54,1,2,65,"likert"
"4AAAF30F5B9349E4B8D844AD91FE0336",1,"0198f77d-0d3a-7339-bb63-4eb7b85057a3","0198f768-e4d2-711c-944b-6f03c09216de","2025-08-29_16h21.09.275",NA,NA,713.793,713.793,713.793,714.1473,NA,NA,NA,NA,NA,NA,NA,TRUE,5,1.494,710.7934,713.7929,NA,NA,NA,NA,NA,14,39,0,65,65,23,1,2,66,"likert"
"4AAAF30F5B9349E4B8D844AD91FE0336",1,"0198f77d-0d3a-7339-bb63-4eb7b85057a3","0198f768-e4d2-711c-944b-6f03c09216de","2025-08-29_16h21.09.275",NA,NA,717.1476,717.1477,717.1477,717.4951,NA,NA,NA,NA,NA,NA,NA,TRUE,2,1.78,714.1479,717.1476,NA,NA,NA,NA,NA,180,46,0,66,66,100,1,2,67,"likert"
"4AAAF30F5B9349E4B8D844AD91FE0336",1,"0198f77d-0d3a-7339-bb63-4eb7b85057a3","0198f768-e4d2-711c-944b-6f03c09216de","2025-08-29_16h21.09.275",NA,NA,720.4954,720.4955,720.4955,720.8425,NA,NA,NA,NA,NA,NA,NA,TRUE,4,2.4798,717.4956,720.4954,NA,NA,NA,NA,NA,90,54,0,67,67,77,1,2,68,"likert"
"4AAAF30F5B9349E4B8D844AD91FE0336",1,"0198f77d-0d3a-7339-bb63-4eb7b85057a3","0198f768-e4d2-711c-944b-6f03c09216de","2025-08-29_16h21.09.275",NA,NA,723.8431,723.8431,723.8431,724.1973,NA,NA,NA,NA,NA,NA,NA,TRUE,2,2.5876,720.8431,723.843,NA,NA,NA,NA,NA,100,39,0,68,68,87,1,2,69,"likert"
"4AAAF30F5B9349E4B8D844AD91FE0336",1,"0198f77d-0d3a-7339-bb63-4eb7b85057a3","0198f768-e4d2-711c-944b-6f03c09216de","2025-08-29_16h21.09.275",NA,NA,727.1976,727.1976,727.1976,727.5451,NA,NA,NA,NA,NA,NA,NA,TRUE,2,2.424,724.1979,727.1975,NA,NA,NA,NA,NA,50,35,0,69,69,62,1,2,70,"likert"
"4AAAF30F5B9349E4B8D844AD91FE0336",1,"0198f77d-0d3a-7339-bb63-4eb7b85057a3","0198f768-e4d2-711c-944b-6f03c09216de","2025-08-29_16h21.09.275",NA,NA,730.5453,730.5453,730.5453,730.8926,NA,NA,NA,NA,NA,NA,NA,TRUE,1,1.9584,727.546,730.5453,NA,NA,NA,NA,NA,180,31,0,70,70,97,1,2,71,"likert"
"4AAAF30F5B9349E4B8D844AD91FE0336",1,"0198f77d-0d3a-7339-bb63-4eb7b85057a3","0198f768-e4d2-711c-944b-6f03c09216de","2025-08-29_16h21.09.275",NA,NA,733.8954,733.8954,733.8954,734.2471,NA,NA,NA,NA,NA,NA,NA,TRUE,5,1.4376,730.8932,733.8952,NA,NA,NA,NA,NA,50,54,0,71,71,65,1,2,72,"likert"
"4AAAF30F5B9349E4B8D844AD91FE0336",1,"0198f77d-0d3a-7339-bb63-4eb7b85057a3","0198f768-e4d2-711c-944b-6f03c09216de","2025-08-29_16h21.09.275",NA,NA,737.2477,737.2477,737.2477,737.5948,NA,NA,NA,NA,NA,NA,NA,TRUE,2,2.2461,734.2478,737.2476,NA,NA,NA,NA,NA,14,32,0,72,72,21,1,2,73,"likert"
"4AAAF30F5B9349E4B8D844AD91FE0336",1,"0198f77d-0d3a-7339-bb63-4eb7b85057a3","0198f768-e4d2-711c-944b-6f03c09216de","2025-08-29_16h21.09.275",NA,NA,740.5953,740.5953,740.5953,740.9426,NA,NA,NA,NA,NA,NA,NA,TRUE,1,2.1822,737.5954,740.5953,NA,NA,NA,NA,NA,30,26,0,73,73,42,1,2,74,"likert"
"4AAAF30F5B9349E4B8D844AD91FE0336",1,"0198f77d-0d3a-7339-bb63-4eb7b85057a3","0198f768-e4d2-711c-944b-6f03c09216de","2025-08-29_16h21.09.275",NA,NA,743.9432,743.9433,743.9433,744.2972,NA,NA,NA,NA,NA,NA,NA,TRUE,2,1.8078,740.9432,743.9431,NA,NA,NA,NA,NA,60,33,0,74,74,67,1,2,75,"likert"
"4AAAF30F5B9349E4B8D844AD91FE0336",1,"0198f77d-0d3a-7339-bb63-4eb7b85057a3","0198f768-e4d2-711c-944b-6f03c09216de","2025-08-29_16h21.09.275",NA,NA,747.2976,747.2977,747.2977,747.645,NA,NA,NA,NA,NA,NA,NA,TRUE,2,1.3005,744.2977,747.2976,NA,NA,NA,NA,NA,200,54,0,75,75,107,1,2,76,"likert"
"4AAAF30F5B9349E4B8D844AD91FE0336",1,"0198f77d-0d3a-7339-bb63-4eb7b85057a3","0198f768-e4d2-711c-944b-6f03c09216de","2025-08-29_16h21.09.275",NA,NA,750.6454,750.8954,750.8954,750.9925,NA,NA,NA,NA,NA,NA,NA,FALSE,NA,NA,747.6456,750.6453,NA,NA,NA,NA,NA,25,35,0,76,76,34,1,2,77,"likert"
"4AAAF30F5B9349E4B8D844AD91FE0336",1,"0198f77d-0d3a-7339-bb63-4eb7b85057a3","0198f768-e4d2-711c-944b-6f03c09216de","2025-08-29_16h21.09.275",NA,NA,753.9931,753.9931,753.9931,754.3471,NA,NA,NA,NA,NA,NA,NA,TRUE,2,1.6141,750.9935,753.993,NA,NA,NA,NA,NA,180,39,0,77,77,99,1,2,78,"likert"
"4AAAF30F5B9349E4B8D844AD91FE0336",1,"0198f77d-0d3a-7339-bb63-4eb7b85057a3","0198f768-e4d2-711c-944b-6f03c09216de","2025-08-29_16h21.09.275",NA,NA,757.3476,757.3477,757.3477,757.6948,NA,NA,NA,NA,NA,NA,NA,TRUE,4,2.3141,754.3476,757.3476,NA,NA,NA,NA,NA,12,31,0,78,78,15,1,2,79,"likert"
"4AAAF30F5B9349E4B8D844AD91FE0336",1,"0198f77d-0d3a-7339-bb63-4eb7b85057a3","0198f768-e4d2-711c-944b-6f03c09216de","2025-08-29_16h21.09.275",NA,NA,760.6954,760.6954,760.6954,761.0426,NA,NA,NA,NA,NA,NA,NA,TRUE,1,1.8402,757.6956,760.6953,NA,NA,NA,NA,NA,10,25,0,79,79,6,1,2,80,"likert"
"4AAAF30F5B9349E4B8D844AD91FE0336",1,"0198f77d-0d3a-7339-bb63-4eb7b85057a3","0198f768-e4d2-711c-944b-6f03c09216de","2025-08-29_16h21.09.275",NA,NA,764.043,764.043,764.043,764.3971,NA,NA,NA,NA,NA,NA,NA,TRUE,5,1.4865,761.0431,764.043,NA,NA,NA,NA,NA,7,32,0,80,80,4,1,2,81,"likert"
"4AAAF30F5B9349E4B8D844AD91FE0336",1,"0198f77d-0d3a-7339-bb63-4eb7b85057a3","0198f768-e4d2-711c-944b-6f03c09216de","2025-08-29_16h21.09.275",NA,NA,767.3977,767.3977,767.3977,767.7449,NA,NA,NA,NA,NA,NA,NA,TRUE,2,1.4799,764.3977,767.3976,NA,NA,NA,NA,NA,95,33,0,81,81,79,1,2,82,"likert"
"4AAAF30F5B9349E4B8D844AD91FE0336",1,"0198f77d-0d3a-7339-bb63-4eb7b85057a3","0198f768-e4d2-711c-944b-6f03c09216de","2025-08-29_16h21.09.275",NA,NA,770.7453,770.7453,770.7453,771.0925,NA,NA,NA,NA,NA,NA,NA,TRUE,2,1.007,767.7457,770.7453,NA,NA,NA,NA,NA,150,35,0,82,82,92,1,2,83,"likert"
"4AAAF30F5B9349E4B8D844AD91FE0336",1,"0198f77d-0d3a-7339-bb63-4eb7b85057a3","0198f768-e4d2-711c-944b-6f03c09216de","2025-08-29_16h21.09.275",NA,NA,774.0932,774.0932,774.0932,774.4472,NA,NA,NA,NA,NA,NA,NA,TRUE,1,1.3138,771.0931,774.0931,NA,NA,NA,NA,NA,150,54,0,83,83,95,1,2,84,"likert"
"4AAAF30F5B9349E4B8D844AD91FE0336",1,"0198f77d-0d3a-7339-bb63-4eb7b85057a3","0198f768-e4d2-711c-944b-6f03c09216de","2025-08-29_16h21.09.275",NA,NA,777.4429,777.4429,777.4429,777.7948,NA,NA,NA,NA,NA,NA,NA,TRUE,1,2.0243,774.4478,777.4429,NA,NA,NA,NA,NA,21,30,0,84,84,27,1,2,85,"likert"
"4AAAF30F5B9349E4B8D844AD91FE0336",1,"0198f77d-0d3a-7339-bb63-4eb7b85057a3","0198f768-e4d2-711c-944b-6f03c09216de","2025-08-29_16h21.09.275",NA,NA,780.7954,780.7954,780.7954,781.1426,NA,NA,NA,NA,NA,NA,NA,TRUE,4,1.9724,777.7954,780.7953,NA,NA,NA,NA,NA,60,54,0,85,85,71,1,2,86,"likert"
"4AAAF30F5B9349E4B8D844AD91FE0336",1,"0198f77d-0d3a-7339-bb63-4eb7b85057a3","0198f768-e4d2-711c-944b-6f03c09216de","2025-08-29_16h21.09.275",NA,NA,784.1431,784.1431,784.1431,784.4924,NA,NA,NA,NA,NA,NA,NA,TRUE,2,1.8405,781.1433,784.143,NA,NA,NA,NA,NA,14,35,0,86,86,22,1,2,87,"likert"
"4AAAF30F5B9349E4B8D844AD91FE0336",1,"0198f77d-0d3a-7339-bb63-4eb7b85057a3","0198f768-e4d2-711c-944b-6f03c09216de","2025-08-29_16h21.09.275",NA,NA,787.4976,787.4977,787.4977,787.8448,NA,NA,NA,NA,NA,NA,NA,TRUE,4,2.8143,784.493,787.4975,NA,NA,NA,NA,NA,30,32,0,87,87,46,1,2,88,"likert"
"4AAAF30F5B9349E4B8D844AD91FE0336",1,"0198f77d-0d3a-7339-bb63-4eb7b85057a3","0198f768-e4d2-711c-944b-6f03c09216de","2025-08-29_16h21.09.275",NA,NA,790.8453,790.8453,790.8453,791.1947,NA,NA,NA,NA,NA,NA,NA,TRUE,4,2.2094,787.8455,790.8452,NA,NA,NA,NA,NA,21,32,0,88,88,28,1,2,89,"likert"
"4AAAF30F5B9349E4B8D844AD91FE0336",1,"0198f77d-0d3a-7339-bb63-4eb7b85057a3","0198f768-e4d2-711c-944b-6f03c09216de","2025-08-29_16h21.09.275",NA,NA,794.1931,794.1931,794.1932,794.5472,NA,NA,NA,NA,NA,NA,NA,TRUE,2,1.632,791.1952,794.193,NA,NA,NA,NA,NA,40,27,0,89,89,48,1,2,90,"likert"
"4AAAF30F5B9349E4B8D844AD91FE0336",1,"0198f77d-0d3a-7339-bb63-4eb7b85057a3","0198f768-e4d2-711c-944b-6f03c09216de","2025-08-29_16h21.09.275",NA,NA,797.5477,797.5477,797.5477,797.8949,NA,NA,NA,NA,NA,NA,NA,TRUE,2,1.8687,794.5478,797.5477,NA,NA,NA,NA,NA,90,33,0,90,90,74,1,2,91,"likert"
"4AAAF30F5B9349E4B8D844AD91FE0336",1,"0198f77d-0d3a-7339-bb63-4eb7b85057a3","0198f768-e4d2-711c-944b-6f03c09216de","2025-08-29_16h21.09.275",NA,NA,800.8953,800.8953,800.8953,801.2427,NA,NA,NA,NA,NA,NA,NA,TRUE,2,1.7777,797.8956,800.8952,NA,NA,NA,NA,NA,90,40,0,91,91,75,1,2,92,"likert"
"4AAAF30F5B9349E4B8D844AD91FE0336",1,"0198f77d-0d3a-7339-bb63-4eb7b85057a3","0198f768-e4d2-711c-944b-6f03c09216de","2025-08-29_16h21.09.275",NA,NA,804.2433,804.2433,804.2433,804.5971,NA,NA,NA,NA,NA,NA,NA,TRUE,4,1.9723,801.2432,804.2431,NA,NA,NA,NA,NA,40,40,0,92,92,51,1,2,93,"likert"
"4AAAF30F5B9349E4B8D844AD91FE0336",1,"0198f77d-0d3a-7339-bb63-4eb7b85057a3","0198f768-e4d2-711c-944b-6f03c09216de","2025-08-29_16h21.09.275",NA,NA,807.5976,807.5977,807.5977,807.9448,NA,NA,NA,NA,NA,NA,NA,TRUE,1,1.4173,804.5977,807.5976,NA,NA,NA,NA,NA,14,25,0,93,93,18,1,2,94,"likert"
"4AAAF30F5B9349E4B8D844AD91FE0336",1,"0198f77d-0d3a-7339-bb63-4eb7b85057a3","0198f768-e4d2-711c-944b-6f03c09216de","2025-08-29_16h21.09.275",NA,NA,810.9453,810.9453,810.9453,811.2949,NA,NA,NA,NA,NA,NA,NA,TRUE,5,1.5836,807.9454,810.9453,NA,NA,NA,NA,NA,7,35,0,94,94,5,1,2,95,"likert"
"4AAAF30F5B9349E4B8D844AD91FE0336",1,"0198f77d-0d3a-7339-bb63-4eb7b85057a3","0198f768-e4d2-711c-944b-6f03c09216de","2025-08-29_16h21.09.275",NA,NA,814.2953,814.2953,814.2953,814.6427,NA,NA,NA,NA,NA,NA,NA,TRUE,1,1.424,811.2954,814.2952,NA,NA,NA,NA,NA,95,35,0,95,95,80,1,2,96,"likert"
"4AAAF30F5B9349E4B8D844AD91FE0336",1,"0198f77d-0d3a-7339-bb63-4eb7b85057a3","0198f768-e4d2-711c-944b-6f03c09216de","2025-08-29_16h21.09.275",NA,NA,817.643,817.643,817.643,817.9972,NA,NA,NA,NA,NA,NA,NA,TRUE,4,1.7639,814.6432,817.6429,NA,NA,NA,NA,NA,12,33,0,96,96,16,1,2,97,"likert"
"4AAAF30F5B9349E4B8D844AD91FE0336",1,"0198f77d-0d3a-7339-bb63-4eb7b85057a3","0198f768-e4d2-711c-944b-6f03c09216de","2025-08-29_16h21.09.275",NA,NA,820.9976,820.9976,820.9976,821.3447,NA,NA,NA,NA,NA,NA,NA,TRUE,2,2.2916,817.9981,820.9975,NA,NA,NA,NA,NA,45,40,0,97,97,58,1,2,98,"likert"
"4AAAF30F5B9349E4B8D844AD91FE0336",1,"0198f77d-0d3a-7339-bb63-4eb7b85057a3","0198f768-e4d2-711c-944b-6f03c09216de","2025-08-29_16h21.09.275",NA,NA,824.3461,824.3461,824.3461,824.6924,NA,NA,NA,NA,NA,NA,NA,TRUE,5,1.3823,821.3454,824.346,NA,NA,NA,NA,NA,30,30,0,98,98,45,1,2,99,"likert"
"4AAAF30F5B9349E4B8D844AD91FE0336",1,"0198f77d-0d3a-7339-bb63-4eb7b85057a3","0198f768-e4d2-711c-944b-6f03c09216de","2025-08-29_16h21.09.275",NA,NA,827.693,827.693,827.693,828.048,NA,NA,NA,NA,NA,NA,NA,TRUE,1,2.1603,824.693,827.6929,NA,NA,NA,NA,NA,14,28,0,99,99,20,1,2,100,"likert"
"4AAAF30F5B9349E4B8D844AD91FE0336",1,"0198f77d-0d3a-7339-bb63-4eb7b85057a3","0198f768-e4d2-711c-944b-6f03c09216de","2025-08-29_16h21.09.275",NA,NA,831.0477,831.0478,831.0478,831.3948,NA,NA,NA,NA,NA,NA,NA,TRUE,1,0.9375,828.0486,831.0476,NA,NA,NA,NA,NA,200,28,0,100,100,103,1,2,101,"likert"
"4AAAF30F5B9349E4B8D844AD91FE0336",1,"0198f77d-0d3a-7339-bb63-4eb7b85057a3","0198f768-e4d2-711c-944b-6f03c09216de","2025-08-29_16h21.09.275",NA,NA,834.3952,834.3952,834.3952,834.7425,NA,NA,NA,NA,NA,NA,NA,TRUE,1,2.313,831.3952,834.3952,NA,NA,NA,NA,NA,50,27,0,101,101,60,1,2,102,"likert"
"4AAAF30F5B9349E4B8D844AD91FE0336",1,"0198f77d-0d3a-7339-bb63-4eb7b85057a3","0198f768-e4d2-711c-944b-6f03c09216de","2025-08-29_16h21.09.275",NA,NA,837.743,837.743,837.743,838.097,NA,NA,NA,NA,NA,NA,NA,TRUE,1,2.0906,834.7428,837.7429,NA,NA,NA,NA,NA,25,33,0,102,102,33,1,2,103,"likert"
"4AAAF30F5B9349E4B8D844AD91FE0336",1,"0198f77d-0d3a-7339-bb63-4eb7b85057a3","0198f768-e4d2-711c-944b-6f03c09216de","2025-08-29_16h21.09.275",NA,NA,841.0975,841.0975,841.0975,841.4447,NA,NA,NA,NA,NA,NA,NA,TRUE,1,1.3408,838.0974,841.0974,NA,NA,NA,NA,NA,25,29,0,103,103,31,1,2,104,"likert"
"4AAAF30F5B9349E4B8D844AD91FE0336",1,"0198f77d-0d3a-7339-bb63-4eb7b85057a3","0198f768-e4d2-711c-944b-6f03c09216de","2025-08-29_16h21.09.275",NA,NA,844.4453,844.4453,844.4453,844.7923,NA,NA,NA,NA,NA,NA,NA,TRUE,5,1.8337,841.4452,844.4452,NA,NA,NA,NA,NA,25,46,0,104,104,35,1,2,105,"likert"
"4AAAF30F5B9349E4B8D844AD91FE0336",1,"0198f77d-0d3a-7339-bb63-4eb7b85057a3","0198f768-e4d2-711c-944b-6f03c09216de","2025-08-29_16h21.09.275",NA,NA,847.793,847.793,847.793,848.1471,NA,NA,NA,NA,NA,NA,NA,TRUE,1,1.5697,844.7928,847.7929,NA,NA,NA,NA,NA,7,25,0,105,105,0,1,2,106,"likert"
"4AAAF30F5B9349E4B8D844AD91FE0336",1,"0198f77d-0d3a-7339-bb63-4eb7b85057a3","0198f768-e4d2-711c-944b-6f03c09216de","2025-08-29_16h21.09.275",NA,NA,851.1475,851.1475,851.1475,851.4946,NA,NA,NA,NA,NA,NA,NA,TRUE,1,2.3476,848.1477,851.1475,NA,NA,NA,NA,NA,90,26,0,106,106,72,1,2,107,"likert"
"4AAAF30F5B9349E4B8D844AD91FE0336",1,"0198f77d-0d3a-7339-bb63-4eb7b85057a3","0198f768-e4d2-711c-944b-6f03c09216de","2025-08-29_16h21.09.275",NA,NA,854.4951,854.4951,854.4951,854.8423,NA,NA,NA,NA,NA,NA,NA,TRUE,1,2.0143,851.4952,854.4951,NA,NA,NA,NA,NA,200,47,0,107,107,106,1,2,108,"likert"
