"participant","session","assignmentId","projectId","date","practiceTrial.started","practiceTrial.stopped","tooLate.started","tooLate.stopped","blank.started","blank.stopped","trials_pract.thisRepN","trials_pract.thisTrialN","trials_pract.thisN","trials_pract.thisIndex","trials_pract.ran","delay_pract","amount_pract","responseMade","key","rt","trial.started","trial.stopped","trials.thisRepN","trials.thisTrialN","trials.thisN","trials.thisIndex","trials.ran","delay","amount","trials_2.thisRepN","trials_2.thisTrialN","trials_2.thisN","trials_2.thisIndex","trials_2.ran","block","trial","taskType"
"53A9DC2D0EAC495CA82F4146B137FE76",1,"01990a98-d261-7268-b7e0-497b11850645","01990a84-c4ee-73c2-a87b-ff46a7d3dde5","2025-09-02_10h02.45.832",23.5688,26.5523,26.5533,26.8016,26.8017,26.9012,0,0,0,3,1,3,27,FALSE,NA,NA,NA,NA,NA,NA,NA,NA,NA,NA,NA,NA,NA,NA,NA,NA,0,1,"likert"
"53A9DC2D0EAC495CA82F4146B137FE76",1,"01990a98-d261-7268-b7e0-497b11850645","01990a84-c4ee-73c2-a87b-ff46a7d3dde5","2025-09-02_10h02.45.832",26.9032,29.9007,29.9008,30.152,30.1522,30.2521,0,1,1,2,1,14,45,FALSE,NA,NA,NA,NA,NA,NA,NA,NA,NA,NA,NA,NA,NA,NA,NA,NA,0,2,"likert"
"53A9DC2D0EAC495CA82F4146B137FE76",1,"01990a98-d261-7268-b7e0-497b11850645","01990a84-c4ee-73c2-a87b-ff46a7d3dde5","2025-09-02_10h02.45.832",30.254,33.2524,33.2526,33.2527,33.2528,33.6013,0,2,2,4,1,30,40,TRUE,5,2.6313,NA,NA,NA,NA,NA,NA,NA,NA,NA,NA,NA,NA,NA,NA,0,3,"likert"
"53A9DC2D0EAC495CA82F4146B137FE76",1,"01990a98-d261-7268-b7e0-497b11850645","01990a84-c4ee-73c2-a87b-ff46a7d3dde5","2025-09-02_10h02.45.832",33.6022,36.6023,36.6023,36.8519,36.852,36.9516,0,3,3,1,1,100,50,FALSE,NA,NA,NA,NA,NA,NA,NA,NA,NA,NA,NA,NA,NA,NA,NA,NA,0,4,"likert"
"53A9DC2D0EAC495CA82F4146B137FE76",1,"01990a98-d261-7268-b7e0-497b11850645","01990a84-c4ee-73c2-a87b-ff46a7d3dde5","2025-09-02_10h02.45.832",36.9532,39.9522,39.9523,39.9524,39.9524,40.3025,0,4,4,0,1,7,30,TRUE,3,2.7314,NA,NA,NA,NA,NA,NA,NA,NA,NA,NA,NA,NA,NA,NA,0,5,"likert"
"53A9DC2D0EAC495CA82F4146B137FE76",1,"01990a98-d261-7268-b7e0-497b11850645","01990a84-c4ee-73c2-a87b-ff46a7d3dde5","2025-09-02_10h02.45.832",NA,NA,59.3537,59.3539,59.354,59.7034,NA,NA,NA,NA,NA,NA,NA,TRUE,1,1.954,56.3827,59.3534,0,0,0,48,1,40,27,NA,NA,NA,NA,NA,1,1,"likert"
"53A9DC2D0EAC495CA82F4146B137FE76",1,"01990a98-d261-7268-b7e0-497b11850645","01990a84-c4ee-73c2-a87b-ff46a7d3dde5","2025-09-02_10h02.45.832",NA,NA,62.7031,62.7032,62.7032,63.0533,NA,NA,NA,NA,NA,NA,NA,TRUE,3,2.6586,59.7049,62.703,0,1,1,101,1,180,54,NA,NA,NA,NA,NA,1,2,"likert"
"53A9DC2D0EAC495CA82F4146B137FE76",1,"01990a98-d261-7268-b7e0-497b11850645","01990a84-c4ee-73c2-a87b-ff46a7d3dde5","2025-09-02_10h02.45.832",NA,NA,66.0537,66.3026,66.3027,66.4033,NA,NA,NA,NA,NA,NA,NA,FALSE,NA,NA,63.0546,66.0534,0,2,2,36,1,28,26,NA,NA,NA,NA,NA,1,3,"likert"
"53A9DC2D0EAC495CA82F4146B137FE76",1,"01990a98-d261-7268-b7e0-497b11850645","01990a84-c4ee-73c2-a87b-ff46a7d3dde5","2025-09-02_10h02.45.832",NA,NA,69.4029,69.403,69.403,69.7535,NA,NA,NA,NA,NA,NA,NA,TRUE,4,1.8466,66.4043,69.4027,0,3,3,53,1,40,54,NA,NA,NA,NA,NA,1,4,"likert"
"53A9DC2D0EAC495CA82F4146B137FE76",1,"01990a98-d261-7268-b7e0-497b11850645","01990a84-c4ee-73c2-a87b-ff46a7d3dde5","2025-09-02_10h02.45.832",NA,NA,72.7539,72.754,72.754,73.1037,NA,NA,NA,NA,NA,NA,NA,TRUE,5,2.1155,69.7548,72.7538,0,4,4,5,1,7,35,NA,NA,NA,NA,NA,1,5,"likert"
"53A9DC2D0EAC495CA82F4146B137FE76",1,"01990a98-d261-7268-b7e0-497b11850645","01990a84-c4ee-73c2-a87b-ff46a7d3dde5","2025-09-02_10h02.45.832",NA,NA,76.1039,76.104,76.104,76.4538,NA,NA,NA,NA,NA,NA,NA,TRUE,5,2.3562,73.105,76.1038,0,5,5,9,1,10,29,NA,NA,NA,NA,NA,1,6,"likert"
"53A9DC2D0EAC495CA82F4146B137FE76",1,"01990a98-d261-7268-b7e0-497b11850645","01990a84-c4ee-73c2-a87b-ff46a7d3dde5","2025-09-02_10h02.45.832",NA,NA,79.4529,79.4529,79.453,79.8039,NA,NA,NA,NA,NA,NA,NA,TRUE,3,1.8447,76.455,79.4527,0,6,6,31,1,25,29,NA,NA,NA,NA,NA,1,7,"likert"
"53A9DC2D0EAC495CA82F4146B137FE76",1,"01990a98-d261-7268-b7e0-497b11850645","01990a84-c4ee-73c2-a87b-ff46a7d3dde5","2025-09-02_10h02.45.832",NA,NA,82.8038,82.8038,82.8038,83.1538,NA,NA,NA,NA,NA,NA,NA,TRUE,3,1.8452,79.8051,82.8037,0,7,7,67,1,60,33,NA,NA,NA,NA,NA,1,8,"likert"
"53A9DC2D0EAC495CA82F4146B137FE76",1,"01990a98-d261-7268-b7e0-497b11850645","01990a84-c4ee-73c2-a87b-ff46a7d3dde5","2025-09-02_10h02.45.832",NA,NA,86.1536,86.1538,86.1538,86.5037,NA,NA,NA,NA,NA,NA,NA,TRUE,4,2.5611,83.1547,86.1535,0,8,8,99,1,180,39,NA,NA,NA,NA,NA,1,9,"likert"
"53A9DC2D0EAC495CA82F4146B137FE76",1,"01990a98-d261-7268-b7e0-497b11850645","01990a84-c4ee-73c2-a87b-ff46a7d3dde5","2025-09-02_10h02.45.832",NA,NA,89.5045,89.5046,89.5046,89.8543,NA,NA,NA,NA,NA,NA,NA,TRUE,3,2.2597,86.5049,89.5044,0,9,9,44,1,30,29,NA,NA,NA,NA,NA,1,10,"likert"
"53A9DC2D0EAC495CA82F4146B137FE76",1,"01990a98-d261-7268-b7e0-497b11850645","01990a84-c4ee-73c2-a87b-ff46a7d3dde5","2025-09-02_10h02.45.832",NA,NA,92.8537,93.1042,93.1043,93.2046,NA,NA,NA,NA,NA,NA,NA,FALSE,NA,NA,89.8555,92.8536,0,10,10,58,1,45,40,NA,NA,NA,NA,NA,1,11,"likert"
"53A9DC2D0EAC495CA82F4146B137FE76",1,"01990a98-d261-7268-b7e0-497b11850645","01990a84-c4ee-73c2-a87b-ff46a7d3dde5","2025-09-02_10h02.45.832",NA,NA,96.2045,96.4546,96.4546,96.5546,NA,NA,NA,NA,NA,NA,NA,FALSE,NA,NA,93.2059,96.2044,0,11,11,56,1,45,31,NA,NA,NA,NA,NA,1,12,"likert"
"53A9DC2D0EAC495CA82F4146B137FE76",1,"01990a98-d261-7268-b7e0-497b11850645","01990a84-c4ee-73c2-a87b-ff46a7d3dde5","2025-09-02_10h02.45.832",NA,NA,99.5546,99.5547,99.5547,99.9044,NA,NA,NA,NA,NA,NA,NA,TRUE,4,1.8139,96.5557,99.5544,0,12,12,83,1,95,54,NA,NA,NA,NA,NA,1,13,"likert"
"53A9DC2D0EAC495CA82F4146B137FE76",1,"01990a98-d261-7268-b7e0-497b11850645","01990a84-c4ee-73c2-a87b-ff46a7d3dde5","2025-09-02_10h02.45.832",NA,NA,102.9045,102.9045,102.9045,103.2549,NA,NA,NA,NA,NA,NA,NA,TRUE,5,2.3235,99.9057,102.9044,0,13,13,16,1,12,33,NA,NA,NA,NA,NA,1,14,"likert"
"53A9DC2D0EAC495CA82F4146B137FE76",1,"01990a98-d261-7268-b7e0-497b11850645","01990a84-c4ee-73c2-a87b-ff46a7d3dde5","2025-09-02_10h02.45.832",NA,NA,106.2554,106.2554,106.2555,106.6048,NA,NA,NA,NA,NA,NA,NA,TRUE,2,1.7796,103.2561,106.2552,0,14,14,78,1,95,31,NA,NA,NA,NA,NA,1,15,"likert"
"53A9DC2D0EAC495CA82F4146B137FE76",1,"01990a98-d261-7268-b7e0-497b11850645","01990a84-c4ee-73c2-a87b-ff46a7d3dde5","2025-09-02_10h02.45.832",NA,NA,109.6051,109.6051,109.6051,109.9548,NA,NA,NA,NA,NA,NA,NA,TRUE,4,2.1895,106.6056,109.6051,0,15,15,63,1,50,40,NA,NA,NA,NA,NA,1,16,"likert"
"53A9DC2D0EAC495CA82F4146B137FE76",1,"01990a98-d261-7268-b7e0-497b11850645","01990a84-c4ee-73c2-a87b-ff46a7d3dde5","2025-09-02_10h02.45.832",NA,NA,112.9554,112.9554,112.9554,113.305,NA,NA,NA,NA,NA,NA,NA,TRUE,2,1.5128,109.9556,112.9551,0,16,16,43,1,30,27,NA,NA,NA,NA,NA,1,17,"likert"
"53A9DC2D0EAC495CA82F4146B137FE76",1,"01990a98-d261-7268-b7e0-497b11850645","01990a84-c4ee-73c2-a87b-ff46a7d3dde5","2025-09-02_10h02.45.832",NA,NA,116.3056,116.3057,116.3057,116.6555,NA,NA,NA,NA,NA,NA,NA,TRUE,3,2.1896,113.3058,116.3053,0,17,17,13,1,12,26,NA,NA,NA,NA,NA,1,18,"likert"
"53A9DC2D0EAC495CA82F4146B137FE76",1,"01990a98-d261-7268-b7e0-497b11850645","01990a84-c4ee-73c2-a87b-ff46a7d3dde5","2025-09-02_10h02.45.832",NA,NA,119.6554,119.6555,119.6555,120.0052,NA,NA,NA,NA,NA,NA,NA,TRUE,1,1.5262,116.6571,119.6552,0,18,18,84,1,100,26,NA,NA,NA,NA,NA,1,19,"likert"
"53A9DC2D0EAC495CA82F4146B137FE76",1,"01990a98-d261-7268-b7e0-497b11850645","01990a84-c4ee-73c2-a87b-ff46a7d3dde5","2025-09-02_10h02.45.832",NA,NA,123.0057,123.0057,123.0057,123.3559,NA,NA,NA,NA,NA,NA,NA,TRUE,3,2.1844,120.0061,123.0054,0,19,19,85,1,100,31,NA,NA,NA,NA,NA,1,20,"likert"
"53A9DC2D0EAC495CA82F4146B137FE76",1,"01990a98-d261-7268-b7e0-497b11850645","01990a84-c4ee-73c2-a87b-ff46a7d3dde5","2025-09-02_10h02.45.832",NA,NA,126.3393,126.3394,126.3394,126.7058,NA,NA,NA,NA,NA,NA,NA,TRUE,2,1.8196,123.3579,126.3392,0,20,20,90,1,150,31,NA,NA,NA,NA,NA,1,21,"likert"
"53A9DC2D0EAC495CA82F4146B137FE76",1,"01990a98-d261-7268-b7e0-497b11850645","01990a84-c4ee-73c2-a87b-ff46a7d3dde5","2025-09-02_10h02.45.832",NA,NA,129.7061,129.7062,129.7062,130.0558,NA,NA,NA,NA,NA,NA,NA,TRUE,3,2.1888,126.7071,129.706,0,21,21,81,1,95,40,NA,NA,NA,NA,NA,1,22,"likert"
"53A9DC2D0EAC495CA82F4146B137FE76",1,"01990a98-d261-7268-b7e0-497b11850645","01990a84-c4ee-73c2-a87b-ff46a7d3dde5","2025-09-02_10h02.45.832",NA,NA,133.0563,133.0563,133.0564,133.4061,NA,NA,NA,NA,NA,NA,NA,TRUE,1,1.3037,130.0566,133.0561,0,22,22,60,1,50,27,NA,NA,NA,NA,NA,1,23,"likert"
"53A9DC2D0EAC495CA82F4146B137FE76",1,"01990a98-d261-7268-b7e0-497b11850645","01990a84-c4ee-73c2-a87b-ff46a7d3dde5","2025-09-02_10h02.45.832",NA,NA,136.4065,136.4065,136.4065,136.7563,NA,NA,NA,NA,NA,NA,NA,TRUE,3,2.0589,133.4073,136.4063,0,23,23,29,1,21,38,NA,NA,NA,NA,NA,1,24,"likert"
"53A9DC2D0EAC495CA82F4146B137FE76",1,"01990a98-d261-7268-b7e0-497b11850645","01990a84-c4ee-73c2-a87b-ff46a7d3dde5","2025-09-02_10h02.45.832",NA,NA,139.7566,139.7567,139.7567,140.1065,NA,NA,NA,NA,NA,NA,NA,TRUE,3,1.8086,136.7575,139.7564,0,24,24,17,1,12,35,NA,NA,NA,NA,NA,1,25,"likert"
"53A9DC2D0EAC495CA82F4146B137FE76",1,"01990a98-d261-7268-b7e0-497b11850645","01990a84-c4ee-73c2-a87b-ff46a7d3dde5","2025-09-02_10h02.45.832",NA,NA,143.0898,143.0898,143.0899,143.4398,NA,NA,NA,NA,NA,NA,NA,TRUE,2,1.4043,140.1082,143.0897,0,25,25,87,1,100,39,NA,NA,NA,NA,NA,1,26,"likert"
"53A9DC2D0EAC495CA82F4146B137FE76",1,"01990a98-d261-7268-b7e0-497b11850645","01990a84-c4ee-73c2-a87b-ff46a7d3dde5","2025-09-02_10h02.45.832",NA,NA,146.4569,146.4569,146.4569,146.8063,NA,NA,NA,NA,NA,NA,NA,TRUE,5,1.5305,143.4411,146.4567,0,26,26,71,1,60,54,NA,NA,NA,NA,NA,1,27,"likert"
"53A9DC2D0EAC495CA82F4146B137FE76",1,"01990a98-d261-7268-b7e0-497b11850645","01990a84-c4ee-73c2-a87b-ff46a7d3dde5","2025-09-02_10h02.45.832",NA,NA,149.7903,149.7904,149.7904,150.1401,NA,NA,NA,NA,NA,NA,NA,TRUE,2,2.8129,146.8072,149.7902,0,27,27,37,1,28,28,NA,NA,NA,NA,NA,1,28,"likert"
"53A9DC2D0EAC495CA82F4146B137FE76",1,"01990a98-d261-7268-b7e0-497b11850645","01990a84-c4ee-73c2-a87b-ff46a7d3dde5","2025-09-02_10h02.45.832",NA,NA,153.1404,153.1404,153.1404,153.4903,NA,NA,NA,NA,NA,NA,NA,TRUE,4,1.9849,150.1413,153.1403,0,28,28,52,1,40,47,NA,NA,NA,NA,NA,1,29,"likert"
"53A9DC2D0EAC495CA82F4146B137FE76",1,"01990a98-d261-7268-b7e0-497b11850645","01990a84-c4ee-73c2-a87b-ff46a7d3dde5","2025-09-02_10h02.45.832",NA,NA,156.4905,156.4906,156.4906,156.8405,NA,NA,NA,NA,NA,NA,NA,TRUE,1,1.5633,153.4917,156.4903,0,29,29,102,1,200,26,NA,NA,NA,NA,NA,1,30,"likert"
"53A9DC2D0EAC495CA82F4146B137FE76",1,"01990a98-d261-7268-b7e0-497b11850645","01990a84-c4ee-73c2-a87b-ff46a7d3dde5","2025-09-02_10h02.45.832",NA,NA,159.8578,159.8579,159.8579,160.1906,NA,NA,NA,NA,NA,NA,NA,TRUE,3,1.8523,156.8422,159.8574,0,30,30,39,1,28,35,NA,NA,NA,NA,NA,1,31,"likert"
"53A9DC2D0EAC495CA82F4146B137FE76",1,"01990a98-d261-7268-b7e0-497b11850645","01990a84-c4ee-73c2-a87b-ff46a7d3dde5","2025-09-02_10h02.45.832",NA,NA,163.1903,163.1904,163.1904,163.557,NA,NA,NA,NA,NA,NA,NA,TRUE,3,1.7395,160.1923,163.1903,0,31,31,15,1,12,31,NA,NA,NA,NA,NA,1,32,"likert"
"53A9DC2D0EAC495CA82F4146B137FE76",1,"01990a98-d261-7268-b7e0-497b11850645","01990a84-c4ee-73c2-a87b-ff46a7d3dde5","2025-09-02_10h02.45.832",NA,NA,166.5409,166.5409,166.5409,166.8909,NA,NA,NA,NA,NA,NA,NA,TRUE,2,1.6135,163.5578,166.5407,0,32,32,97,1,180,31,NA,NA,NA,NA,NA,1,33,"likert"
"53A9DC2D0EAC495CA82F4146B137FE76",1,"01990a98-d261-7268-b7e0-497b11850645","01990a84-c4ee-73c2-a87b-ff46a7d3dde5","2025-09-02_10h02.45.832",NA,NA,169.8908,169.891,169.891,170.2409,NA,NA,NA,NA,NA,NA,NA,TRUE,4,2.0618,166.8923,169.8907,0,33,33,8,1,10,27,NA,NA,NA,NA,NA,1,34,"likert"
"53A9DC2D0EAC495CA82F4146B137FE76",1,"01990a98-d261-7268-b7e0-497b11850645","01990a84-c4ee-73c2-a87b-ff46a7d3dde5","2025-09-02_10h02.45.832",NA,NA,173.2413,173.2413,173.2413,173.5912,NA,NA,NA,NA,NA,NA,NA,TRUE,2,1.906,170.2422,173.2412,0,34,34,68,1,60,35,NA,NA,NA,NA,NA,1,35,"likert"
"53A9DC2D0EAC495CA82F4146B137FE76",1,"01990a98-d261-7268-b7e0-497b11850645","01990a84-c4ee-73c2-a87b-ff46a7d3dde5","2025-09-02_10h02.45.832",NA,NA,176.5911,176.5911,176.5911,176.9412,NA,NA,NA,NA,NA,NA,NA,TRUE,1,2.1924,173.5932,176.591,0,35,35,66,1,60,29,NA,NA,NA,NA,NA,1,36,"likert"
"53A9DC2D0EAC495CA82F4146B137FE76",1,"01990a98-d261-7268-b7e0-497b11850645","01990a84-c4ee-73c2-a87b-ff46a7d3dde5","2025-09-02_10h02.45.832",NA,NA,179.9411,179.9411,179.9411,180.291,NA,NA,NA,NA,NA,NA,NA,TRUE,4,1.6813,176.9428,179.941,0,36,36,69,1,60,40,NA,NA,NA,NA,NA,1,37,"likert"
"53A9DC2D0EAC495CA82F4146B137FE76",1,"01990a98-d261-7268-b7e0-497b11850645","01990a84-c4ee-73c2-a87b-ff46a7d3dde5","2025-09-02_10h02.45.832",NA,NA,183.2917,183.2917,183.2917,183.6416,NA,NA,NA,NA,NA,NA,NA,TRUE,4,2.4195,180.2918,183.2915,0,37,37,14,1,12,28,NA,NA,NA,NA,NA,1,38,"likert"
"53A9DC2D0EAC495CA82F4146B137FE76",1,"01990a98-d261-7268-b7e0-497b11850645","01990a84-c4ee-73c2-a87b-ff46a7d3dde5","2025-09-02_10h02.45.832",NA,NA,186.6416,186.6416,186.6416,186.9916,NA,NA,NA,NA,NA,NA,NA,TRUE,3,2.3934,183.6432,186.6415,0,38,38,105,1,200,39,NA,NA,NA,NA,NA,1,39,"likert"
"53A9DC2D0EAC495CA82F4146B137FE76",1,"01990a98-d261-7268-b7e0-497b11850645","01990a84-c4ee-73c2-a87b-ff46a7d3dde5","2025-09-02_10h02.45.832",NA,NA,189.9919,189.992,189.992,190.3419,NA,NA,NA,NA,NA,NA,NA,TRUE,3,1.4619,186.9929,189.9918,0,39,39,104,1,200,35,NA,NA,NA,NA,NA,1,40,"likert"
"53A9DC2D0EAC495CA82F4146B137FE76",1,"01990a98-d261-7268-b7e0-497b11850645","01990a84-c4ee-73c2-a87b-ff46a7d3dde5","2025-09-02_10h02.45.832",NA,NA,193.3421,193.3421,193.3421,193.6915,NA,NA,NA,NA,NA,NA,NA,TRUE,4,1.6852,190.3436,193.342,0,40,40,10,1,10,30,NA,NA,NA,NA,NA,1,41,"likert"
"53A9DC2D0EAC495CA82F4146B137FE76",1,"01990a98-d261-7268-b7e0-497b11850645","01990a84-c4ee-73c2-a87b-ff46a7d3dde5","2025-09-02_10h02.45.832",NA,NA,196.6931,196.6932,196.6932,197.0419,NA,NA,NA,NA,NA,NA,NA,TRUE,1,2.066,193.6924,196.6921,0,41,41,42,1,30,26,NA,NA,NA,NA,NA,1,42,"likert"
"53A9DC2D0EAC495CA82F4146B137FE76",1,"01990a98-d261-7268-b7e0-497b11850645","01990a84-c4ee-73c2-a87b-ff46a7d3dde5","2025-09-02_10h02.45.832",NA,NA,200.0425,200.0425,200.0425,200.3923,NA,NA,NA,NA,NA,NA,NA,TRUE,3,2.3995,197.0432,200.0423,0,42,42,40,1,28,39,NA,NA,NA,NA,NA,1,43,"likert"
"53A9DC2D0EAC495CA82F4146B137FE76",1,"01990a98-d261-7268-b7e0-497b11850645","01990a84-c4ee-73c2-a87b-ff46a7d3dde5","2025-09-02_10h02.45.832",NA,NA,203.3926,203.3926,203.3927,203.7419,NA,NA,NA,NA,NA,NA,NA,TRUE,4,2.5806,200.3935,203.3925,0,43,43,41,1,28,46,NA,NA,NA,NA,NA,1,44,"likert"
"53A9DC2D0EAC495CA82F4146B137FE76",1,"01990a98-d261-7268-b7e0-497b11850645","01990a84-c4ee-73c2-a87b-ff46a7d3dde5","2025-09-02_10h02.45.832",NA,NA,206.7422,206.7422,206.7422,207.092,NA,NA,NA,NA,NA,NA,NA,TRUE,1,2.5341,203.7424,206.7421,0,44,44,19,1,14,26,NA,NA,NA,NA,NA,1,45,"likert"
"53A9DC2D0EAC495CA82F4146B137FE76",1,"01990a98-d261-7268-b7e0-497b11850645","01990a84-c4ee-73c2-a87b-ff46a7d3dde5","2025-09-02_10h02.45.832",NA,NA,210.0923,210.3427,210.3427,210.4427,NA,NA,NA,NA,NA,NA,NA,FALSE,NA,NA,207.0926,210.0923,0,45,45,74,1,90,33,NA,NA,NA,NA,NA,1,46,"likert"
"53A9DC2D0EAC495CA82F4146B137FE76",1,"01990a98-d261-7268-b7e0-497b11850645","01990a84-c4ee-73c2-a87b-ff46a7d3dde5","2025-09-02_10h02.45.832",NA,NA,213.443,213.443,213.443,213.7927,NA,NA,NA,NA,NA,NA,NA,TRUE,3,2.5637,210.4439,213.4428,0,46,46,100,1,180,46,NA,NA,NA,NA,NA,1,47,"likert"
"53A9DC2D0EAC495CA82F4146B137FE76",1,"01990a98-d261-7268-b7e0-497b11850645","01990a84-c4ee-73c2-a87b-ff46a7d3dde5","2025-09-02_10h02.45.832",NA,NA,216.7927,216.7927,216.7927,217.1429,NA,NA,NA,NA,NA,NA,NA,TRUE,1,2.5088,213.7941,216.7925,0,47,47,61,1,50,30,NA,NA,NA,NA,NA,1,48,"likert"
"53A9DC2D0EAC495CA82F4146B137FE76",1,"01990a98-d261-7268-b7e0-497b11850645","01990a84-c4ee-73c2-a87b-ff46a7d3dde5","2025-09-02_10h02.45.832",NA,NA,220.1438,220.144,220.144,220.493,NA,NA,NA,NA,NA,NA,NA,TRUE,1,0.9949,217.1441,220.1433,0,48,48,26,1,21,29,NA,NA,NA,NA,NA,1,49,"likert"
"53A9DC2D0EAC495CA82F4146B137FE76",1,"01990a98-d261-7268-b7e0-497b11850645","01990a84-c4ee-73c2-a87b-ff46a7d3dde5","2025-09-02_10h02.45.832",NA,NA,223.4934,223.7428,223.7429,223.8429,NA,NA,NA,NA,NA,NA,NA,FALSE,NA,NA,220.4953,223.4932,0,49,49,89,1,100,54,NA,NA,NA,NA,NA,1,50,"likert"
"53A9DC2D0EAC495CA82F4146B137FE76",1,"01990a98-d261-7268-b7e0-497b11850645","01990a84-c4ee-73c2-a87b-ff46a7d3dde5","2025-09-02_10h02.45.832",NA,NA,226.843,226.843,226.843,227.1927,NA,NA,NA,NA,NA,NA,NA,TRUE,3,1.8167,223.8433,226.8428,0,50,50,82,1,95,47,NA,NA,NA,NA,NA,1,51,"likert"
"53A9DC2D0EAC495CA82F4146B137FE76",1,"01990a98-d261-7268-b7e0-497b11850645","01990a84-c4ee-73c2-a87b-ff46a7d3dde5","2025-09-02_10h02.45.832",NA,NA,230.1936,230.1936,230.1936,230.5434,NA,NA,NA,NA,NA,NA,NA,TRUE,5,1.9634,227.1935,230.1933,0,51,51,3,1,7,30,NA,NA,NA,NA,NA,1,52,"likert"
"53A9DC2D0EAC495CA82F4146B137FE76",1,"01990a98-d261-7268-b7e0-497b11850645","01990a84-c4ee-73c2-a87b-ff46a7d3dde5","2025-09-02_10h02.45.832",NA,NA,233.5438,233.5438,233.5438,233.8935,NA,NA,NA,NA,NA,NA,NA,TRUE,2,2.4058,230.5446,233.5435,0,52,52,38,1,28,32,NA,NA,NA,NA,NA,1,53,"likert"
"53A9DC2D0EAC495CA82F4146B137FE76",1,"01990a98-d261-7268-b7e0-497b11850645","01990a84-c4ee-73c2-a87b-ff46a7d3dde5","2025-09-02_10h02.45.832",NA,NA,236.8938,236.8939,236.8939,237.2437,NA,NA,NA,NA,NA,NA,NA,TRUE,2,2.4315,233.8951,236.8938,0,53,53,25,1,21,27,NA,NA,NA,NA,NA,1,54,"likert"
"53A9DC2D0EAC495CA82F4146B137FE76",1,"01990a98-d261-7268-b7e0-497b11850645","01990a84-c4ee-73c2-a87b-ff46a7d3dde5","2025-09-02_10h02.45.832",NA,NA,240.244,240.244,240.244,240.5936,NA,NA,NA,NA,NA,NA,NA,TRUE,3,2.4628,237.245,240.2438,0,54,54,59,1,45,46,NA,NA,NA,NA,NA,1,55,"likert"
"53A9DC2D0EAC495CA82F4146B137FE76",1,"01990a98-d261-7268-b7e0-497b11850645","01990a84-c4ee-73c2-a87b-ff46a7d3dde5","2025-09-02_10h02.45.832",NA,NA,243.5941,243.5942,243.5942,243.9437,NA,NA,NA,NA,NA,NA,NA,TRUE,1,2.6327,240.595,243.594,0,55,55,0,1,7,25,NA,NA,NA,NA,NA,1,56,"likert"
"53A9DC2D0EAC495CA82F4146B137FE76",1,"01990a98-d261-7268-b7e0-497b11850645","01990a84-c4ee-73c2-a87b-ff46a7d3dde5","2025-09-02_10h02.45.832",NA,NA,246.9442,246.9443,246.9443,247.2939,NA,NA,NA,NA,NA,NA,NA,TRUE,1,2.1775,243.9444,246.9441,0,56,56,103,1,200,28,NA,NA,NA,NA,NA,1,57,"likert"
"53A9DC2D0EAC495CA82F4146B137FE76",1,"01990a98-d261-7268-b7e0-497b11850645","01990a84-c4ee-73c2-a87b-ff46a7d3dde5","2025-09-02_10h02.45.832",NA,NA,250.2945,250.5442,250.5442,250.644,NA,NA,NA,NA,NA,NA,NA,FALSE,NA,NA,247.2952,250.2943,0,57,57,23,1,14,39,NA,NA,NA,NA,NA,1,58,"likert"
"53A9DC2D0EAC495CA82F4146B137FE76",1,"01990a98-d261-7268-b7e0-497b11850645","01990a84-c4ee-73c2-a87b-ff46a7d3dde5","2025-09-02_10h02.45.832",NA,NA,253.6445,253.6446,253.6446,253.9944,NA,NA,NA,NA,NA,NA,NA,TRUE,3,1.0534,250.6449,253.6444,0,58,58,32,1,25,31,NA,NA,NA,NA,NA,1,59,"likert"
"53A9DC2D0EAC495CA82F4146B137FE76",1,"01990a98-d261-7268-b7e0-497b11850645","01990a84-c4ee-73c2-a87b-ff46a7d3dde5","2025-09-02_10h02.45.832",NA,NA,256.9943,256.9943,256.9943,257.3445,NA,NA,NA,NA,NA,NA,NA,TRUE,1,1.6092,253.9958,256.9942,0,59,59,92,1,150,35,NA,NA,NA,NA,NA,1,60,"likert"
"53A9DC2D0EAC495CA82F4146B137FE76",1,"01990a98-d261-7268-b7e0-497b11850645","01990a84-c4ee-73c2-a87b-ff46a7d3dde5","2025-09-02_10h02.45.832",NA,NA,260.3448,260.3448,260.3448,260.6943,NA,NA,NA,NA,NA,NA,NA,TRUE,1,1.8834,257.3456,260.3447,0,60,60,18,1,14,25,NA,NA,NA,NA,NA,1,61,"likert"
"53A9DC2D0EAC495CA82F4146B137FE76",1,"01990a98-d261-7268-b7e0-497b11850645","01990a84-c4ee-73c2-a87b-ff46a7d3dde5","2025-09-02_10h02.45.832",NA,NA,263.6947,263.6947,263.6947,264.0447,NA,NA,NA,NA,NA,NA,NA,TRUE,2,2.315,260.6951,263.6945,0,61,61,98,1,180,35,NA,NA,NA,NA,NA,1,62,"likert"
"53A9DC2D0EAC495CA82F4146B137FE76",1,"01990a98-d261-7268-b7e0-497b11850645","01990a84-c4ee-73c2-a87b-ff46a7d3dde5","2025-09-02_10h02.45.832",NA,NA,267.0452,267.2949,267.2949,267.3949,NA,NA,NA,NA,NA,NA,NA,FALSE,NA,NA,264.0464,267.045,0,62,62,33,1,25,33,NA,NA,NA,NA,NA,1,63,"likert"
"53A9DC2D0EAC495CA82F4146B137FE76",1,"01990a98-d261-7268-b7e0-497b11850645","01990a84-c4ee-73c2-a87b-ff46a7d3dde5","2025-09-02_10h02.45.832",NA,NA,270.3952,270.3952,270.3953,270.745,NA,NA,NA,NA,NA,NA,NA,TRUE,1,2.0093,267.3961,270.3951,0,63,63,55,1,45,29,NA,NA,NA,NA,NA,1,64,"likert"
"53A9DC2D0EAC495CA82F4146B137FE76",1,"01990a98-d261-7268-b7e0-497b11850645","01990a84-c4ee-73c2-a87b-ff46a7d3dde5","2025-09-02_10h02.45.832",NA,NA,273.7451,273.9951,273.9952,274.0945,NA,NA,NA,NA,NA,NA,NA,FALSE,NA,NA,270.7461,273.7451,0,64,64,64,1,50,46,NA,NA,NA,NA,NA,1,65,"likert"
"53A9DC2D0EAC495CA82F4146B137FE76",1,"01990a98-d261-7268-b7e0-497b11850645","01990a84-c4ee-73c2-a87b-ff46a7d3dde5","2025-09-02_10h02.45.832",NA,NA,277.0955,277.0955,277.0955,277.4453,NA,NA,NA,NA,NA,NA,NA,TRUE,4,0.5522,274.0958,277.0954,0,65,65,62,1,50,35,NA,NA,NA,NA,NA,1,66,"likert"
"53A9DC2D0EAC495CA82F4146B137FE76",1,"01990a98-d261-7268-b7e0-497b11850645","01990a84-c4ee-73c2-a87b-ff46a7d3dde5","2025-09-02_10h02.45.832",NA,NA,280.4463,280.6955,280.6956,280.7954,NA,NA,NA,NA,NA,NA,NA,FALSE,NA,NA,277.4463,280.4458,0,66,66,95,1,150,54,NA,NA,NA,NA,NA,1,67,"likert"
"53A9DC2D0EAC495CA82F4146B137FE76",1,"01990a98-d261-7268-b7e0-497b11850645","01990a84-c4ee-73c2-a87b-ff46a7d3dde5","2025-09-02_10h02.45.832",NA,NA,283.7952,283.7953,283.7953,284.1455,NA,NA,NA,NA,NA,NA,NA,TRUE,3,1.9981,280.7984,283.7952,0,67,67,30,1,25,27,NA,NA,NA,NA,NA,1,68,"likert"
"53A9DC2D0EAC495CA82F4146B137FE76",1,"01990a98-d261-7268-b7e0-497b11850645","01990a84-c4ee-73c2-a87b-ff46a7d3dde5","2025-09-02_10h02.45.832",NA,NA,287.1454,287.1454,287.1455,287.4957,NA,NA,NA,NA,NA,NA,NA,TRUE,3,2.2149,284.1467,287.1452,0,68,68,94,1,150,47,NA,NA,NA,NA,NA,1,69,"likert"
"53A9DC2D0EAC495CA82F4146B137FE76",1,"01990a98-d261-7268-b7e0-497b11850645","01990a84-c4ee-73c2-a87b-ff46a7d3dde5","2025-09-02_10h02.45.832",NA,NA,290.496,290.496,290.496,290.8459,NA,NA,NA,NA,NA,NA,NA,TRUE,1,1.4405,287.4969,290.4959,0,69,69,12,1,12,25,NA,NA,NA,NA,NA,1,70,"likert"
"53A9DC2D0EAC495CA82F4146B137FE76",1,"01990a98-d261-7268-b7e0-497b11850645","01990a84-c4ee-73c2-a87b-ff46a7d3dde5","2025-09-02_10h02.45.832",NA,NA,293.8457,294.0958,294.0959,294.1957,NA,NA,NA,NA,NA,NA,NA,FALSE,NA,NA,290.847,293.8456,0,70,70,47,1,30,38,NA,NA,NA,NA,NA,1,71,"likert"
"53A9DC2D0EAC495CA82F4146B137FE76",1,"01990a98-d261-7268-b7e0-497b11850645","01990a84-c4ee-73c2-a87b-ff46a7d3dde5","2025-09-02_10h02.45.832",NA,NA,297.1965,297.1965,297.1965,297.5461,NA,NA,NA,NA,NA,NA,NA,TRUE,2,1.997,294.1966,297.1961,0,71,71,79,1,95,33,NA,NA,NA,NA,NA,1,72,"likert"
"53A9DC2D0EAC495CA82F4146B137FE76",1,"01990a98-d261-7268-b7e0-497b11850645","01990a84-c4ee-73c2-a87b-ff46a7d3dde5","2025-09-02_10h02.45.832",NA,NA,300.5466,300.5467,300.5467,300.896,NA,NA,NA,NA,NA,NA,NA,TRUE,1,1.7502,297.5474,300.5464,0,72,72,96,1,180,27,NA,NA,NA,NA,NA,1,73,"likert"
"53A9DC2D0EAC495CA82F4146B137FE76",1,"01990a98-d261-7268-b7e0-497b11850645","01990a84-c4ee-73c2-a87b-ff46a7d3dde5","2025-09-02_10h02.45.832",NA,NA,303.8966,303.8966,303.8967,304.246,NA,NA,NA,NA,NA,NA,NA,TRUE,4,2.3374,300.8968,303.8966,0,73,73,51,1,40,40,NA,NA,NA,NA,NA,1,74,"likert"
"53A9DC2D0EAC495CA82F4146B137FE76",1,"01990a98-d261-7268-b7e0-497b11850645","01990a84-c4ee-73c2-a87b-ff46a7d3dde5","2025-09-02_10h02.45.832",NA,NA,307.2463,307.2463,307.2463,307.5955,NA,NA,NA,NA,NA,NA,NA,TRUE,2,1.6372,304.2469,307.2462,0,74,74,106,1,200,47,NA,NA,NA,NA,NA,1,75,"likert"
"53A9DC2D0EAC495CA82F4146B137FE76",1,"01990a98-d261-7268-b7e0-497b11850645","01990a84-c4ee-73c2-a87b-ff46a7d3dde5","2025-09-02_10h02.45.832",NA,NA,310.5969,310.597,310.597,310.9466,NA,NA,NA,NA,NA,NA,NA,TRUE,5,1.1623,307.5966,310.5967,0,75,75,21,1,14,32,NA,NA,NA,NA,NA,1,76,"likert"
"53A9DC2D0EAC495CA82F4146B137FE76",1,"01990a98-d261-7268-b7e0-497b11850645","01990a84-c4ee-73c2-a87b-ff46a7d3dde5","2025-09-02_10h02.45.832",NA,NA,313.9467,313.9467,313.9467,314.2968,NA,NA,NA,NA,NA,NA,NA,TRUE,2,2.3932,310.9487,313.9465,0,76,76,73,1,90,30,NA,NA,NA,NA,NA,1,77,"likert"
"53A9DC2D0EAC495CA82F4146B137FE76",1,"01990a98-d261-7268-b7e0-497b11850645","01990a84-c4ee-73c2-a87b-ff46a7d3dde5","2025-09-02_10h02.45.832",NA,NA,317.297,317.297,317.2971,317.6469,NA,NA,NA,NA,NA,NA,NA,TRUE,3,1.8778,314.2978,317.2969,0,77,77,2,1,7,28,NA,NA,NA,NA,NA,1,78,"likert"
"53A9DC2D0EAC495CA82F4146B137FE76",1,"01990a98-d261-7268-b7e0-497b11850645","01990a84-c4ee-73c2-a87b-ff46a7d3dde5","2025-09-02_10h02.45.832",NA,NA,320.6468,320.6469,320.6469,320.997,NA,NA,NA,NA,NA,NA,NA,TRUE,2,1.3348,317.648,320.6468,0,78,78,57,1,45,35,NA,NA,NA,NA,NA,1,79,"likert"
"53A9DC2D0EAC495CA82F4146B137FE76",1,"01990a98-d261-7268-b7e0-497b11850645","01990a84-c4ee-73c2-a87b-ff46a7d3dde5","2025-09-02_10h02.45.832",NA,NA,323.9964,323.9964,323.9964,324.3469,NA,NA,NA,NA,NA,NA,NA,TRUE,2,1.9625,320.9983,323.9962,0,79,79,80,1,95,35,NA,NA,NA,NA,NA,1,80,"likert"
"53A9DC2D0EAC495CA82F4146B137FE76",1,"01990a98-d261-7268-b7e0-497b11850645","01990a84-c4ee-73c2-a87b-ff46a7d3dde5","2025-09-02_10h02.45.832",NA,NA,327.3476,327.3476,327.3476,327.6973,NA,NA,NA,NA,NA,NA,NA,TRUE,2,1.6297,324.348,327.3474,0,80,80,46,1,30,32,NA,NA,NA,NA,NA,1,81,"likert"
"53A9DC2D0EAC495CA82F4146B137FE76",1,"01990a98-d261-7268-b7e0-497b11850645","01990a84-c4ee-73c2-a87b-ff46a7d3dde5","2025-09-02_10h02.45.832",NA,NA,330.6972,330.6973,330.6973,331.0474,NA,NA,NA,NA,NA,NA,NA,TRUE,1,1.5578,327.6983,330.6972,0,81,81,20,1,14,28,NA,NA,NA,NA,NA,1,82,"likert"
"53A9DC2D0EAC495CA82F4146B137FE76",1,"01990a98-d261-7268-b7e0-497b11850645","01990a84-c4ee-73c2-a87b-ff46a7d3dde5","2025-09-02_10h02.45.832",NA,NA,334.0476,334.0476,334.0476,334.3976,NA,NA,NA,NA,NA,NA,NA,TRUE,1,2.0371,331.0485,334.0475,0,82,82,28,1,21,32,NA,NA,NA,NA,NA,1,83,"likert"
"53A9DC2D0EAC495CA82F4146B137FE76",1,"01990a98-d261-7268-b7e0-497b11850645","01990a84-c4ee-73c2-a87b-ff46a7d3dde5","2025-09-02_10h02.45.832",NA,NA,337.397,337.3971,337.3971,337.7477,NA,NA,NA,NA,NA,NA,NA,TRUE,1,2.547,334.3987,337.3969,0,83,83,27,1,21,30,NA,NA,NA,NA,NA,1,84,"likert"
"53A9DC2D0EAC495CA82F4146B137FE76",1,"01990a98-d261-7268-b7e0-497b11850645","01990a84-c4ee-73c2-a87b-ff46a7d3dde5","2025-09-02_10h02.45.832",NA,NA,340.7485,340.7486,340.7486,341.0976,NA,NA,NA,NA,NA,NA,NA,TRUE,3,2.0794,337.749,340.7481,0,84,84,107,1,200,54,NA,NA,NA,NA,NA,1,85,"likert"
"53A9DC2D0EAC495CA82F4146B137FE76",1,"01990a98-d261-7268-b7e0-497b11850645","01990a84-c4ee-73c2-a87b-ff46a7d3dde5","2025-09-02_10h02.45.832",NA,NA,344.0982,344.0982,344.0982,344.448,NA,NA,NA,NA,NA,NA,NA,TRUE,5,2.1054,341.0995,344.098,0,85,85,77,1,90,54,NA,NA,NA,NA,NA,1,86,"likert"
"53A9DC2D0EAC495CA82F4146B137FE76",1,"01990a98-d261-7268-b7e0-497b11850645","01990a84-c4ee-73c2-a87b-ff46a7d3dde5","2025-09-02_10h02.45.832",NA,NA,347.4475,347.4475,347.4475,347.7982,NA,NA,NA,NA,NA,NA,NA,TRUE,2,2.7199,344.4491,347.4474,0,86,86,1,1,7,26,NA,NA,NA,NA,NA,1,87,"likert"
"53A9DC2D0EAC495CA82F4146B137FE76",1,"01990a98-d261-7268-b7e0-497b11850645","01990a84-c4ee-73c2-a87b-ff46a7d3dde5","2025-09-02_10h02.45.832",NA,NA,350.7986,350.7987,350.7987,351.1483,NA,NA,NA,NA,NA,NA,NA,TRUE,1,2.329,347.7997,350.7984,0,87,87,24,1,21,26,NA,NA,NA,NA,NA,1,88,"likert"
"53A9DC2D0EAC495CA82F4146B137FE76",1,"01990a98-d261-7268-b7e0-497b11850645","01990a84-c4ee-73c2-a87b-ff46a7d3dde5","2025-09-02_10h02.45.832",NA,NA,354.1477,354.1477,354.1478,354.4974,NA,NA,NA,NA,NA,NA,NA,TRUE,5,1.8428,351.1496,354.1476,0,88,88,4,1,7,32,NA,NA,NA,NA,NA,1,89,"likert"
"53A9DC2D0EAC495CA82F4146B137FE76",1,"01990a98-d261-7268-b7e0-497b11850645","01990a84-c4ee-73c2-a87b-ff46a7d3dde5","2025-09-02_10h02.45.832",NA,NA,357.4987,357.4988,357.4988,357.8476,NA,NA,NA,NA,NA,NA,NA,TRUE,1,1.4107,354.4985,357.4986,0,89,89,72,1,90,26,NA,NA,NA,NA,NA,1,90,"likert"
"53A9DC2D0EAC495CA82F4146B137FE76",1,"01990a98-d261-7268-b7e0-497b11850645","01990a84-c4ee-73c2-a87b-ff46a7d3dde5","2025-09-02_10h02.45.832",NA,NA,360.8484,360.8484,360.8484,361.1981,NA,NA,NA,NA,NA,NA,NA,TRUE,1,2.2806,357.8488,360.8479,0,90,90,86,1,100,38,NA,NA,NA,NA,NA,1,91,"likert"
"53A9DC2D0EAC495CA82F4146B137FE76",1,"01990a98-d261-7268-b7e0-497b11850645","01990a84-c4ee-73c2-a87b-ff46a7d3dde5","2025-09-02_10h02.45.832",NA,NA,364.1985,364.1985,364.1985,364.5479,NA,NA,NA,NA,NA,NA,NA,TRUE,1,1.8081,361.2007,364.1985,0,91,91,45,1,30,30,NA,NA,NA,NA,NA,1,92,"likert"
"53A9DC2D0EAC495CA82F4146B137FE76",1,"01990a98-d261-7268-b7e0-497b11850645","01990a84-c4ee-73c2-a87b-ff46a7d3dde5","2025-09-02_10h02.45.832",NA,NA,367.5491,367.5492,367.5492,367.899,NA,NA,NA,NA,NA,NA,NA,TRUE,1,1.5311,364.549,367.549,0,92,92,54,1,45,26,NA,NA,NA,NA,NA,1,93,"likert"
"53A9DC2D0EAC495CA82F4146B137FE76",1,"01990a98-d261-7268-b7e0-497b11850645","01990a84-c4ee-73c2-a87b-ff46a7d3dde5","2025-09-02_10h02.45.832",NA,NA,370.8989,370.8989,370.8989,371.249,NA,NA,NA,NA,NA,NA,NA,TRUE,3,2.1243,367.9004,370.8987,0,93,93,50,1,40,35,NA,NA,NA,NA,NA,1,94,"likert"
"53A9DC2D0EAC495CA82F4146B137FE76",1,"01990a98-d261-7268-b7e0-497b11850645","01990a84-c4ee-73c2-a87b-ff46a7d3dde5","2025-09-02_10h02.45.832",NA,NA,374.2495,374.4989,374.4989,374.599,NA,NA,NA,NA,NA,NA,NA,FALSE,NA,NA,371.2502,374.2493,0,94,94,88,1,100,46,NA,NA,NA,NA,NA,1,95,"likert"
"53A9DC2D0EAC495CA82F4146B137FE76",1,"01990a98-d261-7268-b7e0-497b11850645","01990a84-c4ee-73c2-a87b-ff46a7d3dde5","2025-09-02_10h02.45.832",NA,NA,377.5995,377.5995,377.5995,377.9494,NA,NA,NA,NA,NA,NA,NA,TRUE,2,2.7324,374.5998,377.5994,0,95,95,35,1,25,46,NA,NA,NA,NA,NA,1,96,"likert"
"53A9DC2D0EAC495CA82F4146B137FE76",1,"01990a98-d261-7268-b7e0-497b11850645","01990a84-c4ee-73c2-a87b-ff46a7d3dde5","2025-09-02_10h02.45.832",NA,NA,380.95,380.9501,380.9501,381.2992,NA,NA,NA,NA,NA,NA,NA,TRUE,1,1.5511,377.9509,380.9497,0,96,96,75,1,90,40,NA,NA,NA,NA,NA,1,97,"likert"
"53A9DC2D0EAC495CA82F4146B137FE76",1,"01990a98-d261-7268-b7e0-497b11850645","01990a84-c4ee-73c2-a87b-ff46a7d3dde5","2025-09-02_10h02.45.832",NA,NA,384.2998,384.2998,384.2998,384.6497,NA,NA,NA,NA,NA,NA,NA,TRUE,1,1.3934,381.3013,384.2996,0,97,97,93,1,150,40,NA,NA,NA,NA,NA,1,98,"likert"
"53A9DC2D0EAC495CA82F4146B137FE76",1,"01990a98-d261-7268-b7e0-497b11850645","01990a84-c4ee-73c2-a87b-ff46a7d3dde5","2025-09-02_10h02.45.832",NA,NA,387.6498,387.6499,387.6499,387.9998,NA,NA,NA,NA,NA,NA,NA,TRUE,3,2.5453,384.6507,387.6497,0,98,98,65,1,50,54,NA,NA,NA,NA,NA,1,99,"likert"
"53A9DC2D0EAC495CA82F4146B137FE76",1,"01990a98-d261-7268-b7e0-497b11850645","01990a84-c4ee-73c2-a87b-ff46a7d3dde5","2025-09-02_10h02.45.832",NA,NA,390.9991,390.9992,390.9992,391.3488,NA,NA,NA,NA,NA,NA,NA,TRUE,4,2.966,388.0011,390.999,0,99,99,22,1,14,35,NA,NA,NA,NA,NA,1,100,"likert"
"53A9DC2D0EAC495CA82F4146B137FE76",1,"01990a98-d261-7268-b7e0-497b11850645","01990a84-c4ee-73c2-a87b-ff46a7d3dde5","2025-09-02_10h02.45.832",NA,NA,394.3501,394.3502,394.3502,394.7001,NA,NA,NA,NA,NA,NA,NA,TRUE,4,1.9127,391.35,394.3499,0,100,100,11,1,10,32,NA,NA,NA,NA,NA,1,101,"likert"
"53A9DC2D0EAC495CA82F4146B137FE76",1,"01990a98-d261-7268-b7e0-497b11850645","01990a84-c4ee-73c2-a87b-ff46a7d3dde5","2025-09-02_10h02.45.832",NA,NA,397.6994,397.6994,397.6994,398.0499,NA,NA,NA,NA,NA,NA,NA,TRUE,2,1.6458,394.7018,397.6992,0,101,101,34,1,25,35,NA,NA,NA,NA,NA,1,102,"likert"
"53A9DC2D0EAC495CA82F4146B137FE76",1,"01990a98-d261-7268-b7e0-497b11850645","01990a84-c4ee-73c2-a87b-ff46a7d3dde5","2025-09-02_10h02.45.832",NA,NA,401.0509,401.051,401.0511,401.3998,NA,NA,NA,NA,NA,NA,NA,TRUE,1,1.8482,398.0507,401.0505,0,102,102,6,1,10,25,NA,NA,NA,NA,NA,1,103,"likert"
"53A9DC2D0EAC495CA82F4146B137FE76",1,"01990a98-d261-7268-b7e0-497b11850645","01990a84-c4ee-73c2-a87b-ff46a7d3dde5","2025-09-02_10h02.45.832",NA,NA,404.4006,404.4007,404.4007,404.7497,NA,NA,NA,NA,NA,NA,NA,TRUE,1,2.1585,401.402,404.4004,0,103,103,49,1,40,33,NA,NA,NA,NA,NA,1,104,"likert"
"53A9DC2D0EAC495CA82F4146B137FE76",1,"01990a98-d261-7268-b7e0-497b11850645","01990a84-c4ee-73c2-a87b-ff46a7d3dde5","2025-09-02_10h02.45.832",NA,NA,407.7504,407.7504,407.7504,408.1007,NA,NA,NA,NA,NA,NA,NA,TRUE,3,2.7989,404.7513,407.7504,0,104,104,76,1,90,46,NA,NA,NA,NA,NA,1,105,"likert"
"53A9DC2D0EAC495CA82F4146B137FE76",1,"01990a98-d261-7268-b7e0-497b11850645","01990a84-c4ee-73c2-a87b-ff46a7d3dde5","2025-09-02_10h02.45.832",NA,NA,411.1007,411.1007,411.1007,411.4508,NA,NA,NA,NA,NA,NA,NA,TRUE,2,2.5241,408.1021,411.1006,0,105,105,91,1,150,33,NA,NA,NA,NA,NA,1,106,"likert"
"53A9DC2D0EAC495CA82F4146B137FE76",1,"01990a98-d261-7268-b7e0-497b11850645","01990a84-c4ee-73c2-a87b-ff46a7d3dde5","2025-09-02_10h02.45.832",NA,NA,414.4506,414.4506,414.4506,414.8006,NA,NA,NA,NA,NA,NA,NA,TRUE,1,1.6806,411.4519,414.4504,0,106,106,7,1,10,26,NA,NA,NA,NA,NA,1,107,"likert"
"53A9DC2D0EAC495CA82F4146B137FE76",1,"01990a98-d261-7268-b7e0-497b11850645","01990a84-c4ee-73c2-a87b-ff46a7d3dde5","2025-09-02_10h02.45.832",NA,NA,417.8013,417.8013,417.8013,418.151,NA,NA,NA,NA,NA,NA,NA,TRUE,3,2.1603,414.8013,417.8011,0,107,107,70,1,60,47,NA,NA,NA,NA,NA,1,108,"likert"
"53A9DC2D0EAC495CA82F4146B137FE76",1,"01990a98-d261-7268-b7e0-497b11850645","01990a84-c4ee-73c2-a87b-ff46a7d3dde5","2025-09-02_10h02.45.832",NA,NA,462.486,462.486,462.486,462.8362,NA,NA,NA,NA,NA,NA,NA,TRUE,5,1.7486,459.5121,462.4858,NA,NA,NA,NA,NA,28,46,0,0,0,41,1,2,1,"likert"
"53A9DC2D0EAC495CA82F4146B137FE76",1,"01990a98-d261-7268-b7e0-497b11850645","01990a84-c4ee-73c2-a87b-ff46a7d3dde5","2025-09-02_10h02.45.832",NA,NA,465.836,465.836,465.836,466.1863,NA,NA,NA,NA,NA,NA,NA,TRUE,1,1.8463,462.8375,465.836,NA,NA,NA,NA,NA,90,30,0,1,1,73,1,2,2,"likert"
"53A9DC2D0EAC495CA82F4146B137FE76",1,"01990a98-d261-7268-b7e0-497b11850645","01990a84-c4ee-73c2-a87b-ff46a7d3dde5","2025-09-02_10h02.45.832",NA,NA,469.1862,469.1862,469.1862,469.5364,NA,NA,NA,NA,NA,NA,NA,TRUE,2,2.474,466.1878,469.1862,NA,NA,NA,NA,NA,30,32,0,2,2,46,1,2,3,"likert"
"53A9DC2D0EAC495CA82F4146B137FE76",1,"01990a98-d261-7268-b7e0-497b11850645","01990a84-c4ee-73c2-a87b-ff46a7d3dde5","2025-09-02_10h02.45.832",NA,NA,472.5367,472.5367,472.5367,472.886,NA,NA,NA,NA,NA,NA,NA,TRUE,3,1.6574,469.5377,472.5366,NA,NA,NA,NA,NA,180,54,0,3,3,101,1,2,4,"likert"
"53A9DC2D0EAC495CA82F4146B137FE76",1,"01990a98-d261-7268-b7e0-497b11850645","01990a84-c4ee-73c2-a87b-ff46a7d3dde5","2025-09-02_10h02.45.832",NA,NA,475.8866,475.8867,475.8867,476.2367,NA,NA,NA,NA,NA,NA,NA,TRUE,3,1.6412,472.8925,475.8864,NA,NA,NA,NA,NA,100,54,0,4,4,89,1,2,5,"likert"
"53A9DC2D0EAC495CA82F4146B137FE76",1,"01990a98-d261-7268-b7e0-497b11850645","01990a84-c4ee-73c2-a87b-ff46a7d3dde5","2025-09-02_10h02.45.832",NA,NA,479.237,479.237,479.237,479.5867,NA,NA,NA,NA,NA,NA,NA,TRUE,4,2.5986,476.2391,479.2368,NA,NA,NA,NA,NA,45,46,0,5,5,59,1,2,6,"likert"
"53A9DC2D0EAC495CA82F4146B137FE76",1,"01990a98-d261-7268-b7e0-497b11850645","01990a84-c4ee-73c2-a87b-ff46a7d3dde5","2025-09-02_10h02.45.832",NA,NA,482.587,482.587,482.587,482.9366,NA,NA,NA,NA,NA,NA,NA,TRUE,2,2.1536,479.5882,482.5869,NA,NA,NA,NA,NA,10,27,0,6,6,8,1,2,7,"likert"
"53A9DC2D0EAC495CA82F4146B137FE76",1,"01990a98-d261-7268-b7e0-497b11850645","01990a84-c4ee-73c2-a87b-ff46a7d3dde5","2025-09-02_10h02.45.832",NA,NA,485.9394,485.9395,485.9395,486.2868,NA,NA,NA,NA,NA,NA,NA,TRUE,2,1.4338,482.9372,485.9372,NA,NA,NA,NA,NA,21,38,0,7,7,29,1,2,8,"likert"
"53A9DC2D0EAC495CA82F4146B137FE76",1,"01990a98-d261-7268-b7e0-497b11850645","01990a84-c4ee-73c2-a87b-ff46a7d3dde5","2025-09-02_10h02.45.832",NA,NA,489.2874,489.2874,489.2874,489.6372,NA,NA,NA,NA,NA,NA,NA,TRUE,1,1.5939,486.2877,489.2872,NA,NA,NA,NA,NA,60,33,0,8,8,67,1,2,9,"likert"
"53A9DC2D0EAC495CA82F4146B137FE76",1,"01990a98-d261-7268-b7e0-497b11850645","01990a84-c4ee-73c2-a87b-ff46a7d3dde5","2025-09-02_10h02.45.832",NA,NA,492.6372,492.6372,492.6372,492.9873,NA,NA,NA,NA,NA,NA,NA,TRUE,1,1.2766,489.6387,492.6371,NA,NA,NA,NA,NA,21,29,0,9,9,26,1,2,10,"likert"
"53A9DC2D0EAC495CA82F4146B137FE76",1,"01990a98-d261-7268-b7e0-497b11850645","01990a84-c4ee-73c2-a87b-ff46a7d3dde5","2025-09-02_10h02.45.832",NA,NA,495.9878,495.9878,495.9878,496.3372,NA,NA,NA,NA,NA,NA,NA,TRUE,1,1.5625,492.9885,495.9877,NA,NA,NA,NA,NA,25,29,0,10,10,31,1,2,11,"likert"
"53A9DC2D0EAC495CA82F4146B137FE76",1,"01990a98-d261-7268-b7e0-497b11850645","01990a84-c4ee-73c2-a87b-ff46a7d3dde5","2025-09-02_10h02.45.832",NA,NA,499.3374,499.3374,499.3374,499.6874,NA,NA,NA,NA,NA,NA,NA,TRUE,1,1.736,496.3379,499.3373,NA,NA,NA,NA,NA,40,27,0,11,11,48,1,2,12,"likert"
"53A9DC2D0EAC495CA82F4146B137FE76",1,"01990a98-d261-7268-b7e0-497b11850645","01990a84-c4ee-73c2-a87b-ff46a7d3dde5","2025-09-02_10h02.45.832",NA,NA,502.6876,502.6876,502.6877,503.0374,NA,NA,NA,NA,NA,NA,NA,TRUE,1,1.5358,499.6882,502.6875,NA,NA,NA,NA,NA,7,25,0,12,12,0,1,2,13,"likert"
"53A9DC2D0EAC495CA82F4146B137FE76",1,"01990a98-d261-7268-b7e0-497b11850645","01990a84-c4ee-73c2-a87b-ff46a7d3dde5","2025-09-02_10h02.45.832",NA,NA,506.0381,506.0382,506.0383,506.3878,NA,NA,NA,NA,NA,NA,NA,TRUE,2,2.3485,503.0378,506.0377,NA,NA,NA,NA,NA,95,47,0,13,13,82,1,2,14,"likert"
"53A9DC2D0EAC495CA82F4146B137FE76",1,"01990a98-d261-7268-b7e0-497b11850645","01990a84-c4ee-73c2-a87b-ff46a7d3dde5","2025-09-02_10h02.45.832",NA,NA,509.3882,509.3882,509.3882,509.7378,NA,NA,NA,NA,NA,NA,NA,TRUE,1,1.4419,506.3903,509.388,NA,NA,NA,NA,NA,95,35,0,14,14,80,1,2,15,"likert"
"53A9DC2D0EAC495CA82F4146B137FE76",1,"01990a98-d261-7268-b7e0-497b11850645","01990a84-c4ee-73c2-a87b-ff46a7d3dde5","2025-09-02_10h02.45.832",NA,NA,512.7418,512.7419,512.7419,513.0874,NA,NA,NA,NA,NA,NA,NA,TRUE,4,1.6868,509.7385,512.7417,NA,NA,NA,NA,NA,40,47,0,15,15,52,1,2,16,"likert"
"53A9DC2D0EAC495CA82F4146B137FE76",1,"01990a98-d261-7268-b7e0-497b11850645","01990a84-c4ee-73c2-a87b-ff46a7d3dde5","2025-09-02_10h02.45.832",NA,NA,516.0884,516.0884,516.0884,516.4383,NA,NA,NA,NA,NA,NA,NA,TRUE,1,1.9318,513.0886,516.0882,NA,NA,NA,NA,NA,12,25,0,16,16,12,1,2,17,"likert"
"53A9DC2D0EAC495CA82F4146B137FE76",1,"01990a98-d261-7268-b7e0-497b11850645","01990a84-c4ee-73c2-a87b-ff46a7d3dde5","2025-09-02_10h02.45.832",NA,NA,519.4383,519.4384,519.4384,519.7885,NA,NA,NA,NA,NA,NA,NA,TRUE,1,1.2592,516.4395,519.4382,NA,NA,NA,NA,NA,200,28,0,17,17,103,1,2,18,"likert"
"53A9DC2D0EAC495CA82F4146B137FE76",1,"01990a98-d261-7268-b7e0-497b11850645","01990a84-c4ee-73c2-a87b-ff46a7d3dde5","2025-09-02_10h02.45.832",NA,NA,522.7886,522.7887,522.7887,523.1386,NA,NA,NA,NA,NA,NA,NA,TRUE,2,1.8576,519.7908,522.7886,NA,NA,NA,NA,NA,150,54,0,18,18,95,1,2,19,"likert"
"53A9DC2D0EAC495CA82F4146B137FE76",1,"01990a98-d261-7268-b7e0-497b11850645","01990a84-c4ee-73c2-a87b-ff46a7d3dde5","2025-09-02_10h02.45.832",NA,NA,526.1386,526.1387,526.1387,526.4884,NA,NA,NA,NA,NA,NA,NA,TRUE,1,1.2914,523.1396,526.1385,NA,NA,NA,NA,NA,45,29,0,19,19,55,1,2,20,"likert"
"53A9DC2D0EAC495CA82F4146B137FE76",1,"01990a98-d261-7268-b7e0-497b11850645","01990a84-c4ee-73c2-a87b-ff46a7d3dde5","2025-09-02_10h02.45.832",NA,NA,529.4889,529.489,529.489,529.8388,NA,NA,NA,NA,NA,NA,NA,TRUE,1,0.9482,526.4892,529.4888,NA,NA,NA,NA,NA,180,27,0,20,20,96,1,2,21,"likert"
"53A9DC2D0EAC495CA82F4146B137FE76",1,"01990a98-d261-7268-b7e0-497b11850645","01990a84-c4ee-73c2-a87b-ff46a7d3dde5","2025-09-02_10h02.45.832",NA,NA,532.8393,533.0886,533.0887,533.1889,NA,NA,NA,NA,NA,NA,NA,FALSE,NA,NA,529.84,532.839,NA,NA,NA,NA,NA,95,54,0,21,21,83,1,2,22,"likert"
"53A9DC2D0EAC495CA82F4146B137FE76",1,"01990a98-d261-7268-b7e0-497b11850645","01990a84-c4ee-73c2-a87b-ff46a7d3dde5","2025-09-02_10h02.45.832",NA,NA,536.1892,536.1893,536.1893,536.539,NA,NA,NA,NA,NA,NA,NA,TRUE,2,1.8618,533.1901,536.189,NA,NA,NA,NA,NA,12,33,0,22,22,16,1,2,23,"likert"
"53A9DC2D0EAC495CA82F4146B137FE76",1,"01990a98-d261-7268-b7e0-497b11850645","01990a84-c4ee-73c2-a87b-ff46a7d3dde5","2025-09-02_10h02.45.832",NA,NA,539.5391,539.5392,539.5392,539.889,NA,NA,NA,NA,NA,NA,NA,TRUE,1,1.2413,536.54,539.539,NA,NA,NA,NA,NA,95,33,0,23,23,79,1,2,24,"likert"
"53A9DC2D0EAC495CA82F4146B137FE76",1,"01990a98-d261-7268-b7e0-497b11850645","01990a84-c4ee-73c2-a87b-ff46a7d3dde5","2025-09-02_10h02.45.832",NA,NA,542.8894,542.8894,542.8894,543.2391,NA,NA,NA,NA,NA,NA,NA,TRUE,1,1.0661,539.8901,542.8893,NA,NA,NA,NA,NA,95,31,0,24,24,78,1,2,25,"likert"
"53A9DC2D0EAC495CA82F4146B137FE76",1,"01990a98-d261-7268-b7e0-497b11850645","01990a84-c4ee-73c2-a87b-ff46a7d3dde5","2025-09-02_10h02.45.832",NA,NA,546.2388,546.2389,546.239,546.5896,NA,NA,NA,NA,NA,NA,NA,TRUE,2,1.3762,543.24,546.2387,NA,NA,NA,NA,NA,95,40,0,25,25,81,1,2,26,"likert"
"53A9DC2D0EAC495CA82F4146B137FE76",1,"01990a98-d261-7268-b7e0-497b11850645","01990a84-c4ee-73c2-a87b-ff46a7d3dde5","2025-09-02_10h02.45.832",NA,NA,549.5896,549.5897,549.5897,549.9392,NA,NA,NA,NA,NA,NA,NA,TRUE,1,1.3817,546.5906,549.5895,NA,NA,NA,NA,NA,200,26,0,26,26,102,1,2,27,"likert"
"53A9DC2D0EAC495CA82F4146B137FE76",1,"01990a98-d261-7268-b7e0-497b11850645","01990a84-c4ee-73c2-a87b-ff46a7d3dde5","2025-09-02_10h02.45.832",NA,NA,552.9399,552.9399,552.9399,553.2897,NA,NA,NA,NA,NA,NA,NA,TRUE,1,2.2493,549.94,552.9398,NA,NA,NA,NA,NA,45,26,0,27,27,54,1,2,28,"likert"
"53A9DC2D0EAC495CA82F4146B137FE76",1,"01990a98-d261-7268-b7e0-497b11850645","01990a84-c4ee-73c2-a87b-ff46a7d3dde5","2025-09-02_10h02.45.832",NA,NA,556.2897,556.2897,556.2897,556.6399,NA,NA,NA,NA,NA,NA,NA,TRUE,2,1.7756,553.2911,556.2896,NA,NA,NA,NA,NA,25,35,0,28,28,34,1,2,29,"likert"
"53A9DC2D0EAC495CA82F4146B137FE76",1,"01990a98-d261-7268-b7e0-497b11850645","01990a84-c4ee-73c2-a87b-ff46a7d3dde5","2025-09-02_10h02.45.832",NA,NA,559.6399,559.6399,559.6399,559.9897,NA,NA,NA,NA,NA,NA,NA,TRUE,1,2.2756,556.6412,559.6397,NA,NA,NA,NA,NA,10,29,0,29,29,9,1,2,30,"likert"
"53A9DC2D0EAC495CA82F4146B137FE76",1,"01990a98-d261-7268-b7e0-497b11850645","01990a84-c4ee-73c2-a87b-ff46a7d3dde5","2025-09-02_10h02.45.832",NA,NA,562.9903,562.9904,562.9904,563.34,NA,NA,NA,NA,NA,NA,NA,TRUE,1,1.7734,559.9908,562.9902,NA,NA,NA,NA,NA,200,54,0,30,30,107,1,2,31,"likert"
"53A9DC2D0EAC495CA82F4146B137FE76",1,"01990a98-d261-7268-b7e0-497b11850645","01990a84-c4ee-73c2-a87b-ff46a7d3dde5","2025-09-02_10h02.45.832",NA,NA,566.3398,566.3399,566.3399,566.6903,NA,NA,NA,NA,NA,NA,NA,TRUE,2,2.0418,563.3411,566.3397,NA,NA,NA,NA,NA,40,35,0,31,31,50,1,2,32,"likert"
"53A9DC2D0EAC495CA82F4146B137FE76",1,"01990a98-d261-7268-b7e0-497b11850645","01990a84-c4ee-73c2-a87b-ff46a7d3dde5","2025-09-02_10h02.45.832",NA,NA,569.6905,569.6906,569.6906,570.0405,NA,NA,NA,NA,NA,NA,NA,TRUE,1,1.2143,566.6916,569.6904,NA,NA,NA,NA,NA,10,26,0,32,32,7,1,2,33,"likert"
"53A9DC2D0EAC495CA82F4146B137FE76",1,"01990a98-d261-7268-b7e0-497b11850645","01990a84-c4ee-73c2-a87b-ff46a7d3dde5","2025-09-02_10h02.45.832",NA,NA,573.0403,573.0403,573.0403,573.3904,NA,NA,NA,NA,NA,NA,NA,TRUE,1,1.5792,570.0419,573.0402,NA,NA,NA,NA,NA,200,35,0,33,33,104,1,2,34,"likert"
"53A9DC2D0EAC495CA82F4146B137FE76",1,"01990a98-d261-7268-b7e0-497b11850645","01990a84-c4ee-73c2-a87b-ff46a7d3dde5","2025-09-02_10h02.45.832",NA,NA,576.3907,576.3908,576.3908,576.7401,NA,NA,NA,NA,NA,NA,NA,TRUE,1,1.5727,573.3915,576.3905,NA,NA,NA,NA,NA,21,27,0,34,34,25,1,2,35,"likert"
"53A9DC2D0EAC495CA82F4146B137FE76",1,"01990a98-d261-7268-b7e0-497b11850645","01990a84-c4ee-73c2-a87b-ff46a7d3dde5","2025-09-02_10h02.45.832",NA,NA,579.7414,579.7416,579.7416,580.0908,NA,NA,NA,NA,NA,NA,NA,TRUE,2,2.0227,576.7411,579.741,NA,NA,NA,NA,NA,7,26,0,35,35,1,1,2,36,"likert"
"53A9DC2D0EAC495CA82F4146B137FE76",1,"01990a98-d261-7268-b7e0-497b11850645","01990a84-c4ee-73c2-a87b-ff46a7d3dde5","2025-09-02_10h02.45.832",NA,NA,583.0903,583.0904,583.0904,583.44,NA,NA,NA,NA,NA,NA,NA,TRUE,3,2.6512,580.0935,583.0903,NA,NA,NA,NA,NA,14,28,0,36,36,20,1,2,37,"likert"
"53A9DC2D0EAC495CA82F4146B137FE76",1,"01990a98-d261-7268-b7e0-497b11850645","01990a84-c4ee-73c2-a87b-ff46a7d3dde5","2025-09-02_10h02.45.832",NA,NA,586.4411,586.4412,586.4412,586.7908,NA,NA,NA,NA,NA,NA,NA,TRUE,4,2.5954,583.4413,586.441,NA,NA,NA,NA,NA,150,47,0,37,37,94,1,2,38,"likert"
"53A9DC2D0EAC495CA82F4146B137FE76",1,"01990a98-d261-7268-b7e0-497b11850645","01990a84-c4ee-73c2-a87b-ff46a7d3dde5","2025-09-02_10h02.45.832",NA,NA,589.791,589.791,589.791,590.1246,NA,NA,NA,NA,NA,NA,NA,TRUE,2,2.5234,586.7913,589.791,NA,NA,NA,NA,NA,30,30,0,38,38,45,1,2,39,"likert"
"53A9DC2D0EAC495CA82F4146B137FE76",1,"01990a98-d261-7268-b7e0-497b11850645","01990a84-c4ee-73c2-a87b-ff46a7d3dde5","2025-09-02_10h02.45.832",NA,NA,593.1248,593.1249,593.1249,593.4746,NA,NA,NA,NA,NA,NA,NA,TRUE,3,2.4077,590.1265,593.1247,NA,NA,NA,NA,NA,21,32,0,39,39,28,1,2,40,"likert"
"53A9DC2D0EAC495CA82F4146B137FE76",1,"01990a98-d261-7268-b7e0-497b11850645","01990a84-c4ee-73c2-a87b-ff46a7d3dde5","2025-09-02_10h02.45.832",NA,NA,596.492,596.4922,596.4922,596.8248,NA,NA,NA,NA,NA,NA,NA,TRUE,1,1.3628,593.4761,596.4916,NA,NA,NA,NA,NA,90,26,0,40,40,72,1,2,41,"likert"
"53A9DC2D0EAC495CA82F4146B137FE76",1,"01990a98-d261-7268-b7e0-497b11850645","01990a84-c4ee-73c2-a87b-ff46a7d3dde5","2025-09-02_10h02.45.832",NA,NA,599.8248,599.8248,599.8248,600.1748,NA,NA,NA,NA,NA,NA,NA,TRUE,4,1.8416,596.8277,599.8247,NA,NA,NA,NA,NA,50,40,0,41,41,63,1,2,42,"likert"
"53A9DC2D0EAC495CA82F4146B137FE76",1,"01990a98-d261-7268-b7e0-497b11850645","01990a84-c4ee-73c2-a87b-ff46a7d3dde5","2025-09-02_10h02.45.832",NA,NA,603.1749,603.1749,603.1749,603.5414,NA,NA,NA,NA,NA,NA,NA,TRUE,2,1.5109,600.1758,603.1746,NA,NA,NA,NA,NA,180,31,0,42,42,97,1,2,43,"likert"
"53A9DC2D0EAC495CA82F4146B137FE76",1,"01990a98-d261-7268-b7e0-497b11850645","01990a84-c4ee-73c2-a87b-ff46a7d3dde5","2025-09-02_10h02.45.832",NA,NA,606.525,606.525,606.525,606.8742,NA,NA,NA,NA,NA,NA,NA,TRUE,3,2.1613,603.5426,606.5249,NA,NA,NA,NA,NA,90,54,0,43,43,77,1,2,44,"likert"
"53A9DC2D0EAC495CA82F4146B137FE76",1,"01990a98-d261-7268-b7e0-497b11850645","01990a84-c4ee-73c2-a87b-ff46a7d3dde5","2025-09-02_10h02.45.832",NA,NA,609.8754,609.8754,609.8754,610.2245,NA,NA,NA,NA,NA,NA,NA,TRUE,2,2.103,606.8752,609.8754,NA,NA,NA,NA,NA,200,47,0,44,44,106,1,2,45,"likert"
"53A9DC2D0EAC495CA82F4146B137FE76",1,"01990a98-d261-7268-b7e0-497b11850645","01990a84-c4ee-73c2-a87b-ff46a7d3dde5","2025-09-02_10h02.45.832",NA,NA,613.2258,613.2258,613.2258,613.592,NA,NA,NA,NA,NA,NA,NA,TRUE,1,2.0412,610.2261,613.2257,NA,NA,NA,NA,NA,14,25,0,45,45,18,1,2,46,"likert"
"53A9DC2D0EAC495CA82F4146B137FE76",1,"01990a98-d261-7268-b7e0-497b11850645","01990a84-c4ee-73c2-a87b-ff46a7d3dde5","2025-09-02_10h02.45.832",NA,NA,616.5757,616.5757,616.5757,616.9253,NA,NA,NA,NA,NA,NA,NA,TRUE,1,2.0619,613.593,616.5756,NA,NA,NA,NA,NA,40,33,0,46,46,49,1,2,47,"likert"
"53A9DC2D0EAC495CA82F4146B137FE76",1,"01990a98-d261-7268-b7e0-497b11850645","01990a84-c4ee-73c2-a87b-ff46a7d3dde5","2025-09-02_10h02.45.832",NA,NA,619.9256,619.9257,619.9257,620.2757,NA,NA,NA,NA,NA,NA,NA,TRUE,3,2.3987,616.9261,619.9255,NA,NA,NA,NA,NA,100,46,0,47,47,88,1,2,48,"likert"
"53A9DC2D0EAC495CA82F4146B137FE76",1,"01990a98-d261-7268-b7e0-497b11850645","01990a84-c4ee-73c2-a87b-ff46a7d3dde5","2025-09-02_10h02.45.832",NA,NA,623.2759,623.2759,623.2759,623.6258,NA,NA,NA,NA,NA,NA,NA,TRUE,1,1.34,620.2783,623.2758,NA,NA,NA,NA,NA,28,26,0,48,48,36,1,2,49,"likert"
"53A9DC2D0EAC495CA82F4146B137FE76",1,"01990a98-d261-7268-b7e0-497b11850645","01990a84-c4ee-73c2-a87b-ff46a7d3dde5","2025-09-02_10h02.45.832",NA,NA,626.6258,626.6258,626.6258,626.976,NA,NA,NA,NA,NA,NA,NA,TRUE,1,1.8844,623.6269,626.6257,NA,NA,NA,NA,NA,150,40,0,49,49,93,1,2,50,"likert"
"53A9DC2D0EAC495CA82F4146B137FE76",1,"01990a98-d261-7268-b7e0-497b11850645","01990a84-c4ee-73c2-a87b-ff46a7d3dde5","2025-09-02_10h02.45.832",NA,NA,629.976,630.2257,630.2258,630.3257,NA,NA,NA,NA,NA,NA,NA,FALSE,NA,NA,626.9776,629.9759,NA,NA,NA,NA,NA,50,35,0,50,50,62,1,2,51,"likert"
"53A9DC2D0EAC495CA82F4146B137FE76",1,"01990a98-d261-7268-b7e0-497b11850645","01990a84-c4ee-73c2-a87b-ff46a7d3dde5","2025-09-02_10h02.45.832",NA,NA,633.3263,633.3263,633.3263,633.6762,NA,NA,NA,NA,NA,NA,NA,TRUE,1,1.4143,630.3261,633.3262,NA,NA,NA,NA,NA,12,28,0,51,51,14,1,2,52,"likert"
"53A9DC2D0EAC495CA82F4146B137FE76",1,"01990a98-d261-7268-b7e0-497b11850645","01990a84-c4ee-73c2-a87b-ff46a7d3dde5","2025-09-02_10h02.45.832",NA,NA,636.6765,636.6765,636.6765,637.0261,NA,NA,NA,NA,NA,NA,NA,TRUE,1,2.1292,633.6774,636.6764,NA,NA,NA,NA,NA,50,27,0,52,52,60,1,2,53,"likert"
"53A9DC2D0EAC495CA82F4146B137FE76",1,"01990a98-d261-7268-b7e0-497b11850645","01990a84-c4ee-73c2-a87b-ff46a7d3dde5","2025-09-02_10h02.45.832",NA,NA,640.0271,640.0272,640.0272,640.3755,NA,NA,NA,NA,NA,NA,NA,TRUE,1,1.3655,637.0267,640.0267,NA,NA,NA,NA,NA,90,33,0,53,53,74,1,2,54,"likert"
"53A9DC2D0EAC495CA82F4146B137FE76",1,"01990a98-d261-7268-b7e0-497b11850645","01990a84-c4ee-73c2-a87b-ff46a7d3dde5","2025-09-02_10h02.45.832",NA,NA,643.3768,643.3768,643.3768,643.7267,NA,NA,NA,NA,NA,NA,NA,TRUE,4,2.6175,640.3778,643.3767,NA,NA,NA,NA,NA,12,35,0,54,54,17,1,2,55,"likert"
"53A9DC2D0EAC495CA82F4146B137FE76",1,"01990a98-d261-7268-b7e0-497b11850645","01990a84-c4ee-73c2-a87b-ff46a7d3dde5","2025-09-02_10h02.45.832",NA,NA,646.7267,646.7267,646.7267,647.0768,NA,NA,NA,NA,NA,NA,NA,TRUE,4,1.9304,643.7278,646.7265,NA,NA,NA,NA,NA,7,28,0,55,55,2,1,2,56,"likert"
"53A9DC2D0EAC495CA82F4146B137FE76",1,"01990a98-d261-7268-b7e0-497b11850645","01990a84-c4ee-73c2-a87b-ff46a7d3dde5","2025-09-02_10h02.45.832",NA,NA,650.0765,650.0767,650.0767,650.427,NA,NA,NA,NA,NA,NA,NA,TRUE,3,2.3513,647.0782,650.0762,NA,NA,NA,NA,NA,45,31,0,56,56,56,1,2,57,"likert"
"53A9DC2D0EAC495CA82F4146B137FE76",1,"01990a98-d261-7268-b7e0-497b11850645","01990a84-c4ee-73c2-a87b-ff46a7d3dde5","2025-09-02_10h02.45.832",NA,NA,653.4273,653.4273,653.4273,653.7927,NA,NA,NA,NA,NA,NA,NA,TRUE,5,1.6992,650.4286,653.4271,NA,NA,NA,NA,NA,7,30,0,57,57,3,1,2,58,"likert"
"53A9DC2D0EAC495CA82F4146B137FE76",1,"01990a98-d261-7268-b7e0-497b11850645","01990a84-c4ee-73c2-a87b-ff46a7d3dde5","2025-09-02_10h02.45.832",NA,NA,656.7774,656.7774,656.7775,657.1269,NA,NA,NA,NA,NA,NA,NA,TRUE,5,2.2707,653.7934,656.7772,NA,NA,NA,NA,NA,10,30,0,58,58,10,1,2,59,"likert"
"53A9DC2D0EAC495CA82F4146B137FE76",1,"01990a98-d261-7268-b7e0-497b11850645","01990a84-c4ee-73c2-a87b-ff46a7d3dde5","2025-09-02_10h02.45.832",NA,NA,660.1264,660.1264,660.1264,660.4773,NA,NA,NA,NA,NA,NA,NA,TRUE,4,2.5739,657.128,660.1263,NA,NA,NA,NA,NA,28,39,0,59,59,40,1,2,60,"likert"
"53A9DC2D0EAC495CA82F4146B137FE76",1,"01990a98-d261-7268-b7e0-497b11850645","01990a84-c4ee-73c2-a87b-ff46a7d3dde5","2025-09-02_10h02.45.832",NA,NA,663.4778,663.4778,663.4778,663.8265,NA,NA,NA,NA,NA,NA,NA,TRUE,3,1.8133,660.4787,663.4777,NA,NA,NA,NA,NA,50,46,0,60,60,64,1,2,61,"likert"
"53A9DC2D0EAC495CA82F4146B137FE76",1,"01990a98-d261-7268-b7e0-497b11850645","01990a84-c4ee-73c2-a87b-ff46a7d3dde5","2025-09-02_10h02.45.832",NA,NA,666.8272,666.8273,666.8273,667.1776,NA,NA,NA,NA,NA,NA,NA,TRUE,2,1.4946,663.8277,666.8271,NA,NA,NA,NA,NA,60,35,0,61,61,68,1,2,62,"likert"
"53A9DC2D0EAC495CA82F4146B137FE76",1,"01990a98-d261-7268-b7e0-497b11850645","01990a84-c4ee-73c2-a87b-ff46a7d3dde5","2025-09-02_10h02.45.832",NA,NA,670.1776,670.1776,670.1777,670.5268,NA,NA,NA,NA,NA,NA,NA,TRUE,2,1.5747,667.179,670.1774,NA,NA,NA,NA,NA,28,35,0,62,62,39,1,2,63,"likert"
"53A9DC2D0EAC495CA82F4146B137FE76",1,"01990a98-d261-7268-b7e0-497b11850645","01990a84-c4ee-73c2-a87b-ff46a7d3dde5","2025-09-02_10h02.45.832",NA,NA,673.5279,673.5279,673.5279,673.8778,NA,NA,NA,NA,NA,NA,NA,TRUE,3,2.2615,670.5281,673.5279,NA,NA,NA,NA,NA,12,31,0,63,63,15,1,2,64,"likert"
"53A9DC2D0EAC495CA82F4146B137FE76",1,"01990a98-d261-7268-b7e0-497b11850645","01990a84-c4ee-73c2-a87b-ff46a7d3dde5","2025-09-02_10h02.45.832",NA,NA,676.878,676.878,676.878,677.2281,NA,NA,NA,NA,NA,NA,NA,TRUE,2,1.5336,673.8792,676.8778,NA,NA,NA,NA,NA,28,32,0,64,64,38,1,2,65,"likert"
"53A9DC2D0EAC495CA82F4146B137FE76",1,"01990a98-d261-7268-b7e0-497b11850645","01990a84-c4ee-73c2-a87b-ff46a7d3dde5","2025-09-02_10h02.45.832",NA,NA,680.2283,680.2284,680.2284,680.5781,NA,NA,NA,NA,NA,NA,NA,TRUE,3,2.6721,677.2298,680.2282,NA,NA,NA,NA,NA,60,54,0,65,65,71,1,2,66,"likert"
"53A9DC2D0EAC495CA82F4146B137FE76",1,"01990a98-d261-7268-b7e0-497b11850645","01990a84-c4ee-73c2-a87b-ff46a7d3dde5","2025-09-02_10h02.45.832",NA,NA,683.5783,683.5783,683.5783,683.9282,NA,NA,NA,NA,NA,NA,NA,TRUE,1,1.3668,680.579,683.5782,NA,NA,NA,NA,NA,30,26,0,66,66,42,1,2,67,"likert"
"53A9DC2D0EAC495CA82F4146B137FE76",1,"01990a98-d261-7268-b7e0-497b11850645","01990a84-c4ee-73c2-a87b-ff46a7d3dde5","2025-09-02_10h02.45.832",NA,NA,686.9285,686.9285,686.9285,687.2783,NA,NA,NA,NA,NA,NA,NA,TRUE,1,1.4086,683.9292,686.9284,NA,NA,NA,NA,NA,25,27,0,67,67,30,1,2,68,"likert"
"53A9DC2D0EAC495CA82F4146B137FE76",1,"01990a98-d261-7268-b7e0-497b11850645","01990a84-c4ee-73c2-a87b-ff46a7d3dde5","2025-09-02_10h02.45.832",NA,NA,690.2786,690.2786,690.2786,690.6282,NA,NA,NA,NA,NA,NA,NA,TRUE,3,1.4744,687.2795,690.2785,NA,NA,NA,NA,NA,60,40,0,68,68,69,1,2,69,"likert"
"53A9DC2D0EAC495CA82F4146B137FE76",1,"01990a98-d261-7268-b7e0-497b11850645","01990a84-c4ee-73c2-a87b-ff46a7d3dde5","2025-09-02_10h02.45.832",NA,NA,693.6287,693.6288,693.6288,693.9786,NA,NA,NA,NA,NA,NA,NA,TRUE,1,1.8151,690.6292,693.6286,NA,NA,NA,NA,NA,14,26,0,69,69,19,1,2,70,"likert"
"53A9DC2D0EAC495CA82F4146B137FE76",1,"01990a98-d261-7268-b7e0-497b11850645","01990a84-c4ee-73c2-a87b-ff46a7d3dde5","2025-09-02_10h02.45.832",NA,NA,696.9779,696.9779,696.9779,697.3286,NA,NA,NA,NA,NA,NA,NA,TRUE,2,1.3836,693.9798,696.9777,NA,NA,NA,NA,NA,180,46,0,70,70,100,1,2,71,"likert"
"53A9DC2D0EAC495CA82F4146B137FE76",1,"01990a98-d261-7268-b7e0-497b11850645","01990a84-c4ee-73c2-a87b-ff46a7d3dde5","2025-09-02_10h02.45.832",NA,NA,700.329,700.3291,700.3291,700.6781,NA,NA,NA,NA,NA,NA,NA,TRUE,1,1.5308,697.3294,700.3288,NA,NA,NA,NA,NA,10,25,0,71,71,6,1,2,72,"likert"
"53A9DC2D0EAC495CA82F4146B137FE76",1,"01990a98-d261-7268-b7e0-497b11850645","01990a84-c4ee-73c2-a87b-ff46a7d3dde5","2025-09-02_10h02.45.832",NA,NA,703.6788,703.6788,703.6788,704.029,NA,NA,NA,NA,NA,NA,NA,TRUE,1,1.9274,700.6815,703.6787,NA,NA,NA,NA,NA,28,28,0,72,72,37,1,2,73,"likert"
"53A9DC2D0EAC495CA82F4146B137FE76",1,"01990a98-d261-7268-b7e0-497b11850645","01990a84-c4ee-73c2-a87b-ff46a7d3dde5","2025-09-02_10h02.45.832",NA,NA,707.0294,707.0294,707.0294,707.3791,NA,NA,NA,NA,NA,NA,NA,TRUE,2,2.5755,704.0301,707.0292,NA,NA,NA,NA,NA,150,35,0,73,73,92,1,2,74,"likert"
"53A9DC2D0EAC495CA82F4146B137FE76",1,"01990a98-d261-7268-b7e0-497b11850645","01990a84-c4ee-73c2-a87b-ff46a7d3dde5","2025-09-02_10h02.45.832",NA,NA,710.3785,710.3785,710.3785,710.7293,NA,NA,NA,NA,NA,NA,NA,TRUE,5,1.8792,707.3801,710.3784,NA,NA,NA,NA,NA,7,35,0,74,74,5,1,2,75,"likert"
"53A9DC2D0EAC495CA82F4146B137FE76",1,"01990a98-d261-7268-b7e0-497b11850645","01990a84-c4ee-73c2-a87b-ff46a7d3dde5","2025-09-02_10h02.45.832",NA,NA,713.7295,713.7296,713.7296,714.0794,NA,NA,NA,NA,NA,NA,NA,TRUE,2,1.8606,710.7304,713.7294,NA,NA,NA,NA,NA,180,39,0,75,75,99,1,2,76,"likert"
"53A9DC2D0EAC495CA82F4146B137FE76",1,"01990a98-d261-7268-b7e0-497b11850645","01990a84-c4ee-73c2-a87b-ff46a7d3dde5","2025-09-02_10h02.45.832",NA,NA,717.0797,717.0797,717.0797,717.4296,NA,NA,NA,NA,NA,NA,NA,TRUE,1,1.0989,714.0806,717.0796,NA,NA,NA,NA,NA,150,31,0,76,76,90,1,2,77,"likert"
"53A9DC2D0EAC495CA82F4146B137FE76",1,"01990a98-d261-7268-b7e0-497b11850645","01990a84-c4ee-73c2-a87b-ff46a7d3dde5","2025-09-02_10h02.45.832",NA,NA,720.4298,720.4298,720.4298,720.7794,NA,NA,NA,NA,NA,NA,NA,TRUE,1,1.7088,717.4308,720.4297,NA,NA,NA,NA,NA,60,29,0,77,77,66,1,2,78,"likert"
"53A9DC2D0EAC495CA82F4146B137FE76",1,"01990a98-d261-7268-b7e0-497b11850645","01990a84-c4ee-73c2-a87b-ff46a7d3dde5","2025-09-02_10h02.45.832",NA,NA,723.7795,723.7795,723.7795,724.1298,NA,NA,NA,NA,NA,NA,NA,TRUE,1,1.1989,720.7802,723.7792,NA,NA,NA,NA,NA,100,31,0,78,78,85,1,2,79,"likert"
"53A9DC2D0EAC495CA82F4146B137FE76",1,"01990a98-d261-7268-b7e0-497b11850645","01990a84-c4ee-73c2-a87b-ff46a7d3dde5","2025-09-02_10h02.45.832",NA,NA,727.1293,727.1293,727.1293,727.4799,NA,NA,NA,NA,NA,NA,NA,TRUE,2,2.443,724.1313,727.1291,NA,NA,NA,NA,NA,25,33,0,79,79,33,1,2,80,"likert"
"53A9DC2D0EAC495CA82F4146B137FE76",1,"01990a98-d261-7268-b7e0-497b11850645","01990a84-c4ee-73c2-a87b-ff46a7d3dde5","2025-09-02_10h02.45.832",NA,NA,730.4802,730.4802,730.4802,730.8301,NA,NA,NA,NA,NA,NA,NA,TRUE,4,1.4953,727.481,730.4801,NA,NA,NA,NA,NA,14,32,0,80,80,21,1,2,81,"likert"
"53A9DC2D0EAC495CA82F4146B137FE76",1,"01990a98-d261-7268-b7e0-497b11850645","01990a84-c4ee-73c2-a87b-ff46a7d3dde5","2025-09-02_10h02.45.832",NA,NA,733.8302,733.8302,733.8302,734.1792,NA,NA,NA,NA,NA,NA,NA,TRUE,5,1.5855,730.8313,733.8301,NA,NA,NA,NA,NA,14,39,0,81,81,23,1,2,82,"likert"
"53A9DC2D0EAC495CA82F4146B137FE76",1,"01990a98-d261-7268-b7e0-497b11850645","01990a84-c4ee-73c2-a87b-ff46a7d3dde5","2025-09-02_10h02.45.832",NA,NA,737.18,737.1801,737.1801,737.53,NA,NA,NA,NA,NA,NA,NA,TRUE,4,1.7933,734.1802,737.18,NA,NA,NA,NA,NA,40,54,0,82,82,53,1,2,83,"likert"
"53A9DC2D0EAC495CA82F4146B137FE76",1,"01990a98-d261-7268-b7e0-497b11850645","01990a84-c4ee-73c2-a87b-ff46a7d3dde5","2025-09-02_10h02.45.832",NA,NA,740.5306,740.5306,740.5306,740.8806,NA,NA,NA,NA,NA,NA,NA,TRUE,1,1.2479,737.5309,740.5305,NA,NA,NA,NA,NA,30,29,0,83,83,44,1,2,84,"likert"
"53A9DC2D0EAC495CA82F4146B137FE76",1,"01990a98-d261-7268-b7e0-497b11850645","01990a84-c4ee-73c2-a87b-ff46a7d3dde5","2025-09-02_10h02.45.832",NA,NA,743.8807,743.8808,743.8808,744.2307,NA,NA,NA,NA,NA,NA,NA,TRUE,1,1.142,740.8821,743.8806,NA,NA,NA,NA,NA,21,26,0,84,84,24,1,2,85,"likert"
"53A9DC2D0EAC495CA82F4146B137FE76",1,"01990a98-d261-7268-b7e0-497b11850645","01990a84-c4ee-73c2-a87b-ff46a7d3dde5","2025-09-02_10h02.45.832",NA,NA,747.231,747.231,747.2311,747.5807,NA,NA,NA,NA,NA,NA,NA,TRUE,3,1.648,744.2322,747.2309,NA,NA,NA,NA,NA,30,38,0,85,85,47,1,2,86,"likert"
"53A9DC2D0EAC495CA82F4146B137FE76",1,"01990a98-d261-7268-b7e0-497b11850645","01990a84-c4ee-73c2-a87b-ff46a7d3dde5","2025-09-02_10h02.45.832",NA,NA,750.5807,750.5807,750.5807,750.9309,NA,NA,NA,NA,NA,NA,NA,TRUE,3,2.0962,747.582,750.5806,NA,NA,NA,NA,NA,90,46,0,86,86,76,1,2,87,"likert"
"53A9DC2D0EAC495CA82F4146B137FE76",1,"01990a98-d261-7268-b7e0-497b11850645","01990a84-c4ee-73c2-a87b-ff46a7d3dde5","2025-09-02_10h02.45.832",NA,NA,753.9311,753.9311,753.9311,754.2809,NA,NA,NA,NA,NA,NA,NA,TRUE,4,1.4797,750.9321,753.931,NA,NA,NA,NA,NA,10,32,0,87,87,11,1,2,88,"likert"
"53A9DC2D0EAC495CA82F4146B137FE76",1,"01990a98-d261-7268-b7e0-497b11850645","01990a84-c4ee-73c2-a87b-ff46a7d3dde5","2025-09-02_10h02.45.832",NA,NA,757.2813,757.2813,757.2813,757.6309,NA,NA,NA,NA,NA,NA,NA,TRUE,1,1.4001,754.282,757.2811,NA,NA,NA,NA,NA,100,26,0,88,88,84,1,2,89,"likert"
"53A9DC2D0EAC495CA82F4146B137FE76",1,"01990a98-d261-7268-b7e0-497b11850645","01990a84-c4ee-73c2-a87b-ff46a7d3dde5","2025-09-02_10h02.45.832",NA,NA,760.6316,760.6318,760.6318,760.9814,NA,NA,NA,NA,NA,NA,NA,TRUE,3,2.1835,757.6317,760.6307,NA,NA,NA,NA,NA,45,40,0,89,89,58,1,2,90,"likert"
"53A9DC2D0EAC495CA82F4146B137FE76",1,"01990a98-d261-7268-b7e0-497b11850645","01990a84-c4ee-73c2-a87b-ff46a7d3dde5","2025-09-02_10h02.45.832",NA,NA,763.9816,763.9816,763.9816,764.3314,NA,NA,NA,NA,NA,NA,NA,TRUE,1,1.529,760.9846,763.9815,NA,NA,NA,NA,NA,100,39,0,90,90,87,1,2,91,"likert"
"53A9DC2D0EAC495CA82F4146B137FE76",1,"01990a98-d261-7268-b7e0-497b11850645","01990a84-c4ee-73c2-a87b-ff46a7d3dde5","2025-09-02_10h02.45.832",NA,NA,767.3308,767.3308,767.3308,767.6815,NA,NA,NA,NA,NA,NA,NA,TRUE,1,1.191,764.3325,767.3306,NA,NA,NA,NA,NA,180,35,0,91,91,98,1,2,92,"likert"
"53A9DC2D0EAC495CA82F4146B137FE76",1,"01990a98-d261-7268-b7e0-497b11850645","01990a84-c4ee-73c2-a87b-ff46a7d3dde5","2025-09-02_10h02.45.832",NA,NA,770.6816,770.9315,770.9316,771.0314,NA,NA,NA,NA,NA,NA,NA,FALSE,NA,NA,767.6826,770.6816,NA,NA,NA,NA,NA,200,39,0,92,92,105,1,2,93,"likert"
"53A9DC2D0EAC495CA82F4146B137FE76",1,"01990a98-d261-7268-b7e0-497b11850645","01990a84-c4ee-73c2-a87b-ff46a7d3dde5","2025-09-02_10h02.45.832",NA,NA,774.0319,774.0319,774.0319,774.381,NA,NA,NA,NA,NA,NA,NA,TRUE,5,1.8172,771.032,774.0317,NA,NA,NA,NA,NA,25,46,0,93,93,35,1,2,94,"likert"
"53A9DC2D0EAC495CA82F4146B137FE76",1,"01990a98-d261-7268-b7e0-497b11850645","01990a84-c4ee-73c2-a87b-ff46a7d3dde5","2025-09-02_10h02.45.832",NA,NA,777.3811,777.3811,777.3811,777.7317,NA,NA,NA,NA,NA,NA,NA,TRUE,5,1.6923,774.3836,777.3809,NA,NA,NA,NA,NA,14,35,0,94,94,22,1,2,95,"likert"
"53A9DC2D0EAC495CA82F4146B137FE76",1,"01990a98-d261-7268-b7e0-497b11850645","01990a84-c4ee-73c2-a87b-ff46a7d3dde5","2025-09-02_10h02.45.832",NA,NA,780.7323,780.7323,780.7323,781.0821,NA,NA,NA,NA,NA,NA,NA,TRUE,5,2.1349,777.7325,780.7322,NA,NA,NA,NA,NA,60,47,0,95,95,70,1,2,96,"likert"
"53A9DC2D0EAC495CA82F4146B137FE76",1,"01990a98-d261-7268-b7e0-497b11850645","01990a84-c4ee-73c2-a87b-ff46a7d3dde5","2025-09-02_10h02.45.832",NA,NA,784.0823,784.0824,784.0825,784.4318,NA,NA,NA,NA,NA,NA,NA,TRUE,1,1.3795,781.0832,784.0822,NA,NA,NA,NA,NA,100,38,0,96,96,86,1,2,97,"likert"
"53A9DC2D0EAC495CA82F4146B137FE76",1,"01990a98-d261-7268-b7e0-497b11850645","01990a84-c4ee-73c2-a87b-ff46a7d3dde5","2025-09-02_10h02.45.832",NA,NA,787.4324,787.4324,787.4324,787.7824,NA,NA,NA,NA,NA,NA,NA,TRUE,5,1.0415,784.4326,787.4323,NA,NA,NA,NA,NA,7,32,0,97,97,4,1,2,98,"likert"
"53A9DC2D0EAC495CA82F4146B137FE76",1,"01990a98-d261-7268-b7e0-497b11850645","01990a84-c4ee-73c2-a87b-ff46a7d3dde5","2025-09-02_10h02.45.832",NA,NA,790.7825,790.7826,790.7826,791.1317,NA,NA,NA,NA,NA,NA,NA,TRUE,3,1.7949,787.7837,790.7824,NA,NA,NA,NA,NA,21,30,0,98,98,27,1,2,99,"likert"
"53A9DC2D0EAC495CA82F4146B137FE76",1,"01990a98-d261-7268-b7e0-497b11850645","01990a84-c4ee-73c2-a87b-ff46a7d3dde5","2025-09-02_10h02.45.832",NA,NA,794.1328,794.1328,794.1328,794.4823,NA,NA,NA,NA,NA,NA,NA,TRUE,4,1.7145,791.1326,794.1326,NA,NA,NA,NA,NA,90,40,0,99,99,75,1,2,100,"likert"
"53A9DC2D0EAC495CA82F4146B137FE76",1,"01990a98-d261-7268-b7e0-497b11850645","01990a84-c4ee-73c2-a87b-ff46a7d3dde5","2025-09-02_10h02.45.832",NA,NA,797.4828,797.4828,797.4828,797.8318,NA,NA,NA,NA,NA,NA,NA,TRUE,5,1.7286,794.4833,797.4827,NA,NA,NA,NA,NA,50,54,0,100,100,65,1,2,101,"likert"
"53A9DC2D0EAC495CA82F4146B137FE76",1,"01990a98-d261-7268-b7e0-497b11850645","01990a84-c4ee-73c2-a87b-ff46a7d3dde5","2025-09-02_10h02.45.832",NA,NA,800.833,800.8331,800.8331,801.1826,NA,NA,NA,NA,NA,NA,NA,TRUE,1,1.0883,797.8332,800.8328,NA,NA,NA,NA,NA,150,33,0,101,101,91,1,2,102,"likert"
"53A9DC2D0EAC495CA82F4146B137FE76",1,"01990a98-d261-7268-b7e0-497b11850645","01990a84-c4ee-73c2-a87b-ff46a7d3dde5","2025-09-02_10h02.45.832",NA,NA,804.1831,804.1831,804.1831,804.5322,NA,NA,NA,NA,NA,NA,NA,TRUE,1,1.1286,801.1836,804.183,NA,NA,NA,NA,NA,30,27,0,102,102,43,1,2,103,"likert"
"53A9DC2D0EAC495CA82F4146B137FE76",1,"01990a98-d261-7268-b7e0-497b11850645","01990a84-c4ee-73c2-a87b-ff46a7d3dde5","2025-09-02_10h02.45.832",NA,NA,807.5329,807.533,807.533,807.8827,NA,NA,NA,NA,NA,NA,NA,TRUE,1,1.6846,804.5335,807.5328,NA,NA,NA,NA,NA,12,26,0,103,103,13,1,2,104,"likert"
"53A9DC2D0EAC495CA82F4146B137FE76",1,"01990a98-d261-7268-b7e0-497b11850645","01990a84-c4ee-73c2-a87b-ff46a7d3dde5","2025-09-02_10h02.45.832",NA,NA,810.8833,810.8833,810.8833,811.233,NA,NA,NA,NA,NA,NA,NA,TRUE,4,1.9416,807.8837,810.8832,NA,NA,NA,NA,NA,40,40,0,104,104,51,1,2,105,"likert"
"53A9DC2D0EAC495CA82F4146B137FE76",1,"01990a98-d261-7268-b7e0-497b11850645","01990a84-c4ee-73c2-a87b-ff46a7d3dde5","2025-09-02_10h02.45.832",NA,NA,814.2333,814.2333,814.2333,814.5833,NA,NA,NA,NA,NA,NA,NA,TRUE,2,2.0497,811.2335,814.2332,NA,NA,NA,NA,NA,25,31,0,105,105,32,1,2,106,"likert"
"53A9DC2D0EAC495CA82F4146B137FE76",1,"01990a98-d261-7268-b7e0-497b11850645","01990a84-c4ee-73c2-a87b-ff46a7d3dde5","2025-09-02_10h02.45.832",NA,NA,817.5836,817.5836,817.5837,817.9335,NA,NA,NA,NA,NA,NA,NA,TRUE,2,1.3821,814.5843,817.5835,NA,NA,NA,NA,NA,45,35,0,106,106,57,1,2,107,"likert"
"53A9DC2D0EAC495CA82F4146B137FE76",1,"01990a98-d261-7268-b7e0-497b11850645","01990a84-c4ee-73c2-a87b-ff46a7d3dde5","2025-09-02_10h02.45.832",NA,NA,820.9344,820.9345,820.9345,821.2831,NA,NA,NA,NA,NA,NA,NA,TRUE,2,1.8524,817.9347,820.9339,NA,NA,NA,NA,NA,50,30,0,107,107,61,1,2,108,"likert"
