"participant","session","assignmentId","projectId","date","practiceTrial.started","practiceTrial.stopped","tooLate.started","tooLate.stopped","blank.started","blank.stopped","trials_pract.thisRepN","trials_pract.thisTrialN","trials_pract.thisN","trials_pract.thisIndex","trials_pract.ran","delay_pract","amount_pract","responseMade","key","rt","trial.started","trial.stopped","trials.thisRepN","trials.thisTrialN","trials.thisN","trials.thisIndex","trials.ran","delay","amount","trials_2.thisRepN","trials_2.thisTrialN","trials_2.thisN","trials_2.thisIndex","trials_2.ran","block","trial","taskType"
"578A4EC0A0C948ED96A7DF35DBECE4E7",1,"01990a98-393e-713f-a661-cbf1d87b2ac5","01990a84-c4ee-73c2-a87b-ff46a7d3dde5","2025-09-02_09h44.07.415",44.434,47.41,47.417,47.669,47.669,47.67,0,0,0,4,1,30,40,FALSE,NA,NA,NA,NA,NA,NA,NA,NA,NA,NA,NA,NA,NA,NA,NA,NA,0,1,"likert"
"578A4EC0A0C948ED96A7DF35DBECE4E7",1,"01990a98-393e-713f-a661-cbf1d87b2ac5","01990a84-c4ee-73c2-a87b-ff46a7d3dde5","2025-09-02_09h44.07.415",47.671,50.756,50.756,50.998,50.998,51.116,0,1,1,3,1,3,27,FALSE,NA,NA,NA,NA,NA,NA,NA,NA,NA,NA,NA,NA,NA,NA,NA,NA,0,2,"likert"
"578A4EC0A0C948ED96A7DF35DBECE4E7",1,"01990a98-393e-713f-a661-cbf1d87b2ac5","01990a84-c4ee-73c2-a87b-ff46a7d3dde5","2025-09-02_09h44.07.415",51.117,54.039,54.04,54.297,54.297,54.413,0,2,2,0,1,7,30,FALSE,NA,NA,NA,NA,NA,NA,NA,NA,NA,NA,NA,NA,NA,NA,NA,NA,0,3,"likert"
"578A4EC0A0C948ED96A7DF35DBECE4E7",1,"01990a98-393e-713f-a661-cbf1d87b2ac5","01990a84-c4ee-73c2-a87b-ff46a7d3dde5","2025-09-02_09h44.07.415",54.42,57.384,57.384,57.384,57.384,57.746,0,3,3,1,1,100,50,TRUE,5,1.9,NA,NA,NA,NA,NA,NA,NA,NA,NA,NA,NA,NA,NA,NA,0,4,"likert"
"578A4EC0A0C948ED96A7DF35DBECE4E7",1,"01990a98-393e-713f-a661-cbf1d87b2ac5","01990a84-c4ee-73c2-a87b-ff46a7d3dde5","2025-09-02_09h44.07.415",57.747,60.83,60.831,60.831,60.831,61.079,0,4,4,2,1,14,45,TRUE,5,2.423,NA,NA,NA,NA,NA,NA,NA,NA,NA,NA,NA,NA,NA,NA,0,5,"likert"
"578A4EC0A0C948ED96A7DF35DBECE4E7",1,"01990a98-393e-713f-a661-cbf1d87b2ac5","01990a84-c4ee-73c2-a87b-ff46a7d3dde5","2025-09-02_09h44.07.415",NA,NA,119.331,119.473,119.473,119.591,NA,NA,NA,NA,NA,NA,NA,FALSE,NA,NA,116.341,119.33,0,0,0,15,1,12,31,NA,NA,NA,NA,NA,1,1,"likert"
"578A4EC0A0C948ED96A7DF35DBECE4E7",1,"01990a98-393e-713f-a661-cbf1d87b2ac5","01990a84-c4ee-73c2-a87b-ff46a7d3dde5","2025-09-02_09h44.07.415",NA,NA,122.63,122.63,122.63,122.998,NA,NA,NA,NA,NA,NA,NA,TRUE,1,0.825,119.593,122.629,0,1,1,65,1,50,54,NA,NA,NA,NA,NA,1,2,"likert"
"578A4EC0A0C948ED96A7DF35DBECE4E7",1,"01990a98-393e-713f-a661-cbf1d87b2ac5","01990a84-c4ee-73c2-a87b-ff46a7d3dde5","2025-09-02_09h44.07.415",NA,NA,126.01,126.254,126.254,126.377,NA,NA,NA,NA,NA,NA,NA,FALSE,NA,NA,123.004,126.009,0,2,2,86,1,100,38,NA,NA,NA,NA,NA,1,3,"likert"
"578A4EC0A0C948ED96A7DF35DBECE4E7",1,"01990a98-393e-713f-a661-cbf1d87b2ac5","01990a84-c4ee-73c2-a87b-ff46a7d3dde5","2025-09-02_09h44.07.415",NA,NA,129.358,129.605,129.605,129.736,NA,NA,NA,NA,NA,NA,NA,FALSE,NA,NA,126.378,129.357,0,3,3,68,1,60,35,NA,NA,NA,NA,NA,1,4,"likert"
"578A4EC0A0C948ED96A7DF35DBECE4E7",1,"01990a98-393e-713f-a661-cbf1d87b2ac5","01990a84-c4ee-73c2-a87b-ff46a7d3dde5","2025-09-02_09h44.07.415",NA,NA,132.689,132.689,132.689,133.045,NA,NA,NA,NA,NA,NA,NA,TRUE,5,2.297,129.743,132.688,0,4,4,75,1,90,40,NA,NA,NA,NA,NA,1,5,"likert"
"578A4EC0A0C948ED96A7DF35DBECE4E7",1,"01990a98-393e-713f-a661-cbf1d87b2ac5","01990a84-c4ee-73c2-a87b-ff46a7d3dde5","2025-09-02_09h44.07.415",NA,NA,136.03,136.03,136.03,136.392,NA,NA,NA,NA,NA,NA,NA,TRUE,1,1.801,133.046,136.029,0,5,5,34,1,25,35,NA,NA,NA,NA,NA,1,6,"likert"
"578A4EC0A0C948ED96A7DF35DBECE4E7",1,"01990a98-393e-713f-a661-cbf1d87b2ac5","01990a84-c4ee-73c2-a87b-ff46a7d3dde5","2025-09-02_09h44.07.415",NA,NA,139.352,139.352,139.352,139.719,NA,NA,NA,NA,NA,NA,NA,TRUE,1,1.361,136.399,139.351,0,6,6,104,1,200,35,NA,NA,NA,NA,NA,1,7,"likert"
"578A4EC0A0C948ED96A7DF35DBECE4E7",1,"01990a98-393e-713f-a661-cbf1d87b2ac5","01990a84-c4ee-73c2-a87b-ff46a7d3dde5","2025-09-02_09h44.07.415",NA,NA,142.748,142.748,142.748,143.107,NA,NA,NA,NA,NA,NA,NA,TRUE,1,1.336,139.72,142.747,0,7,7,4,1,7,32,NA,NA,NA,NA,NA,1,8,"likert"
"578A4EC0A0C948ED96A7DF35DBECE4E7",1,"01990a98-393e-713f-a661-cbf1d87b2ac5","01990a84-c4ee-73c2-a87b-ff46a7d3dde5","2025-09-02_09h44.07.415",NA,NA,146.054,146.055,146.055,146.411,NA,NA,NA,NA,NA,NA,NA,TRUE,1,0.937,143.114,146.054,0,8,8,107,1,200,54,NA,NA,NA,NA,NA,1,9,"likert"
"578A4EC0A0C948ED96A7DF35DBECE4E7",1,"01990a98-393e-713f-a661-cbf1d87b2ac5","01990a84-c4ee-73c2-a87b-ff46a7d3dde5","2025-09-02_09h44.07.415",NA,NA,149.374,149.374,149.374,149.766,NA,NA,NA,NA,NA,NA,NA,TRUE,1,1.111,146.412,149.374,0,9,9,47,1,30,38,NA,NA,NA,NA,NA,1,10,"likert"
"578A4EC0A0C948ED96A7DF35DBECE4E7",1,"01990a98-393e-713f-a661-cbf1d87b2ac5","01990a84-c4ee-73c2-a87b-ff46a7d3dde5","2025-09-02_09h44.07.415",NA,NA,152.831,152.831,152.831,153.192,NA,NA,NA,NA,NA,NA,NA,TRUE,1,0.951,149.774,152.831,0,10,10,12,1,12,25,NA,NA,NA,NA,NA,1,11,"likert"
"578A4EC0A0C948ED96A7DF35DBECE4E7",1,"01990a98-393e-713f-a661-cbf1d87b2ac5","01990a84-c4ee-73c2-a87b-ff46a7d3dde5","2025-09-02_09h44.07.415",NA,NA,156.094,156.094,156.094,156.444,NA,NA,NA,NA,NA,NA,NA,TRUE,1,0.943,153.193,156.094,0,11,11,55,1,45,29,NA,NA,NA,NA,NA,1,12,"likert"
"578A4EC0A0C948ED96A7DF35DBECE4E7",1,"01990a98-393e-713f-a661-cbf1d87b2ac5","01990a84-c4ee-73c2-a87b-ff46a7d3dde5","2025-09-02_09h44.07.415",NA,NA,159.434,159.434,159.434,159.787,NA,NA,NA,NA,NA,NA,NA,TRUE,1,0.957,156.451,159.434,0,12,12,22,1,14,35,NA,NA,NA,NA,NA,1,13,"likert"
"578A4EC0A0C948ED96A7DF35DBECE4E7",1,"01990a98-393e-713f-a661-cbf1d87b2ac5","01990a84-c4ee-73c2-a87b-ff46a7d3dde5","2025-09-02_09h44.07.415",NA,NA,162.785,162.785,162.786,163.156,NA,NA,NA,NA,NA,NA,NA,TRUE,1,1.064,159.788,162.785,0,13,13,38,1,28,32,NA,NA,NA,NA,NA,1,14,"likert"
"578A4EC0A0C948ED96A7DF35DBECE4E7",1,"01990a98-393e-713f-a661-cbf1d87b2ac5","01990a84-c4ee-73c2-a87b-ff46a7d3dde5","2025-09-02_09h44.07.415",NA,NA,166.141,166.141,166.141,166.495,NA,NA,NA,NA,NA,NA,NA,TRUE,1,0.81,163.163,166.14,0,14,14,92,1,150,35,NA,NA,NA,NA,NA,1,15,"likert"
"578A4EC0A0C948ED96A7DF35DBECE4E7",1,"01990a98-393e-713f-a661-cbf1d87b2ac5","01990a84-c4ee-73c2-a87b-ff46a7d3dde5","2025-09-02_09h44.07.415",NA,NA,169.515,169.515,169.515,169.88,NA,NA,NA,NA,NA,NA,NA,TRUE,1,0.933,166.496,169.515,0,15,15,59,1,45,46,NA,NA,NA,NA,NA,1,16,"likert"
"578A4EC0A0C948ED96A7DF35DBECE4E7",1,"01990a98-393e-713f-a661-cbf1d87b2ac5","01990a84-c4ee-73c2-a87b-ff46a7d3dde5","2025-09-02_09h44.07.415",NA,NA,172.824,172.824,172.824,173.3,NA,NA,NA,NA,NA,NA,NA,TRUE,1,0.791,169.886,172.824,0,16,16,53,1,40,54,NA,NA,NA,NA,NA,1,17,"likert"
"578A4EC0A0C948ED96A7DF35DBECE4E7",1,"01990a98-393e-713f-a661-cbf1d87b2ac5","01990a84-c4ee-73c2-a87b-ff46a7d3dde5","2025-09-02_09h44.07.415",NA,NA,176.21,176.21,176.21,176.575,NA,NA,NA,NA,NA,NA,NA,TRUE,1,0.666,173.301,176.21,0,17,17,13,1,12,26,NA,NA,NA,NA,NA,1,18,"likert"
"578A4EC0A0C948ED96A7DF35DBECE4E7",1,"01990a98-393e-713f-a661-cbf1d87b2ac5","01990a84-c4ee-73c2-a87b-ff46a7d3dde5","2025-09-02_09h44.07.415",NA,NA,179.649,179.649,179.649,179.889,NA,NA,NA,NA,NA,NA,NA,TRUE,1,0.839,176.582,179.649,0,18,18,72,1,90,26,NA,NA,NA,NA,NA,1,19,"likert"
"578A4EC0A0C948ED96A7DF35DBECE4E7",1,"01990a98-393e-713f-a661-cbf1d87b2ac5","01990a84-c4ee-73c2-a87b-ff46a7d3dde5","2025-09-02_09h44.07.415",NA,NA,182.962,182.962,182.962,183.327,NA,NA,NA,NA,NA,NA,NA,TRUE,1,0.83,179.895,182.962,0,19,19,106,1,200,47,NA,NA,NA,NA,NA,1,20,"likert"
"578A4EC0A0C948ED96A7DF35DBECE4E7",1,"01990a98-393e-713f-a661-cbf1d87b2ac5","01990a84-c4ee-73c2-a87b-ff46a7d3dde5","2025-09-02_09h44.07.415",NA,NA,186.312,186.312,186.312,186.671,NA,NA,NA,NA,NA,NA,NA,TRUE,1,0.843,183.328,186.311,0,20,20,97,1,180,31,NA,NA,NA,NA,NA,1,21,"likert"
"578A4EC0A0C948ED96A7DF35DBECE4E7",1,"01990a98-393e-713f-a661-cbf1d87b2ac5","01990a84-c4ee-73c2-a87b-ff46a7d3dde5","2025-09-02_09h44.07.415",NA,NA,189.597,189.597,189.598,189.958,NA,NA,NA,NA,NA,NA,NA,TRUE,1,1.086,186.678,189.597,0,21,21,90,1,150,31,NA,NA,NA,NA,NA,1,22,"likert"
"578A4EC0A0C948ED96A7DF35DBECE4E7",1,"01990a98-393e-713f-a661-cbf1d87b2ac5","01990a84-c4ee-73c2-a87b-ff46a7d3dde5","2025-09-02_09h44.07.415",NA,NA,192.967,192.967,192.967,193.335,NA,NA,NA,NA,NA,NA,NA,TRUE,1,0.004,189.959,192.966,0,22,22,43,1,30,27,NA,NA,NA,NA,NA,1,23,"likert"
"578A4EC0A0C948ED96A7DF35DBECE4E7",1,"01990a98-393e-713f-a661-cbf1d87b2ac5","01990a84-c4ee-73c2-a87b-ff46a7d3dde5","2025-09-02_09h44.07.415",NA,NA,196.359,196.36,196.36,196.713,NA,NA,NA,NA,NA,NA,NA,TRUE,1,0.272,193.342,196.359,0,23,23,81,1,95,40,NA,NA,NA,NA,NA,1,24,"likert"
"578A4EC0A0C948ED96A7DF35DBECE4E7",1,"01990a98-393e-713f-a661-cbf1d87b2ac5","01990a84-c4ee-73c2-a87b-ff46a7d3dde5","2025-09-02_09h44.07.415",NA,NA,199.749,199.749,199.749,199.994,NA,NA,NA,NA,NA,NA,NA,TRUE,1,0.813,196.714,199.749,0,24,24,50,1,40,35,NA,NA,NA,NA,NA,1,25,"likert"
"578A4EC0A0C948ED96A7DF35DBECE4E7",1,"01990a98-393e-713f-a661-cbf1d87b2ac5","01990a84-c4ee-73c2-a87b-ff46a7d3dde5","2025-09-02_09h44.07.415",NA,NA,203.029,203.029,203.029,203.401,NA,NA,NA,NA,NA,NA,NA,TRUE,1,1.065,199.995,203.028,0,25,25,33,1,25,33,NA,NA,NA,NA,NA,1,26,"likert"
"578A4EC0A0C948ED96A7DF35DBECE4E7",1,"01990a98-393e-713f-a661-cbf1d87b2ac5","01990a84-c4ee-73c2-a87b-ff46a7d3dde5","2025-09-02_09h44.07.415",NA,NA,206.311,206.311,206.311,206.805,NA,NA,NA,NA,NA,NA,NA,TRUE,1,0.805,203.408,206.311,0,26,26,40,1,28,39,NA,NA,NA,NA,NA,1,27,"likert"
"578A4EC0A0C948ED96A7DF35DBECE4E7",1,"01990a98-393e-713f-a661-cbf1d87b2ac5","01990a84-c4ee-73c2-a87b-ff46a7d3dde5","2025-09-02_09h44.07.415",NA,NA,209.701,209.701,209.701,210.075,NA,NA,NA,NA,NA,NA,NA,TRUE,1,0.94,206.806,209.701,0,27,27,70,1,60,47,NA,NA,NA,NA,NA,1,28,"likert"
"578A4EC0A0C948ED96A7DF35DBECE4E7",1,"01990a98-393e-713f-a661-cbf1d87b2ac5","01990a84-c4ee-73c2-a87b-ff46a7d3dde5","2025-09-02_09h44.07.415",NA,NA,213.146,213.146,213.146,213.39,NA,NA,NA,NA,NA,NA,NA,TRUE,1,0.691,210.081,213.146,0,28,28,3,1,7,30,NA,NA,NA,NA,NA,1,29,"likert"
"578A4EC0A0C948ED96A7DF35DBECE4E7",1,"01990a98-393e-713f-a661-cbf1d87b2ac5","01990a84-c4ee-73c2-a87b-ff46a7d3dde5","2025-09-02_09h44.07.415",NA,NA,216.417,216.665,216.665,216.786,NA,NA,NA,NA,NA,NA,NA,FALSE,NA,NA,213.391,216.416,0,29,29,20,1,14,28,NA,NA,NA,NA,NA,1,30,"likert"
"578A4EC0A0C948ED96A7DF35DBECE4E7",1,"01990a98-393e-713f-a661-cbf1d87b2ac5","01990a84-c4ee-73c2-a87b-ff46a7d3dde5","2025-09-02_09h44.07.415",NA,NA,219.825,219.825,219.825,220.072,NA,NA,NA,NA,NA,NA,NA,TRUE,5,1.23,216.793,219.825,0,30,30,24,1,21,26,NA,NA,NA,NA,NA,1,31,"likert"
"578A4EC0A0C948ED96A7DF35DBECE4E7",1,"01990a98-393e-713f-a661-cbf1d87b2ac5","01990a84-c4ee-73c2-a87b-ff46a7d3dde5","2025-09-02_09h44.07.415",NA,NA,223.143,223.143,223.143,223.502,NA,NA,NA,NA,NA,NA,NA,TRUE,5,2.559,220.073,223.143,0,31,31,23,1,14,39,NA,NA,NA,NA,NA,1,32,"likert"
"578A4EC0A0C948ED96A7DF35DBECE4E7",1,"01990a98-393e-713f-a661-cbf1d87b2ac5","01990a84-c4ee-73c2-a87b-ff46a7d3dde5","2025-09-02_09h44.07.415",NA,NA,226.541,226.541,226.541,226.784,NA,NA,NA,NA,NA,NA,NA,TRUE,5,0.809,223.509,226.54,0,32,32,78,1,95,31,NA,NA,NA,NA,NA,1,33,"likert"
"578A4EC0A0C948ED96A7DF35DBECE4E7",1,"01990a98-393e-713f-a661-cbf1d87b2ac5","01990a84-c4ee-73c2-a87b-ff46a7d3dde5","2025-09-02_09h44.07.415",NA,NA,229.828,229.828,229.828,230.201,NA,NA,NA,NA,NA,NA,NA,TRUE,5,0.949,226.785,229.827,0,33,33,102,1,200,26,NA,NA,NA,NA,NA,1,34,"likert"
"578A4EC0A0C948ED96A7DF35DBECE4E7",1,"01990a98-393e-713f-a661-cbf1d87b2ac5","01990a84-c4ee-73c2-a87b-ff46a7d3dde5","2025-09-02_09h44.07.415",NA,NA,233.216,233.216,233.216,233.574,NA,NA,NA,NA,NA,NA,NA,TRUE,5,0.669,230.207,233.215,0,34,34,56,1,45,31,NA,NA,NA,NA,NA,1,35,"likert"
"578A4EC0A0C948ED96A7DF35DBECE4E7",1,"01990a98-393e-713f-a661-cbf1d87b2ac5","01990a84-c4ee-73c2-a87b-ff46a7d3dde5","2025-09-02_09h44.07.415",NA,NA,236.548,236.549,236.549,236.924,NA,NA,NA,NA,NA,NA,NA,TRUE,5,1.251,233.581,236.548,0,35,35,94,1,150,47,NA,NA,NA,NA,NA,1,36,"likert"
"578A4EC0A0C948ED96A7DF35DBECE4E7",1,"01990a98-393e-713f-a661-cbf1d87b2ac5","01990a84-c4ee-73c2-a87b-ff46a7d3dde5","2025-09-02_09h44.07.415",NA,NA,239.898,239.898,239.898,240.261,NA,NA,NA,NA,NA,NA,NA,TRUE,5,2.45,236.924,239.898,0,36,36,45,1,30,30,NA,NA,NA,NA,NA,1,37,"likert"
"578A4EC0A0C948ED96A7DF35DBECE4E7",1,"01990a98-393e-713f-a661-cbf1d87b2ac5","01990a84-c4ee-73c2-a87b-ff46a7d3dde5","2025-09-02_09h44.07.415",NA,NA,243.211,243.211,243.211,243.567,NA,NA,NA,NA,NA,NA,NA,TRUE,5,1.51,240.268,243.21,0,37,37,96,1,180,27,NA,NA,NA,NA,NA,1,38,"likert"
"578A4EC0A0C948ED96A7DF35DBECE4E7",1,"01990a98-393e-713f-a661-cbf1d87b2ac5","01990a84-c4ee-73c2-a87b-ff46a7d3dde5","2025-09-02_09h44.07.415",NA,NA,246.599,246.599,246.599,246.956,NA,NA,NA,NA,NA,NA,NA,TRUE,5,0.697,243.568,246.599,0,38,38,16,1,12,33,NA,NA,NA,NA,NA,1,39,"likert"
"578A4EC0A0C948ED96A7DF35DBECE4E7",1,"01990a98-393e-713f-a661-cbf1d87b2ac5","01990a84-c4ee-73c2-a87b-ff46a7d3dde5","2025-09-02_09h44.07.415",NA,NA,249.877,249.877,249.877,250.241,NA,NA,NA,NA,NA,NA,NA,TRUE,5,1.763,246.963,249.876,0,39,39,11,1,10,32,NA,NA,NA,NA,NA,1,40,"likert"
"578A4EC0A0C948ED96A7DF35DBECE4E7",1,"01990a98-393e-713f-a661-cbf1d87b2ac5","01990a84-c4ee-73c2-a87b-ff46a7d3dde5","2025-09-02_09h44.07.415",NA,NA,253.249,253.249,253.249,253.607,NA,NA,NA,NA,NA,NA,NA,TRUE,5,0.95,250.243,253.249,0,40,40,83,1,95,54,NA,NA,NA,NA,NA,1,41,"likert"
"578A4EC0A0C948ED96A7DF35DBECE4E7",1,"01990a98-393e-713f-a661-cbf1d87b2ac5","01990a84-c4ee-73c2-a87b-ff46a7d3dde5","2025-09-02_09h44.07.415",NA,NA,256.583,256.584,256.584,256.949,NA,NA,NA,NA,NA,NA,NA,TRUE,5,1.245,253.614,256.583,0,41,41,62,1,50,35,NA,NA,NA,NA,NA,1,42,"likert"
"578A4EC0A0C948ED96A7DF35DBECE4E7",1,"01990a98-393e-713f-a661-cbf1d87b2ac5","01990a84-c4ee-73c2-a87b-ff46a7d3dde5","2025-09-02_09h44.07.415",NA,NA,260.013,260.014,260.014,260.372,NA,NA,NA,NA,NA,NA,NA,TRUE,5,1.911,256.95,260.013,0,42,42,88,1,100,46,NA,NA,NA,NA,NA,1,43,"likert"
"578A4EC0A0C948ED96A7DF35DBECE4E7",1,"01990a98-393e-713f-a661-cbf1d87b2ac5","01990a84-c4ee-73c2-a87b-ff46a7d3dde5","2025-09-02_09h44.07.415",NA,NA,263.285,263.285,263.285,263.637,NA,NA,NA,NA,NA,NA,NA,TRUE,4,1.079,260.378,263.285,0,43,43,64,1,50,46,NA,NA,NA,NA,NA,1,44,"likert"
"578A4EC0A0C948ED96A7DF35DBECE4E7",1,"01990a98-393e-713f-a661-cbf1d87b2ac5","01990a84-c4ee-73c2-a87b-ff46a7d3dde5","2025-09-02_09h44.07.415",NA,NA,266.696,266.696,266.696,267.05,NA,NA,NA,NA,NA,NA,NA,TRUE,5,2.142,263.638,266.696,0,44,44,14,1,12,28,NA,NA,NA,NA,NA,1,45,"likert"
"578A4EC0A0C948ED96A7DF35DBECE4E7",1,"01990a98-393e-713f-a661-cbf1d87b2ac5","01990a84-c4ee-73c2-a87b-ff46a7d3dde5","2025-09-02_09h44.07.415",NA,NA,269.985,269.985,269.985,270.362,NA,NA,NA,NA,NA,NA,NA,TRUE,4,2.548,267.057,269.985,0,45,45,7,1,10,26,NA,NA,NA,NA,NA,1,46,"likert"
"578A4EC0A0C948ED96A7DF35DBECE4E7",1,"01990a98-393e-713f-a661-cbf1d87b2ac5","01990a84-c4ee-73c2-a87b-ff46a7d3dde5","2025-09-02_09h44.07.415",NA,NA,273.328,273.328,273.328,273.69,NA,NA,NA,NA,NA,NA,NA,TRUE,4,2.316,270.364,273.328,0,46,46,101,1,180,54,NA,NA,NA,NA,NA,1,47,"likert"
"578A4EC0A0C948ED96A7DF35DBECE4E7",1,"01990a98-393e-713f-a661-cbf1d87b2ac5","01990a84-c4ee-73c2-a87b-ff46a7d3dde5","2025-09-02_09h44.07.415",NA,NA,276.789,276.789,276.789,277.033,NA,NA,NA,NA,NA,NA,NA,TRUE,5,2.178,273.696,276.789,0,47,47,42,1,30,26,NA,NA,NA,NA,NA,1,48,"likert"
"578A4EC0A0C948ED96A7DF35DBECE4E7",1,"01990a98-393e-713f-a661-cbf1d87b2ac5","01990a84-c4ee-73c2-a87b-ff46a7d3dde5","2025-09-02_09h44.07.415",NA,NA,280.109,280.109,280.109,280.47,NA,NA,NA,NA,NA,NA,NA,TRUE,4,2.311,277.034,280.109,0,48,48,54,1,45,26,NA,NA,NA,NA,NA,1,49,"likert"
"578A4EC0A0C948ED96A7DF35DBECE4E7",1,"01990a98-393e-713f-a661-cbf1d87b2ac5","01990a84-c4ee-73c2-a87b-ff46a7d3dde5","2025-09-02_09h44.07.415",NA,NA,283.439,283.439,283.439,283.794,NA,NA,NA,NA,NA,NA,NA,TRUE,5,1.655,280.477,283.439,0,49,49,85,1,100,31,NA,NA,NA,NA,NA,1,50,"likert"
"578A4EC0A0C948ED96A7DF35DBECE4E7",1,"01990a98-393e-713f-a661-cbf1d87b2ac5","01990a84-c4ee-73c2-a87b-ff46a7d3dde5","2025-09-02_09h44.07.415",NA,NA,286.757,286.757,286.757,287.119,NA,NA,NA,NA,NA,NA,NA,TRUE,3,1.246,283.795,286.756,0,50,50,39,1,28,35,NA,NA,NA,NA,NA,1,51,"likert"
"578A4EC0A0C948ED96A7DF35DBECE4E7",1,"01990a98-393e-713f-a661-cbf1d87b2ac5","01990a84-c4ee-73c2-a87b-ff46a7d3dde5","2025-09-02_09h44.07.415",NA,NA,290.131,290.131,290.131,290.5,NA,NA,NA,NA,NA,NA,NA,TRUE,4,0.005,287.126,290.131,0,51,51,66,1,60,29,NA,NA,NA,NA,NA,1,52,"likert"
"578A4EC0A0C948ED96A7DF35DBECE4E7",1,"01990a98-393e-713f-a661-cbf1d87b2ac5","01990a84-c4ee-73c2-a87b-ff46a7d3dde5","2025-09-02_09h44.07.415",NA,NA,293.424,293.424,293.424,293.896,NA,NA,NA,NA,NA,NA,NA,TRUE,4,0.976,290.501,293.423,0,52,52,79,1,95,33,NA,NA,NA,NA,NA,1,53,"likert"
"578A4EC0A0C948ED96A7DF35DBECE4E7",1,"01990a98-393e-713f-a661-cbf1d87b2ac5","01990a84-c4ee-73c2-a87b-ff46a7d3dde5","2025-09-02_09h44.07.415",NA,NA,296.829,296.829,296.829,297.188,NA,NA,NA,NA,NA,NA,NA,TRUE,4,1.364,293.902,296.829,0,53,53,87,1,100,39,NA,NA,NA,NA,NA,1,54,"likert"
"578A4EC0A0C948ED96A7DF35DBECE4E7",1,"01990a98-393e-713f-a661-cbf1d87b2ac5","01990a84-c4ee-73c2-a87b-ff46a7d3dde5","2025-09-02_09h44.07.415",NA,NA,300.129,300.129,300.129,300.518,NA,NA,NA,NA,NA,NA,NA,TRUE,4,0.825,297.188,300.128,0,54,54,49,1,40,33,NA,NA,NA,NA,NA,1,55,"likert"
"578A4EC0A0C948ED96A7DF35DBECE4E7",1,"01990a98-393e-713f-a661-cbf1d87b2ac5","01990a84-c4ee-73c2-a87b-ff46a7d3dde5","2025-09-02_09h44.07.415",NA,NA,303.492,303.492,303.492,303.851,NA,NA,NA,NA,NA,NA,NA,TRUE,4,1.111,300.525,303.491,0,55,55,21,1,14,32,NA,NA,NA,NA,NA,1,56,"likert"
"578A4EC0A0C948ED96A7DF35DBECE4E7",1,"01990a98-393e-713f-a661-cbf1d87b2ac5","01990a84-c4ee-73c2-a87b-ff46a7d3dde5","2025-09-02_09h44.07.415",NA,NA,306.886,306.886,306.886,307.24,NA,NA,NA,NA,NA,NA,NA,TRUE,4,1.872,303.858,306.885,0,56,56,0,1,7,25,NA,NA,NA,NA,NA,1,57,"likert"
"578A4EC0A0C948ED96A7DF35DBECE4E7",1,"01990a98-393e-713f-a661-cbf1d87b2ac5","01990a84-c4ee-73c2-a87b-ff46a7d3dde5","2025-09-02_09h44.07.415",NA,NA,310.25,310.25,310.25,310.631,NA,NA,NA,NA,NA,NA,NA,TRUE,4,2.121,307.241,310.25,0,57,57,1,1,7,26,NA,NA,NA,NA,NA,1,58,"likert"
"578A4EC0A0C948ED96A7DF35DBECE4E7",1,"01990a98-393e-713f-a661-cbf1d87b2ac5","01990a84-c4ee-73c2-a87b-ff46a7d3dde5","2025-09-02_09h44.07.415",NA,NA,313.591,313.591,313.591,313.953,NA,NA,NA,NA,NA,NA,NA,TRUE,4,2.054,310.637,313.591,0,58,58,84,1,100,26,NA,NA,NA,NA,NA,1,59,"likert"
"578A4EC0A0C948ED96A7DF35DBECE4E7",1,"01990a98-393e-713f-a661-cbf1d87b2ac5","01990a84-c4ee-73c2-a87b-ff46a7d3dde5","2025-09-02_09h44.07.415",NA,NA,316.976,316.976,316.976,317.331,NA,NA,NA,NA,NA,NA,NA,TRUE,5,0.941,313.954,316.975,0,59,59,52,1,40,47,NA,NA,NA,NA,NA,1,60,"likert"
"578A4EC0A0C948ED96A7DF35DBECE4E7",1,"01990a98-393e-713f-a661-cbf1d87b2ac5","01990a84-c4ee-73c2-a87b-ff46a7d3dde5","2025-09-02_09h44.07.415",NA,NA,320.243,320.243,320.243,320.602,NA,NA,NA,NA,NA,NA,NA,TRUE,4,1.494,317.332,320.243,0,60,60,6,1,10,25,NA,NA,NA,NA,NA,1,61,"likert"
"578A4EC0A0C948ED96A7DF35DBECE4E7",1,"01990a98-393e-713f-a661-cbf1d87b2ac5","01990a84-c4ee-73c2-a87b-ff46a7d3dde5","2025-09-02_09h44.07.415",NA,NA,323.61,323.61,323.61,323.981,NA,NA,NA,NA,NA,NA,NA,TRUE,5,0.683,320.609,323.61,0,61,61,46,1,30,32,NA,NA,NA,NA,NA,1,62,"likert"
"578A4EC0A0C948ED96A7DF35DBECE4E7",1,"01990a98-393e-713f-a661-cbf1d87b2ac5","01990a84-c4ee-73c2-a87b-ff46a7d3dde5","2025-09-02_09h44.07.415",NA,NA,326.99,326.991,326.991,327.355,NA,NA,NA,NA,NA,NA,NA,TRUE,5,1.53,323.988,326.99,0,62,62,103,1,200,28,NA,NA,NA,NA,NA,1,63,"likert"
"578A4EC0A0C948ED96A7DF35DBECE4E7",1,"01990a98-393e-713f-a661-cbf1d87b2ac5","01990a84-c4ee-73c2-a87b-ff46a7d3dde5","2025-09-02_09h44.07.415",NA,NA,330.379,330.379,330.379,330.744,NA,NA,NA,NA,NA,NA,NA,TRUE,4,1.207,327.356,330.379,0,63,63,32,1,25,31,NA,NA,NA,NA,NA,1,64,"likert"
"578A4EC0A0C948ED96A7DF35DBECE4E7",1,"01990a98-393e-713f-a661-cbf1d87b2ac5","01990a84-c4ee-73c2-a87b-ff46a7d3dde5","2025-09-02_09h44.07.415",NA,NA,333.659,333.66,333.66,334.017,NA,NA,NA,NA,NA,NA,NA,TRUE,5,0.808,330.751,333.659,0,64,64,8,1,10,27,NA,NA,NA,NA,NA,1,65,"likert"
"578A4EC0A0C948ED96A7DF35DBECE4E7",1,"01990a98-393e-713f-a661-cbf1d87b2ac5","01990a84-c4ee-73c2-a87b-ff46a7d3dde5","2025-09-02_09h44.07.415",NA,NA,337.047,337.047,337.047,337.408,NA,NA,NA,NA,NA,NA,NA,TRUE,5,0.828,334.018,337.046,0,65,65,10,1,10,30,NA,NA,NA,NA,NA,1,66,"likert"
"578A4EC0A0C948ED96A7DF35DBECE4E7",1,"01990a98-393e-713f-a661-cbf1d87b2ac5","01990a84-c4ee-73c2-a87b-ff46a7d3dde5","2025-09-02_09h44.07.415",NA,NA,340.439,340.439,340.439,340.677,NA,NA,NA,NA,NA,NA,NA,TRUE,4,0.813,337.409,340.438,0,66,66,57,1,45,35,NA,NA,NA,NA,NA,1,67,"likert"
"578A4EC0A0C948ED96A7DF35DBECE4E7",1,"01990a98-393e-713f-a661-cbf1d87b2ac5","01990a84-c4ee-73c2-a87b-ff46a7d3dde5","2025-09-02_09h44.07.415",NA,NA,343.781,343.781,343.781,344.142,NA,NA,NA,NA,NA,NA,NA,TRUE,5,1.244,340.683,343.78,0,67,67,98,1,180,35,NA,NA,NA,NA,NA,1,68,"likert"
"578A4EC0A0C948ED96A7DF35DBECE4E7",1,"01990a98-393e-713f-a661-cbf1d87b2ac5","01990a84-c4ee-73c2-a87b-ff46a7d3dde5","2025-09-02_09h44.07.415",NA,NA,347.133,347.374,347.374,347.495,NA,NA,NA,NA,NA,NA,NA,FALSE,NA,NA,344.149,347.132,0,68,68,93,1,150,40,NA,NA,NA,NA,NA,1,69,"likert"
"578A4EC0A0C948ED96A7DF35DBECE4E7",1,"01990a98-393e-713f-a661-cbf1d87b2ac5","01990a84-c4ee-73c2-a87b-ff46a7d3dde5","2025-09-02_09h44.07.415",NA,NA,350.459,350.459,350.459,350.865,NA,NA,NA,NA,NA,NA,NA,TRUE,5,0.004,347.496,350.458,0,69,69,5,1,7,35,NA,NA,NA,NA,NA,1,70,"likert"
"578A4EC0A0C948ED96A7DF35DBECE4E7",1,"01990a98-393e-713f-a661-cbf1d87b2ac5","01990a84-c4ee-73c2-a87b-ff46a7d3dde5","2025-09-02_09h44.07.415",NA,NA,353.865,353.865,353.865,354.127,NA,NA,NA,NA,NA,NA,NA,TRUE,4,2.702,350.872,353.865,0,70,70,51,1,40,40,NA,NA,NA,NA,NA,1,71,"likert"
"578A4EC0A0C948ED96A7DF35DBECE4E7",1,"01990a98-393e-713f-a661-cbf1d87b2ac5","01990a84-c4ee-73c2-a87b-ff46a7d3dde5","2025-09-02_09h44.07.415",NA,NA,357.078,357.444,357.444,357.444,NA,NA,NA,NA,NA,NA,NA,FALSE,NA,NA,354.128,357.077,0,71,71,60,1,50,27,NA,NA,NA,NA,NA,1,72,"likert"
"578A4EC0A0C948ED96A7DF35DBECE4E7",1,"01990a98-393e-713f-a661-cbf1d87b2ac5","01990a84-c4ee-73c2-a87b-ff46a7d3dde5","2025-09-02_09h44.07.415",NA,NA,360.483,360.483,360.483,360.847,NA,NA,NA,NA,NA,NA,NA,TRUE,5,1.485,357.451,360.483,0,72,72,73,1,90,30,NA,NA,NA,NA,NA,1,73,"likert"
"578A4EC0A0C948ED96A7DF35DBECE4E7",1,"01990a98-393e-713f-a661-cbf1d87b2ac5","01990a84-c4ee-73c2-a87b-ff46a7d3dde5","2025-09-02_09h44.07.415",NA,NA,363.854,363.854,363.854,364.21,NA,NA,NA,NA,NA,NA,NA,TRUE,5,2.226,360.848,363.854,0,73,73,41,1,28,46,NA,NA,NA,NA,NA,1,74,"likert"
"578A4EC0A0C948ED96A7DF35DBECE4E7",1,"01990a98-393e-713f-a661-cbf1d87b2ac5","01990a84-c4ee-73c2-a87b-ff46a7d3dde5","2025-09-02_09h44.07.415",NA,NA,367.187,367.187,367.187,367.552,NA,NA,NA,NA,NA,NA,NA,TRUE,4,1.102,364.216,367.187,0,74,74,37,1,28,28,NA,NA,NA,NA,NA,1,75,"likert"
"578A4EC0A0C948ED96A7DF35DBECE4E7",1,"01990a98-393e-713f-a661-cbf1d87b2ac5","01990a84-c4ee-73c2-a87b-ff46a7d3dde5","2025-09-02_09h44.07.415",NA,NA,370.548,370.548,370.548,370.927,NA,NA,NA,NA,NA,NA,NA,TRUE,3,0.966,367.553,370.548,0,75,75,100,1,180,46,NA,NA,NA,NA,NA,1,76,"likert"
"578A4EC0A0C948ED96A7DF35DBECE4E7",1,"01990a98-393e-713f-a661-cbf1d87b2ac5","01990a84-c4ee-73c2-a87b-ff46a7d3dde5","2025-09-02_09h44.07.415",NA,NA,373.869,373.869,373.869,374.243,NA,NA,NA,NA,NA,NA,NA,TRUE,4,0.142,370.933,373.869,0,76,76,95,1,150,54,NA,NA,NA,NA,NA,1,77,"likert"
"578A4EC0A0C948ED96A7DF35DBECE4E7",1,"01990a98-393e-713f-a661-cbf1d87b2ac5","01990a84-c4ee-73c2-a87b-ff46a7d3dde5","2025-09-02_09h44.07.415",NA,NA,377.186,377.186,377.186,377.547,NA,NA,NA,NA,NA,NA,NA,TRUE,5,0.706,374.244,377.186,0,77,77,91,1,150,33,NA,NA,NA,NA,NA,1,78,"likert"
"578A4EC0A0C948ED96A7DF35DBECE4E7",1,"01990a98-393e-713f-a661-cbf1d87b2ac5","01990a84-c4ee-73c2-a87b-ff46a7d3dde5","2025-09-02_09h44.07.415",NA,NA,380.618,380.618,380.618,380.985,NA,NA,NA,NA,NA,NA,NA,TRUE,4,0.672,377.554,380.618,0,78,78,99,1,180,39,NA,NA,NA,NA,NA,1,79,"likert"
"578A4EC0A0C948ED96A7DF35DBECE4E7",1,"01990a98-393e-713f-a661-cbf1d87b2ac5","01990a84-c4ee-73c2-a87b-ff46a7d3dde5","2025-09-02_09h44.07.415",NA,NA,383.934,383.934,383.934,384.299,NA,NA,NA,NA,NA,NA,NA,TRUE,4,1.915,380.985,383.933,0,79,79,36,1,28,26,NA,NA,NA,NA,NA,1,80,"likert"
"578A4EC0A0C948ED96A7DF35DBECE4E7",1,"01990a98-393e-713f-a661-cbf1d87b2ac5","01990a84-c4ee-73c2-a87b-ff46a7d3dde5","2025-09-02_09h44.07.415",NA,NA,387.244,387.244,387.244,387.62,NA,NA,NA,NA,NA,NA,NA,TRUE,4,1.367,384.306,387.244,0,80,80,48,1,40,27,NA,NA,NA,NA,NA,1,81,"likert"
"578A4EC0A0C948ED96A7DF35DBECE4E7",1,"01990a98-393e-713f-a661-cbf1d87b2ac5","01990a84-c4ee-73c2-a87b-ff46a7d3dde5","2025-09-02_09h44.07.415",NA,NA,390.681,390.681,390.681,391.043,NA,NA,NA,NA,NA,NA,NA,TRUE,3,1.222,387.621,390.68,0,81,81,19,1,14,26,NA,NA,NA,NA,NA,1,82,"likert"
"578A4EC0A0C948ED96A7DF35DBECE4E7",1,"01990a98-393e-713f-a661-cbf1d87b2ac5","01990a84-c4ee-73c2-a87b-ff46a7d3dde5","2025-09-02_09h44.07.415",NA,NA,393.965,393.965,393.965,394.328,NA,NA,NA,NA,NA,NA,NA,TRUE,4,0.702,391.05,393.965,0,82,82,31,1,25,29,NA,NA,NA,NA,NA,1,83,"likert"
"578A4EC0A0C948ED96A7DF35DBECE4E7",1,"01990a98-393e-713f-a661-cbf1d87b2ac5","01990a84-c4ee-73c2-a87b-ff46a7d3dde5","2025-09-02_09h44.07.415",NA,NA,397.293,397.293,397.293,397.655,NA,NA,NA,NA,NA,NA,NA,TRUE,5,1.501,394.33,397.293,0,83,83,63,1,50,40,NA,NA,NA,NA,NA,1,84,"likert"
"578A4EC0A0C948ED96A7DF35DBECE4E7",1,"01990a98-393e-713f-a661-cbf1d87b2ac5","01990a84-c4ee-73c2-a87b-ff46a7d3dde5","2025-09-02_09h44.07.415",NA,NA,400.681,400.681,400.681,401.036,NA,NA,NA,NA,NA,NA,NA,TRUE,4,1.068,397.662,400.68,0,84,84,67,1,60,33,NA,NA,NA,NA,NA,1,85,"likert"
"578A4EC0A0C948ED96A7DF35DBECE4E7",1,"01990a98-393e-713f-a661-cbf1d87b2ac5","01990a84-c4ee-73c2-a87b-ff46a7d3dde5","2025-09-02_09h44.07.415",NA,NA,403.971,403.971,403.971,404.445,NA,NA,NA,NA,NA,NA,NA,TRUE,4,1.505,401.037,403.97,0,85,85,76,1,90,46,NA,NA,NA,NA,NA,1,86,"likert"
"578A4EC0A0C948ED96A7DF35DBECE4E7",1,"01990a98-393e-713f-a661-cbf1d87b2ac5","01990a84-c4ee-73c2-a87b-ff46a7d3dde5","2025-09-02_09h44.07.415",NA,NA,407.349,407.349,407.349,407.705,NA,NA,NA,NA,NA,NA,NA,TRUE,4,1.082,404.451,407.349,0,86,86,18,1,14,25,NA,NA,NA,NA,NA,1,87,"likert"
"578A4EC0A0C948ED96A7DF35DBECE4E7",1,"01990a98-393e-713f-a661-cbf1d87b2ac5","01990a84-c4ee-73c2-a87b-ff46a7d3dde5","2025-09-02_09h44.07.415",NA,NA,410.699,410.699,410.699,411.066,NA,NA,NA,NA,NA,NA,NA,TRUE,5,1.393,407.706,410.698,0,87,87,105,1,200,39,NA,NA,NA,NA,NA,1,88,"likert"
"578A4EC0A0C948ED96A7DF35DBECE4E7",1,"01990a98-393e-713f-a661-cbf1d87b2ac5","01990a84-c4ee-73c2-a87b-ff46a7d3dde5","2025-09-02_09h44.07.415",NA,NA,414.127,414.127,414.127,414.502,NA,NA,NA,NA,NA,NA,NA,TRUE,4,1.091,411.073,414.126,0,88,88,80,1,95,35,NA,NA,NA,NA,NA,1,89,"likert"
"578A4EC0A0C948ED96A7DF35DBECE4E7",1,"01990a98-393e-713f-a661-cbf1d87b2ac5","01990a84-c4ee-73c2-a87b-ff46a7d3dde5","2025-09-02_09h44.07.415",NA,NA,417.496,417.496,417.496,417.745,NA,NA,NA,NA,NA,NA,NA,TRUE,4,2.72,414.503,417.496,0,89,89,9,1,10,29,NA,NA,NA,NA,NA,1,90,"likert"
"578A4EC0A0C948ED96A7DF35DBECE4E7",1,"01990a98-393e-713f-a661-cbf1d87b2ac5","01990a84-c4ee-73c2-a87b-ff46a7d3dde5","2025-09-02_09h44.07.415",NA,NA,420.732,420.732,420.732,421.101,NA,NA,NA,NA,NA,NA,NA,TRUE,4,2.461,417.751,420.731,0,90,90,69,1,60,40,NA,NA,NA,NA,NA,1,91,"likert"
"578A4EC0A0C948ED96A7DF35DBECE4E7",1,"01990a98-393e-713f-a661-cbf1d87b2ac5","01990a84-c4ee-73c2-a87b-ff46a7d3dde5","2025-09-02_09h44.07.415",NA,NA,424.161,424.161,424.161,424.535,NA,NA,NA,NA,NA,NA,NA,TRUE,4,1.35,421.102,424.16,0,91,91,26,1,21,29,NA,NA,NA,NA,NA,1,92,"likert"
"578A4EC0A0C948ED96A7DF35DBECE4E7",1,"01990a98-393e-713f-a661-cbf1d87b2ac5","01990a84-c4ee-73c2-a87b-ff46a7d3dde5","2025-09-02_09h44.07.415",NA,NA,427.475,427.475,427.475,427.833,NA,NA,NA,NA,NA,NA,NA,TRUE,4,0.425,424.541,427.475,0,92,92,25,1,21,27,NA,NA,NA,NA,NA,1,93,"likert"
"578A4EC0A0C948ED96A7DF35DBECE4E7",1,"01990a98-393e-713f-a661-cbf1d87b2ac5","01990a84-c4ee-73c2-a87b-ff46a7d3dde5","2025-09-02_09h44.07.415",NA,NA,430.864,430.864,430.864,431.123,NA,NA,NA,NA,NA,NA,NA,TRUE,4,2.794,427.84,430.864,0,93,93,82,1,95,47,NA,NA,NA,NA,NA,1,94,"likert"
"578A4EC0A0C948ED96A7DF35DBECE4E7",1,"01990a98-393e-713f-a661-cbf1d87b2ac5","01990a84-c4ee-73c2-a87b-ff46a7d3dde5","2025-09-02_09h44.07.415",NA,NA,434.169,434.169,434.169,434.527,NA,NA,NA,NA,NA,NA,NA,TRUE,4,1.48,431.123,434.169,0,94,94,74,1,90,33,NA,NA,NA,NA,NA,1,95,"likert"
"578A4EC0A0C948ED96A7DF35DBECE4E7",1,"01990a98-393e-713f-a661-cbf1d87b2ac5","01990a84-c4ee-73c2-a87b-ff46a7d3dde5","2025-09-02_09h44.07.415",NA,NA,437.553,437.553,437.553,437.91,NA,NA,NA,NA,NA,NA,NA,TRUE,4,0.674,434.537,437.553,0,95,95,17,1,12,35,NA,NA,NA,NA,NA,1,96,"likert"
"578A4EC0A0C948ED96A7DF35DBECE4E7",1,"01990a98-393e-713f-a661-cbf1d87b2ac5","01990a84-c4ee-73c2-a87b-ff46a7d3dde5","2025-09-02_09h44.07.415",NA,NA,440.932,440.932,440.932,441.185,NA,NA,NA,NA,NA,NA,NA,TRUE,3,0.69,437.91,440.931,0,96,96,29,1,21,38,NA,NA,NA,NA,NA,1,97,"likert"
"578A4EC0A0C948ED96A7DF35DBECE4E7",1,"01990a98-393e-713f-a661-cbf1d87b2ac5","01990a84-c4ee-73c2-a87b-ff46a7d3dde5","2025-09-02_09h44.07.415",NA,NA,444.248,444.248,444.248,444.609,NA,NA,NA,NA,NA,NA,NA,TRUE,4,0.854,441.192,444.247,0,97,97,30,1,25,27,NA,NA,NA,NA,NA,1,98,"likert"
"578A4EC0A0C948ED96A7DF35DBECE4E7",1,"01990a98-393e-713f-a661-cbf1d87b2ac5","01990a84-c4ee-73c2-a87b-ff46a7d3dde5","2025-09-02_09h44.07.415",NA,NA,447.635,447.635,447.635,447.88,NA,NA,NA,NA,NA,NA,NA,TRUE,3,0.682,444.61,447.635,0,98,98,28,1,21,32,NA,NA,NA,NA,NA,1,99,"likert"
"578A4EC0A0C948ED96A7DF35DBECE4E7",1,"01990a98-393e-713f-a661-cbf1d87b2ac5","01990a84-c4ee-73c2-a87b-ff46a7d3dde5","2025-09-02_09h44.07.415",NA,NA,450.919,450.919,450.919,451.279,NA,NA,NA,NA,NA,NA,NA,TRUE,3,1.073,447.887,450.919,0,99,99,35,1,25,46,NA,NA,NA,NA,NA,1,100,"likert"
"578A4EC0A0C948ED96A7DF35DBECE4E7",1,"01990a98-393e-713f-a661-cbf1d87b2ac5","01990a84-c4ee-73c2-a87b-ff46a7d3dde5","2025-09-02_09h44.07.415",NA,NA,454.29,454.29,454.29,454.654,NA,NA,NA,NA,NA,NA,NA,TRUE,2,0.137,451.28,454.29,0,100,100,77,1,90,54,NA,NA,NA,NA,NA,1,101,"likert"
"578A4EC0A0C948ED96A7DF35DBECE4E7",1,"01990a98-393e-713f-a661-cbf1d87b2ac5","01990a84-c4ee-73c2-a87b-ff46a7d3dde5","2025-09-02_09h44.07.415",NA,NA,457.678,457.678,457.678,458.038,NA,NA,NA,NA,NA,NA,NA,TRUE,4,0.678,454.66,457.677,0,101,101,58,1,45,40,NA,NA,NA,NA,NA,1,102,"likert"
"578A4EC0A0C948ED96A7DF35DBECE4E7",1,"01990a98-393e-713f-a661-cbf1d87b2ac5","01990a84-c4ee-73c2-a87b-ff46a7d3dde5","2025-09-02_09h44.07.415",NA,NA,460.913,460.913,460.913,461.399,NA,NA,NA,NA,NA,NA,NA,TRUE,3,0.797,458.039,460.913,0,102,102,2,1,7,28,NA,NA,NA,NA,NA,1,103,"likert"
"578A4EC0A0C948ED96A7DF35DBECE4E7",1,"01990a98-393e-713f-a661-cbf1d87b2ac5","01990a84-c4ee-73c2-a87b-ff46a7d3dde5","2025-09-02_09h44.07.415",NA,NA,464.323,464.323,464.323,464.685,NA,NA,NA,NA,NA,NA,NA,TRUE,3,0.688,461.406,464.322,0,103,103,71,1,60,54,NA,NA,NA,NA,NA,1,104,"likert"
"578A4EC0A0C948ED96A7DF35DBECE4E7",1,"01990a98-393e-713f-a661-cbf1d87b2ac5","01990a84-c4ee-73c2-a87b-ff46a7d3dde5","2025-09-02_09h44.07.415",NA,NA,467.707,467.707,467.707,468.07,NA,NA,NA,NA,NA,NA,NA,TRUE,3,1.596,464.686,467.707,0,104,104,44,1,30,29,NA,NA,NA,NA,NA,1,105,"likert"
"578A4EC0A0C948ED96A7DF35DBECE4E7",1,"01990a98-393e-713f-a661-cbf1d87b2ac5","01990a84-c4ee-73c2-a87b-ff46a7d3dde5","2025-09-02_09h44.07.415",NA,NA,471.07,471.071,471.071,471.442,NA,NA,NA,NA,NA,NA,NA,TRUE,4,0.803,468.076,471.07,0,105,105,89,1,100,54,NA,NA,NA,NA,NA,1,106,"likert"
"578A4EC0A0C948ED96A7DF35DBECE4E7",1,"01990a98-393e-713f-a661-cbf1d87b2ac5","01990a84-c4ee-73c2-a87b-ff46a7d3dde5","2025-09-02_09h44.07.415",NA,NA,474.43,474.43,474.43,474.679,NA,NA,NA,NA,NA,NA,NA,TRUE,2,1.491,471.443,474.43,0,106,106,61,1,50,30,NA,NA,NA,NA,NA,1,107,"likert"
"578A4EC0A0C948ED96A7DF35DBECE4E7",1,"01990a98-393e-713f-a661-cbf1d87b2ac5","01990a84-c4ee-73c2-a87b-ff46a7d3dde5","2025-09-02_09h44.07.415",NA,NA,477.763,477.763,477.763,478.134,NA,NA,NA,NA,NA,NA,NA,TRUE,3,1.391,474.686,477.763,0,107,107,27,1,21,30,NA,NA,NA,NA,NA,1,108,"likert"
"578A4EC0A0C948ED96A7DF35DBECE4E7",1,"01990a98-393e-713f-a661-cbf1d87b2ac5","01990a84-c4ee-73c2-a87b-ff46a7d3dde5","2025-09-02_09h44.07.415",NA,NA,485.221,485.221,485.221,485.581,NA,NA,NA,NA,NA,NA,NA,TRUE,3,2.575,482.258,485.221,NA,NA,NA,NA,NA,28,28,0,0,0,37,1,2,1,"likert"
"578A4EC0A0C948ED96A7DF35DBECE4E7",1,"01990a98-393e-713f-a661-cbf1d87b2ac5","01990a84-c4ee-73c2-a87b-ff46a7d3dde5","2025-09-02_09h44.07.415",NA,NA,488.55,488.55,488.55,488.91,NA,NA,NA,NA,NA,NA,NA,TRUE,5,1.485,485.588,488.549,NA,NA,NA,NA,NA,40,54,0,1,1,53,1,2,2,"likert"
"578A4EC0A0C948ED96A7DF35DBECE4E7",1,"01990a98-393e-713f-a661-cbf1d87b2ac5","01990a84-c4ee-73c2-a87b-ff46a7d3dde5","2025-09-02_09h44.07.415",NA,NA,491.869,491.87,491.87,492.232,NA,NA,NA,NA,NA,NA,NA,TRUE,4,1.08,488.912,491.869,NA,NA,NA,NA,NA,60,40,0,2,2,69,1,2,3,"likert"
"578A4EC0A0C948ED96A7DF35DBECE4E7",1,"01990a98-393e-713f-a661-cbf1d87b2ac5","01990a84-c4ee-73c2-a87b-ff46a7d3dde5","2025-09-02_09h44.07.415",NA,NA,495.271,495.271,495.271,495.639,NA,NA,NA,NA,NA,NA,NA,TRUE,5,1.21,492.239,495.27,NA,NA,NA,NA,NA,12,28,0,3,3,14,1,2,4,"likert"
"578A4EC0A0C948ED96A7DF35DBECE4E7",1,"01990a98-393e-713f-a661-cbf1d87b2ac5","01990a84-c4ee-73c2-a87b-ff46a7d3dde5","2025-09-02_09h44.07.415",NA,NA,498.67,498.67,498.67,498.908,NA,NA,NA,NA,NA,NA,NA,TRUE,3,0.817,495.64,498.669,NA,NA,NA,NA,NA,25,46,0,4,4,35,1,2,5,"likert"
"578A4EC0A0C948ED96A7DF35DBECE4E7",1,"01990a98-393e-713f-a661-cbf1d87b2ac5","01990a84-c4ee-73c2-a87b-ff46a7d3dde5","2025-09-02_09h44.07.415",NA,NA,501.959,501.959,501.959,502.317,NA,NA,NA,NA,NA,NA,NA,TRUE,2,1.482,498.916,501.959,NA,NA,NA,NA,NA,45,31,0,5,5,56,1,2,6,"likert"
"578A4EC0A0C948ED96A7DF35DBECE4E7",1,"01990a98-393e-713f-a661-cbf1d87b2ac5","01990a84-c4ee-73c2-a87b-ff46a7d3dde5","2025-09-02_09h44.07.415",NA,NA,505.277,505.277,505.277,505.636,NA,NA,NA,NA,NA,NA,NA,TRUE,3,1.108,502.319,505.276,NA,NA,NA,NA,NA,95,33,0,6,6,79,1,2,7,"likert"
"578A4EC0A0C948ED96A7DF35DBECE4E7",1,"01990a98-393e-713f-a661-cbf1d87b2ac5","01990a84-c4ee-73c2-a87b-ff46a7d3dde5","2025-09-02_09h44.07.415",NA,NA,508.641,508.641,508.641,509.002,NA,NA,NA,NA,NA,NA,NA,TRUE,3,2.464,505.642,508.64,NA,NA,NA,NA,NA,90,30,0,7,7,73,1,2,8,"likert"
"578A4EC0A0C948ED96A7DF35DBECE4E7",1,"01990a98-393e-713f-a661-cbf1d87b2ac5","01990a84-c4ee-73c2-a87b-ff46a7d3dde5","2025-09-02_09h44.07.415",NA,NA,512.041,512.041,512.041,512.397,NA,NA,NA,NA,NA,NA,NA,TRUE,5,1.494,509.004,512.04,NA,NA,NA,NA,NA,50,46,0,8,8,64,1,2,9,"likert"
"578A4EC0A0C948ED96A7DF35DBECE4E7",1,"01990a98-393e-713f-a661-cbf1d87b2ac5","01990a84-c4ee-73c2-a87b-ff46a7d3dde5","2025-09-02_09h44.07.415",NA,NA,515.389,515.389,515.389,515.756,NA,NA,NA,NA,NA,NA,NA,TRUE,4,1.326,512.403,515.389,NA,NA,NA,NA,NA,12,25,0,9,9,12,1,2,10,"likert"
"578A4EC0A0C948ED96A7DF35DBECE4E7",1,"01990a98-393e-713f-a661-cbf1d87b2ac5","01990a84-c4ee-73c2-a87b-ff46a7d3dde5","2025-09-02_09h44.07.415",NA,NA,518.775,518.775,518.775,519.014,NA,NA,NA,NA,NA,NA,NA,TRUE,2,0.271,515.757,518.775,NA,NA,NA,NA,NA,21,26,0,10,10,24,1,2,11,"likert"
"578A4EC0A0C948ED96A7DF35DBECE4E7",1,"01990a98-393e-713f-a661-cbf1d87b2ac5","01990a84-c4ee-73c2-a87b-ff46a7d3dde5","2025-09-02_09h44.07.415",NA,NA,522.116,522.116,522.116,522.359,NA,NA,NA,NA,NA,NA,NA,TRUE,4,0.004,519.021,522.115,NA,NA,NA,NA,NA,7,26,0,11,11,1,1,2,12,"likert"
"578A4EC0A0C948ED96A7DF35DBECE4E7",1,"01990a98-393e-713f-a661-cbf1d87b2ac5","01990a84-c4ee-73c2-a87b-ff46a7d3dde5","2025-09-02_09h44.07.415",NA,NA,525.405,525.405,525.405,525.758,NA,NA,NA,NA,NA,NA,NA,TRUE,3,1.087,522.36,525.404,NA,NA,NA,NA,NA,21,38,0,12,12,29,1,2,13,"likert"
"578A4EC0A0C948ED96A7DF35DBECE4E7",1,"01990a98-393e-713f-a661-cbf1d87b2ac5","01990a84-c4ee-73c2-a87b-ff46a7d3dde5","2025-09-02_09h44.07.415",NA,NA,528.796,528.796,528.796,529.152,NA,NA,NA,NA,NA,NA,NA,TRUE,3,1.357,525.764,528.796,NA,NA,NA,NA,NA,30,32,0,13,13,46,1,2,14,"likert"
"578A4EC0A0C948ED96A7DF35DBECE4E7",1,"01990a98-393e-713f-a661-cbf1d87b2ac5","01990a84-c4ee-73c2-a87b-ff46a7d3dde5","2025-09-02_09h44.07.415",NA,NA,532.056,532.056,532.056,532.415,NA,NA,NA,NA,NA,NA,NA,TRUE,2,0.957,529.153,532.056,NA,NA,NA,NA,NA,60,33,0,14,14,67,1,2,15,"likert"
"578A4EC0A0C948ED96A7DF35DBECE4E7",1,"01990a98-393e-713f-a661-cbf1d87b2ac5","01990a84-c4ee-73c2-a87b-ff46a7d3dde5","2025-09-02_09h44.07.415",NA,NA,535.425,535.425,535.425,535.791,NA,NA,NA,NA,NA,NA,NA,TRUE,3,0.275,532.421,535.425,NA,NA,NA,NA,NA,95,35,0,15,15,80,1,2,16,"likert"
"578A4EC0A0C948ED96A7DF35DBECE4E7",1,"01990a98-393e-713f-a661-cbf1d87b2ac5","01990a84-c4ee-73c2-a87b-ff46a7d3dde5","2025-09-02_09h44.07.415",NA,NA,538.801,539.042,539.042,539.181,NA,NA,NA,NA,NA,NA,NA,FALSE,NA,NA,535.792,538.801,NA,NA,NA,NA,NA,100,39,0,16,16,87,1,2,17,"likert"
"578A4EC0A0C948ED96A7DF35DBECE4E7",1,"01990a98-393e-713f-a661-cbf1d87b2ac5","01990a84-c4ee-73c2-a87b-ff46a7d3dde5","2025-09-02_09h44.07.415",NA,NA,542.124,542.124,542.124,542.491,NA,NA,NA,NA,NA,NA,NA,TRUE,2,0.005,539.188,542.124,NA,NA,NA,NA,NA,90,46,0,17,17,76,1,2,18,"likert"
"578A4EC0A0C948ED96A7DF35DBECE4E7",1,"01990a98-393e-713f-a661-cbf1d87b2ac5","01990a84-c4ee-73c2-a87b-ff46a7d3dde5","2025-09-02_09h44.07.415",NA,NA,545.529,545.529,545.529,545.896,NA,NA,NA,NA,NA,NA,NA,TRUE,3,0.005,542.492,545.529,NA,NA,NA,NA,NA,200,39,0,18,18,105,1,2,19,"likert"
"578A4EC0A0C948ED96A7DF35DBECE4E7",1,"01990a98-393e-713f-a661-cbf1d87b2ac5","01990a84-c4ee-73c2-a87b-ff46a7d3dde5","2025-09-02_09h44.07.415",NA,NA,548.875,548.875,548.875,549.235,NA,NA,NA,NA,NA,NA,NA,TRUE,3,1.767,545.902,548.875,NA,NA,NA,NA,NA,40,40,0,19,19,51,1,2,20,"likert"
"578A4EC0A0C948ED96A7DF35DBECE4E7",1,"01990a98-393e-713f-a661-cbf1d87b2ac5","01990a84-c4ee-73c2-a87b-ff46a7d3dde5","2025-09-02_09h44.07.415",NA,NA,552.176,552.176,552.176,552.539,NA,NA,NA,NA,NA,NA,NA,TRUE,2,1.352,549.236,552.176,NA,NA,NA,NA,NA,95,54,0,20,20,83,1,2,21,"likert"
"578A4EC0A0C948ED96A7DF35DBECE4E7",1,"01990a98-393e-713f-a661-cbf1d87b2ac5","01990a84-c4ee-73c2-a87b-ff46a7d3dde5","2025-09-02_09h44.07.415",NA,NA,555.512,555.512,555.512,555.884,NA,NA,NA,NA,NA,NA,NA,TRUE,3,0.667,552.546,555.511,NA,NA,NA,NA,NA,50,40,0,21,21,63,1,2,22,"likert"
"578A4EC0A0C948ED96A7DF35DBECE4E7",1,"01990a98-393e-713f-a661-cbf1d87b2ac5","01990a84-c4ee-73c2-a87b-ff46a7d3dde5","2025-09-02_09h44.07.415",NA,NA,558.901,558.901,558.901,559.254,NA,NA,NA,NA,NA,NA,NA,TRUE,4,0.005,555.884,558.9,NA,NA,NA,NA,NA,100,26,0,22,22,84,1,2,23,"likert"
"578A4EC0A0C948ED96A7DF35DBECE4E7",1,"01990a98-393e-713f-a661-cbf1d87b2ac5","01990a84-c4ee-73c2-a87b-ff46a7d3dde5","2025-09-02_09h44.07.415",NA,NA,562.232,562.232,562.232,562.583,NA,NA,NA,NA,NA,NA,NA,TRUE,3,0.683,559.26,562.232,NA,NA,NA,NA,NA,25,29,0,23,23,31,1,2,24,"likert"
"578A4EC0A0C948ED96A7DF35DBECE4E7",1,"01990a98-393e-713f-a661-cbf1d87b2ac5","01990a84-c4ee-73c2-a87b-ff46a7d3dde5","2025-09-02_09h44.07.415",NA,NA,565.574,565.574,565.574,565.928,NA,NA,NA,NA,NA,NA,NA,TRUE,3,1.077,562.584,565.574,NA,NA,NA,NA,NA,200,47,0,24,24,106,1,2,25,"likert"
"578A4EC0A0C948ED96A7DF35DBECE4E7",1,"01990a98-393e-713f-a661-cbf1d87b2ac5","01990a84-c4ee-73c2-a87b-ff46a7d3dde5","2025-09-02_09h44.07.415",NA,NA,568.979,568.979,568.979,569.337,NA,NA,NA,NA,NA,NA,NA,TRUE,3,0.692,565.935,568.979,NA,NA,NA,NA,NA,25,31,0,25,25,32,1,2,26,"likert"
"578A4EC0A0C948ED96A7DF35DBECE4E7",1,"01990a98-393e-713f-a661-cbf1d87b2ac5","01990a84-c4ee-73c2-a87b-ff46a7d3dde5","2025-09-02_09h44.07.415",NA,NA,572.244,572.244,572.244,572.608,NA,NA,NA,NA,NA,NA,NA,TRUE,2,0.542,569.344,572.244,NA,NA,NA,NA,NA,12,33,0,26,26,16,1,2,27,"likert"
"578A4EC0A0C948ED96A7DF35DBECE4E7",1,"01990a98-393e-713f-a661-cbf1d87b2ac5","01990a84-c4ee-73c2-a87b-ff46a7d3dde5","2025-09-02_09h44.07.415",NA,NA,575.616,575.616,575.616,575.981,NA,NA,NA,NA,NA,NA,NA,TRUE,2,0.935,572.609,575.616,NA,NA,NA,NA,NA,12,35,0,27,27,17,1,2,28,"likert"
"578A4EC0A0C948ED96A7DF35DBECE4E7",1,"01990a98-393e-713f-a661-cbf1d87b2ac5","01990a84-c4ee-73c2-a87b-ff46a7d3dde5","2025-09-02_09h44.07.415",NA,NA,578.952,578.952,578.952,579.43,NA,NA,NA,NA,NA,NA,NA,TRUE,4,0.537,575.987,578.952,NA,NA,NA,NA,NA,30,38,0,28,28,47,1,2,29,"likert"
"578A4EC0A0C948ED96A7DF35DBECE4E7",1,"01990a98-393e-713f-a661-cbf1d87b2ac5","01990a84-c4ee-73c2-a87b-ff46a7d3dde5","2025-09-02_09h44.07.415",NA,NA,582.315,582.315,582.315,582.674,NA,NA,NA,NA,NA,NA,NA,TRUE,4,1.573,579.431,582.314,NA,NA,NA,NA,NA,14,35,0,29,29,22,1,2,30,"likert"
"578A4EC0A0C948ED96A7DF35DBECE4E7",1,"01990a98-393e-713f-a661-cbf1d87b2ac5","01990a84-c4ee-73c2-a87b-ff46a7d3dde5","2025-09-02_09h44.07.415",NA,NA,585.749,585.749,585.749,586.112,NA,NA,NA,NA,NA,NA,NA,TRUE,4,1.217,582.68,585.749,NA,NA,NA,NA,NA,180,35,0,30,30,98,1,2,31,"likert"
"578A4EC0A0C948ED96A7DF35DBECE4E7",1,"01990a98-393e-713f-a661-cbf1d87b2ac5","01990a84-c4ee-73c2-a87b-ff46a7d3dde5","2025-09-02_09h44.07.415",NA,NA,589.005,589.005,589.005,589.367,NA,NA,NA,NA,NA,NA,NA,TRUE,3,0.005,586.114,589.005,NA,NA,NA,NA,NA,14,28,0,31,31,20,1,2,32,"likert"
"578A4EC0A0C948ED96A7DF35DBECE4E7",1,"01990a98-393e-713f-a661-cbf1d87b2ac5","01990a84-c4ee-73c2-a87b-ff46a7d3dde5","2025-09-02_09h44.07.415",NA,NA,592.39,592.39,592.39,592.754,NA,NA,NA,NA,NA,NA,NA,TRUE,4,0.807,589.373,592.39,NA,NA,NA,NA,NA,28,35,0,32,32,39,1,2,33,"likert"
"578A4EC0A0C948ED96A7DF35DBECE4E7",1,"01990a98-393e-713f-a661-cbf1d87b2ac5","01990a84-c4ee-73c2-a87b-ff46a7d3dde5","2025-09-02_09h44.07.415",NA,NA,595.773,595.773,595.773,596.144,NA,NA,NA,NA,NA,NA,NA,TRUE,4,0.676,592.755,595.772,NA,NA,NA,NA,NA,28,39,0,33,33,40,1,2,34,"likert"
"578A4EC0A0C948ED96A7DF35DBECE4E7",1,"01990a98-393e-713f-a661-cbf1d87b2ac5","01990a84-c4ee-73c2-a87b-ff46a7d3dde5","2025-09-02_09h44.07.415",NA,NA,599.154,599.154,599.154,599.522,NA,NA,NA,NA,NA,NA,NA,TRUE,3,1.065,596.15,599.154,NA,NA,NA,NA,NA,30,30,0,34,34,45,1,2,35,"likert"
"578A4EC0A0C948ED96A7DF35DBECE4E7",1,"01990a98-393e-713f-a661-cbf1d87b2ac5","01990a84-c4ee-73c2-a87b-ff46a7d3dde5","2025-09-02_09h44.07.415",NA,NA,602.398,602.398,602.398,602.76,NA,NA,NA,NA,NA,NA,NA,TRUE,3,0.549,599.523,602.397,NA,NA,NA,NA,NA,7,25,0,35,35,0,1,2,36,"likert"
"578A4EC0A0C948ED96A7DF35DBECE4E7",1,"01990a98-393e-713f-a661-cbf1d87b2ac5","01990a84-c4ee-73c2-a87b-ff46a7d3dde5","2025-09-02_09h44.07.415",NA,NA,605.781,605.781,605.781,606.152,NA,NA,NA,NA,NA,NA,NA,TRUE,3,2.746,602.767,605.781,NA,NA,NA,NA,NA,90,40,0,36,36,75,1,2,37,"likert"
"578A4EC0A0C948ED96A7DF35DBECE4E7",1,"01990a98-393e-713f-a661-cbf1d87b2ac5","01990a84-c4ee-73c2-a87b-ff46a7d3dde5","2025-09-02_09h44.07.415",NA,NA,609.192,609.192,609.192,609.559,NA,NA,NA,NA,NA,NA,NA,TRUE,5,1.209,606.153,609.192,NA,NA,NA,NA,NA,60,54,0,37,37,71,1,2,38,"likert"
"578A4EC0A0C948ED96A7DF35DBECE4E7",1,"01990a98-393e-713f-a661-cbf1d87b2ac5","01990a84-c4ee-73c2-a87b-ff46a7d3dde5","2025-09-02_09h44.07.415",NA,NA,612.573,612.573,612.573,612.817,NA,NA,NA,NA,NA,NA,NA,TRUE,5,0.534,609.565,612.572,NA,NA,NA,NA,NA,50,27,0,38,38,60,1,2,39,"likert"
"578A4EC0A0C948ED96A7DF35DBECE4E7",1,"01990a98-393e-713f-a661-cbf1d87b2ac5","01990a84-c4ee-73c2-a87b-ff46a7d3dde5","2025-09-02_09h44.07.415",NA,NA,615.844,615.844,615.844,616.233,NA,NA,NA,NA,NA,NA,NA,TRUE,2,1.06,612.818,615.844,NA,NA,NA,NA,NA,30,27,0,39,39,43,1,2,40,"likert"
"578A4EC0A0C948ED96A7DF35DBECE4E7",1,"01990a98-393e-713f-a661-cbf1d87b2ac5","01990a84-c4ee-73c2-a87b-ff46a7d3dde5","2025-09-02_09h44.07.415",NA,NA,619.177,619.177,619.177,619.53,NA,NA,NA,NA,NA,NA,NA,TRUE,2,2.025,616.241,619.177,NA,NA,NA,NA,NA,100,46,0,40,40,88,1,2,41,"likert"
"578A4EC0A0C948ED96A7DF35DBECE4E7",1,"01990a98-393e-713f-a661-cbf1d87b2ac5","01990a84-c4ee-73c2-a87b-ff46a7d3dde5","2025-09-02_09h44.07.415",NA,NA,622.566,622.566,622.566,622.921,NA,NA,NA,NA,NA,NA,NA,TRUE,4,1.481,619.531,622.566,NA,NA,NA,NA,NA,180,46,0,41,41,100,1,2,42,"likert"
"578A4EC0A0C948ED96A7DF35DBECE4E7",1,"01990a98-393e-713f-a661-cbf1d87b2ac5","01990a84-c4ee-73c2-a87b-ff46a7d3dde5","2025-09-02_09h44.07.415",NA,NA,625.915,625.915,625.915,626.276,NA,NA,NA,NA,NA,NA,NA,TRUE,3,1.216,622.928,625.915,NA,NA,NA,NA,NA,7,32,0,42,42,4,1,2,43,"likert"
"578A4EC0A0C948ED96A7DF35DBECE4E7",1,"01990a98-393e-713f-a661-cbf1d87b2ac5","01990a84-c4ee-73c2-a87b-ff46a7d3dde5","2025-09-02_09h44.07.415",NA,NA,629.301,629.301,629.301,629.656,NA,NA,NA,NA,NA,NA,NA,TRUE,4,0.14,626.277,629.3,NA,NA,NA,NA,NA,150,35,0,43,43,92,1,2,44,"likert"
"578A4EC0A0C948ED96A7DF35DBECE4E7",1,"01990a98-393e-713f-a661-cbf1d87b2ac5","01990a84-c4ee-73c2-a87b-ff46a7d3dde5","2025-09-02_09h44.07.415",NA,NA,632.643,632.643,632.643,633.001,NA,NA,NA,NA,NA,NA,NA,TRUE,4,0.913,629.662,632.643,NA,NA,NA,NA,NA,14,25,0,44,44,18,1,2,45,"likert"
"578A4EC0A0C948ED96A7DF35DBECE4E7",1,"01990a98-393e-713f-a661-cbf1d87b2ac5","01990a84-c4ee-73c2-a87b-ff46a7d3dde5","2025-09-02_09h44.07.415",NA,NA,636.018,636.018,636.018,636.273,NA,NA,NA,NA,NA,NA,NA,TRUE,2,0.139,633.001,636.018,NA,NA,NA,NA,NA,95,31,0,45,45,78,1,2,46,"likert"
"578A4EC0A0C948ED96A7DF35DBECE4E7",1,"01990a98-393e-713f-a661-cbf1d87b2ac5","01990a84-c4ee-73c2-a87b-ff46a7d3dde5","2025-09-02_09h44.07.415",NA,NA,639.294,639.294,639.294,639.655,NA,NA,NA,NA,NA,NA,NA,TRUE,2,0.14,636.28,639.294,NA,NA,NA,NA,NA,150,31,0,46,46,90,1,2,47,"likert"
"578A4EC0A0C948ED96A7DF35DBECE4E7",1,"01990a98-393e-713f-a661-cbf1d87b2ac5","01990a84-c4ee-73c2-a87b-ff46a7d3dde5","2025-09-02_09h44.07.415",NA,NA,642.655,642.655,642.655,643.018,NA,NA,NA,NA,NA,NA,NA,TRUE,4,1.826,639.656,642.655,NA,NA,NA,NA,NA,200,26,0,47,47,102,1,2,48,"likert"
"578A4EC0A0C948ED96A7DF35DBECE4E7",1,"01990a98-393e-713f-a661-cbf1d87b2ac5","01990a84-c4ee-73c2-a87b-ff46a7d3dde5","2025-09-02_09h44.07.415",NA,NA,645.978,645.978,645.978,646.35,NA,NA,NA,NA,NA,NA,NA,TRUE,3,0.29,643.024,645.978,NA,NA,NA,NA,NA,30,26,0,48,48,42,1,2,49,"likert"
"578A4EC0A0C948ED96A7DF35DBECE4E7",1,"01990a98-393e-713f-a661-cbf1d87b2ac5","01990a84-c4ee-73c2-a87b-ff46a7d3dde5","2025-09-02_09h44.07.415",NA,NA,649.366,649.366,649.366,649.721,NA,NA,NA,NA,NA,NA,NA,TRUE,3,0.004,646.351,649.365,NA,NA,NA,NA,NA,200,35,0,49,49,104,1,2,50,"likert"
"578A4EC0A0C948ED96A7DF35DBECE4E7",1,"01990a98-393e-713f-a661-cbf1d87b2ac5","01990a84-c4ee-73c2-a87b-ff46a7d3dde5","2025-09-02_09h44.07.415",NA,NA,652.709,652.709,652.709,653.085,NA,NA,NA,NA,NA,NA,NA,TRUE,2,1.775,649.728,652.709,NA,NA,NA,NA,NA,150,54,0,50,50,95,1,2,51,"likert"
"578A4EC0A0C948ED96A7DF35DBECE4E7",1,"01990a98-393e-713f-a661-cbf1d87b2ac5","01990a84-c4ee-73c2-a87b-ff46a7d3dde5","2025-09-02_09h44.07.415",NA,NA,656.061,656.061,656.061,656.432,NA,NA,NA,NA,NA,NA,NA,TRUE,2,1.496,653.086,656.061,NA,NA,NA,NA,NA,45,35,0,51,51,57,1,2,52,"likert"
"578A4EC0A0C948ED96A7DF35DBECE4E7",1,"01990a98-393e-713f-a661-cbf1d87b2ac5","01990a84-c4ee-73c2-a87b-ff46a7d3dde5","2025-09-02_09h44.07.415",NA,NA,659.357,659.357,659.357,659.723,NA,NA,NA,NA,NA,NA,NA,TRUE,2,0.969,656.438,659.357,NA,NA,NA,NA,NA,50,54,0,52,52,65,1,2,53,"likert"
"578A4EC0A0C948ED96A7DF35DBECE4E7",1,"01990a98-393e-713f-a661-cbf1d87b2ac5","01990a84-c4ee-73c2-a87b-ff46a7d3dde5","2025-09-02_09h44.07.415",NA,NA,662.78,662.78,662.78,663.155,NA,NA,NA,NA,NA,NA,NA,TRUE,2,1.089,659.724,662.779,NA,NA,NA,NA,NA,10,32,0,53,53,11,1,2,54,"likert"
"578A4EC0A0C948ED96A7DF35DBECE4E7",1,"01990a98-393e-713f-a661-cbf1d87b2ac5","01990a84-c4ee-73c2-a87b-ff46a7d3dde5","2025-09-02_09h44.07.415",NA,NA,666.111,666.111,666.112,666.471,NA,NA,NA,NA,NA,NA,NA,TRUE,3,1.781,663.161,666.111,NA,NA,NA,NA,NA,10,30,0,54,54,10,1,2,55,"likert"
"578A4EC0A0C948ED96A7DF35DBECE4E7",1,"01990a98-393e-713f-a661-cbf1d87b2ac5","01990a84-c4ee-73c2-a87b-ff46a7d3dde5","2025-09-02_09h44.07.415",NA,NA,669.424,669.424,669.424,669.785,NA,NA,NA,NA,NA,NA,NA,TRUE,3,1.34,666.473,669.424,NA,NA,NA,NA,NA,10,26,0,55,55,7,1,2,56,"likert"
"578A4EC0A0C948ED96A7DF35DBECE4E7",1,"01990a98-393e-713f-a661-cbf1d87b2ac5","01990a84-c4ee-73c2-a87b-ff46a7d3dde5","2025-09-02_09h44.07.415",NA,NA,672.855,672.855,672.855,673.101,NA,NA,NA,NA,NA,NA,NA,TRUE,3,0.535,669.792,672.855,NA,NA,NA,NA,NA,150,40,0,56,56,93,1,2,57,"likert"
"578A4EC0A0C948ED96A7DF35DBECE4E7",1,"01990a98-393e-713f-a661-cbf1d87b2ac5","01990a84-c4ee-73c2-a87b-ff46a7d3dde5","2025-09-02_09h44.07.415",NA,NA,676.221,676.221,676.221,676.466,NA,NA,NA,NA,NA,NA,NA,TRUE,3,0.004,673.103,676.22,NA,NA,NA,NA,NA,45,40,0,57,57,58,1,2,58,"likert"
"578A4EC0A0C948ED96A7DF35DBECE4E7",1,"01990a98-393e-713f-a661-cbf1d87b2ac5","01990a84-c4ee-73c2-a87b-ff46a7d3dde5","2025-09-02_09h44.07.415",NA,NA,679.574,679.574,679.574,679.816,NA,NA,NA,NA,NA,NA,NA,TRUE,3,0.962,676.477,679.574,NA,NA,NA,NA,NA,40,27,0,58,58,48,1,2,59,"likert"
"578A4EC0A0C948ED96A7DF35DBECE4E7",1,"01990a98-393e-713f-a661-cbf1d87b2ac5","01990a84-c4ee-73c2-a87b-ff46a7d3dde5","2025-09-02_09h44.07.415",NA,NA,682.846,682.846,682.846,683.204,NA,NA,NA,NA,NA,NA,NA,TRUE,4,0.55,679.817,682.846,NA,NA,NA,NA,NA,10,25,0,59,59,6,1,2,60,"likert"
"578A4EC0A0C948ED96A7DF35DBECE4E7",1,"01990a98-393e-713f-a661-cbf1d87b2ac5","01990a84-c4ee-73c2-a87b-ff46a7d3dde5","2025-09-02_09h44.07.415",NA,NA,686.156,686.156,686.156,686.519,NA,NA,NA,NA,NA,NA,NA,TRUE,3,1.102,683.211,686.155,NA,NA,NA,NA,NA,14,39,0,60,60,23,1,2,61,"likert"
"578A4EC0A0C948ED96A7DF35DBECE4E7",1,"01990a98-393e-713f-a661-cbf1d87b2ac5","01990a84-c4ee-73c2-a87b-ff46a7d3dde5","2025-09-02_09h44.07.415",NA,NA,689.561,689.561,689.561,689.93,NA,NA,NA,NA,NA,NA,NA,TRUE,4,2.001,686.52,689.561,NA,NA,NA,NA,NA,25,35,0,61,61,34,1,2,62,"likert"
"578A4EC0A0C948ED96A7DF35DBECE4E7",1,"01990a98-393e-713f-a661-cbf1d87b2ac5","01990a84-c4ee-73c2-a87b-ff46a7d3dde5","2025-09-02_09h44.07.415",NA,NA,692.881,692.881,692.881,693.248,NA,NA,NA,NA,NA,NA,NA,TRUE,3,1.755,689.937,692.881,NA,NA,NA,NA,NA,45,29,0,62,62,55,1,2,63,"likert"
"578A4EC0A0C948ED96A7DF35DBECE4E7",1,"01990a98-393e-713f-a661-cbf1d87b2ac5","01990a84-c4ee-73c2-a87b-ff46a7d3dde5","2025-09-02_09h44.07.415",NA,NA,696.219,696.219,696.219,696.589,NA,NA,NA,NA,NA,NA,NA,TRUE,4,1.66,693.249,696.219,NA,NA,NA,NA,NA,30,29,0,63,63,44,1,2,64,"likert"
"578A4EC0A0C948ED96A7DF35DBECE4E7",1,"01990a98-393e-713f-a661-cbf1d87b2ac5","01990a84-c4ee-73c2-a87b-ff46a7d3dde5","2025-09-02_09h44.07.415",NA,NA,699.572,699.572,699.572,699.935,NA,NA,NA,NA,NA,NA,NA,TRUE,3,2.188,696.596,699.572,NA,NA,NA,NA,NA,40,33,0,64,64,49,1,2,65,"likert"
"578A4EC0A0C948ED96A7DF35DBECE4E7",1,"01990a98-393e-713f-a661-cbf1d87b2ac5","01990a84-c4ee-73c2-a87b-ff46a7d3dde5","2025-09-02_09h44.07.415",NA,NA,702.972,702.972,702.972,703.329,NA,NA,NA,NA,NA,NA,NA,TRUE,3,2.135,699.941,702.971,NA,NA,NA,NA,NA,14,32,0,65,65,21,1,2,66,"likert"
"578A4EC0A0C948ED96A7DF35DBECE4E7",1,"01990a98-393e-713f-a661-cbf1d87b2ac5","01990a84-c4ee-73c2-a87b-ff46a7d3dde5","2025-09-02_09h44.07.415",NA,NA,706.362,706.362,706.362,706.723,NA,NA,NA,NA,NA,NA,NA,TRUE,3,1.479,703.33,706.362,NA,NA,NA,NA,NA,25,33,0,66,66,33,1,2,67,"likert"
"578A4EC0A0C948ED96A7DF35DBECE4E7",1,"01990a98-393e-713f-a661-cbf1d87b2ac5","01990a84-c4ee-73c2-a87b-ff46a7d3dde5","2025-09-02_09h44.07.415",NA,NA,709.632,709.632,709.632,709.993,NA,NA,NA,NA,NA,NA,NA,TRUE,3,0.931,706.73,709.631,NA,NA,NA,NA,NA,28,26,0,67,67,36,1,2,68,"likert"
"578A4EC0A0C948ED96A7DF35DBECE4E7",1,"01990a98-393e-713f-a661-cbf1d87b2ac5","01990a84-c4ee-73c2-a87b-ff46a7d3dde5","2025-09-02_09h44.07.415",NA,NA,712.988,712.988,712.988,713.347,NA,NA,NA,NA,NA,NA,NA,TRUE,3,1.713,709.994,712.987,NA,NA,NA,NA,NA,150,33,0,68,68,91,1,2,69,"likert"
"578A4EC0A0C948ED96A7DF35DBECE4E7",1,"01990a98-393e-713f-a661-cbf1d87b2ac5","01990a84-c4ee-73c2-a87b-ff46a7d3dde5","2025-09-02_09h44.07.415",NA,NA,716.436,716.436,716.436,716.674,NA,NA,NA,NA,NA,NA,NA,TRUE,3,0.689,713.354,716.436,NA,NA,NA,NA,NA,200,28,0,69,69,103,1,2,70,"likert"
"578A4EC0A0C948ED96A7DF35DBECE4E7",1,"01990a98-393e-713f-a661-cbf1d87b2ac5","01990a84-c4ee-73c2-a87b-ff46a7d3dde5","2025-09-02_09h44.07.415",NA,NA,719.703,719.703,719.703,720.059,NA,NA,NA,NA,NA,NA,NA,TRUE,2,1.348,716.676,719.703,NA,NA,NA,NA,NA,25,27,0,70,70,30,1,2,71,"likert"
"578A4EC0A0C948ED96A7DF35DBECE4E7",1,"01990a98-393e-713f-a661-cbf1d87b2ac5","01990a84-c4ee-73c2-a87b-ff46a7d3dde5","2025-09-02_09h44.07.415",NA,NA,723.015,723.257,723.257,723.38,NA,NA,NA,NA,NA,NA,NA,FALSE,NA,NA,720.065,723.015,NA,NA,NA,NA,NA,21,30,0,71,71,27,1,2,72,"likert"
"578A4EC0A0C948ED96A7DF35DBECE4E7",1,"01990a98-393e-713f-a661-cbf1d87b2ac5","01990a84-c4ee-73c2-a87b-ff46a7d3dde5","2025-09-02_09h44.07.415",NA,NA,726.462,726.462,726.462,726.703,NA,NA,NA,NA,NA,NA,NA,TRUE,3,1.767,723.381,726.462,NA,NA,NA,NA,NA,10,29,0,72,72,9,1,2,73,"likert"
"578A4EC0A0C948ED96A7DF35DBECE4E7",1,"01990a98-393e-713f-a661-cbf1d87b2ac5","01990a84-c4ee-73c2-a87b-ff46a7d3dde5","2025-09-02_09h44.07.415",NA,NA,729.788,729.788,729.788,730.16,NA,NA,NA,NA,NA,NA,NA,TRUE,4,2.164,726.71,729.787,NA,NA,NA,NA,NA,45,46,0,73,73,59,1,2,74,"likert"
"578A4EC0A0C948ED96A7DF35DBECE4E7",1,"01990a98-393e-713f-a661-cbf1d87b2ac5","01990a84-c4ee-73c2-a87b-ff46a7d3dde5","2025-09-02_09h44.07.415",NA,NA,733.159,733.159,733.159,733.508,NA,NA,NA,NA,NA,NA,NA,TRUE,4,1.857,730.162,733.159,NA,NA,NA,NA,NA,95,47,0,74,74,82,1,2,75,"likert"
"578A4EC0A0C948ED96A7DF35DBECE4E7",1,"01990a98-393e-713f-a661-cbf1d87b2ac5","01990a84-c4ee-73c2-a87b-ff46a7d3dde5","2025-09-02_09h44.07.415",NA,NA,736.497,736.497,736.497,736.856,NA,NA,NA,NA,NA,NA,NA,TRUE,4,1.445,733.515,736.497,NA,NA,NA,NA,NA,100,31,0,75,75,85,1,2,76,"likert"
"578A4EC0A0C948ED96A7DF35DBECE4E7",1,"01990a98-393e-713f-a661-cbf1d87b2ac5","01990a84-c4ee-73c2-a87b-ff46a7d3dde5","2025-09-02_09h44.07.415",NA,NA,739.852,739.852,739.852,740.203,NA,NA,NA,NA,NA,NA,NA,TRUE,3,1.324,736.857,739.851,NA,NA,NA,NA,NA,21,29,0,76,76,26,1,2,77,"likert"
"578A4EC0A0C948ED96A7DF35DBECE4E7",1,"01990a98-393e-713f-a661-cbf1d87b2ac5","01990a84-c4ee-73c2-a87b-ff46a7d3dde5","2025-09-02_09h44.07.415",NA,NA,743.22,743.22,743.22,743.456,NA,NA,NA,NA,NA,NA,NA,TRUE,4,0.957,740.209,743.219,NA,NA,NA,NA,NA,100,38,0,77,77,86,1,2,78,"likert"
"578A4EC0A0C948ED96A7DF35DBECE4E7",1,"01990a98-393e-713f-a661-cbf1d87b2ac5","01990a84-c4ee-73c2-a87b-ff46a7d3dde5","2025-09-02_09h44.07.415",NA,NA,746.476,746.476,746.476,746.834,NA,NA,NA,NA,NA,NA,NA,TRUE,3,0.401,743.457,746.475,NA,NA,NA,NA,NA,60,35,0,78,78,68,1,2,79,"likert"
"578A4EC0A0C948ED96A7DF35DBECE4E7",1,"01990a98-393e-713f-a661-cbf1d87b2ac5","01990a84-c4ee-73c2-a87b-ff46a7d3dde5","2025-09-02_09h44.07.415",NA,NA,749.874,749.874,749.874,750.242,NA,NA,NA,NA,NA,NA,NA,TRUE,3,0.696,746.841,749.874,NA,NA,NA,NA,NA,12,26,0,79,79,13,1,2,80,"likert"
"578A4EC0A0C948ED96A7DF35DBECE4E7",1,"01990a98-393e-713f-a661-cbf1d87b2ac5","01990a84-c4ee-73c2-a87b-ff46a7d3dde5","2025-09-02_09h44.07.415",NA,NA,753.273,753.273,753.273,753.519,NA,NA,NA,NA,NA,NA,NA,TRUE,4,1.736,750.243,753.273,NA,NA,NA,NA,NA,14,26,0,80,80,19,1,2,81,"likert"
"578A4EC0A0C948ED96A7DF35DBECE4E7",1,"01990a98-393e-713f-a661-cbf1d87b2ac5","01990a84-c4ee-73c2-a87b-ff46a7d3dde5","2025-09-02_09h44.07.415",NA,NA,756.541,756.541,756.541,756.904,NA,NA,NA,NA,NA,NA,NA,TRUE,4,0.156,753.525,756.541,NA,NA,NA,NA,NA,28,46,0,81,81,41,1,2,82,"likert"
"578A4EC0A0C948ED96A7DF35DBECE4E7",1,"01990a98-393e-713f-a661-cbf1d87b2ac5","01990a84-c4ee-73c2-a87b-ff46a7d3dde5","2025-09-02_09h44.07.415",NA,NA,759.846,759.846,759.846,760.21,NA,NA,NA,NA,NA,NA,NA,TRUE,4,0.943,756.911,759.845,NA,NA,NA,NA,NA,12,31,0,82,82,15,1,2,83,"likert"
"578A4EC0A0C948ED96A7DF35DBECE4E7",1,"01990a98-393e-713f-a661-cbf1d87b2ac5","01990a84-c4ee-73c2-a87b-ff46a7d3dde5","2025-09-02_09h44.07.415",NA,NA,763.231,763.231,763.231,763.593,NA,NA,NA,NA,NA,NA,NA,TRUE,3,0.813,760.21,763.231,NA,NA,NA,NA,NA,7,30,0,83,83,3,1,2,84,"likert"
"578A4EC0A0C948ED96A7DF35DBECE4E7",1,"01990a98-393e-713f-a661-cbf1d87b2ac5","01990a84-c4ee-73c2-a87b-ff46a7d3dde5","2025-09-02_09h44.07.415",NA,NA,766.603,766.603,766.603,766.962,NA,NA,NA,NA,NA,NA,NA,TRUE,4,0.944,763.594,766.603,NA,NA,NA,NA,NA,7,35,0,84,84,5,1,2,85,"likert"
"578A4EC0A0C948ED96A7DF35DBECE4E7",1,"01990a98-393e-713f-a661-cbf1d87b2ac5","01990a84-c4ee-73c2-a87b-ff46a7d3dde5","2025-09-02_09h44.07.415",NA,NA,769.994,769.994,769.994,770.358,NA,NA,NA,NA,NA,NA,NA,TRUE,3,0.534,766.969,769.993,NA,NA,NA,NA,NA,90,33,0,85,85,74,1,2,86,"likert"
"578A4EC0A0C948ED96A7DF35DBECE4E7",1,"01990a98-393e-713f-a661-cbf1d87b2ac5","01990a84-c4ee-73c2-a87b-ff46a7d3dde5","2025-09-02_09h44.07.415",NA,NA,773.33,773.33,773.33,773.7,NA,NA,NA,NA,NA,NA,NA,TRUE,3,2.568,770.364,773.329,NA,NA,NA,NA,NA,180,31,0,86,86,97,1,2,87,"likert"
"578A4EC0A0C948ED96A7DF35DBECE4E7",1,"01990a98-393e-713f-a661-cbf1d87b2ac5","01990a84-c4ee-73c2-a87b-ff46a7d3dde5","2025-09-02_09h44.07.415",NA,NA,776.67,776.909,776.909,777.03,NA,NA,NA,NA,NA,NA,NA,FALSE,NA,NA,773.702,776.669,NA,NA,NA,NA,NA,50,30,0,87,87,61,1,2,88,"likert"
"578A4EC0A0C948ED96A7DF35DBECE4E7",1,"01990a98-393e-713f-a661-cbf1d87b2ac5","01990a84-c4ee-73c2-a87b-ff46a7d3dde5","2025-09-02_09h44.07.415",NA,NA,779.947,779.947,779.947,780.303,NA,NA,NA,NA,NA,NA,NA,TRUE,4,0.003,777.036,779.946,NA,NA,NA,NA,NA,40,35,0,88,88,50,1,2,89,"likert"
"578A4EC0A0C948ED96A7DF35DBECE4E7",1,"01990a98-393e-713f-a661-cbf1d87b2ac5","01990a84-c4ee-73c2-a87b-ff46a7d3dde5","2025-09-02_09h44.07.415",NA,NA,783.304,783.304,783.304,783.661,NA,NA,NA,NA,NA,NA,NA,TRUE,4,0.941,780.304,783.303,NA,NA,NA,NA,NA,180,27,0,89,89,96,1,2,90,"likert"
"578A4EC0A0C948ED96A7DF35DBECE4E7",1,"01990a98-393e-713f-a661-cbf1d87b2ac5","01990a84-c4ee-73c2-a87b-ff46a7d3dde5","2025-09-02_09h44.07.415",NA,NA,786.697,786.697,786.697,787.057,NA,NA,NA,NA,NA,NA,NA,TRUE,5,1.74,783.668,786.697,NA,NA,NA,NA,NA,28,32,0,90,90,38,1,2,91,"likert"
"578A4EC0A0C948ED96A7DF35DBECE4E7",1,"01990a98-393e-713f-a661-cbf1d87b2ac5","01990a84-c4ee-73c2-a87b-ff46a7d3dde5","2025-09-02_09h44.07.415",NA,NA,790.105,790.105,790.105,790.469,NA,NA,NA,NA,NA,NA,NA,TRUE,4,0.805,787.058,790.105,NA,NA,NA,NA,NA,200,54,0,91,91,107,1,2,92,"likert"
"578A4EC0A0C948ED96A7DF35DBECE4E7",1,"01990a98-393e-713f-a661-cbf1d87b2ac5","01990a84-c4ee-73c2-a87b-ff46a7d3dde5","2025-09-02_09h44.07.415",NA,NA,793.391,793.391,793.391,793.765,NA,NA,NA,NA,NA,NA,NA,TRUE,5,1.074,790.476,793.391,NA,NA,NA,NA,NA,180,39,0,92,92,99,1,2,93,"likert"
"578A4EC0A0C948ED96A7DF35DBECE4E7",1,"01990a98-393e-713f-a661-cbf1d87b2ac5","01990a84-c4ee-73c2-a87b-ff46a7d3dde5","2025-09-02_09h44.07.415",NA,NA,796.828,796.828,796.828,797.065,NA,NA,NA,NA,NA,NA,NA,TRUE,2,2.028,793.766,796.827,NA,NA,NA,NA,NA,150,47,0,93,93,94,1,2,94,"likert"
"578A4EC0A0C948ED96A7DF35DBECE4E7",1,"01990a98-393e-713f-a661-cbf1d87b2ac5","01990a84-c4ee-73c2-a87b-ff46a7d3dde5","2025-09-02_09h44.07.415",NA,NA,800.119,800.119,800.119,800.475,NA,NA,NA,NA,NA,NA,NA,TRUE,2,1.08,797.072,800.118,NA,NA,NA,NA,NA,21,32,0,94,94,28,1,2,95,"likert"
"578A4EC0A0C948ED96A7DF35DBECE4E7",1,"01990a98-393e-713f-a661-cbf1d87b2ac5","01990a84-c4ee-73c2-a87b-ff46a7d3dde5","2025-09-02_09h44.07.415",NA,NA,803.506,803.507,803.507,803.862,NA,NA,NA,NA,NA,NA,NA,TRUE,3,0.964,800.476,803.506,NA,NA,NA,NA,NA,90,26,0,95,95,72,1,2,96,"likert"
"578A4EC0A0C948ED96A7DF35DBECE4E7",1,"01990a98-393e-713f-a661-cbf1d87b2ac5","01990a84-c4ee-73c2-a87b-ff46a7d3dde5","2025-09-02_09h44.07.415",NA,NA,806.863,806.863,806.863,807.104,NA,NA,NA,NA,NA,NA,NA,TRUE,5,2.346,803.869,806.863,NA,NA,NA,NA,NA,40,47,0,96,96,52,1,2,97,"likert"
"578A4EC0A0C948ED96A7DF35DBECE4E7",1,"01990a98-393e-713f-a661-cbf1d87b2ac5","01990a84-c4ee-73c2-a87b-ff46a7d3dde5","2025-09-02_09h44.07.415",NA,NA,810.173,810.173,810.173,810.543,NA,NA,NA,NA,NA,NA,NA,TRUE,1,1.756,807.105,810.173,NA,NA,NA,NA,NA,10,27,0,97,97,8,1,2,98,"likert"
"578A4EC0A0C948ED96A7DF35DBECE4E7",1,"01990a98-393e-713f-a661-cbf1d87b2ac5","01990a84-c4ee-73c2-a87b-ff46a7d3dde5","2025-09-02_09h44.07.415",NA,NA,813.479,813.479,813.479,813.836,NA,NA,NA,NA,NA,NA,NA,TRUE,2,1.36,810.55,813.479,NA,NA,NA,NA,NA,100,54,0,98,98,89,1,2,99,"likert"
"578A4EC0A0C948ED96A7DF35DBECE4E7",1,"01990a98-393e-713f-a661-cbf1d87b2ac5","01990a84-c4ee-73c2-a87b-ff46a7d3dde5","2025-09-02_09h44.07.415",NA,NA,816.879,816.879,816.879,817.253,NA,NA,NA,NA,NA,NA,NA,TRUE,4,0.828,813.836,816.879,NA,NA,NA,NA,NA,50,35,0,99,99,62,1,2,100,"likert"
"578A4EC0A0C948ED96A7DF35DBECE4E7",1,"01990a98-393e-713f-a661-cbf1d87b2ac5","01990a84-c4ee-73c2-a87b-ff46a7d3dde5","2025-09-02_09h44.07.415",NA,NA,820.25,820.25,820.25,820.609,NA,NA,NA,NA,NA,NA,NA,TRUE,4,1.321,817.26,820.249,NA,NA,NA,NA,NA,7,28,0,100,100,2,1,2,101,"likert"
"578A4EC0A0C948ED96A7DF35DBECE4E7",1,"01990a98-393e-713f-a661-cbf1d87b2ac5","01990a84-c4ee-73c2-a87b-ff46a7d3dde5","2025-09-02_09h44.07.415",NA,NA,823.611,823.611,823.611,823.852,NA,NA,NA,NA,NA,NA,NA,TRUE,1,1.074,820.61,823.611,NA,NA,NA,NA,NA,21,27,0,101,101,25,1,2,102,"likert"
"578A4EC0A0C948ED96A7DF35DBECE4E7",1,"01990a98-393e-713f-a661-cbf1d87b2ac5","01990a84-c4ee-73c2-a87b-ff46a7d3dde5","2025-09-02_09h44.07.415",NA,NA,826.87,826.87,826.87,827.232,NA,NA,NA,NA,NA,NA,NA,TRUE,2,0.8,823.857,826.869,NA,NA,NA,NA,NA,95,40,0,102,102,81,1,2,103,"likert"
"578A4EC0A0C948ED96A7DF35DBECE4E7",1,"01990a98-393e-713f-a661-cbf1d87b2ac5","01990a84-c4ee-73c2-a87b-ff46a7d3dde5","2025-09-02_09h44.07.415",NA,NA,830.21,830.21,830.21,830.571,NA,NA,NA,NA,NA,NA,NA,TRUE,1,2.725,827.233,830.21,NA,NA,NA,NA,NA,45,26,0,103,103,54,1,2,104,"likert"
"578A4EC0A0C948ED96A7DF35DBECE4E7",1,"01990a98-393e-713f-a661-cbf1d87b2ac5","01990a84-c4ee-73c2-a87b-ff46a7d3dde5","2025-09-02_09h44.07.415",NA,NA,833.655,833.896,833.896,834.013,NA,NA,NA,NA,NA,NA,NA,FALSE,NA,NA,830.578,833.655,NA,NA,NA,NA,NA,60,47,0,104,104,70,1,2,105,"likert"
"578A4EC0A0C948ED96A7DF35DBECE4E7",1,"01990a98-393e-713f-a661-cbf1d87b2ac5","01990a84-c4ee-73c2-a87b-ff46a7d3dde5","2025-09-02_09h44.07.415",NA,NA,837.01,837.01,837.01,837.366,NA,NA,NA,NA,NA,NA,NA,TRUE,2,0.73,834.013,837.009,NA,NA,NA,NA,NA,180,54,0,105,105,101,1,2,106,"likert"
"578A4EC0A0C948ED96A7DF35DBECE4E7",1,"01990a98-393e-713f-a661-cbf1d87b2ac5","01990a84-c4ee-73c2-a87b-ff46a7d3dde5","2025-09-02_09h44.07.415",NA,NA,840.356,840.357,840.357,840.723,NA,NA,NA,NA,NA,NA,NA,TRUE,5,1.649,837.373,840.356,NA,NA,NA,NA,NA,90,54,0,106,106,77,1,2,107,"likert"
"578A4EC0A0C948ED96A7DF35DBECE4E7",1,"01990a98-393e-713f-a661-cbf1d87b2ac5","01990a84-c4ee-73c2-a87b-ff46a7d3dde5","2025-09-02_09h44.07.415",NA,NA,843.7,843.7,843.7,843.95,NA,NA,NA,NA,NA,NA,NA,TRUE,4,1.39,840.724,843.699,NA,NA,NA,NA,NA,60,29,0,107,107,66,1,2,108,"likert"
