"participant","session","assignmentId","projectId","date","practiceTrial.started","practiceTrial.stopped","tooLate.started","tooLate.stopped","blank.started","blank.stopped","trials_pract.thisRepN","trials_pract.thisTrialN","trials_pract.thisN","trials_pract.thisIndex","trials_pract.ran","delay_pract","amount_pract","responseMade","key","rt","trial.started","trial.stopped","trials.thisRepN","trials.thisTrialN","trials.thisN","trials.thisIndex","trials.ran","delay","amount","trials_2.thisRepN","trials_2.thisTrialN","trials_2.thisN","trials_2.thisIndex","trials_2.ran","block","trial","taskType"
"5CD8B649981640DC892D4F86CC8C5CFD",1,"0198eced-cec8-7443-89d8-8ce9db9fb599","0198c493-061b-72b6-9f09-7b914e79ecc0","2025-08-27_15h09.17.588",122.8065,125.6862,125.6896,125.9345,125.9353,126.0339,0,0,0,2,1,14,45,FALSE,NA,NA,NA,NA,NA,NA,NA,NA,NA,NA,NA,NA,NA,NA,NA,NA,0,1,"likert"
"5CD8B649981640DC892D4F86CC8C5CFD",1,"0198eced-cec8-7443-89d8-8ce9db9fb599","0198c493-061b-72b6-9f09-7b914e79ecc0","2025-08-27_15h09.17.588",126.0438,129.0312,129.032,129.0326,129.0328,129.3808,0,1,1,0,1,7,30,TRUE,1,1.4281,NA,NA,NA,NA,NA,NA,NA,NA,NA,NA,NA,NA,NA,NA,0,2,"likert"
"5CD8B649981640DC892D4F86CC8C5CFD",1,"0198eced-cec8-7443-89d8-8ce9db9fb599","0198c493-061b-72b6-9f09-7b914e79ecc0","2025-08-27_15h09.17.588",129.3862,132.3779,132.3787,132.3792,132.3793,132.7275,0,2,2,4,1,30,40,TRUE,1,2.9647,NA,NA,NA,NA,NA,NA,NA,NA,NA,NA,NA,NA,NA,NA,0,3,"likert"
"5CD8B649981640DC892D4F86CC8C5CFD",1,"0198eced-cec8-7443-89d8-8ce9db9fb599","0198c493-061b-72b6-9f09-7b914e79ecc0","2025-08-27_15h09.17.588",132.7331,135.7242,135.7253,135.7258,135.7259,136.0738,0,3,3,3,1,3,27,TRUE,5,2.7745,NA,NA,NA,NA,NA,NA,NA,NA,NA,NA,NA,NA,NA,NA,0,4,"likert"
"5CD8B649981640DC892D4F86CC8C5CFD",1,"0198eced-cec8-7443-89d8-8ce9db9fb599","0198c493-061b-72b6-9f09-7b914e79ecc0","2025-08-27_15h09.17.588",136.079,139.0719,139.0724,139.0726,139.0727,139.4209,0,4,4,1,1,100,50,TRUE,5,2.2346,NA,NA,NA,NA,NA,NA,NA,NA,NA,NA,NA,NA,NA,NA,0,5,"likert"
"5CD8B649981640DC892D4F86CC8C5CFD",1,"0198eced-cec8-7443-89d8-8ce9db9fb599","0198c493-061b-72b6-9f09-7b914e79ecc0","2025-08-27_15h09.17.588",NA,NA,237.3109,237.312,237.3125,237.6582,NA,NA,NA,NA,NA,NA,NA,TRUE,1,1.9968,234.3956,237.3091,0,0,0,58,1,45,40,NA,NA,NA,NA,NA,1,1,"likert"
"5CD8B649981640DC892D4F86CC8C5CFD",1,"0198eced-cec8-7443-89d8-8ce9db9fb599","0198c493-061b-72b6-9f09-7b914e79ecc0","2025-08-27_15h09.17.588",NA,NA,240.6558,240.656,240.6561,241.0051,NA,NA,NA,NA,NA,NA,NA,TRUE,1,2.1314,237.6645,240.6554,0,1,1,106,1,200,47,NA,NA,NA,NA,NA,1,2,"likert"
"5CD8B649981640DC892D4F86CC8C5CFD",1,"0198eced-cec8-7443-89d8-8ce9db9fb599","0198c493-061b-72b6-9f09-7b914e79ecc0","2025-08-27_15h09.17.588",NA,NA,244.0023,244.2509,244.2513,244.3509,NA,NA,NA,NA,NA,NA,NA,FALSE,NA,NA,241.0112,244.0018,0,2,2,77,1,90,54,NA,NA,NA,NA,NA,1,3,"likert"
"5CD8B649981640DC892D4F86CC8C5CFD",1,"0198eced-cec8-7443-89d8-8ce9db9fb599","0198c493-061b-72b6-9f09-7b914e79ecc0","2025-08-27_15h09.17.588",NA,NA,247.3643,247.3647,247.3648,247.7138,NA,NA,NA,NA,NA,NA,NA,TRUE,5,1.5179,244.3541,247.3638,0,3,3,60,1,50,27,NA,NA,NA,NA,NA,1,4,"likert"
"5CD8B649981640DC892D4F86CC8C5CFD",1,"0198eced-cec8-7443-89d8-8ce9db9fb599","0198c493-061b-72b6-9f09-7b914e79ecc0","2025-08-27_15h09.17.588",NA,NA,250.7019,250.702,250.7022,251.0498,NA,NA,NA,NA,NA,NA,NA,TRUE,1,1.5023,247.7161,250.7015,0,4,4,23,1,14,39,NA,NA,NA,NA,NA,1,5,"likert"
"5CD8B649981640DC892D4F86CC8C5CFD",1,"0198eced-cec8-7443-89d8-8ce9db9fb599","0198c493-061b-72b6-9f09-7b914e79ecc0","2025-08-27_15h09.17.588",NA,NA,254.0595,254.0597,254.0597,254.4081,NA,NA,NA,NA,NA,NA,NA,TRUE,1,1.3636,251.0539,254.059,0,5,5,31,1,25,29,NA,NA,NA,NA,NA,1,6,"likert"
"5CD8B649981640DC892D4F86CC8C5CFD",1,"0198eced-cec8-7443-89d8-8ce9db9fb599","0198c493-061b-72b6-9f09-7b914e79ecc0","2025-08-27_15h09.17.588",NA,NA,257.4047,257.4049,257.4053,257.7542,NA,NA,NA,NA,NA,NA,NA,TRUE,1,1.3038,254.4146,257.4044,0,6,6,86,1,100,38,NA,NA,NA,NA,NA,1,7,"likert"
"5CD8B649981640DC892D4F86CC8C5CFD",1,"0198eced-cec8-7443-89d8-8ce9db9fb599","0198c493-061b-72b6-9f09-7b914e79ecc0","2025-08-27_15h09.17.588",NA,NA,260.7507,260.7509,260.751,261.1,NA,NA,NA,NA,NA,NA,NA,TRUE,1,1.2815,257.7581,260.7504,0,7,7,85,1,100,31,NA,NA,NA,NA,NA,1,8,"likert"
"5CD8B649981640DC892D4F86CC8C5CFD",1,"0198eced-cec8-7443-89d8-8ce9db9fb599","0198c493-061b-72b6-9f09-7b914e79ecc0","2025-08-27_15h09.17.588",NA,NA,264.1149,264.1153,264.1154,264.4638,NA,NA,NA,NA,NA,NA,NA,TRUE,1,1.745,261.1031,264.1144,0,8,8,13,1,12,26,NA,NA,NA,NA,NA,1,9,"likert"
"5CD8B649981640DC892D4F86CC8C5CFD",1,"0198eced-cec8-7443-89d8-8ce9db9fb599","0198c493-061b-72b6-9f09-7b914e79ecc0","2025-08-27_15h09.17.588",NA,NA,267.4623,267.4628,267.4629,267.8116,NA,NA,NA,NA,NA,NA,NA,TRUE,1,1.8465,264.4665,267.4617,0,9,9,98,1,180,35,NA,NA,NA,NA,NA,1,10,"likert"
"5CD8B649981640DC892D4F86CC8C5CFD",1,"0198eced-cec8-7443-89d8-8ce9db9fb599","0198c493-061b-72b6-9f09-7b914e79ecc0","2025-08-27_15h09.17.588",NA,NA,270.8308,270.8312,270.8313,271.1585,NA,NA,NA,NA,NA,NA,NA,TRUE,1,1.91,267.8178,270.8302,0,10,10,27,1,21,30,NA,NA,NA,NA,NA,1,11,"likert"
"5CD8B649981640DC892D4F86CC8C5CFD",1,"0198eced-cec8-7443-89d8-8ce9db9fb599","0198c493-061b-72b6-9f09-7b914e79ecc0","2025-08-27_15h09.17.588",NA,NA,274.1558,274.4037,274.4037,274.5033,NA,NA,NA,NA,NA,NA,NA,FALSE,NA,NA,271.1659,274.1553,0,11,11,45,1,30,30,NA,NA,NA,NA,NA,1,12,"likert"
"5CD8B649981640DC892D4F86CC8C5CFD",1,"0198eced-cec8-7443-89d8-8ce9db9fb599","0198c493-061b-72b6-9f09-7b914e79ecc0","2025-08-27_15h09.17.588",NA,NA,277.5027,277.5028,277.5029,277.8504,NA,NA,NA,NA,NA,NA,NA,TRUE,3,1.9866,274.5055,277.5022,0,12,12,68,1,60,35,NA,NA,NA,NA,NA,1,13,"likert"
"5CD8B649981640DC892D4F86CC8C5CFD",1,"0198eced-cec8-7443-89d8-8ce9db9fb599","0198c493-061b-72b6-9f09-7b914e79ecc0","2025-08-27_15h09.17.588",NA,NA,280.866,280.8666,280.8668,281.2146,NA,NA,NA,NA,NA,NA,NA,TRUE,5,2.3208,277.8532,280.8652,0,13,13,53,1,40,54,NA,NA,NA,NA,NA,1,14,"likert"
"5CD8B649981640DC892D4F86CC8C5CFD",1,"0198eced-cec8-7443-89d8-8ce9db9fb599","0198c493-061b-72b6-9f09-7b914e79ecc0","2025-08-27_15h09.17.588",NA,NA,284.213,284.2133,284.2136,284.5613,NA,NA,NA,NA,NA,NA,NA,TRUE,1,1.8833,281.2209,284.2126,0,14,14,99,1,180,39,NA,NA,NA,NA,NA,1,15,"likert"
"5CD8B649981640DC892D4F86CC8C5CFD",1,"0198eced-cec8-7443-89d8-8ce9db9fb599","0198c493-061b-72b6-9f09-7b914e79ecc0","2025-08-27_15h09.17.588",NA,NA,287.56,287.5606,287.5607,287.9086,NA,NA,NA,NA,NA,NA,NA,TRUE,1,1.7059,284.5662,287.5593,0,15,15,91,1,150,33,NA,NA,NA,NA,NA,1,16,"likert"
"5CD8B649981640DC892D4F86CC8C5CFD",1,"0198eced-cec8-7443-89d8-8ce9db9fb599","0198c493-061b-72b6-9f09-7b914e79ecc0","2025-08-27_15h09.17.588",NA,NA,290.9062,290.9064,290.9065,291.2555,NA,NA,NA,NA,NA,NA,NA,TRUE,5,2.8081,287.9134,290.9057,0,16,16,0,1,7,25,NA,NA,NA,NA,NA,1,17,"likert"
"5CD8B649981640DC892D4F86CC8C5CFD",1,"0198eced-cec8-7443-89d8-8ce9db9fb599","0198c493-061b-72b6-9f09-7b914e79ecc0","2025-08-27_15h09.17.588",NA,NA,294.2535,294.5021,294.5022,294.6018,NA,NA,NA,NA,NA,NA,NA,FALSE,NA,NA,291.2606,294.2526,0,17,17,83,1,95,54,NA,NA,NA,NA,NA,1,18,"likert"
"5CD8B649981640DC892D4F86CC8C5CFD",1,"0198eced-cec8-7443-89d8-8ce9db9fb599","0198c493-061b-72b6-9f09-7b914e79ecc0","2025-08-27_15h09.17.588",NA,NA,297.6166,297.6167,297.6168,297.9652,NA,NA,NA,NA,NA,NA,NA,TRUE,1,1.391,294.6069,297.6162,0,18,18,26,1,21,29,NA,NA,NA,NA,NA,1,19,"likert"
"5CD8B649981640DC892D4F86CC8C5CFD",1,"0198eced-cec8-7443-89d8-8ce9db9fb599","0198c493-061b-72b6-9f09-7b914e79ecc0","2025-08-27_15h09.17.588",NA,NA,300.9634,300.9642,300.9643,301.3116,NA,NA,NA,NA,NA,NA,NA,TRUE,1,1.4418,297.9693,300.9629,0,19,19,80,1,95,35,NA,NA,NA,NA,NA,1,20,"likert"
"5CD8B649981640DC892D4F86CC8C5CFD",1,"0198eced-cec8-7443-89d8-8ce9db9fb599","0198c493-061b-72b6-9f09-7b914e79ecc0","2025-08-27_15h09.17.588",NA,NA,304.3103,304.3105,304.3105,304.6573,NA,NA,NA,NA,NA,NA,NA,TRUE,1,1.2214,301.3179,304.3095,0,20,20,51,1,40,40,NA,NA,NA,NA,NA,1,21,"likert"
"5CD8B649981640DC892D4F86CC8C5CFD",1,"0198eced-cec8-7443-89d8-8ce9db9fb599","0198c493-061b-72b6-9f09-7b914e79ecc0","2025-08-27_15h09.17.588",NA,NA,307.6567,307.6569,307.657,308.0057,NA,NA,NA,NA,NA,NA,NA,TRUE,5,2.1015,304.6598,307.6562,0,21,21,62,1,50,35,NA,NA,NA,NA,NA,1,22,"likert"
"5CD8B649981640DC892D4F86CC8C5CFD",1,"0198eced-cec8-7443-89d8-8ce9db9fb599","0198c493-061b-72b6-9f09-7b914e79ecc0","2025-08-27_15h09.17.588",NA,NA,311.0034,311.0037,311.0038,311.3524,NA,NA,NA,NA,NA,NA,NA,TRUE,5,1.8023,308.0102,311.0029,0,22,22,10,1,10,30,NA,NA,NA,NA,NA,1,23,"likert"
"5CD8B649981640DC892D4F86CC8C5CFD",1,"0198eced-cec8-7443-89d8-8ce9db9fb599","0198c493-061b-72b6-9f09-7b914e79ecc0","2025-08-27_15h09.17.588",NA,NA,314.367,314.3675,314.3677,314.7158,NA,NA,NA,NA,NA,NA,NA,TRUE,1,2.6172,311.3575,314.3665,0,23,23,95,1,150,54,NA,NA,NA,NA,NA,1,24,"likert"
"5CD8B649981640DC892D4F86CC8C5CFD",1,"0198eced-cec8-7443-89d8-8ce9db9fb599","0198c493-061b-72b6-9f09-7b914e79ecc0","2025-08-27_15h09.17.588",NA,NA,317.7135,317.7144,317.7146,318.0623,NA,NA,NA,NA,NA,NA,NA,TRUE,1,2.4694,314.7207,317.7129,0,24,24,19,1,14,26,NA,NA,NA,NA,NA,1,25,"likert"
"5CD8B649981640DC892D4F86CC8C5CFD",1,"0198eced-cec8-7443-89d8-8ce9db9fb599","0198c493-061b-72b6-9f09-7b914e79ecc0","2025-08-27_15h09.17.588",NA,NA,321.0611,321.0614,321.0616,321.4092,NA,NA,NA,NA,NA,NA,NA,TRUE,5,2.4905,318.0663,321.0603,0,25,25,5,1,7,35,NA,NA,NA,NA,NA,1,26,"likert"
"5CD8B649981640DC892D4F86CC8C5CFD",1,"0198eced-cec8-7443-89d8-8ce9db9fb599","0198c493-061b-72b6-9f09-7b914e79ecc0","2025-08-27_15h09.17.588",NA,NA,324.4068,324.407,324.4071,324.7558,NA,NA,NA,NA,NA,NA,NA,TRUE,1,1.6704,321.4137,324.4063,0,26,26,2,1,7,28,NA,NA,NA,NA,NA,1,27,"likert"
"5CD8B649981640DC892D4F86CC8C5CFD",1,"0198eced-cec8-7443-89d8-8ce9db9fb599","0198c493-061b-72b6-9f09-7b914e79ecc0","2025-08-27_15h09.17.588",NA,NA,327.7537,327.7541,327.7542,328.1028,NA,NA,NA,NA,NA,NA,NA,TRUE,1,1.1939,324.7609,327.7531,0,27,27,55,1,45,29,NA,NA,NA,NA,NA,1,28,"likert"
"5CD8B649981640DC892D4F86CC8C5CFD",1,"0198eced-cec8-7443-89d8-8ce9db9fb599","0198c493-061b-72b6-9f09-7b914e79ecc0","2025-08-27_15h09.17.588",NA,NA,331.1175,331.118,331.1183,331.4658,NA,NA,NA,NA,NA,NA,NA,TRUE,1,1.9183,328.1078,331.117,0,28,28,73,1,90,30,NA,NA,NA,NA,NA,1,29,"likert"
"5CD8B649981640DC892D4F86CC8C5CFD",1,"0198eced-cec8-7443-89d8-8ce9db9fb599","0198c493-061b-72b6-9f09-7b914e79ecc0","2025-08-27_15h09.17.588",NA,NA,334.4636,334.4642,334.4643,334.8114,NA,NA,NA,NA,NA,NA,NA,TRUE,1,1.6201,331.4706,334.4632,0,29,29,48,1,40,27,NA,NA,NA,NA,NA,1,30,"likert"
"5CD8B649981640DC892D4F86CC8C5CFD",1,"0198eced-cec8-7443-89d8-8ce9db9fb599","0198c493-061b-72b6-9f09-7b914e79ecc0","2025-08-27_15h09.17.588",NA,NA,337.8103,337.8104,337.8105,338.1596,NA,NA,NA,NA,NA,NA,NA,TRUE,1,2.5667,334.8147,337.8098,0,30,30,79,1,95,33,NA,NA,NA,NA,NA,1,31,"likert"
"5CD8B649981640DC892D4F86CC8C5CFD",1,"0198eced-cec8-7443-89d8-8ce9db9fb599","0198c493-061b-72b6-9f09-7b914e79ecc0","2025-08-27_15h09.17.588",NA,NA,341.1574,341.1577,341.1578,341.5055,NA,NA,NA,NA,NA,NA,NA,TRUE,1,1.4711,338.1648,341.1566,0,31,31,67,1,60,33,NA,NA,NA,NA,NA,1,32,"likert"
"5CD8B649981640DC892D4F86CC8C5CFD",1,"0198eced-cec8-7443-89d8-8ce9db9fb599","0198c493-061b-72b6-9f09-7b914e79ecc0","2025-08-27_15h09.17.588",NA,NA,344.504,344.5042,344.5044,344.8529,NA,NA,NA,NA,NA,NA,NA,TRUE,1,1.2983,341.5105,344.5033,0,32,32,29,1,21,38,NA,NA,NA,NA,NA,1,33,"likert"
"5CD8B649981640DC892D4F86CC8C5CFD",1,"0198eced-cec8-7443-89d8-8ce9db9fb599","0198c493-061b-72b6-9f09-7b914e79ecc0","2025-08-27_15h09.17.588",NA,NA,347.868,347.8684,347.8686,348.215,NA,NA,NA,NA,NA,NA,NA,TRUE,1,2.856,344.8575,347.8671,0,33,33,11,1,10,32,NA,NA,NA,NA,NA,1,34,"likert"
"5CD8B649981640DC892D4F86CC8C5CFD",1,"0198eced-cec8-7443-89d8-8ce9db9fb599","0198c493-061b-72b6-9f09-7b914e79ecc0","2025-08-27_15h09.17.588",NA,NA,351.2135,351.2137,351.214,351.5624,NA,NA,NA,NA,NA,NA,NA,TRUE,1,1.8452,348.2181,351.213,0,34,34,70,1,60,47,NA,NA,NA,NA,NA,1,35,"likert"
"5CD8B649981640DC892D4F86CC8C5CFD",1,"0198eced-cec8-7443-89d8-8ce9db9fb599","0198c493-061b-72b6-9f09-7b914e79ecc0","2025-08-27_15h09.17.588",NA,NA,354.5608,354.561,354.5614,354.9099,NA,NA,NA,NA,NA,NA,NA,TRUE,1,1.7742,351.5674,354.5602,0,35,35,104,1,200,35,NA,NA,NA,NA,NA,1,36,"likert"
"5CD8B649981640DC892D4F86CC8C5CFD",1,"0198eced-cec8-7443-89d8-8ce9db9fb599","0198c493-061b-72b6-9f09-7b914e79ecc0","2025-08-27_15h09.17.588",NA,NA,357.9084,357.9086,357.9086,358.2566,NA,NA,NA,NA,NA,NA,NA,TRUE,1,2.4178,354.9156,357.9073,0,36,36,107,1,200,54,NA,NA,NA,NA,NA,1,37,"likert"
"5CD8B649981640DC892D4F86CC8C5CFD",1,"0198eced-cec8-7443-89d8-8ce9db9fb599","0198c493-061b-72b6-9f09-7b914e79ecc0","2025-08-27_15h09.17.588",NA,NA,361.2542,361.2545,361.2548,361.6031,NA,NA,NA,NA,NA,NA,NA,TRUE,1,2.0096,358.2615,361.2538,0,37,37,61,1,50,30,NA,NA,NA,NA,NA,1,38,"likert"
"5CD8B649981640DC892D4F86CC8C5CFD",1,"0198eced-cec8-7443-89d8-8ce9db9fb599","0198c493-061b-72b6-9f09-7b914e79ecc0","2025-08-27_15h09.17.588",NA,NA,364.601,364.6012,364.6014,364.9655,NA,NA,NA,NA,NA,NA,NA,TRUE,5,2.3273,361.6082,364.6004,0,38,38,3,1,7,30,NA,NA,NA,NA,NA,1,39,"likert"
"5CD8B649981640DC892D4F86CC8C5CFD",1,"0198eced-cec8-7443-89d8-8ce9db9fb599","0198c493-061b-72b6-9f09-7b914e79ecc0","2025-08-27_15h09.17.588",NA,NA,367.963,367.9633,367.9634,368.3131,NA,NA,NA,NA,NA,NA,NA,TRUE,5,1.9311,364.9687,367.9626,0,39,39,18,1,14,25,NA,NA,NA,NA,NA,1,40,"likert"
"5CD8B649981640DC892D4F86CC8C5CFD",1,"0198eced-cec8-7443-89d8-8ce9db9fb599","0198c493-061b-72b6-9f09-7b914e79ecc0","2025-08-27_15h09.17.588",NA,NA,371.311,371.3114,371.3116,371.6596,NA,NA,NA,NA,NA,NA,NA,TRUE,1,1.6983,368.3178,371.3106,0,40,40,87,1,100,39,NA,NA,NA,NA,NA,1,41,"likert"
"5CD8B649981640DC892D4F86CC8C5CFD",1,"0198eced-cec8-7443-89d8-8ce9db9fb599","0198c493-061b-72b6-9f09-7b914e79ecc0","2025-08-27_15h09.17.588",NA,NA,374.6576,374.6584,374.6588,375.0063,NA,NA,NA,NA,NA,NA,NA,TRUE,1,2.1349,371.6647,374.6572,0,41,41,56,1,45,31,NA,NA,NA,NA,NA,1,42,"likert"
"5CD8B649981640DC892D4F86CC8C5CFD",1,"0198eced-cec8-7443-89d8-8ce9db9fb599","0198c493-061b-72b6-9f09-7b914e79ecc0","2025-08-27_15h09.17.588",NA,NA,378.004,378.0043,378.0044,378.3535,NA,NA,NA,NA,NA,NA,NA,TRUE,1,2.94,375.0115,378.0033,0,42,42,35,1,25,46,NA,NA,NA,NA,NA,1,43,"likert"
"5CD8B649981640DC892D4F86CC8C5CFD",1,"0198eced-cec8-7443-89d8-8ce9db9fb599","0198c493-061b-72b6-9f09-7b914e79ecc0","2025-08-27_15h09.17.588",NA,NA,381.3655,381.3657,381.3657,381.7001,NA,NA,NA,NA,NA,NA,NA,TRUE,5,1.8401,378.3585,381.3655,0,43,43,16,1,12,33,NA,NA,NA,NA,NA,1,44,"likert"
"5CD8B649981640DC892D4F86CC8C5CFD",1,"0198eced-cec8-7443-89d8-8ce9db9fb599","0198c493-061b-72b6-9f09-7b914e79ecc0","2025-08-27_15h09.17.588",NA,NA,384.7145,384.7151,384.7152,385.0635,NA,NA,NA,NA,NA,NA,NA,TRUE,5,2.6594,381.7049,384.7141,0,44,44,24,1,21,26,NA,NA,NA,NA,NA,1,45,"likert"
"5CD8B649981640DC892D4F86CC8C5CFD",1,"0198eced-cec8-7443-89d8-8ce9db9fb599","0198c493-061b-72b6-9f09-7b914e79ecc0","2025-08-27_15h09.17.588",NA,NA,388.0612,388.0615,388.0616,388.4096,NA,NA,NA,NA,NA,NA,NA,TRUE,1,1.304,385.0684,388.0607,0,45,45,105,1,200,39,NA,NA,NA,NA,NA,1,46,"likert"
"5CD8B649981640DC892D4F86CC8C5CFD",1,"0198eced-cec8-7443-89d8-8ce9db9fb599","0198c493-061b-72b6-9f09-7b914e79ecc0","2025-08-27_15h09.17.588",NA,NA,391.408,391.4082,391.4086,391.7564,NA,NA,NA,NA,NA,NA,NA,TRUE,5,1.4263,388.4147,391.4071,0,46,46,6,1,10,25,NA,NA,NA,NA,NA,1,47,"likert"
"5CD8B649981640DC892D4F86CC8C5CFD",1,"0198eced-cec8-7443-89d8-8ce9db9fb599","0198c493-061b-72b6-9f09-7b914e79ecc0","2025-08-27_15h09.17.588",NA,NA,394.7548,394.7554,394.7554,395.1036,NA,NA,NA,NA,NA,NA,NA,TRUE,1,1.3439,391.7619,394.754,0,47,47,39,1,28,35,NA,NA,NA,NA,NA,1,48,"likert"
"5CD8B649981640DC892D4F86CC8C5CFD",1,"0198eced-cec8-7443-89d8-8ce9db9fb599","0198c493-061b-72b6-9f09-7b914e79ecc0","2025-08-27_15h09.17.588",NA,NA,398.1016,398.1017,398.1021,398.4498,NA,NA,NA,NA,NA,NA,NA,TRUE,1,1.4231,395.1091,398.1006,0,48,48,41,1,28,46,NA,NA,NA,NA,NA,1,49,"likert"
"5CD8B649981640DC892D4F86CC8C5CFD",1,"0198eced-cec8-7443-89d8-8ce9db9fb599","0198c493-061b-72b6-9f09-7b914e79ecc0","2025-08-27_15h09.17.588",NA,NA,401.4646,401.465,401.4653,401.8133,NA,NA,NA,NA,NA,NA,NA,TRUE,1,1.5432,398.4556,401.4637,0,49,49,57,1,45,35,NA,NA,NA,NA,NA,1,50,"likert"
"5CD8B649981640DC892D4F86CC8C5CFD",1,"0198eced-cec8-7443-89d8-8ce9db9fb599","0198c493-061b-72b6-9f09-7b914e79ecc0","2025-08-27_15h09.17.588",NA,NA,404.8116,404.8122,404.8123,405.1598,NA,NA,NA,NA,NA,NA,NA,TRUE,5,2.1447,401.8187,404.8108,0,50,50,12,1,12,25,NA,NA,NA,NA,NA,1,51,"likert"
"5CD8B649981640DC892D4F86CC8C5CFD",1,"0198eced-cec8-7443-89d8-8ce9db9fb599","0198c493-061b-72b6-9f09-7b914e79ecc0","2025-08-27_15h09.17.588",NA,NA,408.1586,408.1588,408.1588,408.507,NA,NA,NA,NA,NA,NA,NA,TRUE,1,1.7279,405.1661,408.1581,0,51,51,76,1,90,46,NA,NA,NA,NA,NA,1,52,"likert"
"5CD8B649981640DC892D4F86CC8C5CFD",1,"0198eced-cec8-7443-89d8-8ce9db9fb599","0198c493-061b-72b6-9f09-7b914e79ecc0","2025-08-27_15h09.17.588",NA,NA,411.5049,411.5051,411.5053,411.8536,NA,NA,NA,NA,NA,NA,NA,TRUE,1,2.2885,408.5116,411.5042,0,52,52,34,1,25,35,NA,NA,NA,NA,NA,1,53,"likert"
"5CD8B649981640DC892D4F86CC8C5CFD",1,"0198eced-cec8-7443-89d8-8ce9db9fb599","0198c493-061b-72b6-9f09-7b914e79ecc0","2025-08-27_15h09.17.588",NA,NA,414.8514,414.8516,414.8517,415.2156,NA,NA,NA,NA,NA,NA,NA,TRUE,1,1.7141,411.8572,414.8508,0,53,53,97,1,180,31,NA,NA,NA,NA,NA,1,54,"likert"
"5CD8B649981640DC892D4F86CC8C5CFD",1,"0198eced-cec8-7443-89d8-8ce9db9fb599","0198c493-061b-72b6-9f09-7b914e79ecc0","2025-08-27_15h09.17.588",NA,NA,418.2149,418.2156,418.2156,418.564,NA,NA,NA,NA,NA,NA,NA,TRUE,1,2.2161,415.2187,418.2143,0,54,54,28,1,21,32,NA,NA,NA,NA,NA,1,55,"likert"
"5CD8B649981640DC892D4F86CC8C5CFD",1,"0198eced-cec8-7443-89d8-8ce9db9fb599","0198c493-061b-72b6-9f09-7b914e79ecc0","2025-08-27_15h09.17.588",NA,NA,421.5621,421.5624,421.5627,421.9101,NA,NA,NA,NA,NA,NA,NA,TRUE,1,2.0538,418.5688,421.5614,0,55,55,49,1,40,33,NA,NA,NA,NA,NA,1,56,"likert"
"5CD8B649981640DC892D4F86CC8C5CFD",1,"0198eced-cec8-7443-89d8-8ce9db9fb599","0198c493-061b-72b6-9f09-7b914e79ecc0","2025-08-27_15h09.17.588",NA,NA,424.9091,424.9093,424.9095,425.257,NA,NA,NA,NA,NA,NA,NA,TRUE,1,1.4436,421.9156,424.9076,0,56,56,54,1,45,26,NA,NA,NA,NA,NA,1,57,"likert"
"5CD8B649981640DC892D4F86CC8C5CFD",1,"0198eced-cec8-7443-89d8-8ce9db9fb599","0198c493-061b-72b6-9f09-7b914e79ecc0","2025-08-27_15h09.17.588",NA,NA,428.2566,428.2567,428.2569,428.604,NA,NA,NA,NA,NA,NA,NA,TRUE,1,2.0681,425.2624,428.2553,0,57,57,42,1,30,26,NA,NA,NA,NA,NA,1,58,"likert"
"5CD8B649981640DC892D4F86CC8C5CFD",1,"0198eced-cec8-7443-89d8-8ce9db9fb599","0198c493-061b-72b6-9f09-7b914e79ecc0","2025-08-27_15h09.17.588",NA,NA,431.6016,431.6018,431.602,431.9502,NA,NA,NA,NA,NA,NA,NA,TRUE,1,2.8406,428.6094,431.6011,0,58,58,64,1,50,46,NA,NA,NA,NA,NA,1,59,"likert"
"5CD8B649981640DC892D4F86CC8C5CFD",1,"0198eced-cec8-7443-89d8-8ce9db9fb599","0198c493-061b-72b6-9f09-7b914e79ecc0","2025-08-27_15h09.17.588",NA,NA,434.963,434.9631,434.9631,435.3139,NA,NA,NA,NA,NA,NA,NA,TRUE,1,2.4828,431.9539,434.9628,0,59,59,72,1,90,26,NA,NA,NA,NA,NA,1,60,"likert"
"5CD8B649981640DC892D4F86CC8C5CFD",1,"0198eced-cec8-7443-89d8-8ce9db9fb599","0198c493-061b-72b6-9f09-7b914e79ecc0","2025-08-27_15h09.17.588",NA,NA,438.3121,438.3125,438.3128,438.6613,NA,NA,NA,NA,NA,NA,NA,TRUE,5,2.3189,435.3192,438.3116,0,60,60,89,1,100,54,NA,NA,NA,NA,NA,1,61,"likert"
"5CD8B649981640DC892D4F86CC8C5CFD",1,"0198eced-cec8-7443-89d8-8ce9db9fb599","0198c493-061b-72b6-9f09-7b914e79ecc0","2025-08-27_15h09.17.588",NA,NA,441.6599,441.66,441.6602,442.0071,NA,NA,NA,NA,NA,NA,NA,TRUE,5,2.5192,438.6663,441.6589,0,61,61,46,1,30,32,NA,NA,NA,NA,NA,1,62,"likert"
"5CD8B649981640DC892D4F86CC8C5CFD",1,"0198eced-cec8-7443-89d8-8ce9db9fb599","0198c493-061b-72b6-9f09-7b914e79ecc0","2025-08-27_15h09.17.588",NA,NA,445.0051,445.0054,445.0056,445.3542,NA,NA,NA,NA,NA,NA,NA,TRUE,5,1.9861,442.0123,445.0045,0,62,62,69,1,60,40,NA,NA,NA,NA,NA,1,63,"likert"
"5CD8B649981640DC892D4F86CC8C5CFD",1,"0198eced-cec8-7443-89d8-8ce9db9fb599","0198c493-061b-72b6-9f09-7b914e79ecc0","2025-08-27_15h09.17.588",NA,NA,448.3509,448.351,448.3512,448.7008,NA,NA,NA,NA,NA,NA,NA,TRUE,1,1.4264,445.3593,448.3506,0,63,63,93,1,150,40,NA,NA,NA,NA,NA,1,64,"likert"
"5CD8B649981640DC892D4F86CC8C5CFD",1,"0198eced-cec8-7443-89d8-8ce9db9fb599","0198c493-061b-72b6-9f09-7b914e79ecc0","2025-08-27_15h09.17.588",NA,NA,451.7155,451.716,451.7162,452.0638,NA,NA,NA,NA,NA,NA,NA,TRUE,5,2.4798,448.7057,451.7147,0,64,64,20,1,14,28,NA,NA,NA,NA,NA,1,65,"likert"
"5CD8B649981640DC892D4F86CC8C5CFD",1,"0198eced-cec8-7443-89d8-8ce9db9fb599","0198c493-061b-72b6-9f09-7b914e79ecc0","2025-08-27_15h09.17.588",NA,NA,455.0624,455.0627,455.0629,455.4117,NA,NA,NA,NA,NA,NA,NA,TRUE,1,1.4318,452.0692,455.0619,0,65,65,74,1,90,33,NA,NA,NA,NA,NA,1,66,"likert"
"5CD8B649981640DC892D4F86CC8C5CFD",1,"0198eced-cec8-7443-89d8-8ce9db9fb599","0198c493-061b-72b6-9f09-7b914e79ecc0","2025-08-27_15h09.17.588",NA,NA,458.409,458.4091,458.4093,458.7579,NA,NA,NA,NA,NA,NA,NA,TRUE,1,1.2355,455.4162,458.4085,0,66,66,71,1,60,54,NA,NA,NA,NA,NA,1,67,"likert"
"5CD8B649981640DC892D4F86CC8C5CFD",1,"0198eced-cec8-7443-89d8-8ce9db9fb599","0198c493-061b-72b6-9f09-7b914e79ecc0","2025-08-27_15h09.17.588",NA,NA,461.7555,461.7557,461.7558,462.1045,NA,NA,NA,NA,NA,NA,NA,TRUE,1,1.4868,458.7628,461.755,0,67,67,78,1,95,31,NA,NA,NA,NA,NA,1,68,"likert"
"5CD8B649981640DC892D4F86CC8C5CFD",1,"0198eced-cec8-7443-89d8-8ce9db9fb599","0198c493-061b-72b6-9f09-7b914e79ecc0","2025-08-27_15h09.17.588",NA,NA,465.1009,465.1009,465.101,465.451,NA,NA,NA,NA,NA,NA,NA,TRUE,1,1.4433,462.1093,465.1006,0,68,68,21,1,14,32,NA,NA,NA,NA,NA,1,69,"likert"
"5CD8B649981640DC892D4F86CC8C5CFD",1,"0198eced-cec8-7443-89d8-8ce9db9fb599","0198c493-061b-72b6-9f09-7b914e79ecc0","2025-08-27_15h09.17.588",NA,NA,468.4657,468.4661,468.4664,468.8142,NA,NA,NA,NA,NA,NA,NA,TRUE,1,1.4956,465.4555,468.4652,0,69,69,59,1,45,46,NA,NA,NA,NA,NA,1,70,"likert"
"5CD8B649981640DC892D4F86CC8C5CFD",1,"0198eced-cec8-7443-89d8-8ce9db9fb599","0198c493-061b-72b6-9f09-7b914e79ecc0","2025-08-27_15h09.17.588",NA,NA,471.815,471.8153,471.8154,472.1653,NA,NA,NA,NA,NA,NA,NA,TRUE,1,1.6702,468.8191,471.8143,0,70,70,100,1,180,46,NA,NA,NA,NA,NA,1,71,"likert"
"5CD8B649981640DC892D4F86CC8C5CFD",1,"0198eced-cec8-7443-89d8-8ce9db9fb599","0198c493-061b-72b6-9f09-7b914e79ecc0","2025-08-27_15h09.17.588",NA,NA,475.1593,475.1594,475.1595,475.5081,NA,NA,NA,NA,NA,NA,NA,TRUE,5,2.3725,472.1694,475.1588,0,71,71,38,1,28,32,NA,NA,NA,NA,NA,1,72,"likert"
"5CD8B649981640DC892D4F86CC8C5CFD",1,"0198eced-cec8-7443-89d8-8ce9db9fb599","0198c493-061b-72b6-9f09-7b914e79ecc0","2025-08-27_15h09.17.588",NA,NA,478.5062,478.5064,478.5067,478.8546,NA,NA,NA,NA,NA,NA,NA,TRUE,1,1.5701,475.5138,478.5053,0,72,72,66,1,60,29,NA,NA,NA,NA,NA,1,73,"likert"
"5CD8B649981640DC892D4F86CC8C5CFD",1,"0198eced-cec8-7443-89d8-8ce9db9fb599","0198c493-061b-72b6-9f09-7b914e79ecc0","2025-08-27_15h09.17.588",NA,NA,481.8524,481.8526,481.8527,482.2017,NA,NA,NA,NA,NA,NA,NA,TRUE,5,1.5009,478.8595,481.852,0,73,73,22,1,14,35,NA,NA,NA,NA,NA,1,74,"likert"
"5CD8B649981640DC892D4F86CC8C5CFD",1,"0198eced-cec8-7443-89d8-8ce9db9fb599","0198c493-061b-72b6-9f09-7b914e79ecc0","2025-08-27_15h09.17.588",NA,NA,485.2159,485.2161,485.2165,485.5653,NA,NA,NA,NA,NA,NA,NA,TRUE,1,1.727,482.207,485.215,0,74,74,90,1,150,31,NA,NA,NA,NA,NA,1,75,"likert"
"5CD8B649981640DC892D4F86CC8C5CFD",1,"0198eced-cec8-7443-89d8-8ce9db9fb599","0198c493-061b-72b6-9f09-7b914e79ecc0","2025-08-27_15h09.17.588",NA,NA,488.5646,488.5649,488.5652,488.9132,NA,NA,NA,NA,NA,NA,NA,TRUE,5,1.5045,485.57,488.5641,0,75,75,17,1,12,35,NA,NA,NA,NA,NA,1,76,"likert"
"5CD8B649981640DC892D4F86CC8C5CFD",1,"0198eced-cec8-7443-89d8-8ce9db9fb599","0198c493-061b-72b6-9f09-7b914e79ecc0","2025-08-27_15h09.17.588",NA,NA,491.9151,491.9153,491.9154,492.2636,NA,NA,NA,NA,NA,NA,NA,TRUE,5,1.7482,488.918,491.9146,0,76,76,37,1,28,28,NA,NA,NA,NA,NA,1,77,"likert"
"5CD8B649981640DC892D4F86CC8C5CFD",1,"0198eced-cec8-7443-89d8-8ce9db9fb599","0198c493-061b-72b6-9f09-7b914e79ecc0","2025-08-27_15h09.17.588",NA,NA,495.2561,495.2562,495.2565,495.6049,NA,NA,NA,NA,NA,NA,NA,TRUE,5,1.6972,492.2674,495.2555,0,77,77,25,1,21,27,NA,NA,NA,NA,NA,1,78,"likert"
"5CD8B649981640DC892D4F86CC8C5CFD",1,"0198eced-cec8-7443-89d8-8ce9db9fb599","0198c493-061b-72b6-9f09-7b914e79ecc0","2025-08-27_15h09.17.588",NA,NA,498.6028,498.6029,498.603,498.9521,NA,NA,NA,NA,NA,NA,NA,TRUE,1,1.6762,495.6089,498.6022,0,78,78,88,1,100,46,NA,NA,NA,NA,NA,1,79,"likert"
"5CD8B649981640DC892D4F86CC8C5CFD",1,"0198eced-cec8-7443-89d8-8ce9db9fb599","0198c493-061b-72b6-9f09-7b914e79ecc0","2025-08-27_15h09.17.588",NA,NA,501.9677,501.9681,501.9682,502.3155,NA,NA,NA,NA,NA,NA,NA,TRUE,5,2.0168,498.9573,501.9668,0,79,79,4,1,7,32,NA,NA,NA,NA,NA,1,80,"likert"
"5CD8B649981640DC892D4F86CC8C5CFD",1,"0198eced-cec8-7443-89d8-8ce9db9fb599","0198c493-061b-72b6-9f09-7b914e79ecc0","2025-08-27_15h09.17.588",NA,NA,505.3131,505.3135,505.3138,505.6621,NA,NA,NA,NA,NA,NA,NA,TRUE,1,1.8203,502.3206,505.3124,0,80,80,36,1,28,26,NA,NA,NA,NA,NA,1,81,"likert"
"5CD8B649981640DC892D4F86CC8C5CFD",1,"0198eced-cec8-7443-89d8-8ce9db9fb599","0198c493-061b-72b6-9f09-7b914e79ecc0","2025-08-27_15h09.17.588",NA,NA,508.6602,508.6605,508.6608,509.0096,NA,NA,NA,NA,NA,NA,NA,TRUE,1,2.587,505.667,508.6597,0,81,81,63,1,50,40,NA,NA,NA,NA,NA,1,82,"likert"
"5CD8B649981640DC892D4F86CC8C5CFD",1,"0198eced-cec8-7443-89d8-8ce9db9fb599","0198c493-061b-72b6-9f09-7b914e79ecc0","2025-08-27_15h09.17.588",NA,NA,512.0061,512.0063,512.0064,512.3536,NA,NA,NA,NA,NA,NA,NA,TRUE,1,1.4029,509.0141,512.0054,0,82,82,81,1,95,40,NA,NA,NA,NA,NA,1,83,"likert"
"5CD8B649981640DC892D4F86CC8C5CFD",1,"0198eced-cec8-7443-89d8-8ce9db9fb599","0198c493-061b-72b6-9f09-7b914e79ecc0","2025-08-27_15h09.17.588",NA,NA,515.3536,515.3539,515.354,515.7008,NA,NA,NA,NA,NA,NA,NA,TRUE,5,2.3501,512.3566,515.353,0,83,83,44,1,30,29,NA,NA,NA,NA,NA,1,84,"likert"
"5CD8B649981640DC892D4F86CC8C5CFD",1,"0198eced-cec8-7443-89d8-8ce9db9fb599","0198c493-061b-72b6-9f09-7b914e79ecc0","2025-08-27_15h09.17.588",NA,NA,518.7161,518.7165,518.7166,519.0648,NA,NA,NA,NA,NA,NA,NA,TRUE,5,1.4474,515.7047,518.7156,0,84,84,30,1,25,27,NA,NA,NA,NA,NA,1,85,"likert"
"5CD8B649981640DC892D4F86CC8C5CFD",1,"0198eced-cec8-7443-89d8-8ce9db9fb599","0198c493-061b-72b6-9f09-7b914e79ecc0","2025-08-27_15h09.17.588",NA,NA,522.0631,522.0637,522.0638,522.4108,NA,NA,NA,NA,NA,NA,NA,TRUE,1,1.3689,519.0685,522.0625,0,85,85,82,1,95,47,NA,NA,NA,NA,NA,1,86,"likert"
"5CD8B649981640DC892D4F86CC8C5CFD",1,"0198eced-cec8-7443-89d8-8ce9db9fb599","0198c493-061b-72b6-9f09-7b914e79ecc0","2025-08-27_15h09.17.588",NA,NA,525.4144,525.4146,525.4147,525.7641,NA,NA,NA,NA,NA,NA,NA,TRUE,1,1.239,522.414,525.4139,0,86,86,102,1,200,26,NA,NA,NA,NA,NA,1,87,"likert"
"5CD8B649981640DC892D4F86CC8C5CFD",1,"0198eced-cec8-7443-89d8-8ce9db9fb599","0198c493-061b-72b6-9f09-7b914e79ecc0","2025-08-27_15h09.17.588",NA,NA,528.7651,528.7653,528.7653,529.1113,NA,NA,NA,NA,NA,NA,NA,TRUE,5,1.5946,525.768,528.7648,0,87,87,8,1,10,27,NA,NA,NA,NA,NA,1,88,"likert"
"5CD8B649981640DC892D4F86CC8C5CFD",1,"0198eced-cec8-7443-89d8-8ce9db9fb599","0198c493-061b-72b6-9f09-7b914e79ecc0","2025-08-27_15h09.17.588",NA,NA,532.1097,532.1098,532.11,532.4571,NA,NA,NA,NA,NA,NA,NA,TRUE,5,1.66,529.1147,532.1093,0,88,88,14,1,12,28,NA,NA,NA,NA,NA,1,89,"likert"
"5CD8B649981640DC892D4F86CC8C5CFD",1,"0198eced-cec8-7443-89d8-8ce9db9fb599","0198c493-061b-72b6-9f09-7b914e79ecc0","2025-08-27_15h09.17.588",NA,NA,535.4561,535.4561,535.4563,535.8046,NA,NA,NA,NA,NA,NA,NA,TRUE,5,1.5814,532.4612,535.4556,0,89,89,9,1,10,29,NA,NA,NA,NA,NA,1,90,"likert"
"5CD8B649981640DC892D4F86CC8C5CFD",1,"0198eced-cec8-7443-89d8-8ce9db9fb599","0198c493-061b-72b6-9f09-7b914e79ecc0","2025-08-27_15h09.17.588",NA,NA,538.8021,538.8022,538.8023,539.1516,NA,NA,NA,NA,NA,NA,NA,TRUE,1,1.3161,535.8085,538.8017,0,90,90,75,1,90,40,NA,NA,NA,NA,NA,1,91,"likert"
"5CD8B649981640DC892D4F86CC8C5CFD",1,"0198eced-cec8-7443-89d8-8ce9db9fb599","0198c493-061b-72b6-9f09-7b914e79ecc0","2025-08-27_15h09.17.588",NA,NA,542.1648,542.165,542.1651,542.5125,NA,NA,NA,NA,NA,NA,NA,TRUE,1,1.5802,539.1555,542.1643,0,91,91,65,1,50,54,NA,NA,NA,NA,NA,1,92,"likert"
"5CD8B649981640DC892D4F86CC8C5CFD",1,"0198eced-cec8-7443-89d8-8ce9db9fb599","0198c493-061b-72b6-9f09-7b914e79ecc0","2025-08-27_15h09.17.588",NA,NA,545.5114,545.5115,545.5117,545.8616,NA,NA,NA,NA,NA,NA,NA,TRUE,1,1.3879,542.5134,545.511,0,92,92,103,1,200,28,NA,NA,NA,NA,NA,1,93,"likert"
"5CD8B649981640DC892D4F86CC8C5CFD",1,"0198eced-cec8-7443-89d8-8ce9db9fb599","0198c493-061b-72b6-9f09-7b914e79ecc0","2025-08-27_15h09.17.588",NA,NA,548.8535,548.8538,548.8539,549.2032,NA,NA,NA,NA,NA,NA,NA,TRUE,1,1.5579,545.8654,548.853,0,93,93,96,1,180,27,NA,NA,NA,NA,NA,1,94,"likert"
"5CD8B649981640DC892D4F86CC8C5CFD",1,"0198eced-cec8-7443-89d8-8ce9db9fb599","0198c493-061b-72b6-9f09-7b914e79ecc0","2025-08-27_15h09.17.588",NA,NA,552.2171,552.2177,552.2177,552.5659,NA,NA,NA,NA,NA,NA,NA,TRUE,1,1.449,549.2077,552.2164,0,94,94,94,1,150,47,NA,NA,NA,NA,NA,1,95,"likert"
"5CD8B649981640DC892D4F86CC8C5CFD",1,"0198eced-cec8-7443-89d8-8ce9db9fb599","0198c493-061b-72b6-9f09-7b914e79ecc0","2025-08-27_15h09.17.588",NA,NA,555.5637,555.5644,555.5645,555.9121,NA,NA,NA,NA,NA,NA,NA,TRUE,5,1.6667,552.5709,555.5631,0,95,95,7,1,10,26,NA,NA,NA,NA,NA,1,96,"likert"
"5CD8B649981640DC892D4F86CC8C5CFD",1,"0198eced-cec8-7443-89d8-8ce9db9fb599","0198c493-061b-72b6-9f09-7b914e79ecc0","2025-08-27_15h09.17.588",NA,NA,558.9107,558.9108,558.9109,559.2588,NA,NA,NA,NA,NA,NA,NA,TRUE,5,1.9515,555.9177,558.91,0,96,96,32,1,25,31,NA,NA,NA,NA,NA,1,97,"likert"
"5CD8B649981640DC892D4F86CC8C5CFD",1,"0198eced-cec8-7443-89d8-8ce9db9fb599","0198c493-061b-72b6-9f09-7b914e79ecc0","2025-08-27_15h09.17.588",NA,NA,562.2571,562.2572,562.2576,562.6063,NA,NA,NA,NA,NA,NA,NA,TRUE,1,1.8676,559.2638,562.2564,0,97,97,84,1,100,26,NA,NA,NA,NA,NA,1,98,"likert"
"5CD8B649981640DC892D4F86CC8C5CFD",1,"0198eced-cec8-7443-89d8-8ce9db9fb599","0198c493-061b-72b6-9f09-7b914e79ecc0","2025-08-27_15h09.17.588",NA,NA,565.6039,565.6039,565.6043,565.9524,NA,NA,NA,NA,NA,NA,NA,TRUE,5,2.899,562.6111,565.6032,0,98,98,1,1,7,26,NA,NA,NA,NA,NA,1,99,"likert"
"5CD8B649981640DC892D4F86CC8C5CFD",1,"0198eced-cec8-7443-89d8-8ce9db9fb599","0198c493-061b-72b6-9f09-7b914e79ecc0","2025-08-27_15h09.17.588",NA,NA,568.9672,568.9678,568.968,569.3159,NA,NA,NA,NA,NA,NA,NA,TRUE,5,2.1683,565.9565,568.9667,0,99,99,52,1,40,47,NA,NA,NA,NA,NA,1,100,"likert"
"5CD8B649981640DC892D4F86CC8C5CFD",1,"0198eced-cec8-7443-89d8-8ce9db9fb599","0198c493-061b-72b6-9f09-7b914e79ecc0","2025-08-27_15h09.17.588",NA,NA,572.3139,572.3143,572.3147,572.663,NA,NA,NA,NA,NA,NA,NA,TRUE,1,1.4452,569.3205,572.3133,0,100,100,50,1,40,35,NA,NA,NA,NA,NA,1,101,"likert"
"5CD8B649981640DC892D4F86CC8C5CFD",1,"0198eced-cec8-7443-89d8-8ce9db9fb599","0198c493-061b-72b6-9f09-7b914e79ecc0","2025-08-27_15h09.17.588",NA,NA,575.6611,575.6615,575.6615,576.0093,NA,NA,NA,NA,NA,NA,NA,TRUE,1,2.773,572.6685,575.6606,0,101,101,33,1,25,33,NA,NA,NA,NA,NA,1,102,"likert"
"5CD8B649981640DC892D4F86CC8C5CFD",1,"0198eced-cec8-7443-89d8-8ce9db9fb599","0198c493-061b-72b6-9f09-7b914e79ecc0","2025-08-27_15h09.17.588",NA,NA,579.0069,579.0072,579.0073,579.3545,NA,NA,NA,NA,NA,NA,NA,TRUE,1,1.4038,576.0147,579.0063,0,102,102,101,1,180,54,NA,NA,NA,NA,NA,1,103,"likert"
"5CD8B649981640DC892D4F86CC8C5CFD",1,"0198eced-cec8-7443-89d8-8ce9db9fb599","0198c493-061b-72b6-9f09-7b914e79ecc0","2025-08-27_15h09.17.588",NA,NA,582.352,582.3521,582.3522,582.7026,NA,NA,NA,NA,NA,NA,NA,TRUE,5,1.9428,579.357,582.3518,0,103,103,47,1,30,38,NA,NA,NA,NA,NA,1,104,"likert"
"5CD8B649981640DC892D4F86CC8C5CFD",1,"0198eced-cec8-7443-89d8-8ce9db9fb599","0198c493-061b-72b6-9f09-7b914e79ecc0","2025-08-27_15h09.17.588",NA,NA,585.7178,585.7183,585.7185,586.067,NA,NA,NA,NA,NA,NA,NA,TRUE,5,1.6372,582.7072,585.7171,0,104,104,40,1,28,39,NA,NA,NA,NA,NA,1,105,"likert"
"5CD8B649981640DC892D4F86CC8C5CFD",1,"0198eced-cec8-7443-89d8-8ce9db9fb599","0198c493-061b-72b6-9f09-7b914e79ecc0","2025-08-27_15h09.17.588",NA,NA,589.0648,589.0654,589.0655,589.4132,NA,NA,NA,NA,NA,NA,NA,TRUE,1,1.8342,586.0728,589.0637,0,105,105,43,1,30,27,NA,NA,NA,NA,NA,1,106,"likert"
"5CD8B649981640DC892D4F86CC8C5CFD",1,"0198eced-cec8-7443-89d8-8ce9db9fb599","0198c493-061b-72b6-9f09-7b914e79ecc0","2025-08-27_15h09.17.588",NA,NA,592.411,592.4113,592.4113,592.7599,NA,NA,NA,NA,NA,NA,NA,TRUE,1,2.0217,589.418,592.4104,0,106,106,92,1,150,35,NA,NA,NA,NA,NA,1,107,"likert"
"5CD8B649981640DC892D4F86CC8C5CFD",1,"0198eced-cec8-7443-89d8-8ce9db9fb599","0198c493-061b-72b6-9f09-7b914e79ecc0","2025-08-27_15h09.17.588",NA,NA,595.758,595.7586,595.7586,596.1063,NA,NA,NA,NA,NA,NA,NA,TRUE,5,1.8535,592.7645,595.7573,0,107,107,15,1,12,31,NA,NA,NA,NA,NA,1,108,"likert"
"5CD8B649981640DC892D4F86CC8C5CFD",1,"0198eced-cec8-7443-89d8-8ce9db9fb599","0198c493-061b-72b6-9f09-7b914e79ecc0","2025-08-27_15h09.17.588",NA,NA,629.8904,629.8905,629.8907,630.2396,NA,NA,NA,NA,NA,NA,NA,TRUE,1,2.3585,626.9855,629.8897,NA,NA,NA,NA,NA,150,47,0,0,0,94,1,2,1,"likert"
"5CD8B649981640DC892D4F86CC8C5CFD",1,"0198eced-cec8-7443-89d8-8ce9db9fb599","0198c493-061b-72b6-9f09-7b914e79ecc0","2025-08-27_15h09.17.588",NA,NA,633.2364,633.2368,633.237,633.5847,NA,NA,NA,NA,NA,NA,NA,TRUE,5,2.565,630.245,633.2356,NA,NA,NA,NA,NA,21,32,0,1,1,28,1,2,2,"likert"
"5CD8B649981640DC892D4F86CC8C5CFD",1,"0198eced-cec8-7443-89d8-8ce9db9fb599","0198c493-061b-72b6-9f09-7b914e79ecc0","2025-08-27_15h09.17.588",NA,NA,636.5823,636.5823,636.5825,636.948,NA,NA,NA,NA,NA,NA,NA,TRUE,1,1.3325,633.5878,636.5819,NA,NA,NA,NA,NA,200,47,0,2,2,106,1,2,3,"likert"
"5CD8B649981640DC892D4F86CC8C5CFD",1,"0198eced-cec8-7443-89d8-8ce9db9fb599","0198c493-061b-72b6-9f09-7b914e79ecc0","2025-08-27_15h09.17.588",NA,NA,639.9482,640.1966,640.1971,640.2959,NA,NA,NA,NA,NA,NA,NA,FALSE,NA,NA,636.9515,639.9479,NA,NA,NA,NA,NA,40,47,0,3,3,52,1,2,4,"likert"
"5CD8B649981640DC892D4F86CC8C5CFD",1,"0198eced-cec8-7443-89d8-8ce9db9fb599","0198c493-061b-72b6-9f09-7b914e79ecc0","2025-08-27_15h09.17.588",NA,NA,643.2947,643.2953,643.2955,643.644,NA,NA,NA,NA,NA,NA,NA,TRUE,5,1.5155,640.3013,643.2943,NA,NA,NA,NA,NA,10,25,0,4,4,6,1,2,5,"likert"
"5CD8B649981640DC892D4F86CC8C5CFD",1,"0198eced-cec8-7443-89d8-8ce9db9fb599","0198c493-061b-72b6-9f09-7b914e79ecc0","2025-08-27_15h09.17.588",NA,NA,646.6417,646.6418,646.6421,646.9901,NA,NA,NA,NA,NA,NA,NA,TRUE,5,1.52,643.6483,646.6409,NA,NA,NA,NA,NA,7,32,0,5,5,4,1,2,6,"likert"
"5CD8B649981640DC892D4F86CC8C5CFD",1,"0198eced-cec8-7443-89d8-8ce9db9fb599","0198c493-061b-72b6-9f09-7b914e79ecc0","2025-08-27_15h09.17.588",NA,NA,649.9879,649.988,649.9881,650.3365,NA,NA,NA,NA,NA,NA,NA,TRUE,5,1.4994,646.995,649.9872,NA,NA,NA,NA,NA,10,32,0,6,6,11,1,2,7,"likert"
"5CD8B649981640DC892D4F86CC8C5CFD",1,"0198eced-cec8-7443-89d8-8ce9db9fb599","0198c493-061b-72b6-9f09-7b914e79ecc0","2025-08-27_15h09.17.588",NA,NA,653.3345,653.3346,653.3347,653.6831,NA,NA,NA,NA,NA,NA,NA,TRUE,5,1.4186,650.3415,653.334,NA,NA,NA,NA,NA,25,29,0,7,7,31,1,2,8,"likert"
"5CD8B649981640DC892D4F86CC8C5CFD",1,"0198eced-cec8-7443-89d8-8ce9db9fb599","0198c493-061b-72b6-9f09-7b914e79ecc0","2025-08-27_15h09.17.588",NA,NA,656.6883,656.6885,656.6886,657.0349,NA,NA,NA,NA,NA,NA,NA,TRUE,5,1.2987,653.6883,656.6878,NA,NA,NA,NA,NA,25,31,0,8,8,32,1,2,9,"likert"
"5CD8B649981640DC892D4F86CC8C5CFD",1,"0198eced-cec8-7443-89d8-8ce9db9fb599","0198c493-061b-72b6-9f09-7b914e79ecc0","2025-08-27_15h09.17.588",NA,NA,660.0445,660.0452,660.0452,660.3937,NA,NA,NA,NA,NA,NA,NA,TRUE,1,1.6076,657.0391,660.0441,NA,NA,NA,NA,NA,95,47,0,9,9,82,1,2,10,"likert"
"5CD8B649981640DC892D4F86CC8C5CFD",1,"0198eced-cec8-7443-89d8-8ce9db9fb599","0198c493-061b-72b6-9f09-7b914e79ecc0","2025-08-27_15h09.17.588",NA,NA,663.3893,663.3894,663.3894,663.74,NA,NA,NA,NA,NA,NA,NA,TRUE,1,1.3236,660.3985,663.3888,NA,NA,NA,NA,NA,100,38,0,10,10,86,1,2,11,"likert"
"5CD8B649981640DC892D4F86CC8C5CFD",1,"0198eced-cec8-7443-89d8-8ce9db9fb599","0198c493-061b-72b6-9f09-7b914e79ecc0","2025-08-27_15h09.17.588",NA,NA,666.7381,666.7385,666.7385,667.0858,NA,NA,NA,NA,NA,NA,NA,TRUE,1,1.3017,663.7443,666.7374,NA,NA,NA,NA,NA,30,27,0,11,11,43,1,2,12,"likert"
"5CD8B649981640DC892D4F86CC8C5CFD",1,"0198eced-cec8-7443-89d8-8ce9db9fb599","0198c493-061b-72b6-9f09-7b914e79ecc0","2025-08-27_15h09.17.588",NA,NA,670.0828,670.0828,670.0829,670.4331,NA,NA,NA,NA,NA,NA,NA,TRUE,5,2.4973,667.0896,670.0825,NA,NA,NA,NA,NA,7,35,0,12,12,5,1,2,13,"likert"
"5CD8B649981640DC892D4F86CC8C5CFD",1,"0198eced-cec8-7443-89d8-8ce9db9fb599","0198c493-061b-72b6-9f09-7b914e79ecc0","2025-08-27_15h09.17.588",NA,NA,673.4483,673.4486,673.4487,673.7967,NA,NA,NA,NA,NA,NA,NA,TRUE,1,1.8445,670.4369,673.4477,NA,NA,NA,NA,NA,50,40,0,13,13,63,1,2,14,"likert"
"5CD8B649981640DC892D4F86CC8C5CFD",1,"0198eced-cec8-7443-89d8-8ce9db9fb599","0198c493-061b-72b6-9f09-7b914e79ecc0","2025-08-27_15h09.17.588",NA,NA,676.7927,676.7927,676.7927,677.1424,NA,NA,NA,NA,NA,NA,NA,TRUE,5,2.0891,673.8021,676.7926,NA,NA,NA,NA,NA,14,25,0,14,14,18,1,2,15,"likert"
"5CD8B649981640DC892D4F86CC8C5CFD",1,"0198eced-cec8-7443-89d8-8ce9db9fb599","0198c493-061b-72b6-9f09-7b914e79ecc0","2025-08-27_15h09.17.588",NA,NA,680.1397,680.1397,680.1398,680.4906,NA,NA,NA,NA,NA,NA,NA,TRUE,1,1.8151,677.1454,680.1395,NA,NA,NA,NA,NA,45,31,0,15,15,56,1,2,16,"likert"
"5CD8B649981640DC892D4F86CC8C5CFD",1,"0198eced-cec8-7443-89d8-8ce9db9fb599","0198c493-061b-72b6-9f09-7b914e79ecc0","2025-08-27_15h09.17.588",NA,NA,683.4887,683.4889,683.489,683.8361,NA,NA,NA,NA,NA,NA,NA,TRUE,1,2.3218,680.4958,683.4878,NA,NA,NA,NA,NA,180,54,0,16,16,101,1,2,17,"likert"
"5CD8B649981640DC892D4F86CC8C5CFD",1,"0198eced-cec8-7443-89d8-8ce9db9fb599","0198c493-061b-72b6-9f09-7b914e79ecc0","2025-08-27_15h09.17.588",NA,NA,686.8328,686.833,686.833,687.1838,NA,NA,NA,NA,NA,NA,NA,TRUE,1,1.1864,683.8393,686.8327,NA,NA,NA,NA,NA,150,35,0,17,17,92,1,2,18,"likert"
"5CD8B649981640DC892D4F86CC8C5CFD",1,"0198eced-cec8-7443-89d8-8ce9db9fb599","0198c493-061b-72b6-9f09-7b914e79ecc0","2025-08-27_15h09.17.588",NA,NA,690.1965,690.1966,690.1967,690.5474,NA,NA,NA,NA,NA,NA,NA,TRUE,5,2.0077,687.1891,690.1962,NA,NA,NA,NA,NA,25,35,0,18,18,34,1,2,19,"likert"
"5CD8B649981640DC892D4F86CC8C5CFD",1,"0198eced-cec8-7443-89d8-8ce9db9fb599","0198c493-061b-72b6-9f09-7b914e79ecc0","2025-08-27_15h09.17.588",NA,NA,693.5453,693.5461,693.5463,693.8939,NA,NA,NA,NA,NA,NA,NA,TRUE,1,1.3706,690.5521,693.5446,NA,NA,NA,NA,NA,50,54,0,19,19,65,1,2,20,"likert"
"5CD8B649981640DC892D4F86CC8C5CFD",1,"0198eced-cec8-7443-89d8-8ce9db9fb599","0198c493-061b-72b6-9f09-7b914e79ecc0","2025-08-27_15h09.17.588",NA,NA,696.8917,696.8918,696.8919,697.2403,NA,NA,NA,NA,NA,NA,NA,TRUE,5,1.6363,693.8989,696.8911,NA,NA,NA,NA,NA,14,28,0,20,20,20,1,2,21,"likert"
"5CD8B649981640DC892D4F86CC8C5CFD",1,"0198eced-cec8-7443-89d8-8ce9db9fb599","0198c493-061b-72b6-9f09-7b914e79ecc0","2025-08-27_15h09.17.588",NA,NA,700.2387,700.2389,700.239,700.5871,NA,NA,NA,NA,NA,NA,NA,TRUE,5,1.4053,697.2443,700.2383,NA,NA,NA,NA,NA,14,26,0,21,21,19,1,2,22,"likert"
"5CD8B649981640DC892D4F86CC8C5CFD",1,"0198eced-cec8-7443-89d8-8ce9db9fb599","0198c493-061b-72b6-9f09-7b914e79ecc0","2025-08-27_15h09.17.588",NA,NA,703.5841,703.5844,703.5844,703.9339,NA,NA,NA,NA,NA,NA,NA,TRUE,1,1.3473,700.5921,703.5838,NA,NA,NA,NA,NA,60,35,0,22,22,68,1,2,23,"likert"
"5CD8B649981640DC892D4F86CC8C5CFD",1,"0198eced-cec8-7443-89d8-8ce9db9fb599","0198c493-061b-72b6-9f09-7b914e79ecc0","2025-08-27_15h09.17.588",NA,NA,706.9471,706.9472,706.9473,707.2972,NA,NA,NA,NA,NA,NA,NA,TRUE,5,2.358,703.9391,706.9468,NA,NA,NA,NA,NA,30,38,0,23,23,47,1,2,24,"likert"
"5CD8B649981640DC892D4F86CC8C5CFD",1,"0198eced-cec8-7443-89d8-8ce9db9fb599","0198c493-061b-72b6-9f09-7b914e79ecc0","2025-08-27_15h09.17.588",NA,NA,710.2953,710.2957,710.2958,710.644,NA,NA,NA,NA,NA,NA,NA,TRUE,1,1.5432,707.3026,710.2947,NA,NA,NA,NA,NA,90,54,0,24,24,77,1,2,25,"likert"
"5CD8B649981640DC892D4F86CC8C5CFD",1,"0198eced-cec8-7443-89d8-8ce9db9fb599","0198c493-061b-72b6-9f09-7b914e79ecc0","2025-08-27_15h09.17.588",NA,NA,713.642,713.6422,713.6426,713.9893,NA,NA,NA,NA,NA,NA,NA,TRUE,5,2.091,710.649,713.6416,NA,NA,NA,NA,NA,28,28,0,25,25,37,1,2,26,"likert"
"5CD8B649981640DC892D4F86CC8C5CFD",1,"0198eced-cec8-7443-89d8-8ce9db9fb599","0198c493-061b-72b6-9f09-7b914e79ecc0","2025-08-27_15h09.17.588",NA,NA,716.9894,717.2379,717.2381,717.3375,NA,NA,NA,NA,NA,NA,NA,FALSE,NA,NA,713.9921,716.9888,NA,NA,NA,NA,NA,14,35,0,26,26,22,1,2,27,"likert"
"5CD8B649981640DC892D4F86CC8C5CFD",1,"0198eced-cec8-7443-89d8-8ce9db9fb599","0198c493-061b-72b6-9f09-7b914e79ecc0","2025-08-27_15h09.17.588",NA,NA,720.336,720.3362,720.3363,720.683,NA,NA,NA,NA,NA,NA,NA,TRUE,5,1.8226,717.3436,720.3347,NA,NA,NA,NA,NA,30,26,0,27,27,42,1,2,28,"likert"
"5CD8B649981640DC892D4F86CC8C5CFD",1,"0198eced-cec8-7443-89d8-8ce9db9fb599","0198c493-061b-72b6-9f09-7b914e79ecc0","2025-08-27_15h09.17.588",NA,NA,723.6992,723.6997,723.6998,724.0328,NA,NA,NA,NA,NA,NA,NA,TRUE,5,1.2727,720.6866,723.6987,NA,NA,NA,NA,NA,21,26,0,28,28,24,1,2,29,"likert"
"5CD8B649981640DC892D4F86CC8C5CFD",1,"0198eced-cec8-7443-89d8-8ce9db9fb599","0198c493-061b-72b6-9f09-7b914e79ecc0","2025-08-27_15h09.17.588",NA,NA,727.0437,727.0438,727.0438,727.3942,NA,NA,NA,NA,NA,NA,NA,TRUE,1,2.3708,724.038,727.0434,NA,NA,NA,NA,NA,40,54,0,29,29,53,1,2,30,"likert"
"5CD8B649981640DC892D4F86CC8C5CFD",1,"0198eced-cec8-7443-89d8-8ce9db9fb599","0198c493-061b-72b6-9f09-7b914e79ecc0","2025-08-27_15h09.17.588",NA,NA,730.3922,730.3924,730.3925,730.7412,NA,NA,NA,NA,NA,NA,NA,TRUE,1,2.3859,727.3988,730.3918,NA,NA,NA,NA,NA,50,35,0,30,30,62,1,2,31,"likert"
"5CD8B649981640DC892D4F86CC8C5CFD",1,"0198eced-cec8-7443-89d8-8ce9db9fb599","0198c493-061b-72b6-9f09-7b914e79ecc0","2025-08-27_15h09.17.588",NA,NA,733.739,733.7393,733.7395,734.0863,NA,NA,NA,NA,NA,NA,NA,TRUE,1,1.5539,730.7459,733.7384,NA,NA,NA,NA,NA,60,54,0,31,31,71,1,2,32,"likert"
"5CD8B649981640DC892D4F86CC8C5CFD",1,"0198eced-cec8-7443-89d8-8ce9db9fb599","0198c493-061b-72b6-9f09-7b914e79ecc0","2025-08-27_15h09.17.588",NA,NA,737.0836,737.3344,737.3345,737.4329,NA,NA,NA,NA,NA,NA,NA,FALSE,NA,NA,734.0891,737.0835,NA,NA,NA,NA,NA,180,46,0,32,32,100,1,2,33,"likert"
"5CD8B649981640DC892D4F86CC8C5CFD",1,"0198eced-cec8-7443-89d8-8ce9db9fb599","0198c493-061b-72b6-9f09-7b914e79ecc0","2025-08-27_15h09.17.588",NA,NA,740.4497,740.4503,740.4504,740.7967,NA,NA,NA,NA,NA,NA,NA,TRUE,1,1.7371,737.4358,740.4488,NA,NA,NA,NA,NA,90,46,0,33,33,76,1,2,34,"likert"
"5CD8B649981640DC892D4F86CC8C5CFD",1,"0198eced-cec8-7443-89d8-8ce9db9fb599","0198c493-061b-72b6-9f09-7b914e79ecc0","2025-08-27_15h09.17.588",NA,NA,743.7957,743.7962,743.7963,744.1455,NA,NA,NA,NA,NA,NA,NA,TRUE,1,2.209,740.7993,743.7953,NA,NA,NA,NA,NA,28,39,0,34,34,40,1,2,35,"likert"
"5CD8B649981640DC892D4F86CC8C5CFD",1,"0198eced-cec8-7443-89d8-8ce9db9fb599","0198c493-061b-72b6-9f09-7b914e79ecc0","2025-08-27_15h09.17.588",NA,NA,747.1422,747.1423,747.143,747.49,NA,NA,NA,NA,NA,NA,NA,TRUE,1,1.2311,744.1505,747.1414,NA,NA,NA,NA,NA,45,40,0,35,35,58,1,2,36,"likert"
"5CD8B649981640DC892D4F86CC8C5CFD",1,"0198eced-cec8-7443-89d8-8ce9db9fb599","0198c493-061b-72b6-9f09-7b914e79ecc0","2025-08-27_15h09.17.588",NA,NA,750.4896,750.4897,750.4897,750.8378,NA,NA,NA,NA,NA,NA,NA,TRUE,1,1.0496,747.4929,750.4888,NA,NA,NA,NA,NA,60,40,0,36,36,69,1,2,37,"likert"
"5CD8B649981640DC892D4F86CC8C5CFD",1,"0198eced-cec8-7443-89d8-8ce9db9fb599","0198c493-061b-72b6-9f09-7b914e79ecc0","2025-08-27_15h09.17.588",NA,NA,753.8357,753.8362,753.8363,754.1834,NA,NA,NA,NA,NA,NA,NA,TRUE,5,2.589,750.8429,753.8351,NA,NA,NA,NA,NA,30,32,0,37,37,46,1,2,38,"likert"
"5CD8B649981640DC892D4F86CC8C5CFD",1,"0198eced-cec8-7443-89d8-8ce9db9fb599","0198c493-061b-72b6-9f09-7b914e79ecc0","2025-08-27_15h09.17.588",NA,NA,757.1978,757.198,757.1981,757.532,NA,NA,NA,NA,NA,NA,NA,TRUE,1,1.6352,754.1863,757.1974,NA,NA,NA,NA,NA,40,33,0,38,38,49,1,2,39,"likert"
"5CD8B649981640DC892D4F86CC8C5CFD",1,"0198eced-cec8-7443-89d8-8ce9db9fb599","0198c493-061b-72b6-9f09-7b914e79ecc0","2025-08-27_15h09.17.588",NA,NA,760.5462,760.5466,760.5468,760.8946,NA,NA,NA,NA,NA,NA,NA,TRUE,1,1.2093,757.537,760.5453,NA,NA,NA,NA,NA,40,35,0,39,39,50,1,2,40,"likert"
"5CD8B649981640DC892D4F86CC8C5CFD",1,"0198eced-cec8-7443-89d8-8ce9db9fb599","0198c493-061b-72b6-9f09-7b914e79ecc0","2025-08-27_15h09.17.588",NA,NA,763.8927,763.8928,763.893,764.2403,NA,NA,NA,NA,NA,NA,NA,TRUE,5,1.6321,760.8998,763.8922,NA,NA,NA,NA,NA,10,27,0,40,40,8,1,2,41,"likert"
"5CD8B649981640DC892D4F86CC8C5CFD",1,"0198eced-cec8-7443-89d8-8ce9db9fb599","0198c493-061b-72b6-9f09-7b914e79ecc0","2025-08-27_15h09.17.588",NA,NA,767.2401,767.2404,767.2407,767.5881,NA,NA,NA,NA,NA,NA,NA,TRUE,1,1.164,764.2438,767.2393,NA,NA,NA,NA,NA,150,31,0,41,41,90,1,2,42,"likert"
"5CD8B649981640DC892D4F86CC8C5CFD",1,"0198eced-cec8-7443-89d8-8ce9db9fb599","0198c493-061b-72b6-9f09-7b914e79ecc0","2025-08-27_15h09.17.588",NA,NA,770.5863,770.5866,770.5867,770.9351,NA,NA,NA,NA,NA,NA,NA,TRUE,1,1.0603,767.5931,770.5856,NA,NA,NA,NA,NA,50,27,0,42,42,60,1,2,43,"likert"
"5CD8B649981640DC892D4F86CC8C5CFD",1,"0198eced-cec8-7443-89d8-8ce9db9fb599","0198c493-061b-72b6-9f09-7b914e79ecc0","2025-08-27_15h09.17.588",NA,NA,773.9329,773.9332,773.9334,774.2987,NA,NA,NA,NA,NA,NA,NA,TRUE,5,1.5743,770.9399,773.9323,NA,NA,NA,NA,NA,12,31,0,43,43,15,1,2,44,"likert"
"5CD8B649981640DC892D4F86CC8C5CFD",1,"0198eced-cec8-7443-89d8-8ce9db9fb599","0198c493-061b-72b6-9f09-7b914e79ecc0","2025-08-27_15h09.17.588",NA,NA,777.2968,777.2972,777.2973,777.6448,NA,NA,NA,NA,NA,NA,NA,TRUE,1,2.1052,774.3036,777.2958,NA,NA,NA,NA,NA,90,30,0,44,44,73,1,2,45,"likert"
"5CD8B649981640DC892D4F86CC8C5CFD",1,"0198eced-cec8-7443-89d8-8ce9db9fb599","0198c493-061b-72b6-9f09-7b914e79ecc0","2025-08-27_15h09.17.588",NA,NA,780.6411,780.6411,780.6411,780.9904,NA,NA,NA,NA,NA,NA,NA,TRUE,5,1.7708,777.6506,780.6407,NA,NA,NA,NA,NA,7,25,0,45,45,0,1,2,46,"likert"
"5CD8B649981640DC892D4F86CC8C5CFD",1,"0198eced-cec8-7443-89d8-8ce9db9fb599","0198c493-061b-72b6-9f09-7b914e79ecc0","2025-08-27_15h09.17.588",NA,NA,783.9877,783.9878,783.9878,784.3371,NA,NA,NA,NA,NA,NA,NA,TRUE,5,1.1942,780.9933,783.9875,NA,NA,NA,NA,NA,7,28,0,46,46,2,1,2,47,"likert"
"5CD8B649981640DC892D4F86CC8C5CFD",1,"0198eced-cec8-7443-89d8-8ce9db9fb599","0198c493-061b-72b6-9f09-7b914e79ecc0","2025-08-27_15h09.17.588",NA,NA,787.3347,787.3347,787.3348,787.6836,NA,NA,NA,NA,NA,NA,NA,TRUE,1,2.2805,784.3395,787.3345,NA,NA,NA,NA,NA,28,35,0,47,47,39,1,2,48,"likert"
"5CD8B649981640DC892D4F86CC8C5CFD",1,"0198eced-cec8-7443-89d8-8ce9db9fb599","0198c493-061b-72b6-9f09-7b914e79ecc0","2025-08-27_15h09.17.588",NA,NA,790.6979,790.6981,790.6981,791.0472,NA,NA,NA,NA,NA,NA,NA,TRUE,1,1.1741,787.6857,790.6977,NA,NA,NA,NA,NA,100,39,0,48,48,87,1,2,49,"likert"
"5CD8B649981640DC892D4F86CC8C5CFD",1,"0198eced-cec8-7443-89d8-8ce9db9fb599","0198c493-061b-72b6-9f09-7b914e79ecc0","2025-08-27_15h09.17.588",NA,NA,794.0447,794.045,794.045,794.3941,NA,NA,NA,NA,NA,NA,NA,TRUE,1,1.1769,791.0505,794.0444,NA,NA,NA,NA,NA,60,47,0,49,49,70,1,2,50,"likert"
"5CD8B649981640DC892D4F86CC8C5CFD",1,"0198eced-cec8-7443-89d8-8ce9db9fb599","0198c493-061b-72b6-9f09-7b914e79ecc0","2025-08-27_15h09.17.588",NA,NA,797.3912,797.3912,797.3913,797.7405,NA,NA,NA,NA,NA,NA,NA,TRUE,5,1.8314,794.3968,797.391,NA,NA,NA,NA,NA,12,35,0,50,50,17,1,2,51,"likert"
"5CD8B649981640DC892D4F86CC8C5CFD",1,"0198eced-cec8-7443-89d8-8ce9db9fb599","0198c493-061b-72b6-9f09-7b914e79ecc0","2025-08-27_15h09.17.588",NA,NA,800.7399,800.7405,800.7405,801.0874,NA,NA,NA,NA,NA,NA,NA,TRUE,5,2.2284,797.7426,800.7396,NA,NA,NA,NA,NA,12,33,0,51,51,16,1,2,52,"likert"
"5CD8B649981640DC892D4F86CC8C5CFD",1,"0198eced-cec8-7443-89d8-8ce9db9fb599","0198c493-061b-72b6-9f09-7b914e79ecc0","2025-08-27_15h09.17.588",NA,NA,804.0866,804.0867,804.0869,804.4339,NA,NA,NA,NA,NA,NA,NA,TRUE,1,1.3697,801.0903,804.0861,NA,NA,NA,NA,NA,95,33,0,52,52,79,1,2,53,"likert"
"5CD8B649981640DC892D4F86CC8C5CFD",1,"0198eced-cec8-7443-89d8-8ce9db9fb599","0198c493-061b-72b6-9f09-7b914e79ecc0","2025-08-27_15h09.17.588",NA,NA,807.4335,807.4337,807.4338,807.7821,NA,NA,NA,NA,NA,NA,NA,TRUE,5,2.034,804.4359,807.4329,NA,NA,NA,NA,NA,40,40,0,53,53,51,1,2,54,"likert"
"5CD8B649981640DC892D4F86CC8C5CFD",1,"0198eced-cec8-7443-89d8-8ce9db9fb599","0198c493-061b-72b6-9f09-7b914e79ecc0","2025-08-27_15h09.17.588",NA,NA,810.7949,810.795,810.795,811.1447,NA,NA,NA,NA,NA,NA,NA,TRUE,5,1.4456,807.786,810.7948,NA,NA,NA,NA,NA,12,28,0,54,54,14,1,2,55,"likert"
"5CD8B649981640DC892D4F86CC8C5CFD",1,"0198eced-cec8-7443-89d8-8ce9db9fb599","0198c493-061b-72b6-9f09-7b914e79ecc0","2025-08-27_15h09.17.588",NA,NA,814.1414,814.1414,814.1414,814.4909,NA,NA,NA,NA,NA,NA,NA,TRUE,4,1.7437,811.1471,814.1412,NA,NA,NA,NA,NA,21,27,0,55,55,25,1,2,56,"likert"
"5CD8B649981640DC892D4F86CC8C5CFD",1,"0198eced-cec8-7443-89d8-8ce9db9fb599","0198c493-061b-72b6-9f09-7b914e79ecc0","2025-08-27_15h09.17.588",NA,NA,817.4905,817.4907,817.4908,817.839,NA,NA,NA,NA,NA,NA,NA,TRUE,5,1.5656,814.494,817.4899,NA,NA,NA,NA,NA,12,26,0,56,56,13,1,2,57,"likert"
"5CD8B649981640DC892D4F86CC8C5CFD",1,"0198eced-cec8-7443-89d8-8ce9db9fb599","0198c493-061b-72b6-9f09-7b914e79ecc0","2025-08-27_15h09.17.588",NA,NA,820.8374,820.8375,820.8379,821.1862,NA,NA,NA,NA,NA,NA,NA,TRUE,1,1.5878,817.8442,820.8364,NA,NA,NA,NA,NA,180,27,0,57,57,96,1,2,58,"likert"
"5CD8B649981640DC892D4F86CC8C5CFD",1,"0198eced-cec8-7443-89d8-8ce9db9fb599","0198c493-061b-72b6-9f09-7b914e79ecc0","2025-08-27_15h09.17.588",NA,NA,824.1847,824.1849,824.1851,824.5328,NA,NA,NA,NA,NA,NA,NA,TRUE,1,2.8221,821.1916,824.1839,NA,NA,NA,NA,NA,21,29,0,58,58,26,1,2,59,"likert"
"5CD8B649981640DC892D4F86CC8C5CFD",1,"0198eced-cec8-7443-89d8-8ce9db9fb599","0198c493-061b-72b6-9f09-7b914e79ecc0","2025-08-27_15h09.17.588",NA,NA,827.5471,827.5479,827.5481,827.8962,NA,NA,NA,NA,NA,NA,NA,TRUE,5,1.3748,824.5375,827.5465,NA,NA,NA,NA,NA,14,32,0,59,59,21,1,2,60,"likert"
"5CD8B649981640DC892D4F86CC8C5CFD",1,"0198eced-cec8-7443-89d8-8ce9db9fb599","0198c493-061b-72b6-9f09-7b914e79ecc0","2025-08-27_15h09.17.588",NA,NA,830.8941,830.8948,830.8949,831.2429,NA,NA,NA,NA,NA,NA,NA,TRUE,5,1.9067,827.9006,830.8935,NA,NA,NA,NA,NA,10,26,0,60,60,7,1,2,61,"likert"
"5CD8B649981640DC892D4F86CC8C5CFD",1,"0198eced-cec8-7443-89d8-8ce9db9fb599","0198c493-061b-72b6-9f09-7b914e79ecc0","2025-08-27_15h09.17.588",NA,NA,834.2412,834.2414,834.2415,834.5893,NA,NA,NA,NA,NA,NA,NA,TRUE,1,1.804,831.2474,834.2401,NA,NA,NA,NA,NA,50,46,0,61,61,64,1,2,62,"likert"
"5CD8B649981640DC892D4F86CC8C5CFD",1,"0198eced-cec8-7443-89d8-8ce9db9fb599","0198c493-061b-72b6-9f09-7b914e79ecc0","2025-08-27_15h09.17.588",NA,NA,837.5875,837.5879,837.5883,837.9363,NA,NA,NA,NA,NA,NA,NA,TRUE,1,2.0672,834.5943,837.587,NA,NA,NA,NA,NA,45,29,0,62,62,55,1,2,63,"likert"
"5CD8B649981640DC892D4F86CC8C5CFD",1,"0198eced-cec8-7443-89d8-8ce9db9fb599","0198c493-061b-72b6-9f09-7b914e79ecc0","2025-08-27_15h09.17.588",NA,NA,840.9343,840.9345,840.9346,841.2831,NA,NA,NA,NA,NA,NA,NA,TRUE,1,1.2427,837.9409,840.9337,NA,NA,NA,NA,NA,95,35,0,63,63,80,1,2,64,"likert"
"5CD8B649981640DC892D4F86CC8C5CFD",1,"0198eced-cec8-7443-89d8-8ce9db9fb599","0198c493-061b-72b6-9f09-7b914e79ecc0","2025-08-27_15h09.17.588",NA,NA,844.2982,844.2985,844.2985,844.6464,NA,NA,NA,NA,NA,NA,NA,TRUE,1,1.7812,841.2877,844.2973,NA,NA,NA,NA,NA,90,33,0,64,64,74,1,2,65,"likert"
"5CD8B649981640DC892D4F86CC8C5CFD",1,"0198eced-cec8-7443-89d8-8ce9db9fb599","0198c493-061b-72b6-9f09-7b914e79ecc0","2025-08-27_15h09.17.588",NA,NA,847.6444,847.6447,847.6451,847.9929,NA,NA,NA,NA,NA,NA,NA,TRUE,1,2.0061,844.6506,847.6439,NA,NA,NA,NA,NA,28,46,0,65,65,41,1,2,66,"likert"
"5CD8B649981640DC892D4F86CC8C5CFD",1,"0198eced-cec8-7443-89d8-8ce9db9fb599","0198c493-061b-72b6-9f09-7b914e79ecc0","2025-08-27_15h09.17.588",NA,NA,850.992,850.9923,850.9924,851.3392,NA,NA,NA,NA,NA,NA,NA,TRUE,1,1.4692,847.998,850.9915,NA,NA,NA,NA,NA,200,26,0,66,66,102,1,2,67,"likert"
"5CD8B649981640DC892D4F86CC8C5CFD",1,"0198eced-cec8-7443-89d8-8ce9db9fb599","0198c493-061b-72b6-9f09-7b914e79ecc0","2025-08-27_15h09.17.588",NA,NA,854.3374,854.3377,854.3378,854.6864,NA,NA,NA,NA,NA,NA,NA,TRUE,1,1.1029,851.3446,854.3369,NA,NA,NA,NA,NA,95,31,0,67,67,78,1,2,68,"likert"
"5CD8B649981640DC892D4F86CC8C5CFD",1,"0198eced-cec8-7443-89d8-8ce9db9fb599","0198c493-061b-72b6-9f09-7b914e79ecc0","2025-08-27_15h09.17.588",NA,NA,857.6846,857.6846,857.6848,858.0331,NA,NA,NA,NA,NA,NA,NA,TRUE,1,2.0369,854.6909,857.6841,NA,NA,NA,NA,NA,30,29,0,68,68,44,1,2,69,"likert"
"5CD8B649981640DC892D4F86CC8C5CFD",1,"0198eced-cec8-7443-89d8-8ce9db9fb599","0198c493-061b-72b6-9f09-7b914e79ecc0","2025-08-27_15h09.17.588",NA,NA,861.0476,861.0484,861.0486,861.3966,NA,NA,NA,NA,NA,NA,NA,TRUE,1,1.0616,858.0382,861.0471,NA,NA,NA,NA,NA,40,27,0,69,69,48,1,2,70,"likert"
"5CD8B649981640DC892D4F86CC8C5CFD",1,"0198eced-cec8-7443-89d8-8ce9db9fb599","0198c493-061b-72b6-9f09-7b914e79ecc0","2025-08-27_15h09.17.588",NA,NA,864.3921,864.3922,864.3922,864.7415,NA,NA,NA,NA,NA,NA,NA,TRUE,1,1.057,861.4015,864.392,NA,NA,NA,NA,NA,60,33,0,70,70,67,1,2,71,"likert"
"5CD8B649981640DC892D4F86CC8C5CFD",1,"0198eced-cec8-7443-89d8-8ce9db9fb599","0198c493-061b-72b6-9f09-7b914e79ecc0","2025-08-27_15h09.17.588",NA,NA,867.741,867.7413,867.7415,868.0895,NA,NA,NA,NA,NA,NA,NA,TRUE,1,1.0882,864.744,867.7405,NA,NA,NA,NA,NA,45,35,0,71,71,57,1,2,72,"likert"
"5CD8B649981640DC892D4F86CC8C5CFD",1,"0198eced-cec8-7443-89d8-8ce9db9fb599","0198c493-061b-72b6-9f09-7b914e79ecc0","2025-08-27_15h09.17.588",NA,NA,871.0874,871.0874,871.0875,871.4361,NA,NA,NA,NA,NA,NA,NA,TRUE,1,0.7106,868.0939,871.0869,NA,NA,NA,NA,NA,45,26,0,72,72,54,1,2,73,"likert"
"5CD8B649981640DC892D4F86CC8C5CFD",1,"0198eced-cec8-7443-89d8-8ce9db9fb599","0198c493-061b-72b6-9f09-7b914e79ecc0","2025-08-27_15h09.17.588",NA,NA,874.4347,874.4349,874.435,874.7835,NA,NA,NA,NA,NA,NA,NA,TRUE,1,0.8815,871.4417,874.4342,NA,NA,NA,NA,NA,150,54,0,73,73,95,1,2,74,"likert"
"5CD8B649981640DC892D4F86CC8C5CFD",1,"0198eced-cec8-7443-89d8-8ce9db9fb599","0198c493-061b-72b6-9f09-7b914e79ecc0","2025-08-27_15h09.17.588",NA,NA,877.7977,877.7984,877.7987,878.1465,NA,NA,NA,NA,NA,NA,NA,TRUE,1,0.4925,874.7885,877.797,NA,NA,NA,NA,NA,100,54,0,74,74,89,1,2,75,"likert"
"5CD8B649981640DC892D4F86CC8C5CFD",1,"0198eced-cec8-7443-89d8-8ce9db9fb599","0198c493-061b-72b6-9f09-7b914e79ecc0","2025-08-27_15h09.17.588",NA,NA,881.1446,881.1451,881.1453,881.4936,NA,NA,NA,NA,NA,NA,NA,TRUE,1,1.27,878.1516,881.1436,NA,NA,NA,NA,NA,28,26,0,75,75,36,1,2,76,"likert"
"5CD8B649981640DC892D4F86CC8C5CFD",1,"0198eced-cec8-7443-89d8-8ce9db9fb599","0198c493-061b-72b6-9f09-7b914e79ecc0","2025-08-27_15h09.17.588",NA,NA,884.4912,884.4913,884.4923,884.8399,NA,NA,NA,NA,NA,NA,NA,TRUE,5,1.3274,881.4984,884.4905,NA,NA,NA,NA,NA,12,25,0,76,76,12,1,2,77,"likert"
"5CD8B649981640DC892D4F86CC8C5CFD",1,"0198eced-cec8-7443-89d8-8ce9db9fb599","0198c493-061b-72b6-9f09-7b914e79ecc0","2025-08-27_15h09.17.588",NA,NA,887.8383,887.8389,887.839,888.1871,NA,NA,NA,NA,NA,NA,NA,TRUE,1,1.6406,884.8445,887.8376,NA,NA,NA,NA,NA,50,30,0,77,77,61,1,2,78,"likert"
"5CD8B649981640DC892D4F86CC8C5CFD",1,"0198eced-cec8-7443-89d8-8ce9db9fb599","0198c493-061b-72b6-9f09-7b914e79ecc0","2025-08-27_15h09.17.588",NA,NA,891.1852,891.1854,891.1856,891.5337,NA,NA,NA,NA,NA,NA,NA,TRUE,1,1.4553,888.1931,891.1842,NA,NA,NA,NA,NA,100,26,0,78,78,84,1,2,79,"likert"
"5CD8B649981640DC892D4F86CC8C5CFD",1,"0198eced-cec8-7443-89d8-8ce9db9fb599","0198c493-061b-72b6-9f09-7b914e79ecc0","2025-08-27_15h09.17.588",NA,NA,894.548,894.5485,894.5485,894.8967,NA,NA,NA,NA,NA,NA,NA,TRUE,1,1.2584,891.5386,894.5472,NA,NA,NA,NA,NA,25,33,0,79,79,33,1,2,80,"likert"
"5CD8B649981640DC892D4F86CC8C5CFD",1,"0198eced-cec8-7443-89d8-8ce9db9fb599","0198c493-061b-72b6-9f09-7b914e79ecc0","2025-08-27_15h09.17.588",NA,NA,897.8951,897.8958,897.8959,898.2433,NA,NA,NA,NA,NA,NA,NA,TRUE,1,0.8251,894.9025,897.8945,NA,NA,NA,NA,NA,200,39,0,80,80,105,1,2,81,"likert"
"5CD8B649981640DC892D4F86CC8C5CFD",1,"0198eced-cec8-7443-89d8-8ce9db9fb599","0198c493-061b-72b6-9f09-7b914e79ecc0","2025-08-27_15h09.17.588",NA,NA,901.242,901.2421,901.2421,901.5903,NA,NA,NA,NA,NA,NA,NA,TRUE,5,2.019,898.2487,901.2415,NA,NA,NA,NA,NA,10,29,0,81,81,9,1,2,82,"likert"
"5CD8B649981640DC892D4F86CC8C5CFD",1,"0198eced-cec8-7443-89d8-8ce9db9fb599","0198c493-061b-72b6-9f09-7b914e79ecc0","2025-08-27_15h09.17.588",NA,NA,904.5884,904.5887,904.5888,904.9367,NA,NA,NA,NA,NA,NA,NA,TRUE,2,2.0346,901.5955,904.5877,NA,NA,NA,NA,NA,28,32,0,82,82,38,1,2,83,"likert"
"5CD8B649981640DC892D4F86CC8C5CFD",1,"0198eced-cec8-7443-89d8-8ce9db9fb599","0198c493-061b-72b6-9f09-7b914e79ecc0","2025-08-27_15h09.17.588",NA,NA,907.9352,907.9355,907.9356,908.2836,NA,NA,NA,NA,NA,NA,NA,TRUE,1,1.403,904.9422,907.9348,NA,NA,NA,NA,NA,90,40,0,83,83,75,1,2,84,"likert"
"5CD8B649981640DC892D4F86CC8C5CFD",1,"0198eced-cec8-7443-89d8-8ce9db9fb599","0198c493-061b-72b6-9f09-7b914e79ecc0","2025-08-27_15h09.17.588",NA,NA,911.2982,911.2989,911.2992,911.6473,NA,NA,NA,NA,NA,NA,NA,TRUE,1,1.5376,908.2888,911.2976,NA,NA,NA,NA,NA,200,35,0,84,84,104,1,2,85,"likert"
"5CD8B649981640DC892D4F86CC8C5CFD",1,"0198eced-cec8-7443-89d8-8ce9db9fb599","0198c493-061b-72b6-9f09-7b914e79ecc0","2025-08-27_15h09.17.588",NA,NA,914.6449,914.6453,914.6455,914.9941,NA,NA,NA,NA,NA,NA,NA,TRUE,2,2.0054,911.6522,914.6444,NA,NA,NA,NA,NA,21,38,0,85,85,29,1,2,86,"likert"
"5CD8B649981640DC892D4F86CC8C5CFD",1,"0198eced-cec8-7443-89d8-8ce9db9fb599","0198c493-061b-72b6-9f09-7b914e79ecc0","2025-08-27_15h09.17.588",NA,NA,917.9906,917.9907,917.9908,918.3395,NA,NA,NA,NA,NA,NA,NA,TRUE,2,1.2863,914.9993,917.9903,NA,NA,NA,NA,NA,25,46,0,86,86,35,1,2,87,"likert"
"5CD8B649981640DC892D4F86CC8C5CFD",1,"0198eced-cec8-7443-89d8-8ce9db9fb599","0198c493-061b-72b6-9f09-7b914e79ecc0","2025-08-27_15h09.17.588",NA,NA,921.3384,921.3386,921.3387,921.6873,NA,NA,NA,NA,NA,NA,NA,TRUE,1,1.2652,918.3428,921.3376,NA,NA,NA,NA,NA,95,54,0,87,87,83,1,2,88,"likert"
"5CD8B649981640DC892D4F86CC8C5CFD",1,"0198eced-cec8-7443-89d8-8ce9db9fb599","0198c493-061b-72b6-9f09-7b914e79ecc0","2025-08-27_15h09.17.588",NA,NA,924.6853,924.6855,924.6855,925.0339,NA,NA,NA,NA,NA,NA,NA,TRUE,1,1.0708,921.6929,924.6846,NA,NA,NA,NA,NA,180,35,0,88,88,98,1,2,89,"likert"
"5CD8B649981640DC892D4F86CC8C5CFD",1,"0198eced-cec8-7443-89d8-8ce9db9fb599","0198c493-061b-72b6-9f09-7b914e79ecc0","2025-08-27_15h09.17.588",NA,NA,928.0497,928.0502,928.0503,928.398,NA,NA,NA,NA,NA,NA,NA,TRUE,2,1.7142,925.0391,928.0487,NA,NA,NA,NA,NA,30,30,0,89,89,45,1,2,90,"likert"
"5CD8B649981640DC892D4F86CC8C5CFD",1,"0198eced-cec8-7443-89d8-8ce9db9fb599","0198c493-061b-72b6-9f09-7b914e79ecc0","2025-08-27_15h09.17.588",NA,NA,931.3959,931.3965,931.3967,931.7443,NA,NA,NA,NA,NA,NA,NA,TRUE,5,1.6862,928.4025,931.395,NA,NA,NA,NA,NA,14,39,0,90,90,23,1,2,91,"likert"
"5CD8B649981640DC892D4F86CC8C5CFD",1,"0198eced-cec8-7443-89d8-8ce9db9fb599","0198c493-061b-72b6-9f09-7b914e79ecc0","2025-08-27_15h09.17.588",NA,NA,934.7479,934.7482,934.7482,935.1007,NA,NA,NA,NA,NA,NA,NA,TRUE,1,1.4926,931.7501,934.7474,NA,NA,NA,NA,NA,180,39,0,91,91,99,1,2,92,"likert"
"5CD8B649981640DC892D4F86CC8C5CFD",1,"0198eced-cec8-7443-89d8-8ce9db9fb599","0198c493-061b-72b6-9f09-7b914e79ecc0","2025-08-27_15h09.17.588",NA,NA,938.0888,938.0894,938.0895,938.4376,NA,NA,NA,NA,NA,NA,NA,TRUE,5,1.538,935.1046,938.0883,NA,NA,NA,NA,NA,7,30,0,92,92,3,1,2,93,"likert"
"5CD8B649981640DC892D4F86CC8C5CFD",1,"0198eced-cec8-7443-89d8-8ce9db9fb599","0198c493-061b-72b6-9f09-7b914e79ecc0","2025-08-27_15h09.17.588",NA,NA,941.4355,941.4356,941.4356,941.785,NA,NA,NA,NA,NA,NA,NA,TRUE,1,2.4509,938.4429,941.4347,NA,NA,NA,NA,NA,200,28,0,93,93,103,1,2,94,"likert"
"5CD8B649981640DC892D4F86CC8C5CFD",1,"0198eced-cec8-7443-89d8-8ce9db9fb599","0198c493-061b-72b6-9f09-7b914e79ecc0","2025-08-27_15h09.17.588",NA,NA,944.787,944.7872,944.7874,945.1373,NA,NA,NA,NA,NA,NA,NA,TRUE,1,1.1766,941.7896,944.7866,NA,NA,NA,NA,NA,90,26,0,94,94,72,1,2,95,"likert"
"5CD8B649981640DC892D4F86CC8C5CFD",1,"0198eced-cec8-7443-89d8-8ce9db9fb599","0198c493-061b-72b6-9f09-7b914e79ecc0","2025-08-27_15h09.17.588",NA,NA,948.1459,948.1462,948.1462,948.483,NA,NA,NA,NA,NA,NA,NA,TRUE,1,1.7282,945.141,948.1455,NA,NA,NA,NA,NA,45,46,0,95,95,59,1,2,96,"likert"
"5CD8B649981640DC892D4F86CC8C5CFD",1,"0198eced-cec8-7443-89d8-8ce9db9fb599","0198c493-061b-72b6-9f09-7b914e79ecc0","2025-08-27_15h09.17.588",NA,NA,951.4971,951.4974,951.4975,951.8462,NA,NA,NA,NA,NA,NA,NA,TRUE,1,1.2603,948.487,951.4968,NA,NA,NA,NA,NA,100,46,0,96,96,88,1,2,97,"likert"
"5CD8B649981640DC892D4F86CC8C5CFD",1,"0198eced-cec8-7443-89d8-8ce9db9fb599","0198c493-061b-72b6-9f09-7b914e79ecc0","2025-08-27_15h09.17.588",NA,NA,954.8437,954.8438,954.844,955.1943,NA,NA,NA,NA,NA,NA,NA,TRUE,1,0.9973,951.8496,954.8434,NA,NA,NA,NA,NA,150,33,0,97,97,91,1,2,98,"likert"
"5CD8B649981640DC892D4F86CC8C5CFD",1,"0198eced-cec8-7443-89d8-8ce9db9fb599","0198c493-061b-72b6-9f09-7b914e79ecc0","2025-08-27_15h09.17.588",NA,NA,958.1923,958.1923,958.1925,958.5397,NA,NA,NA,NA,NA,NA,NA,TRUE,1,0.9882,955.1989,958.1919,NA,NA,NA,NA,NA,100,31,0,98,98,85,1,2,99,"likert"
"5CD8B649981640DC892D4F86CC8C5CFD",1,"0198eced-cec8-7443-89d8-8ce9db9fb599","0198c493-061b-72b6-9f09-7b914e79ecc0","2025-08-27_15h09.17.588",NA,NA,961.5498,961.5503,961.5505,961.8979,NA,NA,NA,NA,NA,NA,NA,TRUE,4,1.9861,958.5431,961.5492,NA,NA,NA,NA,NA,7,26,0,99,99,1,1,2,100,"likert"
"5CD8B649981640DC892D4F86CC8C5CFD",1,"0198eced-cec8-7443-89d8-8ce9db9fb599","0198c493-061b-72b6-9f09-7b914e79ecc0","2025-08-27_15h09.17.588",NA,NA,964.8959,964.8964,964.8965,965.2445,NA,NA,NA,NA,NA,NA,NA,TRUE,1,1.2548,961.9028,964.8953,NA,NA,NA,NA,NA,60,29,0,100,100,66,1,2,101,"likert"
"5CD8B649981640DC892D4F86CC8C5CFD",1,"0198eced-cec8-7443-89d8-8ce9db9fb599","0198c493-061b-72b6-9f09-7b914e79ecc0","2025-08-27_15h09.17.588",NA,NA,968.2416,968.2417,968.2418,968.5915,NA,NA,NA,NA,NA,NA,NA,TRUE,5,1.6613,965.2492,968.2411,NA,NA,NA,NA,NA,10,30,0,101,101,10,1,2,102,"likert"
"5CD8B649981640DC892D4F86CC8C5CFD",1,"0198eced-cec8-7443-89d8-8ce9db9fb599","0198c493-061b-72b6-9f09-7b914e79ecc0","2025-08-27_15h09.17.588",NA,NA,971.5891,971.5894,971.5898,971.9376,NA,NA,NA,NA,NA,NA,NA,TRUE,1,1.1862,968.5961,971.5887,NA,NA,NA,NA,NA,180,31,0,102,102,97,1,2,103,"likert"
"5CD8B649981640DC892D4F86CC8C5CFD",1,"0198eced-cec8-7443-89d8-8ce9db9fb599","0198c493-061b-72b6-9f09-7b914e79ecc0","2025-08-27_15h09.17.588",NA,NA,974.9375,974.9376,974.9378,975.2845,NA,NA,NA,NA,NA,NA,NA,TRUE,2,1.9923,971.9428,974.937,NA,NA,NA,NA,NA,25,27,0,103,103,30,1,2,104,"likert"
"5CD8B649981640DC892D4F86CC8C5CFD",1,"0198eced-cec8-7443-89d8-8ce9db9fb599","0198c493-061b-72b6-9f09-7b914e79ecc0","2025-08-27_15h09.17.588",NA,NA,978.2985,978.299,978.299,978.6472,NA,NA,NA,NA,NA,NA,NA,TRUE,2,2.3768,975.2897,978.298,NA,NA,NA,NA,NA,21,30,0,104,104,27,1,2,105,"likert"
"5CD8B649981640DC892D4F86CC8C5CFD",1,"0198eced-cec8-7443-89d8-8ce9db9fb599","0198c493-061b-72b6-9f09-7b914e79ecc0","2025-08-27_15h09.17.588",NA,NA,981.6458,981.6463,981.6463,981.9948,NA,NA,NA,NA,NA,NA,NA,TRUE,1,1.2987,978.6504,981.645,NA,NA,NA,NA,NA,200,54,0,105,105,107,1,2,106,"likert"
"5CD8B649981640DC892D4F86CC8C5CFD",1,"0198eced-cec8-7443-89d8-8ce9db9fb599","0198c493-061b-72b6-9f09-7b914e79ecc0","2025-08-27_15h09.17.588",NA,NA,984.9933,984.9938,984.9939,985.3401,NA,NA,NA,NA,NA,NA,NA,TRUE,1,1.1021,982,984.9925,NA,NA,NA,NA,NA,150,40,0,106,106,93,1,2,107,"likert"
"5CD8B649981640DC892D4F86CC8C5CFD",1,"0198eced-cec8-7443-89d8-8ce9db9fb599","0198c493-061b-72b6-9f09-7b914e79ecc0","2025-08-27_15h09.17.588",NA,NA,988.3407,988.3408,988.3409,988.6888,NA,NA,NA,NA,NA,NA,NA,TRUE,1,1.1415,985.3432,988.3393,NA,NA,NA,NA,NA,95,40,0,107,107,81,1,2,108,"likert"
