"participant","session","assignmentId","projectId","date","practiceTrial.started","practiceTrial.stopped","tooLate.started","tooLate.stopped","blank.started","blank.stopped","trials_pract.thisRepN","trials_pract.thisTrialN","trials_pract.thisN","trials_pract.thisIndex","trials_pract.ran","delay_pract","amount_pract","responseMade","key","rt","trial.started","trial.stopped","trials.thisRepN","trials.thisTrialN","trials.thisN","trials.thisIndex","trials.ran","delay","amount","trials_2.thisRepN","trials_2.thisTrialN","trials_2.thisN","trials_2.thisIndex","trials_2.ran","block","trial","taskType"
"67C755B1DA5740C58756E5FD16792FB3",1,"0198eced-d732-78c5-98fb-93fb82e07fa8","0198c493-061b-72b6-9f09-7b914e79ecc0","2025-08-27_22h08.13.860",27.7954,30.759,30.7602,31.0087,31.0089,31.1084,0,0,0,2,1,14,45,FALSE,NA,NA,NA,NA,NA,NA,NA,NA,NA,NA,NA,NA,NA,NA,NA,NA,0,1,"likert"
"67C755B1DA5740C58756E5FD16792FB3",1,"0198eced-d732-78c5-98fb-93fb82e07fa8","0198c493-061b-72b6-9f09-7b914e79ecc0","2025-08-27_22h08.13.860",31.1118,34.1056,34.1059,34.1059,34.1059,34.4553,0,1,1,3,1,3,27,TRUE,1,0.5165,NA,NA,NA,NA,NA,NA,NA,NA,NA,NA,NA,NA,NA,NA,0,2,"likert"
"67C755B1DA5740C58756E5FD16792FB3",1,"0198eced-d732-78c5-98fb-93fb82e07fa8","0198c493-061b-72b6-9f09-7b914e79ecc0","2025-08-27_22h08.13.860",34.4573,37.4528,37.4529,37.4531,37.4531,37.8027,0,2,2,0,1,7,30,TRUE,1,1.265,NA,NA,NA,NA,NA,NA,NA,NA,NA,NA,NA,NA,NA,NA,0,3,"likert"
"67C755B1DA5740C58756E5FD16792FB3",1,"0198eced-d732-78c5-98fb-93fb82e07fa8","0198c493-061b-72b6-9f09-7b914e79ecc0","2025-08-27_22h08.13.860",37.8042,40.7998,40.8,40.8001,40.8001,41.1495,0,3,3,1,1,100,50,TRUE,1,0.7946,NA,NA,NA,NA,NA,NA,NA,NA,NA,NA,NA,NA,NA,NA,0,4,"likert"
"67C755B1DA5740C58756E5FD16792FB3",1,"0198eced-d732-78c5-98fb-93fb82e07fa8","0198c493-061b-72b6-9f09-7b914e79ecc0","2025-08-27_22h08.13.860",41.1523,44.1637,44.1639,44.1642,44.1642,44.5132,0,4,4,4,1,30,40,TRUE,1,0.6789,NA,NA,NA,NA,NA,NA,NA,NA,NA,NA,NA,NA,NA,NA,0,5,"likert"
"67C755B1DA5740C58756E5FD16792FB3",1,"0198eced-d732-78c5-98fb-93fb82e07fa8","0198c493-061b-72b6-9f09-7b914e79ecc0","2025-08-27_22h08.13.860",NA,NA,63.8311,63.8313,63.8315,64.1808,NA,NA,NA,NA,NA,NA,NA,TRUE,1,0.573,60.8726,63.8302,0,0,0,52,1,40,47,NA,NA,NA,NA,NA,1,1,"likert"
"67C755B1DA5740C58756E5FD16792FB3",1,"0198eced-d732-78c5-98fb-93fb82e07fa8","0198c493-061b-72b6-9f09-7b914e79ecc0","2025-08-27_22h08.13.860",NA,NA,67.177,67.177,67.1771,67.5265,NA,NA,NA,NA,NA,NA,NA,TRUE,1,1.0694,64.1824,67.1768,0,1,1,92,1,150,35,NA,NA,NA,NA,NA,1,2,"likert"
"67C755B1DA5740C58756E5FD16792FB3",1,"0198eced-d732-78c5-98fb-93fb82e07fa8","0198c493-061b-72b6-9f09-7b914e79ecc0","2025-08-27_22h08.13.860",NA,NA,70.524,70.5241,70.5242,70.8734,NA,NA,NA,NA,NA,NA,NA,TRUE,1,0.5832,67.5287,70.5239,0,2,2,35,1,25,46,NA,NA,NA,NA,NA,1,3,"likert"
"67C755B1DA5740C58756E5FD16792FB3",1,"0198eced-d732-78c5-98fb-93fb82e07fa8","0198c493-061b-72b6-9f09-7b914e79ecc0","2025-08-27_22h08.13.860",NA,NA,73.8713,73.8714,73.8715,74.2208,NA,NA,NA,NA,NA,NA,NA,TRUE,1,0.8516,70.8765,73.8711,0,3,3,99,1,180,39,NA,NA,NA,NA,NA,1,4,"likert"
"67C755B1DA5740C58756E5FD16792FB3",1,"0198eced-d732-78c5-98fb-93fb82e07fa8","0198c493-061b-72b6-9f09-7b914e79ecc0","2025-08-27_22h08.13.860",NA,NA,77.2348,77.2349,77.2351,77.5843,NA,NA,NA,NA,NA,NA,NA,TRUE,1,1.367,74.2229,77.2346,0,4,4,12,1,12,25,NA,NA,NA,NA,NA,1,5,"likert"
"67C755B1DA5740C58756E5FD16792FB3",1,"0198eced-d732-78c5-98fb-93fb82e07fa8","0198c493-061b-72b6-9f09-7b914e79ecc0","2025-08-27_22h08.13.860",NA,NA,80.5827,80.5828,80.5829,80.9316,NA,NA,NA,NA,NA,NA,NA,TRUE,1,0.8614,77.5861,80.5821,0,5,5,90,1,150,31,NA,NA,NA,NA,NA,1,6,"likert"
"67C755B1DA5740C58756E5FD16792FB3",1,"0198eced-d732-78c5-98fb-93fb82e07fa8","0198c493-061b-72b6-9f09-7b914e79ecc0","2025-08-27_22h08.13.860",NA,NA,83.9291,83.9291,83.9291,84.2784,NA,NA,NA,NA,NA,NA,NA,TRUE,1,0.682,80.9341,83.9289,0,6,6,38,1,28,32,NA,NA,NA,NA,NA,1,7,"likert"
"67C755B1DA5740C58756E5FD16792FB3",1,"0198eced-d732-78c5-98fb-93fb82e07fa8","0198c493-061b-72b6-9f09-7b914e79ecc0","2025-08-27_22h08.13.860",NA,NA,87.2762,87.2764,87.2765,87.6255,NA,NA,NA,NA,NA,NA,NA,TRUE,1,0.9197,84.2801,87.276,0,7,7,30,1,25,27,NA,NA,NA,NA,NA,1,8,"likert"
"67C755B1DA5740C58756E5FD16792FB3",1,"0198eced-d732-78c5-98fb-93fb82e07fa8","0198c493-061b-72b6-9f09-7b914e79ecc0","2025-08-27_22h08.13.860",NA,NA,90.6232,90.6234,90.6234,90.9727,NA,NA,NA,NA,NA,NA,NA,TRUE,1,0.613,87.6273,90.623,0,8,8,29,1,21,38,NA,NA,NA,NA,NA,1,9,"likert"
"67C755B1DA5740C58756E5FD16792FB3",1,"0198eced-d732-78c5-98fb-93fb82e07fa8","0198c493-061b-72b6-9f09-7b914e79ecc0","2025-08-27_22h08.13.860",NA,NA,93.987,94.2366,94.2367,94.3365,NA,NA,NA,NA,NA,NA,NA,FALSE,NA,NA,90.9743,93.9868,0,9,9,56,1,45,31,NA,NA,NA,NA,NA,1,10,"likert"
"67C755B1DA5740C58756E5FD16792FB3",1,"0198eced-d732-78c5-98fb-93fb82e07fa8","0198c493-061b-72b6-9f09-7b914e79ecc0","2025-08-27_22h08.13.860",NA,NA,97.3346,97.3348,97.3348,97.6834,NA,NA,NA,NA,NA,NA,NA,TRUE,5,1.0365,94.3383,97.3339,0,10,10,59,1,45,46,NA,NA,NA,NA,NA,1,11,"likert"
"67C755B1DA5740C58756E5FD16792FB3",1,"0198eced-d732-78c5-98fb-93fb82e07fa8","0198c493-061b-72b6-9f09-7b914e79ecc0","2025-08-27_22h08.13.860",NA,NA,100.6814,100.6815,100.6815,101.0306,NA,NA,NA,NA,NA,NA,NA,TRUE,5,1.6157,97.685,100.6809,0,11,11,24,1,21,26,NA,NA,NA,NA,NA,1,12,"likert"
"67C755B1DA5740C58756E5FD16792FB3",1,"0198eced-d732-78c5-98fb-93fb82e07fa8","0198c493-061b-72b6-9f09-7b914e79ecc0","2025-08-27_22h08.13.860",NA,NA,104.0281,104.0282,104.0283,104.3778,NA,NA,NA,NA,NA,NA,NA,TRUE,5,1.266,101.0323,104.028,0,12,12,77,1,90,54,NA,NA,NA,NA,NA,1,13,"likert"
"67C755B1DA5740C58756E5FD16792FB3",1,"0198eced-d732-78c5-98fb-93fb82e07fa8","0198c493-061b-72b6-9f09-7b914e79ecc0","2025-08-27_22h08.13.860",NA,NA,107.3759,107.3759,107.376,107.7248,NA,NA,NA,NA,NA,NA,NA,TRUE,5,1.353,104.3795,107.3754,0,13,13,70,1,60,47,NA,NA,NA,NA,NA,1,14,"likert"
"67C755B1DA5740C58756E5FD16792FB3",1,"0198eced-d732-78c5-98fb-93fb82e07fa8","0198c493-061b-72b6-9f09-7b914e79ecc0","2025-08-27_22h08.13.860",NA,NA,110.7222,110.9719,110.972,111.0717,NA,NA,NA,NA,NA,NA,NA,FALSE,NA,NA,107.7267,110.7221,0,14,14,13,1,12,26,NA,NA,NA,NA,NA,1,15,"likert"
"67C755B1DA5740C58756E5FD16792FB3",1,"0198eced-d732-78c5-98fb-93fb82e07fa8","0198c493-061b-72b6-9f09-7b914e79ecc0","2025-08-27_22h08.13.860",NA,NA,114.0859,114.0861,114.0861,114.4356,NA,NA,NA,NA,NA,NA,NA,TRUE,1,2.7351,111.0734,114.0858,0,15,15,96,1,180,27,NA,NA,NA,NA,NA,1,16,"likert"
"67C755B1DA5740C58756E5FD16792FB3",1,"0198eced-d732-78c5-98fb-93fb82e07fa8","0198c493-061b-72b6-9f09-7b914e79ecc0","2025-08-27_22h08.13.860",NA,NA,117.4332,117.4333,117.4333,117.7826,NA,NA,NA,NA,NA,NA,NA,TRUE,1,2.4815,114.4372,117.4331,0,16,16,107,1,200,54,NA,NA,NA,NA,NA,1,17,"likert"
"67C755B1DA5740C58756E5FD16792FB3",1,"0198eced-d732-78c5-98fb-93fb82e07fa8","0198c493-061b-72b6-9f09-7b914e79ecc0","2025-08-27_22h08.13.860",NA,NA,120.7801,120.7803,120.7803,121.1296,NA,NA,NA,NA,NA,NA,NA,TRUE,1,2.1933,117.7843,120.78,0,17,17,21,1,14,32,NA,NA,NA,NA,NA,1,18,"likert"
"67C755B1DA5740C58756E5FD16792FB3",1,"0198eced-d732-78c5-98fb-93fb82e07fa8","0198c493-061b-72b6-9f09-7b914e79ecc0","2025-08-27_22h08.13.860",NA,NA,124.1272,124.1273,124.1273,124.4769,NA,NA,NA,NA,NA,NA,NA,TRUE,1,0.8159,121.1313,124.1271,0,18,18,67,1,60,33,NA,NA,NA,NA,NA,1,19,"likert"
"67C755B1DA5740C58756E5FD16792FB3",1,"0198eced-d732-78c5-98fb-93fb82e07fa8","0198c493-061b-72b6-9f09-7b914e79ecc0","2025-08-27_22h08.13.860",NA,NA,127.4743,127.4744,127.4744,127.8239,NA,NA,NA,NA,NA,NA,NA,TRUE,1,0.8585,124.4785,127.4741,0,19,19,53,1,40,54,NA,NA,NA,NA,NA,1,20,"likert"
"67C755B1DA5740C58756E5FD16792FB3",1,"0198eced-d732-78c5-98fb-93fb82e07fa8","0198c493-061b-72b6-9f09-7b914e79ecc0","2025-08-27_22h08.13.860",NA,NA,130.8224,130.8225,130.8225,131.171,NA,NA,NA,NA,NA,NA,NA,TRUE,1,0.996,127.8256,130.8221,0,20,20,15,1,12,31,NA,NA,NA,NA,NA,1,21,"likert"
"67C755B1DA5740C58756E5FD16792FB3",1,"0198eced-d732-78c5-98fb-93fb82e07fa8","0198c493-061b-72b6-9f09-7b914e79ecc0","2025-08-27_22h08.13.860",NA,NA,134.1856,134.1859,134.186,134.5352,NA,NA,NA,NA,NA,NA,NA,TRUE,1,0.8845,131.1726,134.1851,0,21,21,88,1,100,46,NA,NA,NA,NA,NA,1,22,"likert"
"67C755B1DA5740C58756E5FD16792FB3",1,"0198eced-d732-78c5-98fb-93fb82e07fa8","0198c493-061b-72b6-9f09-7b914e79ecc0","2025-08-27_22h08.13.860",NA,NA,137.5322,137.5324,137.5324,137.8817,NA,NA,NA,NA,NA,NA,NA,TRUE,1,1.296,134.5377,137.5321,0,22,22,9,1,10,29,NA,NA,NA,NA,NA,1,23,"likert"
"67C755B1DA5740C58756E5FD16792FB3",1,"0198eced-d732-78c5-98fb-93fb82e07fa8","0198c493-061b-72b6-9f09-7b914e79ecc0","2025-08-27_22h08.13.860",NA,NA,140.8794,140.8795,140.8795,141.2288,NA,NA,NA,NA,NA,NA,NA,TRUE,1,0.6499,137.8832,140.8793,0,23,23,83,1,95,54,NA,NA,NA,NA,NA,1,24,"likert"
"67C755B1DA5740C58756E5FD16792FB3",1,"0198eced-d732-78c5-98fb-93fb82e07fa8","0198c493-061b-72b6-9f09-7b914e79ecc0","2025-08-27_22h08.13.860",NA,NA,144.2265,144.2265,144.2266,144.576,NA,NA,NA,NA,NA,NA,NA,TRUE,1,0.8993,141.2306,144.2263,0,24,24,43,1,30,27,NA,NA,NA,NA,NA,1,25,"likert"
"67C755B1DA5740C58756E5FD16792FB3",1,"0198eced-d732-78c5-98fb-93fb82e07fa8","0198c493-061b-72b6-9f09-7b914e79ecc0","2025-08-27_22h08.13.860",NA,NA,147.5734,147.5735,147.5735,147.9229,NA,NA,NA,NA,NA,NA,NA,TRUE,1,1.187,144.578,147.5733,0,25,25,28,1,21,32,NA,NA,NA,NA,NA,1,26,"likert"
"67C755B1DA5740C58756E5FD16792FB3",1,"0198eced-d732-78c5-98fb-93fb82e07fa8","0198c493-061b-72b6-9f09-7b914e79ecc0","2025-08-27_22h08.13.860",NA,NA,150.9372,150.9373,150.9373,151.2867,NA,NA,NA,NA,NA,NA,NA,TRUE,1,1.104,147.9245,150.937,0,26,26,69,1,60,40,NA,NA,NA,NA,NA,1,27,"likert"
"67C755B1DA5740C58756E5FD16792FB3",1,"0198eced-d732-78c5-98fb-93fb82e07fa8","0198c493-061b-72b6-9f09-7b914e79ecc0","2025-08-27_22h08.13.860",NA,NA,154.2844,154.2846,154.2846,154.6337,NA,NA,NA,NA,NA,NA,NA,TRUE,1,0.9312,151.2888,154.2841,0,27,27,65,1,50,54,NA,NA,NA,NA,NA,1,28,"likert"
"67C755B1DA5740C58756E5FD16792FB3",1,"0198eced-d732-78c5-98fb-93fb82e07fa8","0198c493-061b-72b6-9f09-7b914e79ecc0","2025-08-27_22h08.13.860",NA,NA,157.6314,157.6315,157.6315,157.9809,NA,NA,NA,NA,NA,NA,NA,TRUE,1,0.7204,154.6355,157.6312,0,28,28,106,1,200,47,NA,NA,NA,NA,NA,1,29,"likert"
"67C755B1DA5740C58756E5FD16792FB3",1,"0198eced-d732-78c5-98fb-93fb82e07fa8","0198c493-061b-72b6-9f09-7b914e79ecc0","2025-08-27_22h08.13.860",NA,NA,160.9785,160.9786,160.9786,161.3283,NA,NA,NA,NA,NA,NA,NA,TRUE,1,1.0129,157.9824,160.9784,0,29,29,11,1,10,32,NA,NA,NA,NA,NA,1,30,"likert"
"67C755B1DA5740C58756E5FD16792FB3",1,"0198eced-d732-78c5-98fb-93fb82e07fa8","0198c493-061b-72b6-9f09-7b914e79ecc0","2025-08-27_22h08.13.860",NA,NA,164.3257,164.3257,164.3257,164.675,NA,NA,NA,NA,NA,NA,NA,TRUE,1,0.6829,161.3306,164.3254,0,30,30,32,1,25,31,NA,NA,NA,NA,NA,1,31,"likert"
"67C755B1DA5740C58756E5FD16792FB3",1,"0198eced-d732-78c5-98fb-93fb82e07fa8","0198c493-061b-72b6-9f09-7b914e79ecc0","2025-08-27_22h08.13.860",NA,NA,167.6731,167.6732,167.6733,168.0223,NA,NA,NA,NA,NA,NA,NA,TRUE,1,0.7832,164.6768,167.6729,0,31,31,1,1,7,26,NA,NA,NA,NA,NA,1,32,"likert"
"67C755B1DA5740C58756E5FD16792FB3",1,"0198eced-d732-78c5-98fb-93fb82e07fa8","0198c493-061b-72b6-9f09-7b914e79ecc0","2025-08-27_22h08.13.860",NA,NA,171.0362,171.0365,171.0365,171.3859,NA,NA,NA,NA,NA,NA,NA,TRUE,1,1.132,168.0241,171.0362,0,32,32,54,1,45,26,NA,NA,NA,NA,NA,1,33,"likert"
"67C755B1DA5740C58756E5FD16792FB3",1,"0198eced-d732-78c5-98fb-93fb82e07fa8","0198c493-061b-72b6-9f09-7b914e79ecc0","2025-08-27_22h08.13.860",NA,NA,174.3833,174.3834,174.3835,174.7331,NA,NA,NA,NA,NA,NA,NA,TRUE,1,0.846,171.3875,174.3832,0,33,33,101,1,180,54,NA,NA,NA,NA,NA,1,34,"likert"
"67C755B1DA5740C58756E5FD16792FB3",1,"0198eced-d732-78c5-98fb-93fb82e07fa8","0198c493-061b-72b6-9f09-7b914e79ecc0","2025-08-27_22h08.13.860",NA,NA,177.7306,177.7306,177.7307,178.08,NA,NA,NA,NA,NA,NA,NA,TRUE,1,0.7658,174.735,177.7303,0,34,34,17,1,12,35,NA,NA,NA,NA,NA,1,35,"likert"
"67C755B1DA5740C58756E5FD16792FB3",1,"0198eced-d732-78c5-98fb-93fb82e07fa8","0198c493-061b-72b6-9f09-7b914e79ecc0","2025-08-27_22h08.13.860",NA,NA,181.0775,181.0776,181.0776,181.4275,NA,NA,NA,NA,NA,NA,NA,TRUE,1,1.0674,178.0819,181.0773,0,35,35,0,1,7,25,NA,NA,NA,NA,NA,1,36,"likert"
"67C755B1DA5740C58756E5FD16792FB3",1,"0198eced-d732-78c5-98fb-93fb82e07fa8","0198c493-061b-72b6-9f09-7b914e79ecc0","2025-08-27_22h08.13.860",NA,NA,184.4251,184.4252,184.4252,184.7742,NA,NA,NA,NA,NA,NA,NA,TRUE,1,1.4119,181.4292,184.4248,0,36,36,87,1,100,39,NA,NA,NA,NA,NA,1,37,"likert"
"67C755B1DA5740C58756E5FD16792FB3",1,"0198eced-d732-78c5-98fb-93fb82e07fa8","0198c493-061b-72b6-9f09-7b914e79ecc0","2025-08-27_22h08.13.860",NA,NA,187.7717,187.7718,187.7718,188.1253,NA,NA,NA,NA,NA,NA,NA,TRUE,1,1.4683,184.7763,187.7716,0,37,37,46,1,30,32,NA,NA,NA,NA,NA,1,38,"likert"
"67C755B1DA5740C58756E5FD16792FB3",1,"0198eced-d732-78c5-98fb-93fb82e07fa8","0198c493-061b-72b6-9f09-7b914e79ecc0","2025-08-27_22h08.13.860",NA,NA,191.1357,191.1358,191.1359,191.4849,NA,NA,NA,NA,NA,NA,NA,TRUE,1,1.0104,188.1269,191.1354,0,38,38,3,1,7,30,NA,NA,NA,NA,NA,1,39,"likert"
"67C755B1DA5740C58756E5FD16792FB3",1,"0198eced-d732-78c5-98fb-93fb82e07fa8","0198c493-061b-72b6-9f09-7b914e79ecc0","2025-08-27_22h08.13.860",NA,NA,194.4828,194.483,194.4831,194.8322,NA,NA,NA,NA,NA,NA,NA,TRUE,1,1.5454,191.4864,194.4825,0,39,39,66,1,60,29,NA,NA,NA,NA,NA,1,40,"likert"
"67C755B1DA5740C58756E5FD16792FB3",1,"0198eced-d732-78c5-98fb-93fb82e07fa8","0198c493-061b-72b6-9f09-7b914e79ecc0","2025-08-27_22h08.13.860",NA,NA,197.8297,197.8297,197.8298,198.1791,NA,NA,NA,NA,NA,NA,NA,TRUE,1,1.6093,194.8341,197.8295,0,40,40,14,1,12,28,NA,NA,NA,NA,NA,1,41,"likert"
"67C755B1DA5740C58756E5FD16792FB3",1,"0198eced-d732-78c5-98fb-93fb82e07fa8","0198c493-061b-72b6-9f09-7b914e79ecc0","2025-08-27_22h08.13.860",NA,NA,201.1766,201.1767,201.1767,201.5264,NA,NA,NA,NA,NA,NA,NA,TRUE,1,1.0866,198.1808,201.1765,0,41,41,71,1,60,54,NA,NA,NA,NA,NA,1,42,"likert"
"67C755B1DA5740C58756E5FD16792FB3",1,"0198eced-d732-78c5-98fb-93fb82e07fa8","0198c493-061b-72b6-9f09-7b914e79ecc0","2025-08-27_22h08.13.860",NA,NA,204.5238,204.7733,204.7733,204.8732,NA,NA,NA,NA,NA,NA,NA,FALSE,NA,NA,201.528,204.5236,0,42,42,4,1,7,32,NA,NA,NA,NA,NA,1,43,"likert"
"67C755B1DA5740C58756E5FD16792FB3",1,"0198eced-d732-78c5-98fb-93fb82e07fa8","0198c493-061b-72b6-9f09-7b914e79ecc0","2025-08-27_22h08.13.860",NA,NA,207.8711,208.1369,208.137,208.2371,NA,NA,NA,NA,NA,NA,NA,FALSE,NA,NA,204.8749,207.8709,0,43,43,81,1,95,40,NA,NA,NA,NA,NA,1,44,"likert"
"67C755B1DA5740C58756E5FD16792FB3",1,"0198eced-d732-78c5-98fb-93fb82e07fa8","0198c493-061b-72b6-9f09-7b914e79ecc0","2025-08-27_22h08.13.860",NA,NA,211.2348,211.2353,211.2354,211.584,NA,NA,NA,NA,NA,NA,NA,TRUE,1,0.8493,208.2389,211.2345,0,44,44,85,1,100,31,NA,NA,NA,NA,NA,1,45,"likert"
"67C755B1DA5740C58756E5FD16792FB3",1,"0198eced-d732-78c5-98fb-93fb82e07fa8","0198c493-061b-72b6-9f09-7b914e79ecc0","2025-08-27_22h08.13.860",NA,NA,214.5815,214.5816,214.5817,214.9311,NA,NA,NA,NA,NA,NA,NA,TRUE,1,0.6953,211.5866,214.5815,0,45,45,97,1,180,31,NA,NA,NA,NA,NA,1,46,"likert"
"67C755B1DA5740C58756E5FD16792FB3",1,"0198eced-d732-78c5-98fb-93fb82e07fa8","0198c493-061b-72b6-9f09-7b914e79ecc0","2025-08-27_22h08.13.860",NA,NA,217.9287,217.9288,217.9289,218.2782,NA,NA,NA,NA,NA,NA,NA,TRUE,1,0.6498,214.9329,217.9286,0,46,46,64,1,50,46,NA,NA,NA,NA,NA,1,47,"likert"
"67C755B1DA5740C58756E5FD16792FB3",1,"0198eced-d732-78c5-98fb-93fb82e07fa8","0198c493-061b-72b6-9f09-7b914e79ecc0","2025-08-27_22h08.13.860",NA,NA,221.2768,221.2768,221.2769,221.6253,NA,NA,NA,NA,NA,NA,NA,TRUE,1,1.0198,218.2797,221.2758,0,47,47,75,1,90,40,NA,NA,NA,NA,NA,1,48,"likert"
"67C755B1DA5740C58756E5FD16792FB3",1,"0198eced-d732-78c5-98fb-93fb82e07fa8","0198c493-061b-72b6-9f09-7b914e79ecc0","2025-08-27_22h08.13.860",NA,NA,224.623,224.623,224.623,224.9724,NA,NA,NA,NA,NA,NA,NA,TRUE,1,0.8833,221.6269,224.6228,0,48,48,49,1,40,33,NA,NA,NA,NA,NA,1,49,"likert"
"67C755B1DA5740C58756E5FD16792FB3",1,"0198eced-d732-78c5-98fb-93fb82e07fa8","0198c493-061b-72b6-9f09-7b914e79ecc0","2025-08-27_22h08.13.860",NA,NA,227.9868,227.9869,227.9869,228.3361,NA,NA,NA,NA,NA,NA,NA,TRUE,1,1.4202,224.9742,227.9866,0,49,49,10,1,10,30,NA,NA,NA,NA,NA,1,50,"likert"
"67C755B1DA5740C58756E5FD16792FB3",1,"0198eced-d732-78c5-98fb-93fb82e07fa8","0198c493-061b-72b6-9f09-7b914e79ecc0","2025-08-27_22h08.13.860",NA,NA,231.3338,231.3338,231.3338,231.6832,NA,NA,NA,NA,NA,NA,NA,TRUE,1,1.4482,228.3379,231.3335,0,50,50,25,1,21,27,NA,NA,NA,NA,NA,1,51,"likert"
"67C755B1DA5740C58756E5FD16792FB3",1,"0198eced-d732-78c5-98fb-93fb82e07fa8","0198c493-061b-72b6-9f09-7b914e79ecc0","2025-08-27_22h08.13.860",NA,NA,234.6808,234.6808,234.6809,235.0304,NA,NA,NA,NA,NA,NA,NA,TRUE,1,0.8775,231.6849,234.6806,0,51,51,48,1,40,27,NA,NA,NA,NA,NA,1,52,"likert"
"67C755B1DA5740C58756E5FD16792FB3",1,"0198eced-d732-78c5-98fb-93fb82e07fa8","0198c493-061b-72b6-9f09-7b914e79ecc0","2025-08-27_22h08.13.860",NA,NA,238.0279,238.028,238.0281,238.3773,NA,NA,NA,NA,NA,NA,NA,TRUE,1,0.6791,235.0321,238.0278,0,52,52,95,1,150,54,NA,NA,NA,NA,NA,1,53,"likert"
"67C755B1DA5740C58756E5FD16792FB3",1,"0198eced-d732-78c5-98fb-93fb82e07fa8","0198c493-061b-72b6-9f09-7b914e79ecc0","2025-08-27_22h08.13.860",NA,NA,241.3749,241.375,241.3751,241.7246,NA,NA,NA,NA,NA,NA,NA,TRUE,1,0.7466,238.3791,241.3747,0,53,53,94,1,150,47,NA,NA,NA,NA,NA,1,54,"likert"
"67C755B1DA5740C58756E5FD16792FB3",1,"0198eced-d732-78c5-98fb-93fb82e07fa8","0198c493-061b-72b6-9f09-7b914e79ecc0","2025-08-27_22h08.13.860",NA,NA,244.7221,244.7222,244.7222,245.0718,NA,NA,NA,NA,NA,NA,NA,TRUE,1,0.7958,241.7263,244.7219,0,54,54,105,1,200,39,NA,NA,NA,NA,NA,1,55,"likert"
"67C755B1DA5740C58756E5FD16792FB3",1,"0198eced-d732-78c5-98fb-93fb82e07fa8","0198c493-061b-72b6-9f09-7b914e79ecc0","2025-08-27_22h08.13.860",NA,NA,248.0857,248.0859,248.0859,248.4352,NA,NA,NA,NA,NA,NA,NA,TRUE,1,1.3521,245.0733,248.0856,0,55,55,93,1,150,40,NA,NA,NA,NA,NA,1,56,"likert"
"67C755B1DA5740C58756E5FD16792FB3",1,"0198eced-d732-78c5-98fb-93fb82e07fa8","0198c493-061b-72b6-9f09-7b914e79ecc0","2025-08-27_22h08.13.860",NA,NA,251.4329,251.4329,251.433,251.7823,NA,NA,NA,NA,NA,NA,NA,TRUE,1,2.0946,248.4368,251.4327,0,56,56,31,1,25,29,NA,NA,NA,NA,NA,1,57,"likert"
"67C755B1DA5740C58756E5FD16792FB3",1,"0198eced-d732-78c5-98fb-93fb82e07fa8","0198c493-061b-72b6-9f09-7b914e79ecc0","2025-08-27_22h08.13.860",NA,NA,254.78,254.78,254.78,255.1293,NA,NA,NA,NA,NA,NA,NA,TRUE,1,1.4647,251.784,254.7798,0,57,57,51,1,40,40,NA,NA,NA,NA,NA,1,58,"likert"
"67C755B1DA5740C58756E5FD16792FB3",1,"0198eced-d732-78c5-98fb-93fb82e07fa8","0198c493-061b-72b6-9f09-7b914e79ecc0","2025-08-27_22h08.13.860",NA,NA,258.1269,258.127,258.1271,258.4765,NA,NA,NA,NA,NA,NA,NA,TRUE,1,0.9109,255.1311,258.1268,0,58,58,79,1,95,33,NA,NA,NA,NA,NA,1,59,"likert"
"67C755B1DA5740C58756E5FD16792FB3",1,"0198eced-d732-78c5-98fb-93fb82e07fa8","0198c493-061b-72b6-9f09-7b914e79ecc0","2025-08-27_22h08.13.860",NA,NA,261.474,261.4741,261.4741,261.8235,NA,NA,NA,NA,NA,NA,NA,TRUE,1,1.3124,258.4783,261.4739,0,59,59,74,1,90,33,NA,NA,NA,NA,NA,1,60,"likert"
"67C755B1DA5740C58756E5FD16792FB3",1,"0198eced-d732-78c5-98fb-93fb82e07fa8","0198c493-061b-72b6-9f09-7b914e79ecc0","2025-08-27_22h08.13.860",NA,NA,264.8211,264.8212,264.8212,265.1873,NA,NA,NA,NA,NA,NA,NA,TRUE,1,0.9329,261.8254,264.821,0,60,60,78,1,95,31,NA,NA,NA,NA,NA,1,61,"likert"
"67C755B1DA5740C58756E5FD16792FB3",1,"0198eced-d732-78c5-98fb-93fb82e07fa8","0198c493-061b-72b6-9f09-7b914e79ecc0","2025-08-27_22h08.13.860",NA,NA,268.1849,268.185,268.1851,268.5343,NA,NA,NA,NA,NA,NA,NA,TRUE,1,1.1485,265.1891,268.1847,0,61,61,18,1,14,25,NA,NA,NA,NA,NA,1,62,"likert"
"67C755B1DA5740C58756E5FD16792FB3",1,"0198eced-d732-78c5-98fb-93fb82e07fa8","0198c493-061b-72b6-9f09-7b914e79ecc0","2025-08-27_22h08.13.860",NA,NA,271.5322,271.5325,271.5325,271.8814,NA,NA,NA,NA,NA,NA,NA,TRUE,1,0.9956,268.536,271.532,0,62,62,37,1,28,28,NA,NA,NA,NA,NA,1,63,"likert"
"67C755B1DA5740C58756E5FD16792FB3",1,"0198eced-d732-78c5-98fb-93fb82e07fa8","0198c493-061b-72b6-9f09-7b914e79ecc0","2025-08-27_22h08.13.860",NA,NA,274.8791,274.8792,274.8792,275.2288,NA,NA,NA,NA,NA,NA,NA,TRUE,1,0.8474,271.883,274.879,0,63,63,57,1,45,35,NA,NA,NA,NA,NA,1,64,"likert"
"67C755B1DA5740C58756E5FD16792FB3",1,"0198eced-d732-78c5-98fb-93fb82e07fa8","0198c493-061b-72b6-9f09-7b914e79ecc0","2025-08-27_22h08.13.860",NA,NA,278.2261,278.2262,278.2263,278.5766,NA,NA,NA,NA,NA,NA,NA,TRUE,1,0.8167,275.2305,278.226,0,64,64,23,1,14,39,NA,NA,NA,NA,NA,1,65,"likert"
"67C755B1DA5740C58756E5FD16792FB3",1,"0198eced-d732-78c5-98fb-93fb82e07fa8","0198c493-061b-72b6-9f09-7b914e79ecc0","2025-08-27_22h08.13.860",NA,NA,281.5733,281.5733,281.5734,281.924,NA,NA,NA,NA,NA,NA,NA,TRUE,1,0.4754,278.5782,281.5731,0,65,65,16,1,12,33,NA,NA,NA,NA,NA,1,66,"likert"
"67C755B1DA5740C58756E5FD16792FB3",1,"0198eced-d732-78c5-98fb-93fb82e07fa8","0198c493-061b-72b6-9f09-7b914e79ecc0","2025-08-27_22h08.13.860",NA,NA,284.937,284.937,284.9371,285.2865,NA,NA,NA,NA,NA,NA,NA,TRUE,1,0.5346,281.9255,284.9367,0,66,66,100,1,180,46,NA,NA,NA,NA,NA,1,67,"likert"
"67C755B1DA5740C58756E5FD16792FB3",1,"0198eced-d732-78c5-98fb-93fb82e07fa8","0198c493-061b-72b6-9f09-7b914e79ecc0","2025-08-27_22h08.13.860",NA,NA,288.284,288.2841,288.2841,288.6338,NA,NA,NA,NA,NA,NA,NA,TRUE,1,1.0785,285.288,288.2838,0,67,67,84,1,100,26,NA,NA,NA,NA,NA,1,68,"likert"
"67C755B1DA5740C58756E5FD16792FB3",1,"0198eced-d732-78c5-98fb-93fb82e07fa8","0198c493-061b-72b6-9f09-7b914e79ecc0","2025-08-27_22h08.13.860",NA,NA,291.6311,291.6312,291.6312,291.9805,NA,NA,NA,NA,NA,NA,NA,TRUE,1,1.1803,288.6358,291.631,0,68,68,82,1,95,47,NA,NA,NA,NA,NA,1,69,"likert"
"67C755B1DA5740C58756E5FD16792FB3",1,"0198eced-d732-78c5-98fb-93fb82e07fa8","0198c493-061b-72b6-9f09-7b914e79ecc0","2025-08-27_22h08.13.860",NA,NA,294.9784,294.9787,294.9787,295.3278,NA,NA,NA,NA,NA,NA,NA,TRUE,1,0.9828,291.9824,294.9784,0,69,69,20,1,14,28,NA,NA,NA,NA,NA,1,70,"likert"
"67C755B1DA5740C58756E5FD16792FB3",1,"0198eced-d732-78c5-98fb-93fb82e07fa8","0198c493-061b-72b6-9f09-7b914e79ecc0","2025-08-27_22h08.13.860",NA,NA,298.3253,298.3253,298.3253,298.6747,NA,NA,NA,NA,NA,NA,NA,TRUE,1,1.0323,295.3298,298.3251,0,70,70,72,1,90,26,NA,NA,NA,NA,NA,1,71,"likert"
"67C755B1DA5740C58756E5FD16792FB3",1,"0198eced-d732-78c5-98fb-93fb82e07fa8","0198c493-061b-72b6-9f09-7b914e79ecc0","2025-08-27_22h08.13.860",NA,NA,301.6727,301.6728,301.673,302.0218,NA,NA,NA,NA,NA,NA,NA,TRUE,1,1.5309,298.6764,301.6725,0,71,71,86,1,100,38,NA,NA,NA,NA,NA,1,72,"likert"
"67C755B1DA5740C58756E5FD16792FB3",1,"0198eced-d732-78c5-98fb-93fb82e07fa8","0198c493-061b-72b6-9f09-7b914e79ecc0","2025-08-27_22h08.13.860",NA,NA,305.0365,305.0368,305.0368,305.3854,NA,NA,NA,NA,NA,NA,NA,TRUE,1,1.1665,302.0233,305.036,0,72,72,102,1,200,26,NA,NA,NA,NA,NA,1,73,"likert"
"67C755B1DA5740C58756E5FD16792FB3",1,"0198eced-d732-78c5-98fb-93fb82e07fa8","0198c493-061b-72b6-9f09-7b914e79ecc0","2025-08-27_22h08.13.860",NA,NA,308.3833,308.3835,308.3836,308.7328,NA,NA,NA,NA,NA,NA,NA,TRUE,1,1.2158,305.3872,308.3831,0,73,73,73,1,90,30,NA,NA,NA,NA,NA,1,74,"likert"
"67C755B1DA5740C58756E5FD16792FB3",1,"0198eced-d732-78c5-98fb-93fb82e07fa8","0198c493-061b-72b6-9f09-7b914e79ecc0","2025-08-27_22h08.13.860",NA,NA,311.7303,311.7304,311.7304,312.0798,NA,NA,NA,NA,NA,NA,NA,TRUE,1,0.7825,308.7344,311.7302,0,74,74,6,1,10,25,NA,NA,NA,NA,NA,1,75,"likert"
"67C755B1DA5740C58756E5FD16792FB3",1,"0198eced-d732-78c5-98fb-93fb82e07fa8","0198c493-061b-72b6-9f09-7b914e79ecc0","2025-08-27_22h08.13.860",NA,NA,315.0774,315.0775,315.0775,315.427,NA,NA,NA,NA,NA,NA,NA,TRUE,1,0.9041,312.0824,315.0773,0,75,75,50,1,40,35,NA,NA,NA,NA,NA,1,76,"likert"
"67C755B1DA5740C58756E5FD16792FB3",1,"0198eced-d732-78c5-98fb-93fb82e07fa8","0198c493-061b-72b6-9f09-7b914e79ecc0","2025-08-27_22h08.13.860",NA,NA,318.4245,318.4245,318.4245,318.7738,NA,NA,NA,NA,NA,NA,NA,TRUE,1,0.705,315.4286,318.4243,0,76,76,80,1,95,35,NA,NA,NA,NA,NA,1,77,"likert"
"67C755B1DA5740C58756E5FD16792FB3",1,"0198eced-d732-78c5-98fb-93fb82e07fa8","0198c493-061b-72b6-9f09-7b914e79ecc0","2025-08-27_22h08.13.860",NA,NA,321.7719,321.772,321.772,322.121,NA,NA,NA,NA,NA,NA,NA,TRUE,1,1.5165,318.7753,321.7714,0,77,77,60,1,50,27,NA,NA,NA,NA,NA,1,78,"likert"
"67C755B1DA5740C58756E5FD16792FB3",1,"0198eced-d732-78c5-98fb-93fb82e07fa8","0198c493-061b-72b6-9f09-7b914e79ecc0","2025-08-27_22h08.13.860",NA,NA,325.1351,325.1352,325.1352,325.4846,NA,NA,NA,NA,NA,NA,NA,TRUE,1,1.1994,322.1225,325.135,0,78,78,61,1,50,30,NA,NA,NA,NA,NA,1,79,"likert"
"67C755B1DA5740C58756E5FD16792FB3",1,"0198eced-d732-78c5-98fb-93fb82e07fa8","0198c493-061b-72b6-9f09-7b914e79ecc0","2025-08-27_22h08.13.860",NA,NA,328.4824,328.4824,328.4824,328.8317,NA,NA,NA,NA,NA,NA,NA,TRUE,1,1.1986,325.4862,328.4821,0,79,79,19,1,14,26,NA,NA,NA,NA,NA,1,80,"likert"
"67C755B1DA5740C58756E5FD16792FB3",1,"0198eced-d732-78c5-98fb-93fb82e07fa8","0198c493-061b-72b6-9f09-7b914e79ecc0","2025-08-27_22h08.13.860",NA,NA,331.8292,331.8293,331.8294,332.1788,NA,NA,NA,NA,NA,NA,NA,TRUE,1,1.1608,328.8343,331.8292,0,80,80,41,1,28,46,NA,NA,NA,NA,NA,1,81,"likert"
"67C755B1DA5740C58756E5FD16792FB3",1,"0198eced-d732-78c5-98fb-93fb82e07fa8","0198c493-061b-72b6-9f09-7b914e79ecc0","2025-08-27_22h08.13.860",NA,NA,335.1764,335.1764,335.1765,335.5258,NA,NA,NA,NA,NA,NA,NA,TRUE,1,1.0668,332.1804,335.1762,0,81,81,68,1,60,35,NA,NA,NA,NA,NA,1,82,"likert"
"67C755B1DA5740C58756E5FD16792FB3",1,"0198eced-d732-78c5-98fb-93fb82e07fa8","0198c493-061b-72b6-9f09-7b914e79ecc0","2025-08-27_22h08.13.860",NA,NA,338.5235,338.5236,338.5236,338.873,NA,NA,NA,NA,NA,NA,NA,TRUE,1,1.166,335.5273,338.5233,0,82,82,58,1,45,40,NA,NA,NA,NA,NA,1,83,"likert"
"67C755B1DA5740C58756E5FD16792FB3",1,"0198eced-d732-78c5-98fb-93fb82e07fa8","0198c493-061b-72b6-9f09-7b914e79ecc0","2025-08-27_22h08.13.860",NA,NA,341.8873,341.8873,341.8873,342.2367,NA,NA,NA,NA,NA,NA,NA,TRUE,1,0.831,338.8746,341.8871,0,83,83,36,1,28,26,NA,NA,NA,NA,NA,1,84,"likert"
"67C755B1DA5740C58756E5FD16792FB3",1,"0198eced-d732-78c5-98fb-93fb82e07fa8","0198c493-061b-72b6-9f09-7b914e79ecc0","2025-08-27_22h08.13.860",NA,NA,345.235,345.2351,345.2351,345.5848,NA,NA,NA,NA,NA,NA,NA,TRUE,1,1.3487,342.2383,345.2344,0,84,84,2,1,7,28,NA,NA,NA,NA,NA,1,85,"likert"
"67C755B1DA5740C58756E5FD16792FB3",1,"0198eced-d732-78c5-98fb-93fb82e07fa8","0198c493-061b-72b6-9f09-7b914e79ecc0","2025-08-27_22h08.13.860",NA,NA,348.5813,348.5815,348.5815,348.931,NA,NA,NA,NA,NA,NA,NA,TRUE,1,1.5309,345.5862,348.5812,0,85,85,22,1,14,35,NA,NA,NA,NA,NA,1,86,"likert"
"67C755B1DA5740C58756E5FD16792FB3",1,"0198eced-d732-78c5-98fb-93fb82e07fa8","0198c493-061b-72b6-9f09-7b914e79ecc0","2025-08-27_22h08.13.860",NA,NA,351.9285,351.9286,351.9286,352.278,NA,NA,NA,NA,NA,NA,NA,TRUE,1,0.984,348.9329,351.9283,0,86,86,45,1,30,30,NA,NA,NA,NA,NA,1,87,"likert"
"67C755B1DA5740C58756E5FD16792FB3",1,"0198eced-d732-78c5-98fb-93fb82e07fa8","0198c493-061b-72b6-9f09-7b914e79ecc0","2025-08-27_22h08.13.860",NA,NA,355.2755,355.2756,355.2756,355.6251,NA,NA,NA,NA,NA,NA,NA,TRUE,1,0.9831,352.2794,355.2754,0,87,87,47,1,30,38,NA,NA,NA,NA,NA,1,88,"likert"
"67C755B1DA5740C58756E5FD16792FB3",1,"0198eced-d732-78c5-98fb-93fb82e07fa8","0198c493-061b-72b6-9f09-7b914e79ecc0","2025-08-27_22h08.13.860",NA,NA,358.6227,358.6227,358.6229,358.9721,NA,NA,NA,NA,NA,NA,NA,TRUE,1,0.8982,355.6273,358.6225,0,88,88,89,1,100,54,NA,NA,NA,NA,NA,1,89,"likert"
"67C755B1DA5740C58756E5FD16792FB3",1,"0198eced-d732-78c5-98fb-93fb82e07fa8","0198c493-061b-72b6-9f09-7b914e79ecc0","2025-08-27_22h08.13.860",NA,NA,361.9863,361.9864,361.9864,362.3357,NA,NA,NA,NA,NA,NA,NA,TRUE,1,0.8366,358.9737,361.9862,0,89,89,8,1,10,27,NA,NA,NA,NA,NA,1,90,"likert"
"67C755B1DA5740C58756E5FD16792FB3",1,"0198eced-d732-78c5-98fb-93fb82e07fa8","0198c493-061b-72b6-9f09-7b914e79ecc0","2025-08-27_22h08.13.860",NA,NA,365.3333,365.3335,365.3336,365.683,NA,NA,NA,NA,NA,NA,NA,TRUE,1,0.7027,362.3375,365.3332,0,90,90,104,1,200,35,NA,NA,NA,NA,NA,1,91,"likert"
"67C755B1DA5740C58756E5FD16792FB3",1,"0198eced-d732-78c5-98fb-93fb82e07fa8","0198c493-061b-72b6-9f09-7b914e79ecc0","2025-08-27_22h08.13.860",NA,NA,368.6805,368.6805,368.6806,369.0301,NA,NA,NA,NA,NA,NA,NA,TRUE,1,0.8456,365.6846,368.6803,0,91,91,27,1,21,30,NA,NA,NA,NA,NA,1,92,"likert"
"67C755B1DA5740C58756E5FD16792FB3",1,"0198eced-d732-78c5-98fb-93fb82e07fa8","0198c493-061b-72b6-9f09-7b914e79ecc0","2025-08-27_22h08.13.860",NA,NA,372.0276,372.0277,372.0277,372.377,NA,NA,NA,NA,NA,NA,NA,TRUE,1,0.8327,369.0318,372.0275,0,92,92,39,1,28,35,NA,NA,NA,NA,NA,1,93,"likert"
"67C755B1DA5740C58756E5FD16792FB3",1,"0198eced-d732-78c5-98fb-93fb82e07fa8","0198c493-061b-72b6-9f09-7b914e79ecc0","2025-08-27_22h08.13.860",NA,NA,375.3746,375.3748,375.3748,375.7241,NA,NA,NA,NA,NA,NA,NA,TRUE,1,1.0362,372.3788,375.3745,0,93,93,63,1,50,40,NA,NA,NA,NA,NA,1,94,"likert"
"67C755B1DA5740C58756E5FD16792FB3",1,"0198eced-d732-78c5-98fb-93fb82e07fa8","0198c493-061b-72b6-9f09-7b914e79ecc0","2025-08-27_22h08.13.860",NA,NA,378.7218,378.7218,378.7218,379.0713,NA,NA,NA,NA,NA,NA,NA,TRUE,1,1.2467,375.7258,378.7216,0,94,94,55,1,45,29,NA,NA,NA,NA,NA,1,95,"likert"
"67C755B1DA5740C58756E5FD16792FB3",1,"0198eced-d732-78c5-98fb-93fb82e07fa8","0198c493-061b-72b6-9f09-7b914e79ecc0","2025-08-27_22h08.13.860",NA,NA,382.086,382.0862,382.0863,382.4349,NA,NA,NA,NA,NA,NA,NA,TRUE,1,1.0624,379.0733,382.0854,0,95,95,42,1,30,26,NA,NA,NA,NA,NA,1,96,"likert"
"67C755B1DA5740C58756E5FD16792FB3",1,"0198eced-d732-78c5-98fb-93fb82e07fa8","0198c493-061b-72b6-9f09-7b914e79ecc0","2025-08-27_22h08.13.860",NA,NA,385.4326,385.4326,385.4326,385.7821,NA,NA,NA,NA,NA,NA,NA,TRUE,1,0.7828,382.4366,385.4325,0,96,96,34,1,25,35,NA,NA,NA,NA,NA,1,97,"likert"
"67C755B1DA5740C58756E5FD16792FB3",1,"0198eced-d732-78c5-98fb-93fb82e07fa8","0198c493-061b-72b6-9f09-7b914e79ecc0","2025-08-27_22h08.13.860",NA,NA,388.7797,388.7798,388.7798,389.1291,NA,NA,NA,NA,NA,NA,NA,TRUE,1,0.4206,385.7834,388.7796,0,97,97,91,1,150,33,NA,NA,NA,NA,NA,1,98,"likert"
"67C755B1DA5740C58756E5FD16792FB3",1,"0198eced-d732-78c5-98fb-93fb82e07fa8","0198c493-061b-72b6-9f09-7b914e79ecc0","2025-08-27_22h08.13.860",NA,NA,392.1267,392.1267,392.1268,392.4761,NA,NA,NA,NA,NA,NA,NA,TRUE,1,0.8293,389.131,392.1265,0,98,98,26,1,21,29,NA,NA,NA,NA,NA,1,99,"likert"
"67C755B1DA5740C58756E5FD16792FB3",1,"0198eced-d732-78c5-98fb-93fb82e07fa8","0198c493-061b-72b6-9f09-7b914e79ecc0","2025-08-27_22h08.13.860",NA,NA,395.4738,395.4739,395.474,395.8232,NA,NA,NA,NA,NA,NA,NA,TRUE,1,1.2624,392.4778,395.4736,0,99,99,33,1,25,33,NA,NA,NA,NA,NA,1,100,"likert"
"67C755B1DA5740C58756E5FD16792FB3",1,"0198eced-d732-78c5-98fb-93fb82e07fa8","0198c493-061b-72b6-9f09-7b914e79ecc0","2025-08-27_22h08.13.860",NA,NA,398.8208,398.8209,398.8209,399.1871,NA,NA,NA,NA,NA,NA,NA,TRUE,1,1.0846,395.8248,398.8207,0,100,100,76,1,90,46,NA,NA,NA,NA,NA,1,101,"likert"
"67C755B1DA5740C58756E5FD16792FB3",1,"0198eced-d732-78c5-98fb-93fb82e07fa8","0198c493-061b-72b6-9f09-7b914e79ecc0","2025-08-27_22h08.13.860",NA,NA,402.1846,402.1847,402.1847,402.534,NA,NA,NA,NA,NA,NA,NA,TRUE,1,0.8838,399.1887,402.1844,0,101,101,62,1,50,35,NA,NA,NA,NA,NA,1,102,"likert"
"67C755B1DA5740C58756E5FD16792FB3",1,"0198eced-d732-78c5-98fb-93fb82e07fa8","0198c493-061b-72b6-9f09-7b914e79ecc0","2025-08-27_22h08.13.860",NA,NA,405.5326,405.5327,405.5327,405.8813,NA,NA,NA,NA,NA,NA,NA,TRUE,1,0.8487,402.5356,405.5323,0,102,102,5,1,7,35,NA,NA,NA,NA,NA,1,103,"likert"
"67C755B1DA5740C58756E5FD16792FB3",1,"0198eced-d732-78c5-98fb-93fb82e07fa8","0198c493-061b-72b6-9f09-7b914e79ecc0","2025-08-27_22h08.13.860",NA,NA,408.8788,408.8788,408.8788,409.2283,NA,NA,NA,NA,NA,NA,NA,TRUE,1,1.0638,405.8835,408.8785,0,103,103,103,1,200,28,NA,NA,NA,NA,NA,1,104,"likert"
"67C755B1DA5740C58756E5FD16792FB3",1,"0198eced-d732-78c5-98fb-93fb82e07fa8","0198c493-061b-72b6-9f09-7b914e79ecc0","2025-08-27_22h08.13.860",NA,NA,412.2258,412.2258,412.2259,412.5754,NA,NA,NA,NA,NA,NA,NA,TRUE,1,0.9127,409.2299,412.2256,0,104,104,40,1,28,39,NA,NA,NA,NA,NA,1,105,"likert"
"67C755B1DA5740C58756E5FD16792FB3",1,"0198eced-d732-78c5-98fb-93fb82e07fa8","0198c493-061b-72b6-9f09-7b914e79ecc0","2025-08-27_22h08.13.860",NA,NA,415.573,415.5731,415.5731,415.9224,NA,NA,NA,NA,NA,NA,NA,TRUE,1,1.2862,412.5778,415.5728,0,105,105,7,1,10,26,NA,NA,NA,NA,NA,1,106,"likert"
"67C755B1DA5740C58756E5FD16792FB3",1,"0198eced-d732-78c5-98fb-93fb82e07fa8","0198c493-061b-72b6-9f09-7b914e79ecc0","2025-08-27_22h08.13.860",NA,NA,418.9369,418.937,418.9372,419.286,NA,NA,NA,NA,NA,NA,NA,TRUE,1,0.9159,415.9242,418.9367,0,106,106,44,1,30,29,NA,NA,NA,NA,NA,1,107,"likert"
"67C755B1DA5740C58756E5FD16792FB3",1,"0198eced-d732-78c5-98fb-93fb82e07fa8","0198c493-061b-72b6-9f09-7b914e79ecc0","2025-08-27_22h08.13.860",NA,NA,422.2853,422.2857,422.2858,422.6331,NA,NA,NA,NA,NA,NA,NA,TRUE,1,0.7636,419.2877,422.2851,0,107,107,98,1,180,35,NA,NA,NA,NA,NA,1,108,"likert"
"67C755B1DA5740C58756E5FD16792FB3",1,"0198eced-d732-78c5-98fb-93fb82e07fa8","0198c493-061b-72b6-9f09-7b914e79ecc0","2025-08-27_22h08.13.860",NA,NA,428.5286,428.5286,428.5287,428.8778,NA,NA,NA,NA,NA,NA,NA,TRUE,1,1.7227,425.5751,428.5283,NA,NA,NA,NA,NA,200,54,0,0,0,107,1,2,1,"likert"
"67C755B1DA5740C58756E5FD16792FB3",1,"0198eced-d732-78c5-98fb-93fb82e07fa8","0198c493-061b-72b6-9f09-7b914e79ecc0","2025-08-27_22h08.13.860",NA,NA,431.8754,431.8755,431.8755,432.2248,NA,NA,NA,NA,NA,NA,NA,TRUE,1,0.879,428.8795,431.8752,NA,NA,NA,NA,NA,50,27,0,1,1,60,1,2,2,"likert"
"67C755B1DA5740C58756E5FD16792FB3",1,"0198eced-d732-78c5-98fb-93fb82e07fa8","0198c493-061b-72b6-9f09-7b914e79ecc0","2025-08-27_22h08.13.860",NA,NA,435.2225,435.2226,435.2227,435.572,NA,NA,NA,NA,NA,NA,NA,TRUE,1,0.7659,432.2269,435.2223,NA,NA,NA,NA,NA,90,26,0,2,2,72,1,2,3,"likert"
"67C755B1DA5740C58756E5FD16792FB3",1,"0198eced-d732-78c5-98fb-93fb82e07fa8","0198c493-061b-72b6-9f09-7b914e79ecc0","2025-08-27_22h08.13.860",NA,NA,438.5721,438.5721,438.5724,438.9364,NA,NA,NA,NA,NA,NA,NA,TRUE,1,1.0053,435.5736,438.5718,NA,NA,NA,NA,NA,100,26,0,3,3,84,1,2,4,"likert"
"67C755B1DA5740C58756E5FD16792FB3",1,"0198eced-d732-78c5-98fb-93fb82e07fa8","0198c493-061b-72b6-9f09-7b914e79ecc0","2025-08-27_22h08.13.860",NA,NA,441.9332,441.9333,441.9334,442.2827,NA,NA,NA,NA,NA,NA,NA,TRUE,1,1.7146,438.938,441.9331,NA,NA,NA,NA,NA,28,35,0,4,4,39,1,2,5,"likert"
"67C755B1DA5740C58756E5FD16792FB3",1,"0198eced-d732-78c5-98fb-93fb82e07fa8","0198c493-061b-72b6-9f09-7b914e79ecc0","2025-08-27_22h08.13.860",NA,NA,445.2804,445.2804,445.2804,445.6298,NA,NA,NA,NA,NA,NA,NA,TRUE,1,0.9335,442.2842,445.2802,NA,NA,NA,NA,NA,21,38,0,5,5,29,1,2,6,"likert"
"67C755B1DA5740C58756E5FD16792FB3",1,"0198eced-d732-78c5-98fb-93fb82e07fa8","0198c493-061b-72b6-9f09-7b914e79ecc0","2025-08-27_22h08.13.860",NA,NA,448.6274,448.6275,448.6275,448.9768,NA,NA,NA,NA,NA,NA,NA,TRUE,1,0.9041,445.6314,448.6272,NA,NA,NA,NA,NA,95,31,0,6,6,78,1,2,7,"likert"
"67C755B1DA5740C58756E5FD16792FB3",1,"0198eced-d732-78c5-98fb-93fb82e07fa8","0198c493-061b-72b6-9f09-7b914e79ecc0","2025-08-27_22h08.13.860",NA,NA,451.9745,451.9745,451.9745,452.3239,NA,NA,NA,NA,NA,NA,NA,TRUE,1,0.7301,448.9785,451.9743,NA,NA,NA,NA,NA,40,33,0,7,7,49,1,2,8,"likert"
"67C755B1DA5740C58756E5FD16792FB3",1,"0198eced-d732-78c5-98fb-93fb82e07fa8","0198c493-061b-72b6-9f09-7b914e79ecc0","2025-08-27_22h08.13.860",NA,NA,455.3216,455.3216,455.3217,455.6725,NA,NA,NA,NA,NA,NA,NA,TRUE,1,0.7202,452.3254,455.3215,NA,NA,NA,NA,NA,50,54,0,8,8,65,1,2,9,"likert"
"67C755B1DA5740C58756E5FD16792FB3",1,"0198eced-d732-78c5-98fb-93fb82e07fa8","0198c493-061b-72b6-9f09-7b914e79ecc0","2025-08-27_22h08.13.860",NA,NA,458.6852,458.6854,458.6854,459.0348,NA,NA,NA,NA,NA,NA,NA,TRUE,1,0.7163,455.6748,458.6851,NA,NA,NA,NA,NA,14,25,0,9,9,18,1,2,10,"likert"
"67C755B1DA5740C58756E5FD16792FB3",1,"0198eced-d732-78c5-98fb-93fb82e07fa8","0198c493-061b-72b6-9f09-7b914e79ecc0","2025-08-27_22h08.13.860",NA,NA,462.0324,462.0324,462.0324,462.3818,NA,NA,NA,NA,NA,NA,NA,TRUE,1,0.7657,459.0364,462.0322,NA,NA,NA,NA,NA,180,31,0,10,10,97,1,2,11,"likert"
"67C755B1DA5740C58756E5FD16792FB3",1,"0198eced-d732-78c5-98fb-93fb82e07fa8","0198c493-061b-72b6-9f09-7b914e79ecc0","2025-08-27_22h08.13.860",NA,NA,465.3794,465.3795,465.3795,465.729,NA,NA,NA,NA,NA,NA,NA,TRUE,1,1.1207,462.3835,465.3793,NA,NA,NA,NA,NA,7,30,0,11,11,3,1,2,12,"likert"
"67C755B1DA5740C58756E5FD16792FB3",1,"0198eced-d732-78c5-98fb-93fb82e07fa8","0198c493-061b-72b6-9f09-7b914e79ecc0","2025-08-27_22h08.13.860",NA,NA,468.7267,468.7268,468.7268,469.076,NA,NA,NA,NA,NA,NA,NA,TRUE,1,0.5949,465.7306,468.7266,NA,NA,NA,NA,NA,60,40,0,12,12,69,1,2,13,"likert"
"67C755B1DA5740C58756E5FD16792FB3",1,"0198eced-d732-78c5-98fb-93fb82e07fa8","0198c493-061b-72b6-9f09-7b914e79ecc0","2025-08-27_22h08.13.860",NA,NA,472.0735,472.0736,472.0736,472.4231,NA,NA,NA,NA,NA,NA,NA,TRUE,1,0.7967,469.0776,472.0734,NA,NA,NA,NA,NA,180,54,0,13,13,101,1,2,14,"likert"
"67C755B1DA5740C58756E5FD16792FB3",1,"0198eced-d732-78c5-98fb-93fb82e07fa8","0198c493-061b-72b6-9f09-7b914e79ecc0","2025-08-27_22h08.13.860",NA,NA,475.4207,475.4208,475.4209,475.7703,NA,NA,NA,NA,NA,NA,NA,TRUE,1,0.8127,472.4247,475.4205,NA,NA,NA,NA,NA,30,29,0,14,14,44,1,2,15,"likert"
"67C755B1DA5740C58756E5FD16792FB3",1,"0198eced-d732-78c5-98fb-93fb82e07fa8","0198c493-061b-72b6-9f09-7b914e79ecc0","2025-08-27_22h08.13.860",NA,NA,478.7844,478.7845,478.7845,479.1338,NA,NA,NA,NA,NA,NA,NA,TRUE,1,0.9165,475.7722,478.7842,NA,NA,NA,NA,NA,40,40,0,15,15,51,1,2,16,"likert"
"67C755B1DA5740C58756E5FD16792FB3",1,"0198eced-d732-78c5-98fb-93fb82e07fa8","0198c493-061b-72b6-9f09-7b914e79ecc0","2025-08-27_22h08.13.860",NA,NA,482.1316,482.1316,482.1316,482.4823,NA,NA,NA,NA,NA,NA,NA,TRUE,1,1.046,479.1355,482.1314,NA,NA,NA,NA,NA,25,29,0,16,16,31,1,2,17,"likert"
"67C755B1DA5740C58756E5FD16792FB3",1,"0198eced-d732-78c5-98fb-93fb82e07fa8","0198c493-061b-72b6-9f09-7b914e79ecc0","2025-08-27_22h08.13.860",NA,NA,485.4792,485.4793,485.4794,485.828,NA,NA,NA,NA,NA,NA,NA,TRUE,1,0.7428,482.4844,485.4791,NA,NA,NA,NA,NA,200,39,0,17,17,105,1,2,18,"likert"
"67C755B1DA5740C58756E5FD16792FB3",1,"0198eced-d732-78c5-98fb-93fb82e07fa8","0198c493-061b-72b6-9f09-7b914e79ecc0","2025-08-27_22h08.13.860",NA,NA,488.8256,488.8257,488.8257,489.1751,NA,NA,NA,NA,NA,NA,NA,TRUE,1,0.7324,485.8297,488.8255,NA,NA,NA,NA,NA,45,46,0,18,18,59,1,2,19,"likert"
"67C755B1DA5740C58756E5FD16792FB3",1,"0198eced-d732-78c5-98fb-93fb82e07fa8","0198c493-061b-72b6-9f09-7b914e79ecc0","2025-08-27_22h08.13.860",NA,NA,492.1727,492.1727,492.1728,492.5222,NA,NA,NA,NA,NA,NA,NA,TRUE,1,1.1176,489.1777,492.1726,NA,NA,NA,NA,NA,40,35,0,19,19,50,1,2,20,"likert"
"67C755B1DA5740C58756E5FD16792FB3",1,"0198eced-d732-78c5-98fb-93fb82e07fa8","0198c493-061b-72b6-9f09-7b914e79ecc0","2025-08-27_22h08.13.860",NA,NA,495.5364,495.5365,495.5367,495.8859,NA,NA,NA,NA,NA,NA,NA,TRUE,1,1.2503,492.5239,495.5363,NA,NA,NA,NA,NA,25,35,0,20,20,34,1,2,21,"likert"
"67C755B1DA5740C58756E5FD16792FB3",1,"0198eced-d732-78c5-98fb-93fb82e07fa8","0198c493-061b-72b6-9f09-7b914e79ecc0","2025-08-27_22h08.13.860",NA,NA,498.8835,498.8837,498.8837,499.2332,NA,NA,NA,NA,NA,NA,NA,TRUE,1,0.8489,495.8877,498.8834,NA,NA,NA,NA,NA,100,46,0,21,21,88,1,2,22,"likert"
"67C755B1DA5740C58756E5FD16792FB3",1,"0198eced-d732-78c5-98fb-93fb82e07fa8","0198c493-061b-72b6-9f09-7b914e79ecc0","2025-08-27_22h08.13.860",NA,NA,502.2306,502.2307,502.2307,502.5801,NA,NA,NA,NA,NA,NA,NA,TRUE,1,0.7544,499.2348,502.2305,NA,NA,NA,NA,NA,28,32,0,22,22,38,1,2,23,"likert"
"67C755B1DA5740C58756E5FD16792FB3",1,"0198eced-d732-78c5-98fb-93fb82e07fa8","0198c493-061b-72b6-9f09-7b914e79ecc0","2025-08-27_22h08.13.860",NA,NA,505.5784,505.5785,505.5786,505.9273,NA,NA,NA,NA,NA,NA,NA,TRUE,1,0.8487,502.5818,505.5777,NA,NA,NA,NA,NA,180,46,0,23,23,100,1,2,24,"likert"
"67C755B1DA5740C58756E5FD16792FB3",1,"0198eced-d732-78c5-98fb-93fb82e07fa8","0198c493-061b-72b6-9f09-7b914e79ecc0","2025-08-27_22h08.13.860",NA,NA,508.9248,508.9249,508.9249,509.2742,NA,NA,NA,NA,NA,NA,NA,TRUE,1,0.7032,505.929,508.9247,NA,NA,NA,NA,NA,12,35,0,24,24,17,1,2,25,"likert"
"67C755B1DA5740C58756E5FD16792FB3",1,"0198eced-d732-78c5-98fb-93fb82e07fa8","0198c493-061b-72b6-9f09-7b914e79ecc0","2025-08-27_22h08.13.860",NA,NA,512.2719,512.2719,512.2719,512.6215,NA,NA,NA,NA,NA,NA,NA,TRUE,1,1.0701,509.2758,512.2716,NA,NA,NA,NA,NA,30,27,0,25,25,43,1,2,26,"likert"
"67C755B1DA5740C58756E5FD16792FB3",1,"0198eced-d732-78c5-98fb-93fb82e07fa8","0198c493-061b-72b6-9f09-7b914e79ecc0","2025-08-27_22h08.13.860",NA,NA,515.6358,515.636,515.6361,515.9853,NA,NA,NA,NA,NA,NA,NA,TRUE,1,0.6511,512.6234,515.6357,NA,NA,NA,NA,NA,200,47,0,26,26,106,1,2,27,"likert"
"67C755B1DA5740C58756E5FD16792FB3",1,"0198eced-d732-78c5-98fb-93fb82e07fa8","0198c493-061b-72b6-9f09-7b914e79ecc0","2025-08-27_22h08.13.860",NA,NA,518.9825,518.9827,518.9827,519.3322,NA,NA,NA,NA,NA,NA,NA,TRUE,1,0.7852,515.9876,518.9825,NA,NA,NA,NA,NA,45,29,0,27,27,55,1,2,28,"likert"
"67C755B1DA5740C58756E5FD16792FB3",1,"0198eced-d732-78c5-98fb-93fb82e07fa8","0198c493-061b-72b6-9f09-7b914e79ecc0","2025-08-27_22h08.13.860",NA,NA,522.3298,522.3298,522.3299,522.6793,NA,NA,NA,NA,NA,NA,NA,TRUE,1,0.9674,519.3344,522.3297,NA,NA,NA,NA,NA,25,46,0,28,28,35,1,2,29,"likert"
"67C755B1DA5740C58756E5FD16792FB3",1,"0198eced-d732-78c5-98fb-93fb82e07fa8","0198c493-061b-72b6-9f09-7b914e79ecc0","2025-08-27_22h08.13.860",NA,NA,525.6768,525.677,525.677,526.0263,NA,NA,NA,NA,NA,NA,NA,TRUE,1,0.9455,522.681,525.6767,NA,NA,NA,NA,NA,150,31,0,29,29,90,1,2,30,"likert"
"67C755B1DA5740C58756E5FD16792FB3",1,"0198eced-d732-78c5-98fb-93fb82e07fa8","0198c493-061b-72b6-9f09-7b914e79ecc0","2025-08-27_22h08.13.860",NA,NA,529.0238,529.024,529.024,529.3733,NA,NA,NA,NA,NA,NA,NA,TRUE,1,1.4099,526.0289,529.0238,NA,NA,NA,NA,NA,100,54,0,30,30,89,1,2,31,"likert"
"67C755B1DA5740C58756E5FD16792FB3",1,"0198eced-d732-78c5-98fb-93fb82e07fa8","0198c493-061b-72b6-9f09-7b914e79ecc0","2025-08-27_22h08.13.860",NA,NA,532.371,532.3711,532.3711,532.7208,NA,NA,NA,NA,NA,NA,NA,TRUE,1,1.2288,529.375,532.3709,NA,NA,NA,NA,NA,50,35,0,31,31,62,1,2,32,"likert"
"67C755B1DA5740C58756E5FD16792FB3",1,"0198eced-d732-78c5-98fb-93fb82e07fa8","0198c493-061b-72b6-9f09-7b914e79ecc0","2025-08-27_22h08.13.860",NA,NA,535.7347,535.7348,535.7348,536.0842,NA,NA,NA,NA,NA,NA,NA,TRUE,1,0.8203,532.7221,535.7345,NA,NA,NA,NA,NA,90,46,0,32,32,76,1,2,33,"likert"
"67C755B1DA5740C58756E5FD16792FB3",1,"0198eced-d732-78c5-98fb-93fb82e07fa8","0198c493-061b-72b6-9f09-7b914e79ecc0","2025-08-27_22h08.13.860",NA,NA,539.082,539.082,539.0821,539.4313,NA,NA,NA,NA,NA,NA,NA,TRUE,1,0.4665,536.0859,539.0817,NA,NA,NA,NA,NA,21,26,0,33,33,24,1,2,34,"likert"
"67C755B1DA5740C58756E5FD16792FB3",1,"0198eced-d732-78c5-98fb-93fb82e07fa8","0198c493-061b-72b6-9f09-7b914e79ecc0","2025-08-27_22h08.13.860",NA,NA,542.429,542.429,542.429,542.7785,NA,NA,NA,NA,NA,NA,NA,TRUE,1,0.5651,539.433,542.4288,NA,NA,NA,NA,NA,21,30,0,34,34,27,1,2,35,"likert"
"67C755B1DA5740C58756E5FD16792FB3",1,"0198eced-d732-78c5-98fb-93fb82e07fa8","0198c493-061b-72b6-9f09-7b914e79ecc0","2025-08-27_22h08.13.860",NA,NA,545.776,545.7761,545.7762,546.1254,NA,NA,NA,NA,NA,NA,NA,TRUE,1,0.4164,542.7806,545.7758,NA,NA,NA,NA,NA,12,28,0,35,35,14,1,2,36,"likert"
"67C755B1DA5740C58756E5FD16792FB3",1,"0198eced-d732-78c5-98fb-93fb82e07fa8","0198c493-061b-72b6-9f09-7b914e79ecc0","2025-08-27_22h08.13.860",NA,NA,549.123,549.1231,549.1231,549.4725,NA,NA,NA,NA,NA,NA,NA,TRUE,1,0.7333,546.1272,549.1229,NA,NA,NA,NA,NA,7,28,0,36,36,2,1,2,37,"likert"
"67C755B1DA5740C58756E5FD16792FB3",1,"0198eced-d732-78c5-98fb-93fb82e07fa8","0198c493-061b-72b6-9f09-7b914e79ecc0","2025-08-27_22h08.13.860",NA,NA,552.4868,552.4869,552.4869,552.8362,NA,NA,NA,NA,NA,NA,NA,TRUE,1,0.5164,549.4741,552.4866,NA,NA,NA,NA,NA,180,27,0,37,37,96,1,2,38,"likert"
"67C755B1DA5740C58756E5FD16792FB3",1,"0198eced-d732-78c5-98fb-93fb82e07fa8","0198c493-061b-72b6-9f09-7b914e79ecc0","2025-08-27_22h08.13.860",NA,NA,555.8339,555.8339,555.8339,556.1832,NA,NA,NA,NA,NA,NA,NA,TRUE,1,0.9681,552.8379,555.8337,NA,NA,NA,NA,NA,180,35,0,38,38,98,1,2,39,"likert"
"67C755B1DA5740C58756E5FD16792FB3",1,"0198eced-d732-78c5-98fb-93fb82e07fa8","0198c493-061b-72b6-9f09-7b914e79ecc0","2025-08-27_22h08.13.860",NA,NA,559.1809,559.181,559.181,559.5304,NA,NA,NA,NA,NA,NA,NA,TRUE,1,0.8991,556.1847,559.1808,NA,NA,NA,NA,NA,60,35,0,39,39,68,1,2,40,"likert"
"67C755B1DA5740C58756E5FD16792FB3",1,"0198eced-d732-78c5-98fb-93fb82e07fa8","0198c493-061b-72b6-9f09-7b914e79ecc0","2025-08-27_22h08.13.860",NA,NA,562.5279,562.528,562.528,562.8775,NA,NA,NA,NA,NA,NA,NA,TRUE,1,0.6666,559.5322,562.5278,NA,NA,NA,NA,NA,200,26,0,40,40,102,1,2,41,"likert"
"67C755B1DA5740C58756E5FD16792FB3",1,"0198eced-d732-78c5-98fb-93fb82e07fa8","0198c493-061b-72b6-9f09-7b914e79ecc0","2025-08-27_22h08.13.860",NA,NA,565.8751,565.8751,565.8751,566.2246,NA,NA,NA,NA,NA,NA,NA,TRUE,1,0.5731,562.8792,565.8749,NA,NA,NA,NA,NA,30,26,0,41,41,42,1,2,42,"likert"
"67C755B1DA5740C58756E5FD16792FB3",1,"0198eced-d732-78c5-98fb-93fb82e07fa8","0198c493-061b-72b6-9f09-7b914e79ecc0","2025-08-27_22h08.13.860",NA,NA,569.2221,569.2222,569.2222,569.5717,NA,NA,NA,NA,NA,NA,NA,TRUE,1,0.6316,566.2264,569.222,NA,NA,NA,NA,NA,10,25,0,42,42,6,1,2,43,"likert"
"67C755B1DA5740C58756E5FD16792FB3",1,"0198eced-d732-78c5-98fb-93fb82e07fa8","0198c493-061b-72b6-9f09-7b914e79ecc0","2025-08-27_22h08.13.860",NA,NA,572.5858,572.586,572.586,572.9355,NA,NA,NA,NA,NA,NA,NA,TRUE,1,0.5488,569.5735,572.5858,NA,NA,NA,NA,NA,90,30,0,43,43,73,1,2,44,"likert"
"67C755B1DA5740C58756E5FD16792FB3",1,"0198eced-d732-78c5-98fb-93fb82e07fa8","0198c493-061b-72b6-9f09-7b914e79ecc0","2025-08-27_22h08.13.860",NA,NA,575.9331,575.9331,575.9332,576.2837,NA,NA,NA,NA,NA,NA,NA,TRUE,1,0.4658,572.9372,575.9329,NA,NA,NA,NA,NA,12,25,0,44,44,12,1,2,45,"likert"
"67C755B1DA5740C58756E5FD16792FB3",1,"0198eced-d732-78c5-98fb-93fb82e07fa8","0198c493-061b-72b6-9f09-7b914e79ecc0","2025-08-27_22h08.13.860",NA,NA,579.2802,579.2805,579.2805,579.6294,NA,NA,NA,NA,NA,NA,NA,TRUE,1,0.6445,576.2852,579.2802,NA,NA,NA,NA,NA,100,31,0,45,45,85,1,2,46,"likert"
"67C755B1DA5740C58756E5FD16792FB3",1,"0198eced-d732-78c5-98fb-93fb82e07fa8","0198c493-061b-72b6-9f09-7b914e79ecc0","2025-08-27_22h08.13.860",NA,NA,582.6272,582.6272,582.6272,582.9766,NA,NA,NA,NA,NA,NA,NA,TRUE,1,0.9811,579.6314,582.627,NA,NA,NA,NA,NA,95,33,0,46,46,79,1,2,47,"likert"
"67C755B1DA5740C58756E5FD16792FB3",1,"0198eced-d732-78c5-98fb-93fb82e07fa8","0198c493-061b-72b6-9f09-7b914e79ecc0","2025-08-27_22h08.13.860",NA,NA,585.9742,585.9743,585.9743,586.3256,NA,NA,NA,NA,NA,NA,NA,TRUE,1,1.2999,582.9787,585.9741,NA,NA,NA,NA,NA,60,29,0,47,47,66,1,2,48,"likert"
"67C755B1DA5740C58756E5FD16792FB3",1,"0198eced-d732-78c5-98fb-93fb82e07fa8","0198c493-061b-72b6-9f09-7b914e79ecc0","2025-08-27_22h08.13.860",NA,NA,589.3212,589.3214,589.3214,589.6707,NA,NA,NA,NA,NA,NA,NA,TRUE,1,1.1608,586.328,589.3211,NA,NA,NA,NA,NA,150,40,0,48,48,93,1,2,49,"likert"
"67C755B1DA5740C58756E5FD16792FB3",1,"0198eced-d732-78c5-98fb-93fb82e07fa8","0198c493-061b-72b6-9f09-7b914e79ecc0","2025-08-27_22h08.13.860",NA,NA,592.6851,592.6852,592.6852,593.0346,NA,NA,NA,NA,NA,NA,NA,TRUE,1,0.9825,589.6724,592.6849,NA,NA,NA,NA,NA,40,47,0,49,49,52,1,2,50,"likert"
"67C755B1DA5740C58756E5FD16792FB3",1,"0198eced-d732-78c5-98fb-93fb82e07fa8","0198c493-061b-72b6-9f09-7b914e79ecc0","2025-08-27_22h08.13.860",NA,NA,596.0321,596.0323,596.0323,596.3816,NA,NA,NA,NA,NA,NA,NA,TRUE,1,0.9151,593.0362,596.0319,NA,NA,NA,NA,NA,50,40,0,50,50,63,1,2,51,"likert"
"67C755B1DA5740C58756E5FD16792FB3",1,"0198eced-d732-78c5-98fb-93fb82e07fa8","0198c493-061b-72b6-9f09-7b914e79ecc0","2025-08-27_22h08.13.860",NA,NA,599.3792,599.3792,599.3792,599.7286,NA,NA,NA,NA,NA,NA,NA,TRUE,1,0.9323,596.3839,599.379,NA,NA,NA,NA,NA,12,33,0,51,51,16,1,2,52,"likert"
"67C755B1DA5740C58756E5FD16792FB3",1,"0198eced-d732-78c5-98fb-93fb82e07fa8","0198c493-061b-72b6-9f09-7b914e79ecc0","2025-08-27_22h08.13.860",NA,NA,602.7262,602.7264,602.7264,603.0757,NA,NA,NA,NA,NA,NA,NA,TRUE,1,0.9852,599.73,602.7261,NA,NA,NA,NA,NA,12,26,0,52,52,13,1,2,53,"likert"
"67C755B1DA5740C58756E5FD16792FB3",1,"0198eced-d732-78c5-98fb-93fb82e07fa8","0198c493-061b-72b6-9f09-7b914e79ecc0","2025-08-27_22h08.13.860",NA,NA,606.0735,606.0736,606.0737,606.4229,NA,NA,NA,NA,NA,NA,NA,TRUE,1,0.9961,603.0774,606.0733,NA,NA,NA,NA,NA,30,32,0,53,53,46,1,2,54,"likert"
"67C755B1DA5740C58756E5FD16792FB3",1,"0198eced-d732-78c5-98fb-93fb82e07fa8","0198c493-061b-72b6-9f09-7b914e79ecc0","2025-08-27_22h08.13.860",NA,NA,609.4236,609.4236,609.4236,609.7865,NA,NA,NA,NA,NA,NA,NA,TRUE,1,0.784,606.4246,609.4233,NA,NA,NA,NA,NA,60,33,0,54,54,67,1,2,55,"likert"
"67C755B1DA5740C58756E5FD16792FB3",1,"0198eced-d732-78c5-98fb-93fb82e07fa8","0198c493-061b-72b6-9f09-7b914e79ecc0","2025-08-27_22h08.13.860",NA,NA,612.7844,612.7845,612.7846,613.1336,NA,NA,NA,NA,NA,NA,NA,TRUE,1,0.932,609.788,612.7843,NA,NA,NA,NA,NA,14,28,0,55,55,20,1,2,56,"likert"
"67C755B1DA5740C58756E5FD16792FB3",1,"0198eced-d732-78c5-98fb-93fb82e07fa8","0198c493-061b-72b6-9f09-7b914e79ecc0","2025-08-27_22h08.13.860",NA,NA,616.1311,616.1313,616.1313,616.4806,NA,NA,NA,NA,NA,NA,NA,TRUE,1,0.568,613.1356,616.131,NA,NA,NA,NA,NA,150,33,0,56,56,91,1,2,57,"likert"
"67C755B1DA5740C58756E5FD16792FB3",1,"0198eced-d732-78c5-98fb-93fb82e07fa8","0198c493-061b-72b6-9f09-7b914e79ecc0","2025-08-27_22h08.13.860",NA,NA,619.4784,619.4784,619.4785,619.8278,NA,NA,NA,NA,NA,NA,NA,TRUE,1,0.7178,616.4824,619.4782,NA,NA,NA,NA,NA,28,26,0,57,57,36,1,2,58,"likert"
"67C755B1DA5740C58756E5FD16792FB3",1,"0198eced-d732-78c5-98fb-93fb82e07fa8","0198c493-061b-72b6-9f09-7b914e79ecc0","2025-08-27_22h08.13.860",NA,NA,622.8253,622.8254,622.8254,623.1749,NA,NA,NA,NA,NA,NA,NA,TRUE,1,0.4839,619.8298,622.8252,NA,NA,NA,NA,NA,95,47,0,58,58,82,1,2,59,"likert"
"67C755B1DA5740C58756E5FD16792FB3",1,"0198eced-d732-78c5-98fb-93fb82e07fa8","0198c493-061b-72b6-9f09-7b914e79ecc0","2025-08-27_22h08.13.860",NA,NA,626.1726,626.1726,626.1727,626.522,NA,NA,NA,NA,NA,NA,NA,TRUE,1,0.4666,623.1765,626.1724,NA,NA,NA,NA,NA,150,54,0,59,59,95,1,2,60,"likert"
"67C755B1DA5740C58756E5FD16792FB3",1,"0198eced-d732-78c5-98fb-93fb82e07fa8","0198c493-061b-72b6-9f09-7b914e79ecc0","2025-08-27_22h08.13.860",NA,NA,629.5361,629.5363,629.5363,629.8857,NA,NA,NA,NA,NA,NA,NA,TRUE,1,0.8686,626.5237,629.536,NA,NA,NA,NA,NA,25,33,0,60,60,33,1,2,61,"likert"
"67C755B1DA5740C58756E5FD16792FB3",1,"0198eced-d732-78c5-98fb-93fb82e07fa8","0198c493-061b-72b6-9f09-7b914e79ecc0","2025-08-27_22h08.13.860",NA,NA,632.8832,632.8834,632.8834,633.233,NA,NA,NA,NA,NA,NA,NA,TRUE,1,0.6498,629.8879,632.8831,NA,NA,NA,NA,NA,25,31,0,61,61,32,1,2,62,"likert"
"67C755B1DA5740C58756E5FD16792FB3",1,"0198eced-d732-78c5-98fb-93fb82e07fa8","0198c493-061b-72b6-9f09-7b914e79ecc0","2025-08-27_22h08.13.860",NA,NA,636.2302,636.2303,636.2304,636.5799,NA,NA,NA,NA,NA,NA,NA,TRUE,1,0.7334,633.2347,636.2301,NA,NA,NA,NA,NA,10,29,0,62,62,9,1,2,63,"likert"
"67C755B1DA5740C58756E5FD16792FB3",1,"0198eced-d732-78c5-98fb-93fb82e07fa8","0198c493-061b-72b6-9f09-7b914e79ecc0","2025-08-27_22h08.13.860",NA,NA,639.5776,639.5777,639.5777,639.9268,NA,NA,NA,NA,NA,NA,NA,TRUE,1,1.0321,636.5817,639.5774,NA,NA,NA,NA,NA,200,28,0,63,63,103,1,2,64,"likert"
"67C755B1DA5740C58756E5FD16792FB3",1,"0198eced-d732-78c5-98fb-93fb82e07fa8","0198c493-061b-72b6-9f09-7b914e79ecc0","2025-08-27_22h08.13.860",NA,NA,642.9247,642.9247,642.9247,643.2739,NA,NA,NA,NA,NA,NA,NA,TRUE,1,0.667,639.9283,642.9244,NA,NA,NA,NA,NA,21,29,0,64,64,26,1,2,65,"likert"
"67C755B1DA5740C58756E5FD16792FB3",1,"0198eced-d732-78c5-98fb-93fb82e07fa8","0198c493-061b-72b6-9f09-7b914e79ecc0","2025-08-27_22h08.13.860",NA,NA,646.2717,646.2718,646.2718,646.621,NA,NA,NA,NA,NA,NA,NA,TRUE,1,0.7831,643.2757,646.2715,NA,NA,NA,NA,NA,40,27,0,65,65,48,1,2,66,"likert"
"67C755B1DA5740C58756E5FD16792FB3",1,"0198eced-d732-78c5-98fb-93fb82e07fa8","0198c493-061b-72b6-9f09-7b914e79ecc0","2025-08-27_22h08.13.860",NA,NA,649.6354,649.6356,649.6357,649.9848,NA,NA,NA,NA,NA,NA,NA,TRUE,1,0.5338,646.6226,649.6352,NA,NA,NA,NA,NA,60,54,0,66,66,71,1,2,67,"likert"
"67C755B1DA5740C58756E5FD16792FB3",1,"0198eced-d732-78c5-98fb-93fb82e07fa8","0198c493-061b-72b6-9f09-7b914e79ecc0","2025-08-27_22h08.13.860",NA,NA,652.9824,652.9824,652.9824,653.3318,NA,NA,NA,NA,NA,NA,NA,TRUE,1,1.0375,649.9865,652.9823,NA,NA,NA,NA,NA,90,33,0,67,67,74,1,2,68,"likert"
"67C755B1DA5740C58756E5FD16792FB3",1,"0198eced-d732-78c5-98fb-93fb82e07fa8","0198c493-061b-72b6-9f09-7b914e79ecc0","2025-08-27_22h08.13.860",NA,NA,656.3294,656.3295,656.3296,656.6789,NA,NA,NA,NA,NA,NA,NA,TRUE,1,0.7627,653.3335,656.3293,NA,NA,NA,NA,NA,12,31,0,68,68,15,1,2,69,"likert"
"67C755B1DA5740C58756E5FD16792FB3",1,"0198eced-d732-78c5-98fb-93fb82e07fa8","0198c493-061b-72b6-9f09-7b914e79ecc0","2025-08-27_22h08.13.860",NA,NA,659.6766,659.6767,659.6767,660.0287,NA,NA,NA,NA,NA,NA,NA,TRUE,1,0.6963,656.6804,659.6765,NA,NA,NA,NA,NA,90,40,0,69,69,75,1,2,70,"likert"
"67C755B1DA5740C58756E5FD16792FB3",1,"0198eced-d732-78c5-98fb-93fb82e07fa8","0198c493-061b-72b6-9f09-7b914e79ecc0","2025-08-27_22h08.13.860",NA,NA,663.0237,663.0238,663.0238,663.3732,NA,NA,NA,NA,NA,NA,NA,TRUE,1,0.5142,660.0311,663.0236,NA,NA,NA,NA,NA,60,47,0,70,70,70,1,2,71,"likert"
"67C755B1DA5740C58756E5FD16792FB3",1,"0198eced-d732-78c5-98fb-93fb82e07fa8","0198c493-061b-72b6-9f09-7b914e79ecc0","2025-08-27_22h08.13.860",NA,NA,666.3715,666.3716,666.3716,666.7368,NA,NA,NA,NA,NA,NA,NA,TRUE,1,0.4165,663.3748,666.3712,NA,NA,NA,NA,NA,28,39,0,71,71,40,1,2,72,"likert"
"67C755B1DA5740C58756E5FD16792FB3",1,"0198eced-d732-78c5-98fb-93fb82e07fa8","0198c493-061b-72b6-9f09-7b914e79ecc0","2025-08-27_22h08.13.860",NA,NA,669.7344,669.7345,669.7345,670.0839,NA,NA,NA,NA,NA,NA,NA,TRUE,1,1.2164,666.7385,669.7343,NA,NA,NA,NA,NA,7,25,0,72,72,0,1,2,73,"likert"
"67C755B1DA5740C58756E5FD16792FB3",1,"0198eced-d732-78c5-98fb-93fb82e07fa8","0198c493-061b-72b6-9f09-7b914e79ecc0","2025-08-27_22h08.13.860",NA,NA,673.0815,673.0816,673.0816,673.431,NA,NA,NA,NA,NA,NA,NA,TRUE,1,0.9499,670.0855,673.0814,NA,NA,NA,NA,NA,150,47,0,73,73,94,1,2,74,"likert"
"67C755B1DA5740C58756E5FD16792FB3",1,"0198eced-d732-78c5-98fb-93fb82e07fa8","0198c493-061b-72b6-9f09-7b914e79ecc0","2025-08-27_22h08.13.860",NA,NA,676.4291,676.4293,676.4294,676.7782,NA,NA,NA,NA,NA,NA,NA,TRUE,1,1.2956,673.4328,676.4286,NA,NA,NA,NA,NA,7,26,0,74,74,1,1,2,75,"likert"
"67C755B1DA5740C58756E5FD16792FB3",1,"0198eced-d732-78c5-98fb-93fb82e07fa8","0198c493-061b-72b6-9f09-7b914e79ecc0","2025-08-27_22h08.13.860",NA,NA,679.7758,679.7759,679.7759,680.1252,NA,NA,NA,NA,NA,NA,NA,TRUE,1,0.7855,676.7803,679.7757,NA,NA,NA,NA,NA,95,40,0,75,75,81,1,2,76,"likert"
"67C755B1DA5740C58756E5FD16792FB3",1,"0198eced-d732-78c5-98fb-93fb82e07fa8","0198c493-061b-72b6-9f09-7b914e79ecc0","2025-08-27_22h08.13.860",NA,NA,683.1229,683.123,683.1231,683.4722,NA,NA,NA,NA,NA,NA,NA,TRUE,1,0.4871,680.1268,683.1228,NA,NA,NA,NA,NA,14,39,0,76,76,23,1,2,77,"likert"
"67C755B1DA5740C58756E5FD16792FB3",1,"0198eced-d732-78c5-98fb-93fb82e07fa8","0198c493-061b-72b6-9f09-7b914e79ecc0","2025-08-27_22h08.13.860",NA,NA,686.4864,686.4866,686.4866,686.8361,NA,NA,NA,NA,NA,NA,NA,TRUE,1,0.3332,683.4737,686.4863,NA,NA,NA,NA,NA,45,35,0,77,77,57,1,2,78,"likert"
"67C755B1DA5740C58756E5FD16792FB3",1,"0198eced-d732-78c5-98fb-93fb82e07fa8","0198c493-061b-72b6-9f09-7b914e79ecc0","2025-08-27_22h08.13.860",NA,NA,689.8336,689.8337,689.8337,690.1831,NA,NA,NA,NA,NA,NA,NA,TRUE,1,0.8712,686.838,689.8334,NA,NA,NA,NA,NA,45,40,0,78,78,58,1,2,79,"likert"
"67C755B1DA5740C58756E5FD16792FB3",1,"0198eced-d732-78c5-98fb-93fb82e07fa8","0198c493-061b-72b6-9f09-7b914e79ecc0","2025-08-27_22h08.13.860",NA,NA,693.1819,693.1829,693.1829,693.5301,NA,NA,NA,NA,NA,NA,NA,TRUE,1,0.796,690.1848,693.1817,NA,NA,NA,NA,NA,50,46,0,79,79,64,1,2,80,"likert"
"67C755B1DA5740C58756E5FD16792FB3",1,"0198eced-d732-78c5-98fb-93fb82e07fa8","0198c493-061b-72b6-9f09-7b914e79ecc0","2025-08-27_22h08.13.860",NA,NA,696.5277,696.5278,696.5279,696.8772,NA,NA,NA,NA,NA,NA,NA,TRUE,1,1.31,693.5328,696.5276,NA,NA,NA,NA,NA,10,32,0,80,80,11,1,2,81,"likert"
"67C755B1DA5740C58756E5FD16792FB3",1,"0198eced-d732-78c5-98fb-93fb82e07fa8","0198c493-061b-72b6-9f09-7b914e79ecc0","2025-08-27_22h08.13.860",NA,NA,699.8749,699.875,699.875,700.2243,NA,NA,NA,NA,NA,NA,NA,TRUE,1,0.6676,696.8788,699.8748,NA,NA,NA,NA,NA,21,27,0,81,81,25,1,2,82,"likert"
"67C755B1DA5740C58756E5FD16792FB3",1,"0198eced-d732-78c5-98fb-93fb82e07fa8","0198c493-061b-72b6-9f09-7b914e79ecc0","2025-08-27_22h08.13.860",NA,NA,703.2219,703.222,703.222,703.5718,NA,NA,NA,NA,NA,NA,NA,TRUE,1,0.4841,700.2262,703.2217,NA,NA,NA,NA,NA,10,30,0,82,82,10,1,2,83,"likert"
"67C755B1DA5740C58756E5FD16792FB3",1,"0198eced-d732-78c5-98fb-93fb82e07fa8","0198c493-061b-72b6-9f09-7b914e79ecc0","2025-08-27_22h08.13.860",NA,NA,706.5857,706.5859,706.586,706.9351,NA,NA,NA,NA,NA,NA,NA,TRUE,1,0.3777,703.5744,706.5856,NA,NA,NA,NA,NA,30,30,0,83,83,45,1,2,84,"likert"
"67C755B1DA5740C58756E5FD16792FB3",1,"0198eced-d732-78c5-98fb-93fb82e07fa8","0198c493-061b-72b6-9f09-7b914e79ecc0","2025-08-27_22h08.13.860",NA,NA,709.9326,709.9328,709.9328,710.2822,NA,NA,NA,NA,NA,NA,NA,TRUE,1,0.3515,706.9366,709.9325,NA,NA,NA,NA,NA,30,38,0,84,84,47,1,2,85,"likert"
"67C755B1DA5740C58756E5FD16792FB3",1,"0198eced-d732-78c5-98fb-93fb82e07fa8","0198c493-061b-72b6-9f09-7b914e79ecc0","2025-08-27_22h08.13.860",NA,NA,713.2798,713.2798,713.2798,713.6293,NA,NA,NA,NA,NA,NA,NA,TRUE,1,0.3995,710.2838,713.2796,NA,NA,NA,NA,NA,21,32,0,85,85,28,1,2,86,"likert"
"67C755B1DA5740C58756E5FD16792FB3",1,"0198eced-d732-78c5-98fb-93fb82e07fa8","0198c493-061b-72b6-9f09-7b914e79ecc0","2025-08-27_22h08.13.860",NA,NA,716.627,716.627,716.627,716.9763,NA,NA,NA,NA,NA,NA,NA,TRUE,1,0.4026,713.631,716.6267,NA,NA,NA,NA,NA,14,26,0,86,86,19,1,2,87,"likert"
"67C755B1DA5740C58756E5FD16792FB3",1,"0198eced-d732-78c5-98fb-93fb82e07fa8","0198c493-061b-72b6-9f09-7b914e79ecc0","2025-08-27_22h08.13.860",NA,NA,719.974,719.9741,719.9741,720.325,NA,NA,NA,NA,NA,NA,NA,TRUE,1,0.4798,716.9779,719.9739,NA,NA,NA,NA,NA,90,54,0,87,87,77,1,2,88,"likert"
"67C755B1DA5740C58756E5FD16792FB3",1,"0198eced-d732-78c5-98fb-93fb82e07fa8","0198c493-061b-72b6-9f09-7b914e79ecc0","2025-08-27_22h08.13.860",NA,NA,723.3212,723.3213,723.3214,723.6705,NA,NA,NA,NA,NA,NA,NA,TRUE,1,0.4611,720.3273,723.321,NA,NA,NA,NA,NA,50,30,0,88,88,61,1,2,89,"likert"
"67C755B1DA5740C58756E5FD16792FB3",1,"0198eced-d732-78c5-98fb-93fb82e07fa8","0198c493-061b-72b6-9f09-7b914e79ecc0","2025-08-27_22h08.13.860",NA,NA,726.6847,726.6848,726.6849,727.0341,NA,NA,NA,NA,NA,NA,NA,TRUE,1,0.4683,723.6721,726.6846,NA,NA,NA,NA,NA,10,27,0,89,89,8,1,2,90,"likert"
"67C755B1DA5740C58756E5FD16792FB3",1,"0198eced-d732-78c5-98fb-93fb82e07fa8","0198c493-061b-72b6-9f09-7b914e79ecc0","2025-08-27_22h08.13.860",NA,NA,730.0319,730.032,730.0321,730.3813,NA,NA,NA,NA,NA,NA,NA,TRUE,1,0.3962,727.0359,730.0317,NA,NA,NA,NA,NA,28,28,0,90,90,37,1,2,91,"likert"
"67C755B1DA5740C58756E5FD16792FB3",1,"0198eced-d732-78c5-98fb-93fb82e07fa8","0198c493-061b-72b6-9f09-7b914e79ecc0","2025-08-27_22h08.13.860",NA,NA,733.3789,733.379,733.379,733.7284,NA,NA,NA,NA,NA,NA,NA,TRUE,1,0.6106,730.3834,733.3787,NA,NA,NA,NA,NA,14,35,0,91,91,22,1,2,92,"likert"
"67C755B1DA5740C58756E5FD16792FB3",1,"0198eced-d732-78c5-98fb-93fb82e07fa8","0198c493-061b-72b6-9f09-7b914e79ecc0","2025-08-27_22h08.13.860",NA,NA,736.726,736.726,736.726,737.0788,NA,NA,NA,NA,NA,NA,NA,TRUE,1,0.6462,733.7303,736.7258,NA,NA,NA,NA,NA,200,35,0,92,92,104,1,2,93,"likert"
"67C755B1DA5740C58756E5FD16792FB3",1,"0198eced-d732-78c5-98fb-93fb82e07fa8","0198c493-061b-72b6-9f09-7b914e79ecc0","2025-08-27_22h08.13.860",NA,NA,740.0743,740.0743,740.0744,740.4227,NA,NA,NA,NA,NA,NA,NA,TRUE,1,0.4344,737.08,740.0739,NA,NA,NA,NA,NA,40,54,0,93,93,53,1,2,94,"likert"
"67C755B1DA5740C58756E5FD16792FB3",1,"0198eced-d732-78c5-98fb-93fb82e07fa8","0198c493-061b-72b6-9f09-7b914e79ecc0","2025-08-27_22h08.13.860",NA,NA,743.4369,743.4372,743.4372,743.7863,NA,NA,NA,NA,NA,NA,NA,TRUE,1,0.4338,740.4244,743.4368,NA,NA,NA,NA,NA,7,32,0,94,94,4,1,2,95,"likert"
"67C755B1DA5740C58756E5FD16792FB3",1,"0198eced-d732-78c5-98fb-93fb82e07fa8","0198c493-061b-72b6-9f09-7b914e79ecc0","2025-08-27_22h08.13.860",NA,NA,746.7839,746.784,746.784,747.1361,NA,NA,NA,NA,NA,NA,NA,TRUE,1,0.4324,743.788,746.7837,NA,NA,NA,NA,NA,180,39,0,95,95,99,1,2,96,"likert"
"67C755B1DA5740C58756E5FD16792FB3",1,"0198eced-d732-78c5-98fb-93fb82e07fa8","0198c493-061b-72b6-9f09-7b914e79ecc0","2025-08-27_22h08.13.860",NA,NA,750.1319,750.132,750.132,750.4805,NA,NA,NA,NA,NA,NA,NA,TRUE,1,0.3626,747.1378,750.1314,NA,NA,NA,NA,NA,10,26,0,96,96,7,1,2,97,"likert"
"67C755B1DA5740C58756E5FD16792FB3",1,"0198eced-d732-78c5-98fb-93fb82e07fa8","0198c493-061b-72b6-9f09-7b914e79ecc0","2025-08-27_22h08.13.860",NA,NA,753.478,753.4781,753.4781,753.8275,NA,NA,NA,NA,NA,NA,NA,TRUE,1,0.6159,750.4823,753.4779,NA,NA,NA,NA,NA,100,39,0,97,97,87,1,2,98,"likert"
"67C755B1DA5740C58756E5FD16792FB3",1,"0198eced-d732-78c5-98fb-93fb82e07fa8","0198c493-061b-72b6-9f09-7b914e79ecc0","2025-08-27_22h08.13.860",NA,NA,756.8255,756.8256,756.8257,757.1745,NA,NA,NA,NA,NA,NA,NA,TRUE,1,0.8856,753.829,756.825,NA,NA,NA,NA,NA,7,35,0,98,98,5,1,2,99,"likert"
"67C755B1DA5740C58756E5FD16792FB3",1,"0198eced-d732-78c5-98fb-93fb82e07fa8","0198c493-061b-72b6-9f09-7b914e79ecc0","2025-08-27_22h08.13.860",NA,NA,760.1722,760.1722,760.1722,760.5217,NA,NA,NA,NA,NA,NA,NA,TRUE,1,0.7481,757.176,760.172,NA,NA,NA,NA,NA,100,38,0,99,99,86,1,2,100,"likert"
"67C755B1DA5740C58756E5FD16792FB3",1,"0198eced-d732-78c5-98fb-93fb82e07fa8","0198c493-061b-72b6-9f09-7b914e79ecc0","2025-08-27_22h08.13.860",NA,NA,763.5378,763.5379,763.5379,763.8856,NA,NA,NA,NA,NA,NA,NA,TRUE,1,0.333,760.5231,763.5373,NA,NA,NA,NA,NA,95,35,0,100,100,80,1,2,101,"likert"
"67C755B1DA5740C58756E5FD16792FB3",1,"0198eced-d732-78c5-98fb-93fb82e07fa8","0198c493-061b-72b6-9f09-7b914e79ecc0","2025-08-27_22h08.13.860",NA,NA,766.8829,766.8831,766.8831,767.2324,NA,NA,NA,NA,NA,NA,NA,TRUE,1,0.3843,763.8872,766.8829,NA,NA,NA,NA,NA,45,31,0,101,101,56,1,2,102,"likert"
"67C755B1DA5740C58756E5FD16792FB3",1,"0198eced-d732-78c5-98fb-93fb82e07fa8","0198c493-061b-72b6-9f09-7b914e79ecc0","2025-08-27_22h08.13.860",NA,NA,770.2301,770.2301,770.2301,770.5795,NA,NA,NA,NA,NA,NA,NA,TRUE,1,0.6331,767.2341,770.2299,NA,NA,NA,NA,NA,25,27,0,102,102,30,1,2,103,"likert"
"67C755B1DA5740C58756E5FD16792FB3",1,"0198eced-d732-78c5-98fb-93fb82e07fa8","0198c493-061b-72b6-9f09-7b914e79ecc0","2025-08-27_22h08.13.860",NA,NA,773.577,773.5772,773.5772,773.9266,NA,NA,NA,NA,NA,NA,NA,TRUE,1,0.5053,770.5812,773.5769,NA,NA,NA,NA,NA,28,46,0,103,103,41,1,2,104,"likert"
"67C755B1DA5740C58756E5FD16792FB3",1,"0198eced-d732-78c5-98fb-93fb82e07fa8","0198c493-061b-72b6-9f09-7b914e79ecc0","2025-08-27_22h08.13.860",NA,NA,776.9242,776.9243,776.9244,777.2737,NA,NA,NA,NA,NA,NA,NA,TRUE,1,0.8035,773.9282,776.924,NA,NA,NA,NA,NA,150,35,0,104,104,92,1,2,105,"likert"
"67C755B1DA5740C58756E5FD16792FB3",1,"0198eced-d732-78c5-98fb-93fb82e07fa8","0198c493-061b-72b6-9f09-7b914e79ecc0","2025-08-27_22h08.13.860",NA,NA,780.2714,780.2715,780.2715,780.6208,NA,NA,NA,NA,NA,NA,NA,TRUE,1,0.5828,777.2752,780.2711,NA,NA,NA,NA,NA,45,26,0,105,105,54,1,2,106,"likert"
"67C755B1DA5740C58756E5FD16792FB3",1,"0198eced-d732-78c5-98fb-93fb82e07fa8","0198c493-061b-72b6-9f09-7b914e79ecc0","2025-08-27_22h08.13.860",NA,NA,783.635,783.6352,783.6352,783.9846,NA,NA,NA,NA,NA,NA,NA,TRUE,1,0.4949,780.6225,783.6349,NA,NA,NA,NA,NA,95,54,0,106,106,83,1,2,107,"likert"
"67C755B1DA5740C58756E5FD16792FB3",1,"0198eced-d732-78c5-98fb-93fb82e07fa8","0198c493-061b-72b6-9f09-7b914e79ecc0","2025-08-27_22h08.13.860",NA,NA,786.9821,786.9822,786.9822,787.3316,NA,NA,NA,NA,NA,NA,NA,TRUE,1,0.6627,783.9862,786.9819,NA,NA,NA,NA,NA,14,32,0,107,107,21,1,2,108,"likert"
