"participant","session","assignmentId","projectId","date","practiceTrial.started","practiceTrial.stopped","tooLate.started","tooLate.stopped","blank.started","blank.stopped","trials_pract.thisRepN","trials_pract.thisTrialN","trials_pract.thisN","trials_pract.thisIndex","trials_pract.ran","delay_pract","amount_pract","responseMade","key","rt","trial.started","trial.stopped","trials.thisRepN","trials.thisTrialN","trials.thisN","trials.thisIndex","trials.ran","delay","amount","trials_2.thisRepN","trials_2.thisTrialN","trials_2.thisN","trials_2.thisIndex","trials_2.ran","block","trial","taskType"
"6AEA21E0CC19480D95EF78972E41A441",1,"01990a98-9d60-73ab-8c13-c486535ac4b3","01990a84-c4ee-73c2-a87b-ff46a7d3dde5","2025-09-02_06h43.11.667",55.342,58.181,58.182,58.182,58.182,58.644,0,0,0,3,1,3,27,TRUE,5,1.979,NA,NA,NA,NA,NA,NA,NA,NA,NA,NA,NA,NA,NA,NA,0,1,"likert"
"6AEA21E0CC19480D95EF78972E41A441",1,"01990a98-9d60-73ab-8c13-c486535ac4b3","01990a84-c4ee-73c2-a87b-ff46a7d3dde5","2025-09-02_06h43.11.667",58.646,61.633,61.633,61.633,61.634,61.966,0,1,1,1,1,100,50,TRUE,4,1.392,NA,NA,NA,NA,NA,NA,NA,NA,NA,NA,NA,NA,NA,NA,0,2,"likert"
"6AEA21E0CC19480D95EF78972E41A441",1,"01990a98-9d60-73ab-8c13-c486535ac4b3","01990a84-c4ee-73c2-a87b-ff46a7d3dde5","2025-09-02_06h43.11.667",61.968,64.89,64.891,64.891,64.891,65.355,0,2,2,2,1,14,45,TRUE,5,1.426,NA,NA,NA,NA,NA,NA,NA,NA,NA,NA,NA,NA,NA,NA,0,3,"likert"
"6AEA21E0CC19480D95EF78972E41A441",1,"01990a98-9d60-73ab-8c13-c486535ac4b3","01990a84-c4ee-73c2-a87b-ff46a7d3dde5","2025-09-02_06h43.11.667",65.363,68.274,68.274,68.274,68.274,68.603,0,3,3,4,1,30,40,TRUE,5,0.896,NA,NA,NA,NA,NA,NA,NA,NA,NA,NA,NA,NA,NA,NA,0,4,"likert"
"6AEA21E0CC19480D95EF78972E41A441",1,"01990a98-9d60-73ab-8c13-c486535ac4b3","01990a84-c4ee-73c2-a87b-ff46a7d3dde5","2025-09-02_06h43.11.667",68.604,71.677,71.678,71.678,71.678,71.978,0,4,4,0,1,7,30,TRUE,5,0.891,NA,NA,NA,NA,NA,NA,NA,NA,NA,NA,NA,NA,NA,NA,0,5,"likert"
"6AEA21E0CC19480D95EF78972E41A441",1,"01990a98-9d60-73ab-8c13-c486535ac4b3","01990a84-c4ee-73c2-a87b-ff46a7d3dde5","2025-09-02_06h43.11.667",NA,NA,91.293,91.293,91.293,91.621,NA,NA,NA,NA,NA,NA,NA,TRUE,5,1.365,88.376,91.292,0,0,0,7,1,10,26,NA,NA,NA,NA,NA,1,1,"likert"
"6AEA21E0CC19480D95EF78972E41A441",1,"01990a98-9d60-73ab-8c13-c486535ac4b3","01990a84-c4ee-73c2-a87b-ff46a7d3dde5","2025-09-02_06h43.11.667",NA,NA,94.683,94.683,94.683,94.998,NA,NA,NA,NA,NA,NA,NA,TRUE,5,0.699,91.622,94.682,0,1,1,57,1,45,35,NA,NA,NA,NA,NA,1,2,"likert"
"6AEA21E0CC19480D95EF78972E41A441",1,"01990a98-9d60-73ab-8c13-c486535ac4b3","01990a84-c4ee-73c2-a87b-ff46a7d3dde5","2025-09-02_06h43.11.667",NA,NA,97.951,97.951,97.951,98.417,NA,NA,NA,NA,NA,NA,NA,TRUE,5,0.716,95.006,97.951,0,2,2,20,1,14,28,NA,NA,NA,NA,NA,1,3,"likert"
"6AEA21E0CC19480D95EF78972E41A441",1,"01990a98-9d60-73ab-8c13-c486535ac4b3","01990a84-c4ee-73c2-a87b-ff46a7d3dde5","2025-09-02_06h43.11.667",NA,NA,101.273,101.273,101.273,101.76,NA,NA,NA,NA,NA,NA,NA,TRUE,5,0.182,98.418,101.273,0,3,3,38,1,28,32,NA,NA,NA,NA,NA,1,4,"likert"
"6AEA21E0CC19480D95EF78972E41A441",1,"01990a98-9d60-73ab-8c13-c486535ac4b3","01990a84-c4ee-73c2-a87b-ff46a7d3dde5","2025-09-02_06h43.11.667",NA,NA,104.68,104.68,104.68,105.138,NA,NA,NA,NA,NA,NA,NA,TRUE,5,0.689,101.769,104.68,0,4,4,15,1,12,31,NA,NA,NA,NA,NA,1,5,"likert"
"6AEA21E0CC19480D95EF78972E41A441",1,"01990a98-9d60-73ab-8c13-c486535ac4b3","01990a84-c4ee-73c2-a87b-ff46a7d3dde5","2025-09-02_06h43.11.667",NA,NA,107.971,107.971,107.971,108.438,NA,NA,NA,NA,NA,NA,NA,TRUE,5,0.695,105.147,107.97,0,5,5,95,1,150,54,NA,NA,NA,NA,NA,1,6,"likert"
"6AEA21E0CC19480D95EF78972E41A441",1,"01990a98-9d60-73ab-8c13-c486535ac4b3","01990a84-c4ee-73c2-a87b-ff46a7d3dde5","2025-09-02_06h43.11.667",NA,NA,111.395,111.395,111.395,111.724,NA,NA,NA,NA,NA,NA,NA,TRUE,5,0.91,108.44,111.394,0,6,6,22,1,14,35,NA,NA,NA,NA,NA,1,7,"likert"
"6AEA21E0CC19480D95EF78972E41A441",1,"01990a98-9d60-73ab-8c13-c486535ac4b3","01990a84-c4ee-73c2-a87b-ff46a7d3dde5","2025-09-02_06h43.11.667",NA,NA,114.767,114.768,114.768,115.073,NA,NA,NA,NA,NA,NA,NA,TRUE,5,0.863,111.725,114.767,0,7,7,2,1,7,28,NA,NA,NA,NA,NA,1,8,"likert"
"6AEA21E0CC19480D95EF78972E41A441",1,"01990a98-9d60-73ab-8c13-c486535ac4b3","01990a84-c4ee-73c2-a87b-ff46a7d3dde5","2025-09-02_06h43.11.667",NA,NA,118.022,118.022,118.022,118.533,NA,NA,NA,NA,NA,NA,NA,TRUE,5,0.899,115.08,118.021,0,8,8,5,1,7,35,NA,NA,NA,NA,NA,1,9,"likert"
"6AEA21E0CC19480D95EF78972E41A441",1,"01990a98-9d60-73ab-8c13-c486535ac4b3","01990a84-c4ee-73c2-a87b-ff46a7d3dde5","2025-09-02_06h43.11.667",NA,NA,121.525,121.529,121.529,121.855,NA,NA,NA,NA,NA,NA,NA,TRUE,4,1.293,118.535,121.525,0,9,9,82,1,95,47,NA,NA,NA,NA,NA,1,10,"likert"
"6AEA21E0CC19480D95EF78972E41A441",1,"01990a98-9d60-73ab-8c13-c486535ac4b3","01990a84-c4ee-73c2-a87b-ff46a7d3dde5","2025-09-02_06h43.11.667",NA,NA,124.864,124.864,124.864,125.18,NA,NA,NA,NA,NA,NA,NA,TRUE,5,1.037,121.863,124.864,0,10,10,12,1,12,25,NA,NA,NA,NA,NA,1,11,"likert"
"6AEA21E0CC19480D95EF78972E41A441",1,"01990a98-9d60-73ab-8c13-c486535ac4b3","01990a84-c4ee-73c2-a87b-ff46a7d3dde5","2025-09-02_06h43.11.667",NA,NA,128.163,128.163,128.163,128.47,NA,NA,NA,NA,NA,NA,NA,TRUE,4,1.077,125.181,128.163,0,11,11,94,1,150,47,NA,NA,NA,NA,NA,1,12,"likert"
"6AEA21E0CC19480D95EF78972E41A441",1,"01990a98-9d60-73ab-8c13-c486535ac4b3","01990a84-c4ee-73c2-a87b-ff46a7d3dde5","2025-09-02_06h43.11.667",NA,NA,131.57,131.57,131.57,131.869,NA,NA,NA,NA,NA,NA,NA,TRUE,4,1.045,128.478,131.57,0,12,12,106,1,200,47,NA,NA,NA,NA,NA,1,13,"likert"
"6AEA21E0CC19480D95EF78972E41A441",1,"01990a98-9d60-73ab-8c13-c486535ac4b3","01990a84-c4ee-73c2-a87b-ff46a7d3dde5","2025-09-02_06h43.11.667",NA,NA,134.852,134.852,134.852,135.173,NA,NA,NA,NA,NA,NA,NA,TRUE,4,1.249,131.87,134.852,0,13,13,102,1,200,26,NA,NA,NA,NA,NA,1,14,"likert"
"6AEA21E0CC19480D95EF78972E41A441",1,"01990a98-9d60-73ab-8c13-c486535ac4b3","01990a84-c4ee-73c2-a87b-ff46a7d3dde5","2025-09-02_06h43.11.667",NA,NA,138.23,138.231,138.231,138.536,NA,NA,NA,NA,NA,NA,NA,TRUE,5,1.019,135.181,138.23,0,14,14,23,1,14,39,NA,NA,NA,NA,NA,1,15,"likert"
"6AEA21E0CC19480D95EF78972E41A441",1,"01990a98-9d60-73ab-8c13-c486535ac4b3","01990a84-c4ee-73c2-a87b-ff46a7d3dde5","2025-09-02_06h43.11.667",NA,NA,141.625,141.625,141.625,141.973,NA,NA,NA,NA,NA,NA,NA,TRUE,5,0.989,138.536,141.625,0,15,15,26,1,21,29,NA,NA,NA,NA,NA,1,16,"likert"
"6AEA21E0CC19480D95EF78972E41A441",1,"01990a98-9d60-73ab-8c13-c486535ac4b3","01990a84-c4ee-73c2-a87b-ff46a7d3dde5","2025-09-02_06h43.11.667",NA,NA,144.928,144.928,144.928,145.227,NA,NA,NA,NA,NA,NA,NA,TRUE,4,1.262,141.981,144.927,0,16,16,81,1,95,40,NA,NA,NA,NA,NA,1,17,"likert"
"6AEA21E0CC19480D95EF78972E41A441",1,"01990a98-9d60-73ab-8c13-c486535ac4b3","01990a84-c4ee-73c2-a87b-ff46a7d3dde5","2025-09-02_06h43.11.667",NA,NA,148.307,148.307,148.307,148.679,NA,NA,NA,NA,NA,NA,NA,TRUE,5,0.864,145.229,148.307,0,17,17,1,1,7,26,NA,NA,NA,NA,NA,1,18,"likert"
"6AEA21E0CC19480D95EF78972E41A441",1,"01990a98-9d60-73ab-8c13-c486535ac4b3","01990a84-c4ee-73c2-a87b-ff46a7d3dde5","2025-09-02_06h43.11.667",NA,NA,151.598,151.598,151.598,151.901,NA,NA,NA,NA,NA,NA,NA,TRUE,5,0.882,148.687,151.598,0,18,18,52,1,40,47,NA,NA,NA,NA,NA,1,19,"likert"
"6AEA21E0CC19480D95EF78972E41A441",1,"01990a98-9d60-73ab-8c13-c486535ac4b3","01990a84-c4ee-73c2-a87b-ff46a7d3dde5","2025-09-02_06h43.11.667",NA,NA,154.977,154.977,154.977,155.348,NA,NA,NA,NA,NA,NA,NA,TRUE,5,0.895,151.902,154.976,0,19,19,93,1,150,40,NA,NA,NA,NA,NA,1,20,"likert"
"6AEA21E0CC19480D95EF78972E41A441",1,"01990a98-9d60-73ab-8c13-c486535ac4b3","01990a84-c4ee-73c2-a87b-ff46a7d3dde5","2025-09-02_06h43.11.667",NA,NA,158.242,158.242,158.242,158.691,NA,NA,NA,NA,NA,NA,NA,TRUE,5,0.892,155.349,158.242,0,20,20,28,1,21,32,NA,NA,NA,NA,NA,1,21,"likert"
"6AEA21E0CC19480D95EF78972E41A441",1,"01990a98-9d60-73ab-8c13-c486535ac4b3","01990a84-c4ee-73c2-a87b-ff46a7d3dde5","2025-09-02_06h43.11.667",NA,NA,161.68,161.68,161.68,161.984,NA,NA,NA,NA,NA,NA,NA,TRUE,4,1.082,158.699,161.68,0,21,21,98,1,180,35,NA,NA,NA,NA,NA,1,22,"likert"
"6AEA21E0CC19480D95EF78972E41A441",1,"01990a98-9d60-73ab-8c13-c486535ac4b3","01990a84-c4ee-73c2-a87b-ff46a7d3dde5","2025-09-02_06h43.11.667",NA,NA,165.068,165.068,165.068,165.385,NA,NA,NA,NA,NA,NA,NA,TRUE,5,1.574,161.986,165.068,0,22,22,77,1,90,54,NA,NA,NA,NA,NA,1,23,"likert"
"6AEA21E0CC19480D95EF78972E41A441",1,"01990a98-9d60-73ab-8c13-c486535ac4b3","01990a84-c4ee-73c2-a87b-ff46a7d3dde5","2025-09-02_06h43.11.667",NA,NA,168.29,168.29,168.29,168.805,NA,NA,NA,NA,NA,NA,NA,TRUE,5,1.105,165.393,168.29,0,23,23,71,1,60,54,NA,NA,NA,NA,NA,1,24,"likert"
"6AEA21E0CC19480D95EF78972E41A441",1,"01990a98-9d60-73ab-8c13-c486535ac4b3","01990a84-c4ee-73c2-a87b-ff46a7d3dde5","2025-09-02_06h43.11.667",NA,NA,171.718,171.718,171.718,172.044,NA,NA,NA,NA,NA,NA,NA,TRUE,5,1.222,168.806,171.718,0,24,24,39,1,28,35,NA,NA,NA,NA,NA,1,25,"likert"
"6AEA21E0CC19480D95EF78972E41A441",1,"01990a98-9d60-73ab-8c13-c486535ac4b3","01990a84-c4ee-73c2-a87b-ff46a7d3dde5","2025-09-02_06h43.11.667",NA,NA,175.009,175.01,175.01,175.475,NA,NA,NA,NA,NA,NA,NA,TRUE,5,0.911,172.052,175.009,0,25,25,83,1,95,54,NA,NA,NA,NA,NA,1,26,"likert"
"6AEA21E0CC19480D95EF78972E41A441",1,"01990a98-9d60-73ab-8c13-c486535ac4b3","01990a84-c4ee-73c2-a87b-ff46a7d3dde5","2025-09-02_06h43.11.667",NA,NA,178.336,178.336,178.336,178.826,NA,NA,NA,NA,NA,NA,NA,TRUE,5,1.024,175.483,178.335,0,26,26,25,1,21,27,NA,NA,NA,NA,NA,1,27,"likert"
"6AEA21E0CC19480D95EF78972E41A441",1,"01990a98-9d60-73ab-8c13-c486535ac4b3","01990a84-c4ee-73c2-a87b-ff46a7d3dde5","2025-09-02_06h43.11.667",NA,NA,181.793,181.793,181.793,182.105,NA,NA,NA,NA,NA,NA,NA,TRUE,5,0.908,178.827,181.793,0,27,27,74,1,90,33,NA,NA,NA,NA,NA,1,28,"likert"
"6AEA21E0CC19480D95EF78972E41A441",1,"01990a98-9d60-73ab-8c13-c486535ac4b3","01990a84-c4ee-73c2-a87b-ff46a7d3dde5","2025-09-02_06h43.11.667",NA,NA,185.191,185.191,185.191,185.503,NA,NA,NA,NA,NA,NA,NA,TRUE,4,1.249,182.106,185.191,0,28,28,92,1,150,35,NA,NA,NA,NA,NA,1,29,"likert"
"6AEA21E0CC19480D95EF78972E41A441",1,"01990a98-9d60-73ab-8c13-c486535ac4b3","01990a84-c4ee-73c2-a87b-ff46a7d3dde5","2025-09-02_06h43.11.667",NA,NA,188.526,188.526,188.526,188.85,NA,NA,NA,NA,NA,NA,NA,TRUE,5,0.88,185.511,188.525,0,29,29,63,1,50,40,NA,NA,NA,NA,NA,1,30,"likert"
"6AEA21E0CC19480D95EF78972E41A441",1,"01990a98-9d60-73ab-8c13-c486535ac4b3","01990a84-c4ee-73c2-a87b-ff46a7d3dde5","2025-09-02_06h43.11.667",NA,NA,191.881,191.882,191.882,192.207,NA,NA,NA,NA,NA,NA,NA,TRUE,5,0.853,188.858,191.881,0,30,30,43,1,30,27,NA,NA,NA,NA,NA,1,31,"likert"
"6AEA21E0CC19480D95EF78972E41A441",1,"01990a98-9d60-73ab-8c13-c486535ac4b3","01990a84-c4ee-73c2-a87b-ff46a7d3dde5","2025-09-02_06h43.11.667",NA,NA,195.155,195.155,195.155,195.48,NA,NA,NA,NA,NA,NA,NA,TRUE,5,0.815,192.209,195.155,0,31,31,8,1,10,27,NA,NA,NA,NA,NA,1,32,"likert"
"6AEA21E0CC19480D95EF78972E41A441",1,"01990a98-9d60-73ab-8c13-c486535ac4b3","01990a84-c4ee-73c2-a87b-ff46a7d3dde5","2025-09-02_06h43.11.667",NA,NA,198.537,198.537,198.537,198.837,NA,NA,NA,NA,NA,NA,NA,TRUE,5,0.878,195.489,198.536,0,32,32,58,1,45,40,NA,NA,NA,NA,NA,1,33,"likert"
"6AEA21E0CC19480D95EF78972E41A441",1,"01990a98-9d60-73ab-8c13-c486535ac4b3","01990a84-c4ee-73c2-a87b-ff46a7d3dde5","2025-09-02_06h43.11.667",NA,NA,201.925,201.925,201.925,202.239,NA,NA,NA,NA,NA,NA,NA,TRUE,5,0.98,198.839,201.925,0,33,33,59,1,45,46,NA,NA,NA,NA,NA,1,34,"likert"
"6AEA21E0CC19480D95EF78972E41A441",1,"01990a98-9d60-73ab-8c13-c486535ac4b3","01990a84-c4ee-73c2-a87b-ff46a7d3dde5","2025-09-02_06h43.11.667",NA,NA,205.221,205.221,205.221,205.534,NA,NA,NA,NA,NA,NA,NA,TRUE,4,1.263,202.248,205.22,0,34,34,97,1,180,31,NA,NA,NA,NA,NA,1,35,"likert"
"6AEA21E0CC19480D95EF78972E41A441",1,"01990a98-9d60-73ab-8c13-c486535ac4b3","01990a84-c4ee-73c2-a87b-ff46a7d3dde5","2025-09-02_06h43.11.667",NA,NA,208.478,208.478,208.478,208.951,NA,NA,NA,NA,NA,NA,NA,TRUE,5,1.04,205.535,208.478,0,35,35,49,1,40,33,NA,NA,NA,NA,NA,1,36,"likert"
"6AEA21E0CC19480D95EF78972E41A441",1,"01990a98-9d60-73ab-8c13-c486535ac4b3","01990a84-c4ee-73c2-a87b-ff46a7d3dde5","2025-09-02_06h43.11.667",NA,NA,211.851,211.851,211.851,212.345,NA,NA,NA,NA,NA,NA,NA,TRUE,5,1.067,208.958,211.85,0,36,36,4,1,7,32,NA,NA,NA,NA,NA,1,37,"likert"
"6AEA21E0CC19480D95EF78972E41A441",1,"01990a98-9d60-73ab-8c13-c486535ac4b3","01990a84-c4ee-73c2-a87b-ff46a7d3dde5","2025-09-02_06h43.11.667",NA,NA,215.158,215.158,215.158,215.657,NA,NA,NA,NA,NA,NA,NA,TRUE,5,1.109,212.347,215.158,0,37,37,19,1,14,26,NA,NA,NA,NA,NA,1,38,"likert"
"6AEA21E0CC19480D95EF78972E41A441",1,"01990a98-9d60-73ab-8c13-c486535ac4b3","01990a84-c4ee-73c2-a87b-ff46a7d3dde5","2025-09-02_06h43.11.667",NA,NA,218.546,218.546,218.546,219.011,NA,NA,NA,NA,NA,NA,NA,TRUE,5,0.007,215.665,218.546,0,38,38,79,1,95,33,NA,NA,NA,NA,NA,1,39,"likert"
"6AEA21E0CC19480D95EF78972E41A441",1,"01990a98-9d60-73ab-8c13-c486535ac4b3","01990a84-c4ee-73c2-a87b-ff46a7d3dde5","2025-09-02_06h43.11.667",NA,NA,221.873,221.873,221.873,222.34,NA,NA,NA,NA,NA,NA,NA,TRUE,4,1.229,219.012,221.873,0,39,39,96,1,180,27,NA,NA,NA,NA,NA,1,40,"likert"
"6AEA21E0CC19480D95EF78972E41A441",1,"01990a98-9d60-73ab-8c13-c486535ac4b3","01990a84-c4ee-73c2-a87b-ff46a7d3dde5","2025-09-02_06h43.11.667",NA,NA,225.212,225.212,225.212,225.677,NA,NA,NA,NA,NA,NA,NA,TRUE,5,0.873,222.349,225.211,0,40,40,32,1,25,31,NA,NA,NA,NA,NA,1,41,"likert"
"6AEA21E0CC19480D95EF78972E41A441",1,"01990a98-9d60-73ab-8c13-c486535ac4b3","01990a84-c4ee-73c2-a87b-ff46a7d3dde5","2025-09-02_06h43.11.667",NA,NA,228.766,228.766,228.766,229.069,NA,NA,NA,NA,NA,NA,NA,TRUE,5,0.919,225.679,228.766,0,41,41,69,1,60,40,NA,NA,NA,NA,NA,1,42,"likert"
"6AEA21E0CC19480D95EF78972E41A441",1,"01990a98-9d60-73ab-8c13-c486535ac4b3","01990a84-c4ee-73c2-a87b-ff46a7d3dde5","2025-09-02_06h43.11.667",NA,NA,232.044,232.044,232.044,232.413,NA,NA,NA,NA,NA,NA,NA,TRUE,5,1.116,229.077,232.044,0,42,42,42,1,30,26,NA,NA,NA,NA,NA,1,43,"likert"
"6AEA21E0CC19480D95EF78972E41A441",1,"01990a98-9d60-73ab-8c13-c486535ac4b3","01990a84-c4ee-73c2-a87b-ff46a7d3dde5","2025-09-02_06h43.11.667",NA,NA,235.338,235.339,235.339,235.685,NA,NA,NA,NA,NA,NA,NA,TRUE,5,1.134,232.415,235.338,0,43,43,89,1,100,54,NA,NA,NA,NA,NA,1,44,"likert"
"6AEA21E0CC19480D95EF78972E41A441",1,"01990a98-9d60-73ab-8c13-c486535ac4b3","01990a84-c4ee-73c2-a87b-ff46a7d3dde5","2025-09-02_06h43.11.667",NA,NA,238.759,238.759,238.759,239.098,NA,NA,NA,NA,NA,NA,NA,TRUE,5,1.1,235.692,238.758,0,44,44,65,1,50,54,NA,NA,NA,NA,NA,1,45,"likert"
"6AEA21E0CC19480D95EF78972E41A441",1,"01990a98-9d60-73ab-8c13-c486535ac4b3","01990a84-c4ee-73c2-a87b-ff46a7d3dde5","2025-09-02_06h43.11.667",NA,NA,242.055,242.055,242.055,242.381,NA,NA,NA,NA,NA,NA,NA,TRUE,5,1.064,239.099,242.055,0,45,45,37,1,28,28,NA,NA,NA,NA,NA,1,46,"likert"
"6AEA21E0CC19480D95EF78972E41A441",1,"01990a98-9d60-73ab-8c13-c486535ac4b3","01990a84-c4ee-73c2-a87b-ff46a7d3dde5","2025-09-02_06h43.11.667",NA,NA,245.313,245.313,245.313,245.775,NA,NA,NA,NA,NA,NA,NA,TRUE,5,1.224,242.388,245.312,0,46,46,66,1,60,29,NA,NA,NA,NA,NA,1,47,"likert"
"6AEA21E0CC19480D95EF78972E41A441",1,"01990a98-9d60-73ab-8c13-c486535ac4b3","01990a84-c4ee-73c2-a87b-ff46a7d3dde5","2025-09-02_06h43.11.667",NA,NA,248.723,248.723,248.723,249.207,NA,NA,NA,NA,NA,NA,NA,TRUE,5,1.07,245.776,248.722,0,47,47,62,1,50,35,NA,NA,NA,NA,NA,1,48,"likert"
"6AEA21E0CC19480D95EF78972E41A441",1,"01990a98-9d60-73ab-8c13-c486535ac4b3","01990a84-c4ee-73c2-a87b-ff46a7d3dde5","2025-09-02_06h43.11.667",NA,NA,252.161,252.161,252.161,252.477,NA,NA,NA,NA,NA,NA,NA,TRUE,5,0.915,249.215,252.16,0,48,48,16,1,12,33,NA,NA,NA,NA,NA,1,49,"likert"
"6AEA21E0CC19480D95EF78972E41A441",1,"01990a98-9d60-73ab-8c13-c486535ac4b3","01990a84-c4ee-73c2-a87b-ff46a7d3dde5","2025-09-02_06h43.11.667",NA,NA,255.479,255.479,255.479,255.779,NA,NA,NA,NA,NA,NA,NA,TRUE,5,0.749,252.478,255.478,0,49,49,18,1,14,25,NA,NA,NA,NA,NA,1,50,"likert"
"6AEA21E0CC19480D95EF78972E41A441",1,"01990a98-9d60-73ab-8c13-c486535ac4b3","01990a84-c4ee-73c2-a87b-ff46a7d3dde5","2025-09-02_06h43.11.667",NA,NA,258.865,258.865,258.865,259.2,NA,NA,NA,NA,NA,NA,NA,TRUE,5,0.697,255.781,258.865,0,50,50,70,1,60,47,NA,NA,NA,NA,NA,1,51,"likert"
"6AEA21E0CC19480D95EF78972E41A441",1,"01990a98-9d60-73ab-8c13-c486535ac4b3","01990a84-c4ee-73c2-a87b-ff46a7d3dde5","2025-09-02_06h43.11.667",NA,NA,262.117,262.117,262.117,262.602,NA,NA,NA,NA,NA,NA,NA,TRUE,5,0.884,259.208,262.116,0,51,51,84,1,100,26,NA,NA,NA,NA,NA,1,52,"likert"
"6AEA21E0CC19480D95EF78972E41A441",1,"01990a98-9d60-73ab-8c13-c486535ac4b3","01990a84-c4ee-73c2-a87b-ff46a7d3dde5","2025-09-02_06h43.11.667",NA,NA,265.482,265.482,265.482,265.818,NA,NA,NA,NA,NA,NA,NA,TRUE,5,0.942,262.603,265.481,0,52,52,27,1,21,30,NA,NA,NA,NA,NA,1,53,"likert"
"6AEA21E0CC19480D95EF78972E41A441",1,"01990a98-9d60-73ab-8c13-c486535ac4b3","01990a84-c4ee-73c2-a87b-ff46a7d3dde5","2025-09-02_06h43.11.667",NA,NA,268.88,268.88,268.88,269.211,NA,NA,NA,NA,NA,NA,NA,TRUE,5,0.724,265.826,268.88,0,53,53,60,1,50,27,NA,NA,NA,NA,NA,1,54,"likert"
"6AEA21E0CC19480D95EF78972E41A441",1,"01990a98-9d60-73ab-8c13-c486535ac4b3","01990a84-c4ee-73c2-a87b-ff46a7d3dde5","2025-09-02_06h43.11.667",NA,NA,272.154,272.154,272.154,272.648,NA,NA,NA,NA,NA,NA,NA,TRUE,5,1.53,269.212,272.153,0,54,54,17,1,12,35,NA,NA,NA,NA,NA,1,55,"likert"
"6AEA21E0CC19480D95EF78972E41A441",1,"01990a98-9d60-73ab-8c13-c486535ac4b3","01990a84-c4ee-73c2-a87b-ff46a7d3dde5","2025-09-02_06h43.11.667",NA,NA,275.605,275.605,275.605,275.954,NA,NA,NA,NA,NA,NA,NA,TRUE,5,0.998,272.659,275.604,0,55,55,3,1,7,30,NA,NA,NA,NA,NA,1,56,"likert"
"6AEA21E0CC19480D95EF78972E41A441",1,"01990a98-9d60-73ab-8c13-c486535ac4b3","01990a84-c4ee-73c2-a87b-ff46a7d3dde5","2025-09-02_06h43.11.667",NA,NA,278.857,278.857,278.857,279.218,NA,NA,NA,NA,NA,NA,NA,TRUE,4,1.212,275.955,278.856,0,56,56,87,1,100,39,NA,NA,NA,NA,NA,1,57,"likert"
"6AEA21E0CC19480D95EF78972E41A441",1,"01990a98-9d60-73ab-8c13-c486535ac4b3","01990a84-c4ee-73c2-a87b-ff46a7d3dde5","2025-09-02_06h43.11.667",NA,NA,282.185,282.185,282.185,282.694,NA,NA,NA,NA,NA,NA,NA,TRUE,5,1.266,279.228,282.184,0,57,57,45,1,30,30,NA,NA,NA,NA,NA,1,58,"likert"
"6AEA21E0CC19480D95EF78972E41A441",1,"01990a98-9d60-73ab-8c13-c486535ac4b3","01990a84-c4ee-73c2-a87b-ff46a7d3dde5","2025-09-02_06h43.11.667",NA,NA,285.595,285.595,285.595,285.925,NA,NA,NA,NA,NA,NA,NA,TRUE,5,0.989,282.695,285.594,0,58,58,41,1,28,46,NA,NA,NA,NA,NA,1,59,"likert"
"6AEA21E0CC19480D95EF78972E41A441",1,"01990a98-9d60-73ab-8c13-c486535ac4b3","01990a84-c4ee-73c2-a87b-ff46a7d3dde5","2025-09-02_06h43.11.667",NA,NA,289.004,289.004,289.004,289.363,NA,NA,NA,NA,NA,NA,NA,TRUE,5,0.963,285.934,289.004,0,59,59,51,1,40,40,NA,NA,NA,NA,NA,1,60,"likert"
"6AEA21E0CC19480D95EF78972E41A441",1,"01990a98-9d60-73ab-8c13-c486535ac4b3","01990a84-c4ee-73c2-a87b-ff46a7d3dde5","2025-09-02_06h43.11.667",NA,NA,292.363,292.363,292.363,292.709,NA,NA,NA,NA,NA,NA,NA,TRUE,5,0.941,289.364,292.363,0,60,60,75,1,90,40,NA,NA,NA,NA,NA,1,61,"likert"
"6AEA21E0CC19480D95EF78972E41A441",1,"01990a98-9d60-73ab-8c13-c486535ac4b3","01990a84-c4ee-73c2-a87b-ff46a7d3dde5","2025-09-02_06h43.11.667",NA,NA,295.656,295.656,295.656,295.993,NA,NA,NA,NA,NA,NA,NA,TRUE,5,0.733,292.718,295.655,0,61,61,31,1,25,29,NA,NA,NA,NA,NA,1,62,"likert"
"6AEA21E0CC19480D95EF78972E41A441",1,"01990a98-9d60-73ab-8c13-c486535ac4b3","01990a84-c4ee-73c2-a87b-ff46a7d3dde5","2025-09-02_06h43.11.667",NA,NA,299.005,299.005,299.005,299.375,NA,NA,NA,NA,NA,NA,NA,TRUE,5,0.897,295.995,299.004,0,62,62,14,1,12,28,NA,NA,NA,NA,NA,1,63,"likert"
"6AEA21E0CC19480D95EF78972E41A441",1,"01990a98-9d60-73ab-8c13-c486535ac4b3","01990a84-c4ee-73c2-a87b-ff46a7d3dde5","2025-09-02_06h43.11.667",NA,NA,302.397,302.397,302.397,302.712,NA,NA,NA,NA,NA,NA,NA,TRUE,5,0.922,299.383,302.396,0,63,63,44,1,30,29,NA,NA,NA,NA,NA,1,64,"likert"
"6AEA21E0CC19480D95EF78972E41A441",1,"01990a98-9d60-73ab-8c13-c486535ac4b3","01990a84-c4ee-73c2-a87b-ff46a7d3dde5","2025-09-02_06h43.11.667",NA,NA,305.708,305.708,305.708,306.024,NA,NA,NA,NA,NA,NA,NA,TRUE,5,1.484,302.713,305.708,0,64,64,76,1,90,46,NA,NA,NA,NA,NA,1,65,"likert"
"6AEA21E0CC19480D95EF78972E41A441",1,"01990a98-9d60-73ab-8c13-c486535ac4b3","01990a84-c4ee-73c2-a87b-ff46a7d3dde5","2025-09-02_06h43.11.667",NA,NA,309.026,309.026,309.026,309.35,NA,NA,NA,NA,NA,NA,NA,TRUE,5,1.302,306.032,309.025,0,65,65,101,1,180,54,NA,NA,NA,NA,NA,1,66,"likert"
"6AEA21E0CC19480D95EF78972E41A441",1,"01990a98-9d60-73ab-8c13-c486535ac4b3","01990a84-c4ee-73c2-a87b-ff46a7d3dde5","2025-09-02_06h43.11.667",NA,NA,312.396,312.396,312.396,312.722,NA,NA,NA,NA,NA,NA,NA,TRUE,5,1.199,309.351,312.396,0,66,66,78,1,95,31,NA,NA,NA,NA,NA,1,67,"likert"
"6AEA21E0CC19480D95EF78972E41A441",1,"01990a98-9d60-73ab-8c13-c486535ac4b3","01990a84-c4ee-73c2-a87b-ff46a7d3dde5","2025-09-02_06h43.11.667",NA,NA,315.83,315.83,315.83,316.14,NA,NA,NA,NA,NA,NA,NA,TRUE,5,1.507,312.73,315.83,0,67,67,103,1,200,28,NA,NA,NA,NA,NA,1,68,"likert"
"6AEA21E0CC19480D95EF78972E41A441",1,"01990a98-9d60-73ab-8c13-c486535ac4b3","01990a84-c4ee-73c2-a87b-ff46a7d3dde5","2025-09-02_06h43.11.667",NA,NA,319.055,319.056,319.056,319.554,NA,NA,NA,NA,NA,NA,NA,TRUE,5,1.07,316.141,319.055,0,68,68,30,1,25,27,NA,NA,NA,NA,NA,1,69,"likert"
"6AEA21E0CC19480D95EF78972E41A441",1,"01990a98-9d60-73ab-8c13-c486535ac4b3","01990a84-c4ee-73c2-a87b-ff46a7d3dde5","2025-09-02_06h43.11.667",NA,NA,322.386,322.386,322.386,322.866,NA,NA,NA,NA,NA,NA,NA,TRUE,4,1.073,319.562,322.385,0,69,69,107,1,200,54,NA,NA,NA,NA,NA,1,70,"likert"
"6AEA21E0CC19480D95EF78972E41A441",1,"01990a98-9d60-73ab-8c13-c486535ac4b3","01990a84-c4ee-73c2-a87b-ff46a7d3dde5","2025-09-02_06h43.11.667",NA,NA,325.756,325.756,325.756,326.234,NA,NA,NA,NA,NA,NA,NA,TRUE,5,0.893,322.867,325.755,0,70,70,40,1,28,39,NA,NA,NA,NA,NA,1,71,"likert"
"6AEA21E0CC19480D95EF78972E41A441",1,"01990a98-9d60-73ab-8c13-c486535ac4b3","01990a84-c4ee-73c2-a87b-ff46a7d3dde5","2025-09-02_06h43.11.667",NA,NA,329.244,329.244,329.244,329.565,NA,NA,NA,NA,NA,NA,NA,TRUE,5,1.007,326.243,329.244,0,71,71,64,1,50,46,NA,NA,NA,NA,NA,1,72,"likert"
"6AEA21E0CC19480D95EF78972E41A441",1,"01990a98-9d60-73ab-8c13-c486535ac4b3","01990a84-c4ee-73c2-a87b-ff46a7d3dde5","2025-09-02_06h43.11.667",NA,NA,332.523,332.523,332.523,332.833,NA,NA,NA,NA,NA,NA,NA,TRUE,4,1.095,329.566,332.523,0,72,72,91,1,150,33,NA,NA,NA,NA,NA,1,73,"likert"
"6AEA21E0CC19480D95EF78972E41A441",1,"01990a98-9d60-73ab-8c13-c486535ac4b3","01990a84-c4ee-73c2-a87b-ff46a7d3dde5","2025-09-02_06h43.11.667",NA,NA,335.781,335.781,335.781,336.274,NA,NA,NA,NA,NA,NA,NA,TRUE,5,0.969,332.841,335.781,0,73,73,9,1,10,29,NA,NA,NA,NA,NA,1,74,"likert"
"6AEA21E0CC19480D95EF78972E41A441",1,"01990a98-9d60-73ab-8c13-c486535ac4b3","01990a84-c4ee-73c2-a87b-ff46a7d3dde5","2025-09-02_06h43.11.667",NA,NA,339.268,339.268,339.268,339.602,NA,NA,NA,NA,NA,NA,NA,TRUE,4,1.226,336.276,339.268,0,74,74,105,1,200,39,NA,NA,NA,NA,NA,1,75,"likert"
"6AEA21E0CC19480D95EF78972E41A441",1,"01990a98-9d60-73ab-8c13-c486535ac4b3","01990a84-c4ee-73c2-a87b-ff46a7d3dde5","2025-09-02_06h43.11.667",NA,NA,342.532,342.532,342.532,342.861,NA,NA,NA,NA,NA,NA,NA,TRUE,5,0.899,339.611,342.531,0,75,75,47,1,30,38,NA,NA,NA,NA,NA,1,76,"likert"
"6AEA21E0CC19480D95EF78972E41A441",1,"01990a98-9d60-73ab-8c13-c486535ac4b3","01990a84-c4ee-73c2-a87b-ff46a7d3dde5","2025-09-02_06h43.11.667",NA,NA,345.945,345.945,345.945,346.247,NA,NA,NA,NA,NA,NA,NA,TRUE,5,1.228,342.862,345.945,0,76,76,21,1,14,32,NA,NA,NA,NA,NA,1,77,"likert"
"6AEA21E0CC19480D95EF78972E41A441",1,"01990a98-9d60-73ab-8c13-c486535ac4b3","01990a84-c4ee-73c2-a87b-ff46a7d3dde5","2025-09-02_06h43.11.667",NA,NA,349.301,349.301,349.301,349.653,NA,NA,NA,NA,NA,NA,NA,TRUE,4,1.191,346.255,349.301,0,77,77,80,1,95,35,NA,NA,NA,NA,NA,1,78,"likert"
"6AEA21E0CC19480D95EF78972E41A441",1,"01990a98-9d60-73ab-8c13-c486535ac4b3","01990a84-c4ee-73c2-a87b-ff46a7d3dde5","2025-09-02_06h43.11.667",NA,NA,352.703,352.703,352.703,353.042,NA,NA,NA,NA,NA,NA,NA,TRUE,5,0.935,349.655,352.702,0,78,78,50,1,40,35,NA,NA,NA,NA,NA,1,79,"likert"
"6AEA21E0CC19480D95EF78972E41A441",1,"01990a98-9d60-73ab-8c13-c486535ac4b3","01990a84-c4ee-73c2-a87b-ff46a7d3dde5","2025-09-02_06h43.11.667",NA,NA,355.935,355.935,355.935,356.277,NA,NA,NA,NA,NA,NA,NA,TRUE,5,1.053,353.05,355.935,0,79,79,48,1,40,27,NA,NA,NA,NA,NA,1,80,"likert"
"6AEA21E0CC19480D95EF78972E41A441",1,"01990a98-9d60-73ab-8c13-c486535ac4b3","01990a84-c4ee-73c2-a87b-ff46a7d3dde5","2025-09-02_06h43.11.667",NA,NA,359.347,359.347,359.347,359.696,NA,NA,NA,NA,NA,NA,NA,TRUE,5,0.738,356.278,359.346,0,80,80,104,1,200,35,NA,NA,NA,NA,NA,1,81,"likert"
"6AEA21E0CC19480D95EF78972E41A441",1,"01990a98-9d60-73ab-8c13-c486535ac4b3","01990a84-c4ee-73c2-a87b-ff46a7d3dde5","2025-09-02_06h43.11.667",NA,NA,362.673,362.673,362.673,363.047,NA,NA,NA,NA,NA,NA,NA,TRUE,5,0.954,359.706,362.673,0,81,81,33,1,25,33,NA,NA,NA,NA,NA,1,82,"likert"
"6AEA21E0CC19480D95EF78972E41A441",1,"01990a98-9d60-73ab-8c13-c486535ac4b3","01990a84-c4ee-73c2-a87b-ff46a7d3dde5","2025-09-02_06h43.11.667",NA,NA,366.01,366.01,366.01,366.327,NA,NA,NA,NA,NA,NA,NA,TRUE,5,1.106,363.049,366.01,0,82,82,11,1,10,32,NA,NA,NA,NA,NA,1,83,"likert"
"6AEA21E0CC19480D95EF78972E41A441",1,"01990a98-9d60-73ab-8c13-c486535ac4b3","01990a84-c4ee-73c2-a87b-ff46a7d3dde5","2025-09-02_06h43.11.667",NA,NA,369.405,369.405,369.405,369.736,NA,NA,NA,NA,NA,NA,NA,TRUE,4,0.898,366.336,369.404,0,83,83,86,1,100,38,NA,NA,NA,NA,NA,1,84,"likert"
"6AEA21E0CC19480D95EF78972E41A441",1,"01990a98-9d60-73ab-8c13-c486535ac4b3","01990a84-c4ee-73c2-a87b-ff46a7d3dde5","2025-09-02_06h43.11.667",NA,NA,372.683,372.683,372.683,373.002,NA,NA,NA,NA,NA,NA,NA,TRUE,5,1.071,369.737,372.683,0,84,84,55,1,45,29,NA,NA,NA,NA,NA,1,85,"likert"
"6AEA21E0CC19480D95EF78972E41A441",1,"01990a98-9d60-73ab-8c13-c486535ac4b3","01990a84-c4ee-73c2-a87b-ff46a7d3dde5","2025-09-02_06h43.11.667",NA,NA,376.06,376.06,376.06,376.393,NA,NA,NA,NA,NA,NA,NA,TRUE,4,1.082,373.01,376.06,0,85,85,90,1,150,31,NA,NA,NA,NA,NA,1,86,"likert"
"6AEA21E0CC19480D95EF78972E41A441",1,"01990a98-9d60-73ab-8c13-c486535ac4b3","01990a84-c4ee-73c2-a87b-ff46a7d3dde5","2025-09-02_06h43.11.667",NA,NA,379.379,379.379,379.379,379.709,NA,NA,NA,NA,NA,NA,NA,TRUE,4,1.093,376.394,379.379,0,86,86,85,1,100,31,NA,NA,NA,NA,NA,1,87,"likert"
"6AEA21E0CC19480D95EF78972E41A441",1,"01990a98-9d60-73ab-8c13-c486535ac4b3","01990a84-c4ee-73c2-a87b-ff46a7d3dde5","2025-09-02_06h43.11.667",NA,NA,382.712,382.712,382.712,383.198,NA,NA,NA,NA,NA,NA,NA,TRUE,5,0.739,379.716,382.712,0,87,87,67,1,60,33,NA,NA,NA,NA,NA,1,88,"likert"
"6AEA21E0CC19480D95EF78972E41A441",1,"01990a98-9d60-73ab-8c13-c486535ac4b3","01990a84-c4ee-73c2-a87b-ff46a7d3dde5","2025-09-02_06h43.11.667",NA,NA,386.087,386.087,386.088,386.429,NA,NA,NA,NA,NA,NA,NA,TRUE,5,0.971,383.2,386.087,0,88,88,24,1,21,26,NA,NA,NA,NA,NA,1,89,"likert"
"6AEA21E0CC19480D95EF78972E41A441",1,"01990a98-9d60-73ab-8c13-c486535ac4b3","01990a84-c4ee-73c2-a87b-ff46a7d3dde5","2025-09-02_06h43.11.667",NA,NA,389.543,389.543,389.543,389.871,NA,NA,NA,NA,NA,NA,NA,TRUE,5,0.883,386.43,389.542,0,89,89,34,1,25,35,NA,NA,NA,NA,NA,1,90,"likert"
"6AEA21E0CC19480D95EF78972E41A441",1,"01990a98-9d60-73ab-8c13-c486535ac4b3","01990a84-c4ee-73c2-a87b-ff46a7d3dde5","2025-09-02_06h43.11.667",NA,NA,392.787,392.787,392.787,393.268,NA,NA,NA,NA,NA,NA,NA,TRUE,5,1.139,389.879,392.787,0,90,90,46,1,30,32,NA,NA,NA,NA,NA,1,91,"likert"
"6AEA21E0CC19480D95EF78972E41A441",1,"01990a98-9d60-73ab-8c13-c486535ac4b3","01990a84-c4ee-73c2-a87b-ff46a7d3dde5","2025-09-02_06h43.11.667",NA,NA,396.157,396.157,396.157,396.454,NA,NA,NA,NA,NA,NA,NA,TRUE,5,0.95,393.269,396.157,0,91,91,53,1,40,54,NA,NA,NA,NA,NA,1,92,"likert"
"6AEA21E0CC19480D95EF78972E41A441",1,"01990a98-9d60-73ab-8c13-c486535ac4b3","01990a84-c4ee-73c2-a87b-ff46a7d3dde5","2025-09-02_06h43.11.667",NA,NA,399.488,399.488,399.489,399.81,NA,NA,NA,NA,NA,NA,NA,TRUE,5,0.673,396.462,399.488,0,92,92,54,1,45,26,NA,NA,NA,NA,NA,1,93,"likert"
"6AEA21E0CC19480D95EF78972E41A441",1,"01990a98-9d60-73ab-8c13-c486535ac4b3","01990a84-c4ee-73c2-a87b-ff46a7d3dde5","2025-09-02_06h43.11.667",NA,NA,402.825,402.825,402.825,403.32,NA,NA,NA,NA,NA,NA,NA,TRUE,5,0.696,399.811,402.824,0,93,93,73,1,90,30,NA,NA,NA,NA,NA,1,94,"likert"
"6AEA21E0CC19480D95EF78972E41A441",1,"01990a98-9d60-73ab-8c13-c486535ac4b3","01990a84-c4ee-73c2-a87b-ff46a7d3dde5","2025-09-02_06h43.11.667",NA,NA,406.214,406.214,406.214,406.546,NA,NA,NA,NA,NA,NA,NA,TRUE,5,0.872,403.328,406.214,0,94,94,72,1,90,26,NA,NA,NA,NA,NA,1,95,"likert"
"6AEA21E0CC19480D95EF78972E41A441",1,"01990a98-9d60-73ab-8c13-c486535ac4b3","01990a84-c4ee-73c2-a87b-ff46a7d3dde5","2025-09-02_06h43.11.667",NA,NA,409.498,409.498,409.498,409.997,NA,NA,NA,NA,NA,NA,NA,TRUE,4,1.081,406.548,409.498,0,95,95,99,1,180,39,NA,NA,NA,NA,NA,1,96,"likert"
"6AEA21E0CC19480D95EF78972E41A441",1,"01990a98-9d60-73ab-8c13-c486535ac4b3","01990a84-c4ee-73c2-a87b-ff46a7d3dde5","2025-09-02_06h43.11.667",NA,NA,412.909,412.909,412.909,413.267,NA,NA,NA,NA,NA,NA,NA,TRUE,4,0.92,410.006,412.909,0,96,96,100,1,180,46,NA,NA,NA,NA,NA,1,97,"likert"
"6AEA21E0CC19480D95EF78972E41A441",1,"01990a98-9d60-73ab-8c13-c486535ac4b3","01990a84-c4ee-73c2-a87b-ff46a7d3dde5","2025-09-02_06h43.11.667",NA,NA,416.317,416.317,416.317,416.651,NA,NA,NA,NA,NA,NA,NA,TRUE,5,0.724,413.268,416.316,0,97,97,6,1,10,25,NA,NA,NA,NA,NA,1,98,"likert"
"6AEA21E0CC19480D95EF78972E41A441",1,"01990a98-9d60-73ab-8c13-c486535ac4b3","01990a84-c4ee-73c2-a87b-ff46a7d3dde5","2025-09-02_06h43.11.667",NA,NA,419.633,419.633,419.633,420.002,NA,NA,NA,NA,NA,NA,NA,TRUE,5,0.213,416.658,419.633,0,98,98,10,1,10,30,NA,NA,NA,NA,NA,1,99,"likert"
"6AEA21E0CC19480D95EF78972E41A441",1,"01990a98-9d60-73ab-8c13-c486535ac4b3","01990a84-c4ee-73c2-a87b-ff46a7d3dde5","2025-09-02_06h43.11.667",NA,NA,423.002,423.002,423.002,423.395,NA,NA,NA,NA,NA,NA,NA,TRUE,5,0.821,420.003,423.001,0,99,99,61,1,50,30,NA,NA,NA,NA,NA,1,100,"likert"
"6AEA21E0CC19480D95EF78972E41A441",1,"01990a98-9d60-73ab-8c13-c486535ac4b3","01990a84-c4ee-73c2-a87b-ff46a7d3dde5","2025-09-02_06h43.11.667",NA,NA,426.262,426.262,426.262,426.625,NA,NA,NA,NA,NA,NA,NA,TRUE,5,0.814,423.403,426.262,0,100,100,36,1,28,26,NA,NA,NA,NA,NA,1,101,"likert"
"6AEA21E0CC19480D95EF78972E41A441",1,"01990a98-9d60-73ab-8c13-c486535ac4b3","01990a84-c4ee-73c2-a87b-ff46a7d3dde5","2025-09-02_06h43.11.667",NA,NA,429.565,429.565,429.565,430.04,NA,NA,NA,NA,NA,NA,NA,TRUE,5,0.6,426.626,429.565,0,101,101,88,1,100,46,NA,NA,NA,NA,NA,1,102,"likert"
"6AEA21E0CC19480D95EF78972E41A441",1,"01990a98-9d60-73ab-8c13-c486535ac4b3","01990a84-c4ee-73c2-a87b-ff46a7d3dde5","2025-09-02_06h43.11.667",NA,NA,433.076,433.076,433.076,433.408,NA,NA,NA,NA,NA,NA,NA,TRUE,5,0.718,430.047,433.076,0,102,102,35,1,25,46,NA,NA,NA,NA,NA,1,103,"likert"
"6AEA21E0CC19480D95EF78972E41A441",1,"01990a98-9d60-73ab-8c13-c486535ac4b3","01990a84-c4ee-73c2-a87b-ff46a7d3dde5","2025-09-02_06h43.11.667",NA,NA,436.378,436.378,436.378,436.686,NA,NA,NA,NA,NA,NA,NA,TRUE,5,0.872,433.409,436.377,0,103,103,0,1,7,25,NA,NA,NA,NA,NA,1,104,"likert"
"6AEA21E0CC19480D95EF78972E41A441",1,"01990a98-9d60-73ab-8c13-c486535ac4b3","01990a84-c4ee-73c2-a87b-ff46a7d3dde5","2025-09-02_06h43.11.667",NA,NA,439.669,439.669,439.669,440.144,NA,NA,NA,NA,NA,NA,NA,TRUE,5,1.919,436.694,439.668,0,104,104,56,1,45,31,NA,NA,NA,NA,NA,1,105,"likert"
"6AEA21E0CC19480D95EF78972E41A441",1,"01990a98-9d60-73ab-8c13-c486535ac4b3","01990a84-c4ee-73c2-a87b-ff46a7d3dde5","2025-09-02_06h43.11.667",NA,NA,442.974,442.974,442.974,443.423,NA,NA,NA,NA,NA,NA,NA,TRUE,5,0.911,440.145,442.974,0,105,105,29,1,21,38,NA,NA,NA,NA,NA,1,106,"likert"
"6AEA21E0CC19480D95EF78972E41A441",1,"01990a98-9d60-73ab-8c13-c486535ac4b3","01990a84-c4ee-73c2-a87b-ff46a7d3dde5","2025-09-02_06h43.11.667",NA,NA,446.329,446.329,446.329,446.778,NA,NA,NA,NA,NA,NA,NA,TRUE,5,0.688,443.431,446.328,0,106,106,13,1,12,26,NA,NA,NA,NA,NA,1,107,"likert"
"6AEA21E0CC19480D95EF78972E41A441",1,"01990a98-9d60-73ab-8c13-c486535ac4b3","01990a84-c4ee-73c2-a87b-ff46a7d3dde5","2025-09-02_06h43.11.667",NA,NA,449.799,449.799,449.799,450.09,NA,NA,NA,NA,NA,NA,NA,TRUE,5,0.691,446.779,449.798,0,107,107,68,1,60,35,NA,NA,NA,NA,NA,1,108,"likert"
"6AEA21E0CC19480D95EF78972E41A441",1,"01990a98-9d60-73ab-8c13-c486535ac4b3","01990a84-c4ee-73c2-a87b-ff46a7d3dde5","2025-09-02_06h43.11.667",NA,NA,456.598,456.598,456.598,456.907,NA,NA,NA,NA,NA,NA,NA,TRUE,5,1.382,453.571,456.597,NA,NA,NA,NA,NA,200,47,0,0,0,106,1,2,1,"likert"
"6AEA21E0CC19480D95EF78972E41A441",1,"01990a98-9d60-73ab-8c13-c486535ac4b3","01990a84-c4ee-73c2-a87b-ff46a7d3dde5","2025-09-02_06h43.11.667",NA,NA,459.879,459.879,459.879,460.203,NA,NA,NA,NA,NA,NA,NA,TRUE,5,0.859,456.915,459.879,NA,NA,NA,NA,NA,12,33,0,1,1,16,1,2,2,"likert"
"6AEA21E0CC19480D95EF78972E41A441",1,"01990a98-9d60-73ab-8c13-c486535ac4b3","01990a84-c4ee-73c2-a87b-ff46a7d3dde5","2025-09-02_06h43.11.667",NA,NA,463.14,463.14,463.14,463.624,NA,NA,NA,NA,NA,NA,NA,TRUE,5,1.034,460.205,463.14,NA,NA,NA,NA,NA,90,46,0,2,2,76,1,2,3,"likert"
"6AEA21E0CC19480D95EF78972E41A441",1,"01990a98-9d60-73ab-8c13-c486535ac4b3","01990a84-c4ee-73c2-a87b-ff46a7d3dde5","2025-09-02_06h43.11.667",NA,NA,466.541,466.541,466.541,467.006,NA,NA,NA,NA,NA,NA,NA,TRUE,4,1.022,463.632,466.541,NA,NA,NA,NA,NA,200,35,0,3,3,104,1,2,4,"likert"
"6AEA21E0CC19480D95EF78972E41A441",1,"01990a98-9d60-73ab-8c13-c486535ac4b3","01990a84-c4ee-73c2-a87b-ff46a7d3dde5","2025-09-02_06h43.11.667",NA,NA,469.918,469.918,469.919,470.241,NA,NA,NA,NA,NA,NA,NA,TRUE,5,1.033,467.007,469.918,NA,NA,NA,NA,NA,50,35,0,4,4,62,1,2,5,"likert"
"6AEA21E0CC19480D95EF78972E41A441",1,"01990a98-9d60-73ab-8c13-c486535ac4b3","01990a84-c4ee-73c2-a87b-ff46a7d3dde5","2025-09-02_06h43.11.667",NA,NA,473.299,473.299,473.299,473.615,NA,NA,NA,NA,NA,NA,NA,TRUE,5,1.011,470.25,473.299,NA,NA,NA,NA,NA,50,27,0,5,5,60,1,2,6,"likert"
"6AEA21E0CC19480D95EF78972E41A441",1,"01990a98-9d60-73ab-8c13-c486535ac4b3","01990a84-c4ee-73c2-a87b-ff46a7d3dde5","2025-09-02_06h43.11.667",NA,NA,476.698,476.698,476.698,477.005,NA,NA,NA,NA,NA,NA,NA,TRUE,4,1.212,473.623,476.698,NA,NA,NA,NA,NA,180,31,0,6,6,97,1,2,7,"likert"
"6AEA21E0CC19480D95EF78972E41A441",1,"01990a98-9d60-73ab-8c13-c486535ac4b3","01990a84-c4ee-73c2-a87b-ff46a7d3dde5","2025-09-02_06h43.11.667",NA,NA,479.976,479.976,479.976,480.283,NA,NA,NA,NA,NA,NA,NA,TRUE,5,1.646,477.006,479.975,NA,NA,NA,NA,NA,10,32,0,7,7,11,1,2,8,"likert"
"6AEA21E0CC19480D95EF78972E41A441",1,"01990a98-9d60-73ab-8c13-c486535ac4b3","01990a84-c4ee-73c2-a87b-ff46a7d3dde5","2025-09-02_06h43.11.667",NA,NA,483.392,483.392,483.392,483.717,NA,NA,NA,NA,NA,NA,NA,TRUE,5,1.066,480.291,483.391,NA,NA,NA,NA,NA,14,28,0,8,8,20,1,2,9,"likert"
"6AEA21E0CC19480D95EF78972E41A441",1,"01990a98-9d60-73ab-8c13-c486535ac4b3","01990a84-c4ee-73c2-a87b-ff46a7d3dde5","2025-09-02_06h43.11.667",NA,NA,486.614,486.614,486.614,487.078,NA,NA,NA,NA,NA,NA,NA,TRUE,5,1.442,483.718,486.614,NA,NA,NA,NA,NA,45,46,0,9,9,59,1,2,10,"likert"
"6AEA21E0CC19480D95EF78972E41A441",1,"01990a98-9d60-73ab-8c13-c486535ac4b3","01990a84-c4ee-73c2-a87b-ff46a7d3dde5","2025-09-02_06h43.11.667",NA,NA,489.932,489.932,489.932,490.421,NA,NA,NA,NA,NA,NA,NA,TRUE,5,1.1,487.086,489.932,NA,NA,NA,NA,NA,21,29,0,10,10,26,1,2,11,"likert"
"6AEA21E0CC19480D95EF78972E41A441",1,"01990a98-9d60-73ab-8c13-c486535ac4b3","01990a84-c4ee-73c2-a87b-ff46a7d3dde5","2025-09-02_06h43.11.667",NA,NA,493.435,493.435,493.435,493.752,NA,NA,NA,NA,NA,NA,NA,TRUE,5,0.73,490.422,493.434,NA,NA,NA,NA,NA,25,46,0,11,11,35,1,2,12,"likert"
"6AEA21E0CC19480D95EF78972E41A441",1,"01990a98-9d60-73ab-8c13-c486535ac4b3","01990a84-c4ee-73c2-a87b-ff46a7d3dde5","2025-09-02_06h43.11.667",NA,NA,496.683,496.683,496.683,497.051,NA,NA,NA,NA,NA,NA,NA,TRUE,5,0.732,493.76,496.682,NA,NA,NA,NA,NA,180,27,0,12,12,96,1,2,13,"likert"
"6AEA21E0CC19480D95EF78972E41A441",1,"01990a98-9d60-73ab-8c13-c486535ac4b3","01990a84-c4ee-73c2-a87b-ff46a7d3dde5","2025-09-02_06h43.11.667",NA,NA,500.104,500.104,500.104,500.409,NA,NA,NA,NA,NA,NA,NA,TRUE,5,1.024,497.052,500.104,NA,NA,NA,NA,NA,60,47,0,13,13,70,1,2,14,"likert"
"6AEA21E0CC19480D95EF78972E41A441",1,"01990a98-9d60-73ab-8c13-c486535ac4b3","01990a84-c4ee-73c2-a87b-ff46a7d3dde5","2025-09-02_06h43.11.667",NA,NA,503.495,503.495,503.495,503.81,NA,NA,NA,NA,NA,NA,NA,TRUE,5,0.873,500.41,503.494,NA,NA,NA,NA,NA,95,54,0,14,14,83,1,2,15,"likert"
"6AEA21E0CC19480D95EF78972E41A441",1,"01990a98-9d60-73ab-8c13-c486535ac4b3","01990a84-c4ee-73c2-a87b-ff46a7d3dde5","2025-09-02_06h43.11.667",NA,NA,506.762,506.762,506.762,507.072,NA,NA,NA,NA,NA,NA,NA,TRUE,5,0.904,503.818,506.762,NA,NA,NA,NA,NA,7,26,0,15,15,1,1,2,16,"likert"
"6AEA21E0CC19480D95EF78972E41A441",1,"01990a98-9d60-73ab-8c13-c486535ac4b3","01990a84-c4ee-73c2-a87b-ff46a7d3dde5","2025-09-02_06h43.11.667",NA,NA,510.061,510.061,510.061,510.533,NA,NA,NA,NA,NA,NA,NA,TRUE,4,1.441,507.073,510.06,NA,NA,NA,NA,NA,150,35,0,16,16,92,1,2,17,"likert"
"6AEA21E0CC19480D95EF78972E41A441",1,"01990a98-9d60-73ab-8c13-c486535ac4b3","01990a84-c4ee-73c2-a87b-ff46a7d3dde5","2025-09-02_06h43.11.667",NA,NA,513.461,513.462,513.462,513.773,NA,NA,NA,NA,NA,NA,NA,TRUE,5,1.214,510.54,513.461,NA,NA,NA,NA,NA,10,29,0,17,17,9,1,2,18,"likert"
"6AEA21E0CC19480D95EF78972E41A441",1,"01990a98-9d60-73ab-8c13-c486535ac4b3","01990a84-c4ee-73c2-a87b-ff46a7d3dde5","2025-09-02_06h43.11.667",NA,NA,516.823,516.823,516.823,517.163,NA,NA,NA,NA,NA,NA,NA,TRUE,4,1.052,513.774,516.823,NA,NA,NA,NA,NA,100,54,0,18,18,89,1,2,19,"likert"
"6AEA21E0CC19480D95EF78972E41A441",1,"01990a98-9d60-73ab-8c13-c486535ac4b3","01990a84-c4ee-73c2-a87b-ff46a7d3dde5","2025-09-02_06h43.11.667",NA,NA,520.153,520.154,520.154,520.47,NA,NA,NA,NA,NA,NA,NA,TRUE,5,0.889,517.171,520.153,NA,NA,NA,NA,NA,12,26,0,19,19,13,1,2,20,"likert"
"6AEA21E0CC19480D95EF78972E41A441",1,"01990a98-9d60-73ab-8c13-c486535ac4b3","01990a84-c4ee-73c2-a87b-ff46a7d3dde5","2025-09-02_06h43.11.667",NA,NA,523.555,523.555,523.555,523.871,NA,NA,NA,NA,NA,NA,NA,TRUE,4,1.017,520.471,523.554,NA,NA,NA,NA,NA,150,47,0,20,20,94,1,2,21,"likert"
"6AEA21E0CC19480D95EF78972E41A441",1,"01990a98-9d60-73ab-8c13-c486535ac4b3","01990a84-c4ee-73c2-a87b-ff46a7d3dde5","2025-09-02_06h43.11.667",NA,NA,526.849,526.849,526.849,527.175,NA,NA,NA,NA,NA,NA,NA,TRUE,5,1.275,523.88,526.849,NA,NA,NA,NA,NA,30,27,0,21,21,43,1,2,22,"likert"
"6AEA21E0CC19480D95EF78972E41A441",1,"01990a98-9d60-73ab-8c13-c486535ac4b3","01990a84-c4ee-73c2-a87b-ff46a7d3dde5","2025-09-02_06h43.11.667",NA,NA,530.138,530.138,530.138,530.648,NA,NA,NA,NA,NA,NA,NA,TRUE,5,1.407,527.176,530.137,NA,NA,NA,NA,NA,90,40,0,22,22,75,1,2,23,"likert"
"6AEA21E0CC19480D95EF78972E41A441",1,"01990a98-9d60-73ab-8c13-c486535ac4b3","01990a84-c4ee-73c2-a87b-ff46a7d3dde5","2025-09-02_06h43.11.667",NA,NA,533.493,533.493,533.493,533.96,NA,NA,NA,NA,NA,NA,NA,TRUE,5,0.961,530.656,533.492,NA,NA,NA,NA,NA,40,47,0,23,23,52,1,2,24,"likert"
"6AEA21E0CC19480D95EF78972E41A441",1,"01990a98-9d60-73ab-8c13-c486535ac4b3","01990a84-c4ee-73c2-a87b-ff46a7d3dde5","2025-09-02_06h43.11.667",NA,NA,536.865,536.865,536.865,537.27,NA,NA,NA,NA,NA,NA,NA,TRUE,5,1.104,533.962,536.865,NA,NA,NA,NA,NA,14,39,0,24,24,23,1,2,25,"likert"
"6AEA21E0CC19480D95EF78972E41A441",1,"01990a98-9d60-73ab-8c13-c486535ac4b3","01990a84-c4ee-73c2-a87b-ff46a7d3dde5","2025-09-02_06h43.11.667",NA,NA,540.254,540.254,540.254,540.619,NA,NA,NA,NA,NA,NA,NA,TRUE,4,1.216,537.279,540.254,NA,NA,NA,NA,NA,150,31,0,25,25,90,1,2,26,"likert"
"6AEA21E0CC19480D95EF78972E41A441",1,"01990a98-9d60-73ab-8c13-c486535ac4b3","01990a84-c4ee-73c2-a87b-ff46a7d3dde5","2025-09-02_06h43.11.667",NA,NA,543.693,543.693,543.693,544.04,NA,NA,NA,NA,NA,NA,NA,TRUE,5,1.026,540.62,543.692,NA,NA,NA,NA,NA,28,26,0,26,26,36,1,2,27,"likert"
"6AEA21E0CC19480D95EF78972E41A441",1,"01990a98-9d60-73ab-8c13-c486535ac4b3","01990a84-c4ee-73c2-a87b-ff46a7d3dde5","2025-09-02_06h43.11.667",NA,NA,546.925,546.925,546.926,547.275,NA,NA,NA,NA,NA,NA,NA,TRUE,5,1.094,544.048,546.925,NA,NA,NA,NA,NA,90,54,0,27,27,77,1,2,28,"likert"
"6AEA21E0CC19480D95EF78972E41A441",1,"01990a98-9d60-73ab-8c13-c486535ac4b3","01990a84-c4ee-73c2-a87b-ff46a7d3dde5","2025-09-02_06h43.11.667",NA,NA,550.229,550.229,550.229,550.747,NA,NA,NA,NA,NA,NA,NA,TRUE,5,0.742,547.277,550.228,NA,NA,NA,NA,NA,60,40,0,28,28,69,1,2,29,"likert"
"6AEA21E0CC19480D95EF78972E41A441",1,"01990a98-9d60-73ab-8c13-c486535ac4b3","01990a84-c4ee-73c2-a87b-ff46a7d3dde5","2025-09-02_06h43.11.667",NA,NA,553.637,553.637,553.637,553.959,NA,NA,NA,NA,NA,NA,NA,TRUE,5,0.718,550.755,553.636,NA,NA,NA,NA,NA,25,33,0,29,29,33,1,2,30,"likert"
"6AEA21E0CC19480D95EF78972E41A441",1,"01990a98-9d60-73ab-8c13-c486535ac4b3","01990a84-c4ee-73c2-a87b-ff46a7d3dde5","2025-09-02_06h43.11.667",NA,NA,557.044,557.044,557.044,557.388,NA,NA,NA,NA,NA,NA,NA,TRUE,5,0.925,553.961,557.043,NA,NA,NA,NA,NA,25,35,0,30,30,34,1,2,31,"likert"
"6AEA21E0CC19480D95EF78972E41A441",1,"01990a98-9d60-73ab-8c13-c486535ac4b3","01990a84-c4ee-73c2-a87b-ff46a7d3dde5","2025-09-02_06h43.11.667",NA,NA,560.294,560.294,560.294,560.781,NA,NA,NA,NA,NA,NA,NA,TRUE,5,1.11,557.396,560.294,NA,NA,NA,NA,NA,12,31,0,31,31,15,1,2,32,"likert"
"6AEA21E0CC19480D95EF78972E41A441",1,"01990a98-9d60-73ab-8c13-c486535ac4b3","01990a84-c4ee-73c2-a87b-ff46a7d3dde5","2025-09-02_06h43.11.667",NA,NA,563.689,563.689,563.689,564.03,NA,NA,NA,NA,NA,NA,NA,TRUE,4,0.952,560.782,563.688,NA,NA,NA,NA,NA,100,31,0,32,32,85,1,2,33,"likert"
"6AEA21E0CC19480D95EF78972E41A441",1,"01990a98-9d60-73ab-8c13-c486535ac4b3","01990a84-c4ee-73c2-a87b-ff46a7d3dde5","2025-09-02_06h43.11.667",NA,NA,567.029,567.029,567.029,567.518,NA,NA,NA,NA,NA,NA,NA,TRUE,5,0.759,564.038,567.028,NA,NA,NA,NA,NA,40,27,0,33,33,48,1,2,34,"likert"
"6AEA21E0CC19480D95EF78972E41A441",1,"01990a98-9d60-73ab-8c13-c486535ac4b3","01990a84-c4ee-73c2-a87b-ff46a7d3dde5","2025-09-02_06h43.11.667",NA,NA,570.329,570.329,570.329,570.855,NA,NA,NA,NA,NA,NA,NA,TRUE,4,1.098,567.52,570.329,NA,NA,NA,NA,NA,150,33,0,34,34,91,1,2,35,"likert"
"6AEA21E0CC19480D95EF78972E41A441",1,"01990a98-9d60-73ab-8c13-c486535ac4b3","01990a84-c4ee-73c2-a87b-ff46a7d3dde5","2025-09-02_06h43.11.667",NA,NA,573.777,573.777,573.777,574.146,NA,NA,NA,NA,NA,NA,NA,TRUE,5,0.867,570.857,573.776,NA,NA,NA,NA,NA,30,32,0,35,35,46,1,2,36,"likert"
"6AEA21E0CC19480D95EF78972E41A441",1,"01990a98-9d60-73ab-8c13-c486535ac4b3","01990a84-c4ee-73c2-a87b-ff46a7d3dde5","2025-09-02_06h43.11.667",NA,NA,577.105,577.105,577.105,577.409,NA,NA,NA,NA,NA,NA,NA,TRUE,5,1.028,574.154,577.105,NA,NA,NA,NA,NA,7,32,0,36,36,4,1,2,37,"likert"
"6AEA21E0CC19480D95EF78972E41A441",1,"01990a98-9d60-73ab-8c13-c486535ac4b3","01990a84-c4ee-73c2-a87b-ff46a7d3dde5","2025-09-02_06h43.11.667",NA,NA,580.498,580.498,580.498,580.82,NA,NA,NA,NA,NA,NA,NA,TRUE,5,0.871,577.41,580.498,NA,NA,NA,NA,NA,30,30,0,37,37,45,1,2,38,"likert"
"6AEA21E0CC19480D95EF78972E41A441",1,"01990a98-9d60-73ab-8c13-c486535ac4b3","01990a84-c4ee-73c2-a87b-ff46a7d3dde5","2025-09-02_06h43.11.667",NA,NA,583.73,583.73,583.73,584.188,NA,NA,NA,NA,NA,NA,NA,TRUE,5,0.674,580.829,583.729,NA,NA,NA,NA,NA,95,33,0,38,38,79,1,2,39,"likert"
"6AEA21E0CC19480D95EF78972E41A441",1,"01990a98-9d60-73ab-8c13-c486535ac4b3","01990a84-c4ee-73c2-a87b-ff46a7d3dde5","2025-09-02_06h43.11.667",NA,NA,587.201,587.201,587.201,587.51,NA,NA,NA,NA,NA,NA,NA,TRUE,5,0.762,584.196,587.2,NA,NA,NA,NA,NA,95,40,0,39,39,81,1,2,40,"likert"
"6AEA21E0CC19480D95EF78972E41A441",1,"01990a98-9d60-73ab-8c13-c486535ac4b3","01990a84-c4ee-73c2-a87b-ff46a7d3dde5","2025-09-02_06h43.11.667",NA,NA,590.522,590.522,590.522,590.852,NA,NA,NA,NA,NA,NA,NA,TRUE,5,0.91,587.512,590.521,NA,NA,NA,NA,NA,50,30,0,40,40,61,1,2,41,"likert"
"6AEA21E0CC19480D95EF78972E41A441",1,"01990a98-9d60-73ab-8c13-c486535ac4b3","01990a84-c4ee-73c2-a87b-ff46a7d3dde5","2025-09-02_06h43.11.667",NA,NA,593.815,593.815,593.815,594.17,NA,NA,NA,NA,NA,NA,NA,TRUE,4,1.059,590.861,593.814,NA,NA,NA,NA,NA,200,26,0,41,41,102,1,2,42,"likert"
"6AEA21E0CC19480D95EF78972E41A441",1,"01990a98-9d60-73ab-8c13-c486535ac4b3","01990a84-c4ee-73c2-a87b-ff46a7d3dde5","2025-09-02_06h43.11.667",NA,NA,597.217,597.217,597.217,597.532,NA,NA,NA,NA,NA,NA,NA,TRUE,5,0.979,594.172,597.216,NA,NA,NA,NA,NA,180,39,0,42,42,99,1,2,43,"likert"
"6AEA21E0CC19480D95EF78972E41A441",1,"01990a98-9d60-73ab-8c13-c486535ac4b3","01990a84-c4ee-73c2-a87b-ff46a7d3dde5","2025-09-02_06h43.11.667",NA,NA,600.642,600.642,600.642,600.95,NA,NA,NA,NA,NA,NA,NA,TRUE,5,0.007,597.54,600.641,NA,NA,NA,NA,NA,10,26,0,43,43,7,1,2,44,"likert"
"6AEA21E0CC19480D95EF78972E41A441",1,"01990a98-9d60-73ab-8c13-c486535ac4b3","01990a84-c4ee-73c2-a87b-ff46a7d3dde5","2025-09-02_06h43.11.667",NA,NA,603.952,603.952,603.952,604.274,NA,NA,NA,NA,NA,NA,NA,TRUE,5,0.904,600.951,603.952,NA,NA,NA,NA,NA,14,35,0,44,44,22,1,2,45,"likert"
"6AEA21E0CC19480D95EF78972E41A441",1,"01990a98-9d60-73ab-8c13-c486535ac4b3","01990a84-c4ee-73c2-a87b-ff46a7d3dde5","2025-09-02_06h43.11.667",NA,NA,607.223,607.223,607.223,607.711,NA,NA,NA,NA,NA,NA,NA,TRUE,5,0.793,604.283,607.222,NA,NA,NA,NA,NA,14,25,0,45,45,18,1,2,46,"likert"
"6AEA21E0CC19480D95EF78972E41A441",1,"01990a98-9d60-73ab-8c13-c486535ac4b3","01990a84-c4ee-73c2-a87b-ff46a7d3dde5","2025-09-02_06h43.11.667",NA,NA,610.613,610.613,610.613,610.95,NA,NA,NA,NA,NA,NA,NA,TRUE,5,1.044,607.714,610.613,NA,NA,NA,NA,NA,7,30,0,46,46,3,1,2,47,"likert"
"6AEA21E0CC19480D95EF78972E41A441",1,"01990a98-9d60-73ab-8c13-c486535ac4b3","01990a84-c4ee-73c2-a87b-ff46a7d3dde5","2025-09-02_06h43.11.667",NA,NA,614.033,614.033,614.033,614.356,NA,NA,NA,NA,NA,NA,NA,TRUE,5,1.074,610.958,614.032,NA,NA,NA,NA,NA,7,35,0,47,47,5,1,2,48,"likert"
"6AEA21E0CC19480D95EF78972E41A441",1,"01990a98-9d60-73ab-8c13-c486535ac4b3","01990a84-c4ee-73c2-a87b-ff46a7d3dde5","2025-09-02_06h43.11.667",NA,NA,617.308,617.309,617.309,617.632,NA,NA,NA,NA,NA,NA,NA,TRUE,5,1.101,614.357,617.308,NA,NA,NA,NA,NA,21,27,0,48,48,25,1,2,49,"likert"
"6AEA21E0CC19480D95EF78972E41A441",1,"01990a98-9d60-73ab-8c13-c486535ac4b3","01990a84-c4ee-73c2-a87b-ff46a7d3dde5","2025-09-02_06h43.11.667",NA,NA,620.693,620.693,620.693,621.034,NA,NA,NA,NA,NA,NA,NA,TRUE,5,0.969,617.64,620.692,NA,NA,NA,NA,NA,7,28,0,49,49,2,1,2,50,"likert"
"6AEA21E0CC19480D95EF78972E41A441",1,"01990a98-9d60-73ab-8c13-c486535ac4b3","01990a84-c4ee-73c2-a87b-ff46a7d3dde5","2025-09-02_06h43.11.667",NA,NA,623.961,623.961,623.961,624.454,NA,NA,NA,NA,NA,NA,NA,TRUE,5,1.232,621.035,623.961,NA,NA,NA,NA,NA,60,35,0,50,50,68,1,2,51,"likert"
"6AEA21E0CC19480D95EF78972E41A441",1,"01990a98-9d60-73ab-8c13-c486535ac4b3","01990a84-c4ee-73c2-a87b-ff46a7d3dde5","2025-09-02_06h43.11.667",NA,NA,627.364,627.364,627.364,627.709,NA,NA,NA,NA,NA,NA,NA,TRUE,5,0.909,624.462,627.364,NA,NA,NA,NA,NA,14,32,0,51,51,21,1,2,52,"likert"
"6AEA21E0CC19480D95EF78972E41A441",1,"01990a98-9d60-73ab-8c13-c486535ac4b3","01990a84-c4ee-73c2-a87b-ff46a7d3dde5","2025-09-02_06h43.11.667",NA,NA,630.652,630.652,630.652,631.184,NA,NA,NA,NA,NA,NA,NA,TRUE,5,1.427,627.71,630.651,NA,NA,NA,NA,NA,10,25,0,52,52,6,1,2,53,"likert"
"6AEA21E0CC19480D95EF78972E41A441",1,"01990a98-9d60-73ab-8c13-c486535ac4b3","01990a84-c4ee-73c2-a87b-ff46a7d3dde5","2025-09-02_06h43.11.667",NA,NA,633.994,633.994,633.994,634.466,NA,NA,NA,NA,NA,NA,NA,TRUE,5,1.092,631.192,633.993,NA,NA,NA,NA,NA,10,27,0,53,53,8,1,2,54,"likert"
"6AEA21E0CC19480D95EF78972E41A441",1,"01990a98-9d60-73ab-8c13-c486535ac4b3","01990a84-c4ee-73c2-a87b-ff46a7d3dde5","2025-09-02_06h43.11.667",NA,NA,637.42,637.42,637.42,637.724,NA,NA,NA,NA,NA,NA,NA,TRUE,5,0.895,634.474,637.419,NA,NA,NA,NA,NA,40,33,0,54,54,49,1,2,55,"likert"
"6AEA21E0CC19480D95EF78972E41A441",1,"01990a98-9d60-73ab-8c13-c486535ac4b3","01990a84-c4ee-73c2-a87b-ff46a7d3dde5","2025-09-02_06h43.11.667",NA,NA,640.843,640.843,640.843,641.161,NA,NA,NA,NA,NA,NA,NA,TRUE,5,0.763,637.725,640.843,NA,NA,NA,NA,NA,60,33,0,55,55,67,1,2,56,"likert"
"6AEA21E0CC19480D95EF78972E41A441",1,"01990a98-9d60-73ab-8c13-c486535ac4b3","01990a84-c4ee-73c2-a87b-ff46a7d3dde5","2025-09-02_06h43.11.667",NA,NA,644.178,644.178,644.178,644.503,NA,NA,NA,NA,NA,NA,NA,TRUE,5,0.937,641.162,644.177,NA,NA,NA,NA,NA,12,35,0,56,56,17,1,2,57,"likert"
"6AEA21E0CC19480D95EF78972E41A441",1,"01990a98-9d60-73ab-8c13-c486535ac4b3","01990a84-c4ee-73c2-a87b-ff46a7d3dde5","2025-09-02_06h43.11.667",NA,NA,647.382,647.382,647.382,647.854,NA,NA,NA,NA,NA,NA,NA,TRUE,5,0.761,644.51,647.382,NA,NA,NA,NA,NA,7,25,0,57,57,0,1,2,58,"likert"
"6AEA21E0CC19480D95EF78972E41A441",1,"01990a98-9d60-73ab-8c13-c486535ac4b3","01990a84-c4ee-73c2-a87b-ff46a7d3dde5","2025-09-02_06h43.11.667",NA,NA,650.738,650.738,650.738,651.203,NA,NA,NA,NA,NA,NA,NA,TRUE,5,0.781,647.855,650.737,NA,NA,NA,NA,NA,50,40,0,58,58,63,1,2,59,"likert"
"6AEA21E0CC19480D95EF78972E41A441",1,"01990a98-9d60-73ab-8c13-c486535ac4b3","01990a84-c4ee-73c2-a87b-ff46a7d3dde5","2025-09-02_06h43.11.667",NA,NA,654.184,654.184,654.184,654.503,NA,NA,NA,NA,NA,NA,NA,TRUE,5,0.918,651.211,654.184,NA,NA,NA,NA,NA,21,32,0,59,59,28,1,2,60,"likert"
"6AEA21E0CC19480D95EF78972E41A441",1,"01990a98-9d60-73ab-8c13-c486535ac4b3","01990a84-c4ee-73c2-a87b-ff46a7d3dde5","2025-09-02_06h43.11.667",NA,NA,657.499,657.499,657.499,657.811,NA,NA,NA,NA,NA,NA,NA,TRUE,5,0.7,654.511,657.498,NA,NA,NA,NA,NA,50,54,0,60,60,65,1,2,61,"likert"
"6AEA21E0CC19480D95EF78972E41A441",1,"01990a98-9d60-73ab-8c13-c486535ac4b3","01990a84-c4ee-73c2-a87b-ff46a7d3dde5","2025-09-02_06h43.11.667",NA,NA,660.81,660.81,660.81,661.285,NA,NA,NA,NA,NA,NA,NA,TRUE,5,0.697,657.813,660.81,NA,NA,NA,NA,NA,25,29,0,61,61,31,1,2,62,"likert"
"6AEA21E0CC19480D95EF78972E41A441",1,"01990a98-9d60-73ab-8c13-c486535ac4b3","01990a84-c4ee-73c2-a87b-ff46a7d3dde5","2025-09-02_06h43.11.667",NA,NA,664.114,664.114,664.114,664.571,NA,NA,NA,NA,NA,NA,NA,TRUE,5,1.04,661.294,664.114,NA,NA,NA,NA,NA,45,35,0,62,62,57,1,2,63,"likert"
"6AEA21E0CC19480D95EF78972E41A441",1,"01990a98-9d60-73ab-8c13-c486535ac4b3","01990a84-c4ee-73c2-a87b-ff46a7d3dde5","2025-09-02_06h43.11.667",NA,NA,667.482,667.482,667.482,667.952,NA,NA,NA,NA,NA,NA,NA,TRUE,5,0.72,664.573,667.481,NA,NA,NA,NA,NA,50,46,0,63,63,64,1,2,64,"likert"
"6AEA21E0CC19480D95EF78972E41A441",1,"01990a98-9d60-73ab-8c13-c486535ac4b3","01990a84-c4ee-73c2-a87b-ff46a7d3dde5","2025-09-02_06h43.11.667",NA,NA,671.014,671.014,671.014,671.345,NA,NA,NA,NA,NA,NA,NA,TRUE,5,0.717,667.96,671.014,NA,NA,NA,NA,NA,95,35,0,64,64,80,1,2,65,"likert"
"6AEA21E0CC19480D95EF78972E41A441",1,"01990a98-9d60-73ab-8c13-c486535ac4b3","01990a84-c4ee-73c2-a87b-ff46a7d3dde5","2025-09-02_06h43.11.667",NA,NA,674.243,674.243,674.243,674.714,NA,NA,NA,NA,NA,NA,NA,TRUE,5,0.806,671.347,674.242,NA,NA,NA,NA,NA,30,29,0,65,65,44,1,2,66,"likert"
"6AEA21E0CC19480D95EF78972E41A441",1,"01990a98-9d60-73ab-8c13-c486535ac4b3","01990a84-c4ee-73c2-a87b-ff46a7d3dde5","2025-09-02_06h43.11.667",NA,NA,677.709,677.709,677.709,678.025,NA,NA,NA,NA,NA,NA,NA,TRUE,4,1.258,674.722,677.709,NA,NA,NA,NA,NA,100,39,0,66,66,87,1,2,67,"likert"
"6AEA21E0CC19480D95EF78972E41A441",1,"01990a98-9d60-73ab-8c13-c486535ac4b3","01990a84-c4ee-73c2-a87b-ff46a7d3dde5","2025-09-02_06h43.11.667",NA,NA,680.98,680.98,680.98,681.286,NA,NA,NA,NA,NA,NA,NA,TRUE,4,0.921,678.027,680.98,NA,NA,NA,NA,NA,100,46,0,67,67,88,1,2,68,"likert"
"6AEA21E0CC19480D95EF78972E41A441",1,"01990a98-9d60-73ab-8c13-c486535ac4b3","01990a84-c4ee-73c2-a87b-ff46a7d3dde5","2025-09-02_06h43.11.667",NA,NA,684.252,684.252,684.252,684.74,NA,NA,NA,NA,NA,NA,NA,TRUE,5,0.911,681.294,684.252,NA,NA,NA,NA,NA,12,25,0,68,68,12,1,2,69,"likert"
"6AEA21E0CC19480D95EF78972E41A441",1,"01990a98-9d60-73ab-8c13-c486535ac4b3","01990a84-c4ee-73c2-a87b-ff46a7d3dde5","2025-09-02_06h43.11.667",NA,NA,687.596,687.596,687.596,688.059,NA,NA,NA,NA,NA,NA,NA,TRUE,4,1.054,684.742,687.596,NA,NA,NA,NA,NA,100,26,0,69,69,84,1,2,70,"likert"
"6AEA21E0CC19480D95EF78972E41A441",1,"01990a98-9d60-73ab-8c13-c486535ac4b3","01990a84-c4ee-73c2-a87b-ff46a7d3dde5","2025-09-02_06h43.11.667",NA,NA,690.973,690.973,690.973,691.423,NA,NA,NA,NA,NA,NA,NA,TRUE,5,0.881,688.067,690.973,NA,NA,NA,NA,NA,21,30,0,70,70,27,1,2,71,"likert"
"6AEA21E0CC19480D95EF78972E41A441",1,"01990a98-9d60-73ab-8c13-c486535ac4b3","01990a84-c4ee-73c2-a87b-ff46a7d3dde5","2025-09-02_06h43.11.667",NA,NA,694.288,694.288,694.288,694.764,NA,NA,NA,NA,NA,NA,NA,TRUE,5,0.863,691.424,694.288,NA,NA,NA,NA,NA,21,26,0,71,71,24,1,2,72,"likert"
"6AEA21E0CC19480D95EF78972E41A441",1,"01990a98-9d60-73ab-8c13-c486535ac4b3","01990a84-c4ee-73c2-a87b-ff46a7d3dde5","2025-09-02_06h43.11.667",NA,NA,697.675,697.675,697.675,698.114,NA,NA,NA,NA,NA,NA,NA,TRUE,5,0.714,694.773,697.674,NA,NA,NA,NA,NA,14,26,0,72,72,19,1,2,73,"likert"
"6AEA21E0CC19480D95EF78972E41A441",1,"01990a98-9d60-73ab-8c13-c486535ac4b3","01990a84-c4ee-73c2-a87b-ff46a7d3dde5","2025-09-02_06h43.11.667",NA,NA,701.013,701.013,701.013,701.516,NA,NA,NA,NA,NA,NA,NA,TRUE,4,1.081,698.115,701.013,NA,NA,NA,NA,NA,200,28,0,73,73,103,1,2,74,"likert"
"6AEA21E0CC19480D95EF78972E41A441",1,"01990a98-9d60-73ab-8c13-c486535ac4b3","01990a84-c4ee-73c2-a87b-ff46a7d3dde5","2025-09-02_06h43.11.667",NA,NA,704.38,704.38,704.38,704.835,NA,NA,NA,NA,NA,NA,NA,TRUE,5,0.73,701.523,704.38,NA,NA,NA,NA,NA,25,31,0,74,74,32,1,2,75,"likert"
"6AEA21E0CC19480D95EF78972E41A441",1,"01990a98-9d60-73ab-8c13-c486535ac4b3","01990a84-c4ee-73c2-a87b-ff46a7d3dde5","2025-09-02_06h43.11.667",NA,NA,707.807,707.807,707.807,708.162,NA,NA,NA,NA,NA,NA,NA,TRUE,5,0.763,704.836,707.806,NA,NA,NA,NA,NA,180,54,0,75,75,101,1,2,76,"likert"
"6AEA21E0CC19480D95EF78972E41A441",1,"01990a98-9d60-73ab-8c13-c486535ac4b3","01990a84-c4ee-73c2-a87b-ff46a7d3dde5","2025-09-02_06h43.11.667",NA,NA,711.188,711.188,711.188,711.489,NA,NA,NA,NA,NA,NA,NA,TRUE,5,0.873,708.17,711.187,NA,NA,NA,NA,NA,28,39,0,76,76,40,1,2,77,"likert"
"6AEA21E0CC19480D95EF78972E41A441",1,"01990a98-9d60-73ab-8c13-c486535ac4b3","01990a84-c4ee-73c2-a87b-ff46a7d3dde5","2025-09-02_06h43.11.667",NA,NA,714.451,714.451,714.451,714.77,NA,NA,NA,NA,NA,NA,NA,TRUE,5,1.279,711.491,714.45,NA,NA,NA,NA,NA,28,35,0,77,77,39,1,2,78,"likert"
"6AEA21E0CC19480D95EF78972E41A441",1,"01990a98-9d60-73ab-8c13-c486535ac4b3","01990a84-c4ee-73c2-a87b-ff46a7d3dde5","2025-09-02_06h43.11.667",NA,NA,717.746,717.746,717.746,718.251,NA,NA,NA,NA,NA,NA,NA,TRUE,5,0.893,714.778,717.746,NA,NA,NA,NA,NA,40,40,0,78,78,51,1,2,79,"likert"
"6AEA21E0CC19480D95EF78972E41A441",1,"01990a98-9d60-73ab-8c13-c486535ac4b3","01990a84-c4ee-73c2-a87b-ff46a7d3dde5","2025-09-02_06h43.11.667",NA,NA,721.134,721.134,721.135,721.583,NA,NA,NA,NA,NA,NA,NA,TRUE,5,0.861,718.252,721.134,NA,NA,NA,NA,NA,28,32,0,79,79,38,1,2,80,"likert"
"6AEA21E0CC19480D95EF78972E41A441",1,"01990a98-9d60-73ab-8c13-c486535ac4b3","01990a84-c4ee-73c2-a87b-ff46a7d3dde5","2025-09-02_06h43.11.667",NA,NA,724.556,724.556,724.556,724.864,NA,NA,NA,NA,NA,NA,NA,TRUE,5,0.914,721.591,724.555,NA,NA,NA,NA,NA,30,26,0,80,80,42,1,2,81,"likert"
"6AEA21E0CC19480D95EF78972E41A441",1,"01990a98-9d60-73ab-8c13-c486535ac4b3","01990a84-c4ee-73c2-a87b-ff46a7d3dde5","2025-09-02_06h43.11.667",NA,NA,727.84,727.84,727.84,728.307,NA,NA,NA,NA,NA,NA,NA,TRUE,4,1.196,724.865,727.84,NA,NA,NA,NA,NA,100,38,0,81,81,86,1,2,82,"likert"
"6AEA21E0CC19480D95EF78972E41A441",1,"01990a98-9d60-73ab-8c13-c486535ac4b3","01990a84-c4ee-73c2-a87b-ff46a7d3dde5","2025-09-02_06h43.11.667",NA,NA,731.163,731.163,731.163,731.629,NA,NA,NA,NA,NA,NA,NA,TRUE,5,1.232,728.315,731.163,NA,NA,NA,NA,NA,28,28,0,82,82,37,1,2,83,"likert"
"6AEA21E0CC19480D95EF78972E41A441",1,"01990a98-9d60-73ab-8c13-c486535ac4b3","01990a84-c4ee-73c2-a87b-ff46a7d3dde5","2025-09-02_06h43.11.667",NA,NA,734.499,734.499,734.499,734.961,NA,NA,NA,NA,NA,NA,NA,TRUE,5,1.014,731.63,734.499,NA,NA,NA,NA,NA,60,54,0,83,83,71,1,2,84,"likert"
"6AEA21E0CC19480D95EF78972E41A441",1,"01990a98-9d60-73ab-8c13-c486535ac4b3","01990a84-c4ee-73c2-a87b-ff46a7d3dde5","2025-09-02_06h43.11.667",NA,NA,737.943,737.943,737.943,738.249,NA,NA,NA,NA,NA,NA,NA,TRUE,4,1.105,734.968,737.943,NA,NA,NA,NA,NA,200,39,0,84,84,105,1,2,85,"likert"
"6AEA21E0CC19480D95EF78972E41A441",1,"01990a98-9d60-73ab-8c13-c486535ac4b3","01990a84-c4ee-73c2-a87b-ff46a7d3dde5","2025-09-02_06h43.11.667",NA,NA,741.28,741.28,741.28,741.595,NA,NA,NA,NA,NA,NA,NA,TRUE,5,0.954,738.251,741.279,NA,NA,NA,NA,NA,10,30,0,85,85,10,1,2,86,"likert"
"6AEA21E0CC19480D95EF78972E41A441",1,"01990a98-9d60-73ab-8c13-c486535ac4b3","01990a84-c4ee-73c2-a87b-ff46a7d3dde5","2025-09-02_06h43.11.667",NA,NA,744.563,744.563,744.564,745.015,NA,NA,NA,NA,NA,NA,NA,TRUE,5,0.915,741.603,744.563,NA,NA,NA,NA,NA,45,29,0,86,86,55,1,2,87,"likert"
"6AEA21E0CC19480D95EF78972E41A441",1,"01990a98-9d60-73ab-8c13-c486535ac4b3","01990a84-c4ee-73c2-a87b-ff46a7d3dde5","2025-09-02_06h43.11.667",NA,NA,748.003,748.003,748.003,748.36,NA,NA,NA,NA,NA,NA,NA,TRUE,5,0.967,745.017,748.003,NA,NA,NA,NA,NA,90,33,0,87,87,74,1,2,88,"likert"
"6AEA21E0CC19480D95EF78972E41A441",1,"01990a98-9d60-73ab-8c13-c486535ac4b3","01990a84-c4ee-73c2-a87b-ff46a7d3dde5","2025-09-02_06h43.11.667",NA,NA,751.353,751.353,751.353,751.719,NA,NA,NA,NA,NA,NA,NA,TRUE,4,0.962,748.368,751.353,NA,NA,NA,NA,NA,150,40,0,88,88,93,1,2,89,"likert"
"6AEA21E0CC19480D95EF78972E41A441",1,"01990a98-9d60-73ab-8c13-c486535ac4b3","01990a84-c4ee-73c2-a87b-ff46a7d3dde5","2025-09-02_06h43.11.667",NA,NA,754.708,754.708,754.708,755.09,NA,NA,NA,NA,NA,NA,NA,TRUE,4,1.544,751.72,754.708,NA,NA,NA,NA,NA,180,46,0,89,89,100,1,2,90,"likert"
"6AEA21E0CC19480D95EF78972E41A441",1,"01990a98-9d60-73ab-8c13-c486535ac4b3","01990a84-c4ee-73c2-a87b-ff46a7d3dde5","2025-09-02_06h43.11.667",NA,NA,758.098,758.098,758.098,758.466,NA,NA,NA,NA,NA,NA,NA,TRUE,5,0.952,755.098,758.098,NA,NA,NA,NA,NA,60,29,0,90,90,66,1,2,91,"likert"
"6AEA21E0CC19480D95EF78972E41A441",1,"01990a98-9d60-73ab-8c13-c486535ac4b3","01990a84-c4ee-73c2-a87b-ff46a7d3dde5","2025-09-02_06h43.11.667",NA,NA,761.41,761.41,761.41,761.784,NA,NA,NA,NA,NA,NA,NA,TRUE,5,0.97,758.467,761.41,NA,NA,NA,NA,NA,95,31,0,91,91,78,1,2,92,"likert"
"6AEA21E0CC19480D95EF78972E41A441",1,"01990a98-9d60-73ab-8c13-c486535ac4b3","01990a84-c4ee-73c2-a87b-ff46a7d3dde5","2025-09-02_06h43.11.667",NA,NA,764.68,764.68,764.68,765.145,NA,NA,NA,NA,NA,NA,NA,TRUE,5,0.781,761.794,764.68,NA,NA,NA,NA,NA,90,30,0,92,92,73,1,2,93,"likert"
"6AEA21E0CC19480D95EF78972E41A441",1,"01990a98-9d60-73ab-8c13-c486535ac4b3","01990a84-c4ee-73c2-a87b-ff46a7d3dde5","2025-09-02_06h43.11.667",NA,NA,768.048,768.048,768.048,768.54,NA,NA,NA,NA,NA,NA,NA,TRUE,5,1.003,765.146,768.048,NA,NA,NA,NA,NA,45,31,0,93,93,56,1,2,94,"likert"
"6AEA21E0CC19480D95EF78972E41A441",1,"01990a98-9d60-73ab-8c13-c486535ac4b3","01990a84-c4ee-73c2-a87b-ff46a7d3dde5","2025-09-02_06h43.11.667",NA,NA,771.41,771.411,771.411,771.74,NA,NA,NA,NA,NA,NA,NA,TRUE,5,0.753,768.549,771.41,NA,NA,NA,NA,NA,95,47,0,94,94,82,1,2,95,"likert"
"6AEA21E0CC19480D95EF78972E41A441",1,"01990a98-9d60-73ab-8c13-c486535ac4b3","01990a84-c4ee-73c2-a87b-ff46a7d3dde5","2025-09-02_06h43.11.667",NA,NA,774.852,774.852,774.852,775.161,NA,NA,NA,NA,NA,NA,NA,TRUE,5,0.713,771.741,774.851,NA,NA,NA,NA,NA,12,28,0,95,95,14,1,2,96,"likert"
"6AEA21E0CC19480D95EF78972E41A441",1,"01990a98-9d60-73ab-8c13-c486535ac4b3","01990a84-c4ee-73c2-a87b-ff46a7d3dde5","2025-09-02_06h43.11.667",NA,NA,778.181,778.181,778.181,778.538,NA,NA,NA,NA,NA,NA,NA,TRUE,5,0.728,775.169,778.181,NA,NA,NA,NA,NA,45,40,0,96,96,58,1,2,97,"likert"
"6AEA21E0CC19480D95EF78972E41A441",1,"01990a98-9d60-73ab-8c13-c486535ac4b3","01990a84-c4ee-73c2-a87b-ff46a7d3dde5","2025-09-02_06h43.11.667",NA,NA,781.421,781.421,781.421,781.899,NA,NA,NA,NA,NA,NA,NA,TRUE,5,0.86,778.54,781.421,NA,NA,NA,NA,NA,90,26,0,97,97,72,1,2,98,"likert"
"6AEA21E0CC19480D95EF78972E41A441",1,"01990a98-9d60-73ab-8c13-c486535ac4b3","01990a84-c4ee-73c2-a87b-ff46a7d3dde5","2025-09-02_06h43.11.667",NA,NA,784.82,784.82,784.82,785.151,NA,NA,NA,NA,NA,NA,NA,TRUE,4,1.066,781.907,784.82,NA,NA,NA,NA,NA,180,35,0,98,98,98,1,2,99,"likert"
"6AEA21E0CC19480D95EF78972E41A441",1,"01990a98-9d60-73ab-8c13-c486535ac4b3","01990a84-c4ee-73c2-a87b-ff46a7d3dde5","2025-09-02_06h43.11.667",NA,NA,788.218,788.218,788.218,788.536,NA,NA,NA,NA,NA,NA,NA,TRUE,5,1.053,785.152,788.217,NA,NA,NA,NA,NA,28,46,0,99,99,41,1,2,100,"likert"
"6AEA21E0CC19480D95EF78972E41A441",1,"01990a98-9d60-73ab-8c13-c486535ac4b3","01990a84-c4ee-73c2-a87b-ff46a7d3dde5","2025-09-02_06h43.11.667",NA,NA,791.572,791.572,791.572,791.868,NA,NA,NA,NA,NA,NA,NA,TRUE,5,1.059,788.543,791.572,NA,NA,NA,NA,NA,40,54,0,100,100,53,1,2,101,"likert"
"6AEA21E0CC19480D95EF78972E41A441",1,"01990a98-9d60-73ab-8c13-c486535ac4b3","01990a84-c4ee-73c2-a87b-ff46a7d3dde5","2025-09-02_06h43.11.667",NA,NA,794.814,794.814,794.814,795.265,NA,NA,NA,NA,NA,NA,NA,TRUE,5,0.905,791.869,794.813,NA,NA,NA,NA,NA,25,27,0,101,101,30,1,2,102,"likert"
"6AEA21E0CC19480D95EF78972E41A441",1,"01990a98-9d60-73ab-8c13-c486535ac4b3","01990a84-c4ee-73c2-a87b-ff46a7d3dde5","2025-09-02_06h43.11.667",NA,NA,798.161,798.161,798.161,798.638,NA,NA,NA,NA,NA,NA,NA,TRUE,4,1.03,795.273,798.16,NA,NA,NA,NA,NA,150,54,0,102,102,95,1,2,103,"likert"
"6AEA21E0CC19480D95EF78972E41A441",1,"01990a98-9d60-73ab-8c13-c486535ac4b3","01990a84-c4ee-73c2-a87b-ff46a7d3dde5","2025-09-02_06h43.11.667",NA,NA,801.532,801.532,801.532,801.889,NA,NA,NA,NA,NA,NA,NA,TRUE,5,0.851,798.647,801.531,NA,NA,NA,NA,NA,30,38,0,103,103,47,1,2,104,"likert"
"6AEA21E0CC19480D95EF78972E41A441",1,"01990a98-9d60-73ab-8c13-c486535ac4b3","01990a84-c4ee-73c2-a87b-ff46a7d3dde5","2025-09-02_06h43.11.667",NA,NA,804.94,804.94,804.94,805.255,NA,NA,NA,NA,NA,NA,NA,TRUE,4,0.912,801.891,804.94,NA,NA,NA,NA,NA,200,54,0,104,104,107,1,2,105,"likert"
"6AEA21E0CC19480D95EF78972E41A441",1,"01990a98-9d60-73ab-8c13-c486535ac4b3","01990a84-c4ee-73c2-a87b-ff46a7d3dde5","2025-09-02_06h43.11.667",NA,NA,808.236,808.236,808.236,808.576,NA,NA,NA,NA,NA,NA,NA,TRUE,5,0.884,805.257,808.235,NA,NA,NA,NA,NA,21,38,0,105,105,29,1,2,106,"likert"
"6AEA21E0CC19480D95EF78972E41A441",1,"01990a98-9d60-73ab-8c13-c486535ac4b3","01990a84-c4ee-73c2-a87b-ff46a7d3dde5","2025-09-02_06h43.11.667",NA,NA,811.609,811.609,811.609,811.908,NA,NA,NA,NA,NA,NA,NA,TRUE,5,0.893,808.584,811.609,NA,NA,NA,NA,NA,40,35,0,106,106,50,1,2,107,"likert"
"6AEA21E0CC19480D95EF78972E41A441",1,"01990a98-9d60-73ab-8c13-c486535ac4b3","01990a84-c4ee-73c2-a87b-ff46a7d3dde5","2025-09-02_06h43.11.667",NA,NA,815.002,815.002,815.002,815.317,NA,NA,NA,NA,NA,NA,NA,TRUE,5,1.095,811.909,815.001,NA,NA,NA,NA,NA,45,26,0,107,107,54,1,2,108,"likert"
