"participant","session","assignmentId","projectId","date","practiceTrial.started","practiceTrial.stopped","tooLate.started","tooLate.stopped","blank.started","blank.stopped","trials_pract.thisRepN","trials_pract.thisTrialN","trials_pract.thisN","trials_pract.thisIndex","trials_pract.ran","delay_pract","amount_pract","responseMade","key","rt","trial.started","trial.stopped","trials.thisRepN","trials.thisTrialN","trials.thisN","trials.thisIndex","trials.ran","delay","amount","trials_2.thisRepN","trials_2.thisTrialN","trials_2.thisN","trials_2.thisIndex","trials_2.ran","block","trial","taskType"
"6D87F2B153954ACC8A746A48872AE6B1",1,"01990a98-52e5-7b48-b9bd-1bffeb4ca40b","01990a84-c4ee-73c2-a87b-ff46a7d3dde5","2025-09-02_09h23.11.735",24.595,27.584,27.584,27.831,27.831,27.934,0,0,0,2,1,14,45,FALSE,NA,NA,NA,NA,NA,NA,NA,NA,NA,NA,NA,NA,NA,NA,NA,NA,0,1,"likert"
"6D87F2B153954ACC8A746A48872AE6B1",1,"01990a98-52e5-7b48-b9bd-1bffeb4ca40b","01990a84-c4ee-73c2-a87b-ff46a7d3dde5","2025-09-02_09h23.11.735",27.936,30.934,30.934,30.934,30.934,31.279,0,1,1,1,1,100,50,TRUE,5,1.417,NA,NA,NA,NA,NA,NA,NA,NA,NA,NA,NA,NA,NA,NA,0,2,"likert"
"6D87F2B153954ACC8A746A48872AE6B1",1,"01990a98-52e5-7b48-b9bd-1bffeb4ca40b","01990a84-c4ee-73c2-a87b-ff46a7d3dde5","2025-09-02_09h23.11.735",31.28,34.279,34.279,34.279,34.279,34.63,0,2,2,0,1,7,30,TRUE,5,1.139,NA,NA,NA,NA,NA,NA,NA,NA,NA,NA,NA,NA,NA,NA,0,3,"likert"
"6D87F2B153954ACC8A746A48872AE6B1",1,"01990a98-52e5-7b48-b9bd-1bffeb4ca40b","01990a84-c4ee-73c2-a87b-ff46a7d3dde5","2025-09-02_09h23.11.735",34.632,37.631,37.631,37.631,37.631,37.981,0,3,3,3,1,3,27,TRUE,3,1.071,NA,NA,NA,NA,NA,NA,NA,NA,NA,NA,NA,NA,NA,NA,0,4,"likert"
"6D87F2B153954ACC8A746A48872AE6B1",1,"01990a98-52e5-7b48-b9bd-1bffeb4ca40b","01990a84-c4ee-73c2-a87b-ff46a7d3dde5","2025-09-02_09h23.11.735",37.985,40.981,40.982,40.982,40.982,41.333,0,4,4,4,1,30,40,TRUE,4,1.532,NA,NA,NA,NA,NA,NA,NA,NA,NA,NA,NA,NA,NA,NA,0,5,"likert"
"6D87F2B153954ACC8A746A48872AE6B1",1,"01990a98-52e5-7b48-b9bd-1bffeb4ca40b","01990a84-c4ee-73c2-a87b-ff46a7d3dde5","2025-09-02_09h23.11.735",NA,NA,82.122,82.122,82.123,82.473,NA,NA,NA,NA,NA,NA,NA,TRUE,5,1.541,79.136,82.122,0,0,0,64,1,50,46,NA,NA,NA,NA,NA,1,1,"likert"
"6D87F2B153954ACC8A746A48872AE6B1",1,"01990a98-52e5-7b48-b9bd-1bffeb4ca40b","01990a84-c4ee-73c2-a87b-ff46a7d3dde5","2025-09-02_09h23.11.735",NA,NA,85.473,85.473,85.473,85.818,NA,NA,NA,NA,NA,NA,NA,TRUE,1,2.022,82.475,85.472,0,1,1,97,1,180,31,NA,NA,NA,NA,NA,1,2,"likert"
"6D87F2B153954ACC8A746A48872AE6B1",1,"01990a98-52e5-7b48-b9bd-1bffeb4ca40b","01990a84-c4ee-73c2-a87b-ff46a7d3dde5","2025-09-02_09h23.11.735",NA,NA,88.824,89.073,89.073,89.169,NA,NA,NA,NA,NA,NA,NA,FALSE,NA,NA,85.819,88.824,0,2,2,7,1,10,26,NA,NA,NA,NA,NA,1,3,"likert"
"6D87F2B153954ACC8A746A48872AE6B1",1,"01990a98-52e5-7b48-b9bd-1bffeb4ca40b","01990a84-c4ee-73c2-a87b-ff46a7d3dde5","2025-09-02_09h23.11.735",NA,NA,92.169,92.169,92.169,92.521,NA,NA,NA,NA,NA,NA,NA,TRUE,5,0.968,89.17,92.169,0,3,3,48,1,40,27,NA,NA,NA,NA,NA,1,4,"likert"
"6D87F2B153954ACC8A746A48872AE6B1",1,"01990a98-52e5-7b48-b9bd-1bffeb4ca40b","01990a84-c4ee-73c2-a87b-ff46a7d3dde5","2025-09-02_09h23.11.735",NA,NA,95.52,95.52,95.52,95.871,NA,NA,NA,NA,NA,NA,NA,TRUE,4,1.448,92.522,95.52,0,4,4,58,1,45,40,NA,NA,NA,NA,NA,1,5,"likert"
"6D87F2B153954ACC8A746A48872AE6B1",1,"01990a98-52e5-7b48-b9bd-1bffeb4ca40b","01990a84-c4ee-73c2-a87b-ff46a7d3dde5","2025-09-02_09h23.11.735",NA,NA,98.871,98.871,98.871,99.222,NA,NA,NA,NA,NA,NA,NA,TRUE,3,1.123,95.872,98.871,0,5,5,46,1,30,32,NA,NA,NA,NA,NA,1,6,"likert"
"6D87F2B153954ACC8A746A48872AE6B1",1,"01990a98-52e5-7b48-b9bd-1bffeb4ca40b","01990a84-c4ee-73c2-a87b-ff46a7d3dde5","2025-09-02_09h23.11.735",NA,NA,102.222,102.222,102.222,102.574,NA,NA,NA,NA,NA,NA,NA,TRUE,3,2.13,99.224,102.222,0,6,6,13,1,12,26,NA,NA,NA,NA,NA,1,7,"likert"
"6D87F2B153954ACC8A746A48872AE6B1",1,"01990a98-52e5-7b48-b9bd-1bffeb4ca40b","01990a84-c4ee-73c2-a87b-ff46a7d3dde5","2025-09-02_09h23.11.735",NA,NA,105.574,105.574,105.574,105.918,NA,NA,NA,NA,NA,NA,NA,TRUE,3,1.662,102.575,105.574,0,7,7,81,1,95,40,NA,NA,NA,NA,NA,1,8,"likert"
"6D87F2B153954ACC8A746A48872AE6B1",1,"01990a98-52e5-7b48-b9bd-1bffeb4ca40b","01990a84-c4ee-73c2-a87b-ff46a7d3dde5","2025-09-02_09h23.11.735",NA,NA,108.918,108.919,108.919,109.269,NA,NA,NA,NA,NA,NA,NA,TRUE,1,1.463,105.922,108.918,0,8,8,60,1,50,27,NA,NA,NA,NA,NA,1,9,"likert"
"6D87F2B153954ACC8A746A48872AE6B1",1,"01990a98-52e5-7b48-b9bd-1bffeb4ca40b","01990a84-c4ee-73c2-a87b-ff46a7d3dde5","2025-09-02_09h23.11.735",NA,NA,112.269,112.269,112.269,112.621,NA,NA,NA,NA,NA,NA,NA,TRUE,3,1.955,109.271,112.269,0,9,9,17,1,12,35,NA,NA,NA,NA,NA,1,10,"likert"
"6D87F2B153954ACC8A746A48872AE6B1",1,"01990a98-52e5-7b48-b9bd-1bffeb4ca40b","01990a84-c4ee-73c2-a87b-ff46a7d3dde5","2025-09-02_09h23.11.735",NA,NA,115.621,115.621,115.621,115.972,NA,NA,NA,NA,NA,NA,NA,TRUE,5,1.069,112.623,115.621,0,10,10,53,1,40,54,NA,NA,NA,NA,NA,1,11,"likert"
"6D87F2B153954ACC8A746A48872AE6B1",1,"01990a98-52e5-7b48-b9bd-1bffeb4ca40b","01990a84-c4ee-73c2-a87b-ff46a7d3dde5","2025-09-02_09h23.11.735",NA,NA,118.972,118.972,118.972,119.323,NA,NA,NA,NA,NA,NA,NA,TRUE,1,1.399,115.973,118.971,0,11,11,66,1,60,29,NA,NA,NA,NA,NA,1,12,"likert"
"6D87F2B153954ACC8A746A48872AE6B1",1,"01990a98-52e5-7b48-b9bd-1bffeb4ca40b","01990a84-c4ee-73c2-a87b-ff46a7d3dde5","2025-09-02_09h23.11.735",NA,NA,122.323,122.323,122.323,122.674,NA,NA,NA,NA,NA,NA,NA,TRUE,3,1.702,119.324,122.323,0,12,12,86,1,100,38,NA,NA,NA,NA,NA,1,13,"likert"
"6D87F2B153954ACC8A746A48872AE6B1",1,"01990a98-52e5-7b48-b9bd-1bffeb4ca40b","01990a84-c4ee-73c2-a87b-ff46a7d3dde5","2025-09-02_09h23.11.735",NA,NA,125.668,125.668,125.668,126.019,NA,NA,NA,NA,NA,NA,NA,TRUE,3,1.801,122.676,125.668,0,13,13,57,1,45,35,NA,NA,NA,NA,NA,1,14,"likert"
"6D87F2B153954ACC8A746A48872AE6B1",1,"01990a98-52e5-7b48-b9bd-1bffeb4ca40b","01990a84-c4ee-73c2-a87b-ff46a7d3dde5","2025-09-02_09h23.11.735",NA,NA,129.018,129.018,129.018,129.37,NA,NA,NA,NA,NA,NA,NA,TRUE,4,1.286,126.021,129.018,0,14,14,59,1,45,46,NA,NA,NA,NA,NA,1,15,"likert"
"6D87F2B153954ACC8A746A48872AE6B1",1,"01990a98-52e5-7b48-b9bd-1bffeb4ca40b","01990a84-c4ee-73c2-a87b-ff46a7d3dde5","2025-09-02_09h23.11.735",NA,NA,132.371,132.371,132.371,132.721,NA,NA,NA,NA,NA,NA,NA,TRUE,4,1.607,129.371,132.371,0,15,15,77,1,90,54,NA,NA,NA,NA,NA,1,16,"likert"
"6D87F2B153954ACC8A746A48872AE6B1",1,"01990a98-52e5-7b48-b9bd-1bffeb4ca40b","01990a84-c4ee-73c2-a87b-ff46a7d3dde5","2025-09-02_09h23.11.735",NA,NA,135.721,135.721,135.721,136.073,NA,NA,NA,NA,NA,NA,NA,TRUE,1,2.204,132.723,135.721,0,16,16,68,1,60,35,NA,NA,NA,NA,NA,1,17,"likert"
"6D87F2B153954ACC8A746A48872AE6B1",1,"01990a98-52e5-7b48-b9bd-1bffeb4ca40b","01990a84-c4ee-73c2-a87b-ff46a7d3dde5","2025-09-02_09h23.11.735",NA,NA,139.072,139.072,139.073,139.424,NA,NA,NA,NA,NA,NA,NA,TRUE,1,1.687,136.076,139.072,0,17,17,31,1,25,29,NA,NA,NA,NA,NA,1,18,"likert"
"6D87F2B153954ACC8A746A48872AE6B1",1,"01990a98-52e5-7b48-b9bd-1bffeb4ca40b","01990a84-c4ee-73c2-a87b-ff46a7d3dde5","2025-09-02_09h23.11.735",NA,NA,142.423,142.423,142.423,142.768,NA,NA,NA,NA,NA,NA,NA,TRUE,4,1.533,139.425,142.423,0,18,18,95,1,150,54,NA,NA,NA,NA,NA,1,19,"likert"
"6D87F2B153954ACC8A746A48872AE6B1",1,"01990a98-52e5-7b48-b9bd-1bffeb4ca40b","01990a84-c4ee-73c2-a87b-ff46a7d3dde5","2025-09-02_09h23.11.735",NA,NA,145.768,145.768,145.768,146.12,NA,NA,NA,NA,NA,NA,NA,TRUE,1,1.75,142.769,145.768,0,19,19,6,1,10,25,NA,NA,NA,NA,NA,1,20,"likert"
"6D87F2B153954ACC8A746A48872AE6B1",1,"01990a98-52e5-7b48-b9bd-1bffeb4ca40b","01990a84-c4ee-73c2-a87b-ff46a7d3dde5","2025-09-02_09h23.11.735",NA,NA,149.119,149.12,149.12,149.471,NA,NA,NA,NA,NA,NA,NA,TRUE,1,1.684,146.121,149.119,0,20,20,37,1,28,28,NA,NA,NA,NA,NA,1,21,"likert"
"6D87F2B153954ACC8A746A48872AE6B1",1,"01990a98-52e5-7b48-b9bd-1bffeb4ca40b","01990a84-c4ee-73c2-a87b-ff46a7d3dde5","2025-09-02_09h23.11.735",NA,NA,152.471,152.471,152.471,152.821,NA,NA,NA,NA,NA,NA,NA,TRUE,4,1.569,149.471,152.47,0,21,21,88,1,100,46,NA,NA,NA,NA,NA,1,22,"likert"
"6D87F2B153954ACC8A746A48872AE6B1",1,"01990a98-52e5-7b48-b9bd-1bffeb4ca40b","01990a84-c4ee-73c2-a87b-ff46a7d3dde5","2025-09-02_09h23.11.735",NA,NA,155.821,155.821,155.821,156.173,NA,NA,NA,NA,NA,NA,NA,TRUE,4,1.79,152.823,155.821,0,22,22,69,1,60,40,NA,NA,NA,NA,NA,1,23,"likert"
"6D87F2B153954ACC8A746A48872AE6B1",1,"01990a98-52e5-7b48-b9bd-1bffeb4ca40b","01990a84-c4ee-73c2-a87b-ff46a7d3dde5","2025-09-02_09h23.11.735",NA,NA,159.172,159.172,159.172,159.518,NA,NA,NA,NA,NA,NA,NA,TRUE,1,0.976,156.174,159.172,0,23,23,8,1,10,27,NA,NA,NA,NA,NA,1,24,"likert"
"6D87F2B153954ACC8A746A48872AE6B1",1,"01990a98-52e5-7b48-b9bd-1bffeb4ca40b","01990a84-c4ee-73c2-a87b-ff46a7d3dde5","2025-09-02_09h23.11.735",NA,NA,162.518,162.518,162.518,162.869,NA,NA,NA,NA,NA,NA,NA,TRUE,1,1.223,159.519,162.518,0,24,24,24,1,21,26,NA,NA,NA,NA,NA,1,25,"likert"
"6D87F2B153954ACC8A746A48872AE6B1",1,"01990a98-52e5-7b48-b9bd-1bffeb4ca40b","01990a84-c4ee-73c2-a87b-ff46a7d3dde5","2025-09-02_09h23.11.735",NA,NA,165.869,165.869,165.869,166.22,NA,NA,NA,NA,NA,NA,NA,TRUE,4,1.861,162.87,165.869,0,25,25,35,1,25,46,NA,NA,NA,NA,NA,1,26,"likert"
"6D87F2B153954ACC8A746A48872AE6B1",1,"01990a98-52e5-7b48-b9bd-1bffeb4ca40b","01990a84-c4ee-73c2-a87b-ff46a7d3dde5","2025-09-02_09h23.11.735",NA,NA,169.22,169.22,169.22,169.571,NA,NA,NA,NA,NA,NA,NA,TRUE,1,1.333,166.222,169.219,0,26,26,0,1,7,25,NA,NA,NA,NA,NA,1,27,"likert"
"6D87F2B153954ACC8A746A48872AE6B1",1,"01990a98-52e5-7b48-b9bd-1bffeb4ca40b","01990a84-c4ee-73c2-a87b-ff46a7d3dde5","2025-09-02_09h23.11.735",NA,NA,172.571,172.571,172.571,172.922,NA,NA,NA,NA,NA,NA,NA,TRUE,1,1.572,169.575,172.571,0,27,27,106,1,200,47,NA,NA,NA,NA,NA,1,28,"likert"
"6D87F2B153954ACC8A746A48872AE6B1",1,"01990a98-52e5-7b48-b9bd-1bffeb4ca40b","01990a84-c4ee-73c2-a87b-ff46a7d3dde5","2025-09-02_09h23.11.735",NA,NA,175.922,175.922,175.922,176.273,NA,NA,NA,NA,NA,NA,NA,TRUE,1,0.993,172.924,175.922,0,28,28,72,1,90,26,NA,NA,NA,NA,NA,1,29,"likert"
"6D87F2B153954ACC8A746A48872AE6B1",1,"01990a98-52e5-7b48-b9bd-1bffeb4ca40b","01990a84-c4ee-73c2-a87b-ff46a7d3dde5","2025-09-02_09h23.11.735",NA,NA,179.273,179.273,179.273,179.618,NA,NA,NA,NA,NA,NA,NA,TRUE,4,1.168,176.274,179.273,0,29,29,23,1,14,39,NA,NA,NA,NA,NA,1,30,"likert"
"6D87F2B153954ACC8A746A48872AE6B1",1,"01990a98-52e5-7b48-b9bd-1bffeb4ca40b","01990a84-c4ee-73c2-a87b-ff46a7d3dde5","2025-09-02_09h23.11.735",NA,NA,182.618,182.618,182.618,182.969,NA,NA,NA,NA,NA,NA,NA,TRUE,5,1.542,179.619,182.618,0,30,30,65,1,50,54,NA,NA,NA,NA,NA,1,31,"likert"
"6D87F2B153954ACC8A746A48872AE6B1",1,"01990a98-52e5-7b48-b9bd-1bffeb4ca40b","01990a84-c4ee-73c2-a87b-ff46a7d3dde5","2025-09-02_09h23.11.735",NA,NA,185.969,185.969,185.969,186.321,NA,NA,NA,NA,NA,NA,NA,TRUE,1,1.178,182.97,185.969,0,31,31,9,1,10,29,NA,NA,NA,NA,NA,1,32,"likert"
"6D87F2B153954ACC8A746A48872AE6B1",1,"01990a98-52e5-7b48-b9bd-1bffeb4ca40b","01990a84-c4ee-73c2-a87b-ff46a7d3dde5","2025-09-02_09h23.11.735",NA,NA,189.32,189.32,189.32,189.672,NA,NA,NA,NA,NA,NA,NA,TRUE,4,1.319,186.323,189.32,0,32,32,71,1,60,54,NA,NA,NA,NA,NA,1,33,"likert"
"6D87F2B153954ACC8A746A48872AE6B1",1,"01990a98-52e5-7b48-b9bd-1bffeb4ca40b","01990a84-c4ee-73c2-a87b-ff46a7d3dde5","2025-09-02_09h23.11.735",NA,NA,192.672,192.672,192.672,193.022,NA,NA,NA,NA,NA,NA,NA,TRUE,3,2.583,189.673,192.671,0,33,33,107,1,200,54,NA,NA,NA,NA,NA,1,34,"likert"
"6D87F2B153954ACC8A746A48872AE6B1",1,"01990a98-52e5-7b48-b9bd-1bffeb4ca40b","01990a84-c4ee-73c2-a87b-ff46a7d3dde5","2025-09-02_09h23.11.735",NA,NA,196.023,196.023,196.023,196.373,NA,NA,NA,NA,NA,NA,NA,TRUE,3,1.579,193.023,196.023,0,34,34,28,1,21,32,NA,NA,NA,NA,NA,1,35,"likert"
"6D87F2B153954ACC8A746A48872AE6B1",1,"01990a98-52e5-7b48-b9bd-1bffeb4ca40b","01990a84-c4ee-73c2-a87b-ff46a7d3dde5","2025-09-02_09h23.11.735",NA,NA,199.368,199.368,199.368,199.719,NA,NA,NA,NA,NA,NA,NA,TRUE,4,1.242,196.374,199.368,0,35,35,41,1,28,46,NA,NA,NA,NA,NA,1,36,"likert"
"6D87F2B153954ACC8A746A48872AE6B1",1,"01990a98-52e5-7b48-b9bd-1bffeb4ca40b","01990a84-c4ee-73c2-a87b-ff46a7d3dde5","2025-09-02_09h23.11.735",NA,NA,202.718,202.719,202.719,203.07,NA,NA,NA,NA,NA,NA,NA,TRUE,1,1.446,199.72,202.718,0,36,36,15,1,12,31,NA,NA,NA,NA,NA,1,37,"likert"
"6D87F2B153954ACC8A746A48872AE6B1",1,"01990a98-52e5-7b48-b9bd-1bffeb4ca40b","01990a84-c4ee-73c2-a87b-ff46a7d3dde5","2025-09-02_09h23.11.735",NA,NA,206.07,206.07,206.07,206.421,NA,NA,NA,NA,NA,NA,NA,TRUE,3,1.866,203.074,206.07,0,37,37,49,1,40,33,NA,NA,NA,NA,NA,1,38,"likert"
"6D87F2B153954ACC8A746A48872AE6B1",1,"01990a98-52e5-7b48-b9bd-1bffeb4ca40b","01990a84-c4ee-73c2-a87b-ff46a7d3dde5","2025-09-02_09h23.11.735",NA,NA,209.421,209.421,209.421,209.772,NA,NA,NA,NA,NA,NA,NA,TRUE,1,0.91,206.422,209.42,0,38,38,44,1,30,29,NA,NA,NA,NA,NA,1,39,"likert"
"6D87F2B153954ACC8A746A48872AE6B1",1,"01990a98-52e5-7b48-b9bd-1bffeb4ca40b","01990a84-c4ee-73c2-a87b-ff46a7d3dde5","2025-09-02_09h23.11.735",NA,NA,212.773,212.773,212.773,213.117,NA,NA,NA,NA,NA,NA,NA,TRUE,3,2.079,209.774,212.772,0,39,39,101,1,180,54,NA,NA,NA,NA,NA,1,40,"likert"
"6D87F2B153954ACC8A746A48872AE6B1",1,"01990a98-52e5-7b48-b9bd-1bffeb4ca40b","01990a84-c4ee-73c2-a87b-ff46a7d3dde5","2025-09-02_09h23.11.735",NA,NA,216.123,216.123,216.123,216.468,NA,NA,NA,NA,NA,NA,NA,TRUE,4,1.821,213.118,216.123,0,40,40,22,1,14,35,NA,NA,NA,NA,NA,1,41,"likert"
"6D87F2B153954ACC8A746A48872AE6B1",1,"01990a98-52e5-7b48-b9bd-1bffeb4ca40b","01990a84-c4ee-73c2-a87b-ff46a7d3dde5","2025-09-02_09h23.11.735",NA,NA,219.469,219.469,219.469,219.82,NA,NA,NA,NA,NA,NA,NA,TRUE,1,1.351,216.469,219.468,0,41,41,98,1,180,35,NA,NA,NA,NA,NA,1,42,"likert"
"6D87F2B153954ACC8A746A48872AE6B1",1,"01990a98-52e5-7b48-b9bd-1bffeb4ca40b","01990a84-c4ee-73c2-a87b-ff46a7d3dde5","2025-09-02_09h23.11.735",NA,NA,222.819,222.819,222.819,223.17,NA,NA,NA,NA,NA,NA,NA,TRUE,4,1.807,219.821,222.819,0,42,42,100,1,180,46,NA,NA,NA,NA,NA,1,43,"likert"
"6D87F2B153954ACC8A746A48872AE6B1",1,"01990a98-52e5-7b48-b9bd-1bffeb4ca40b","01990a84-c4ee-73c2-a87b-ff46a7d3dde5","2025-09-02_09h23.11.735",NA,NA,226.171,226.171,226.171,226.521,NA,NA,NA,NA,NA,NA,NA,TRUE,3,2.365,223.171,226.17,0,43,43,90,1,150,31,NA,NA,NA,NA,NA,1,44,"likert"
"6D87F2B153954ACC8A746A48872AE6B1",1,"01990a98-52e5-7b48-b9bd-1bffeb4ca40b","01990a84-c4ee-73c2-a87b-ff46a7d3dde5","2025-09-02_09h23.11.735",NA,NA,229.522,229.522,229.522,229.872,NA,NA,NA,NA,NA,NA,NA,TRUE,3,2.401,226.522,229.522,0,44,44,93,1,150,40,NA,NA,NA,NA,NA,1,45,"likert"
"6D87F2B153954ACC8A746A48872AE6B1",1,"01990a98-52e5-7b48-b9bd-1bffeb4ca40b","01990a84-c4ee-73c2-a87b-ff46a7d3dde5","2025-09-02_09h23.11.735",NA,NA,232.873,232.873,232.873,233.224,NA,NA,NA,NA,NA,NA,NA,TRUE,3,2.44,229.873,232.872,0,45,45,38,1,28,32,NA,NA,NA,NA,NA,1,46,"likert"
"6D87F2B153954ACC8A746A48872AE6B1",1,"01990a98-52e5-7b48-b9bd-1bffeb4ca40b","01990a84-c4ee-73c2-a87b-ff46a7d3dde5","2025-09-02_09h23.11.735",NA,NA,236.225,236.225,236.225,236.569,NA,NA,NA,NA,NA,NA,NA,TRUE,4,1.632,233.225,236.224,0,46,46,89,1,100,54,NA,NA,NA,NA,NA,1,47,"likert"
"6D87F2B153954ACC8A746A48872AE6B1",1,"01990a98-52e5-7b48-b9bd-1bffeb4ca40b","01990a84-c4ee-73c2-a87b-ff46a7d3dde5","2025-09-02_09h23.11.735",NA,NA,239.569,239.569,239.569,239.919,NA,NA,NA,NA,NA,NA,NA,TRUE,3,1.916,236.573,239.568,0,47,47,2,1,7,28,NA,NA,NA,NA,NA,1,48,"likert"
"6D87F2B153954ACC8A746A48872AE6B1",1,"01990a98-52e5-7b48-b9bd-1bffeb4ca40b","01990a84-c4ee-73c2-a87b-ff46a7d3dde5","2025-09-02_09h23.11.735",NA,NA,242.92,242.92,242.92,243.271,NA,NA,NA,NA,NA,NA,NA,TRUE,4,1.72,239.921,242.919,0,48,48,87,1,100,39,NA,NA,NA,NA,NA,1,49,"likert"
"6D87F2B153954ACC8A746A48872AE6B1",1,"01990a98-52e5-7b48-b9bd-1bffeb4ca40b","01990a84-c4ee-73c2-a87b-ff46a7d3dde5","2025-09-02_09h23.11.735",NA,NA,246.271,246.271,246.271,246.623,NA,NA,NA,NA,NA,NA,NA,TRUE,1,2.409,243.272,246.271,0,49,49,27,1,21,30,NA,NA,NA,NA,NA,1,50,"likert"
"6D87F2B153954ACC8A746A48872AE6B1",1,"01990a98-52e5-7b48-b9bd-1bffeb4ca40b","01990a84-c4ee-73c2-a87b-ff46a7d3dde5","2025-09-02_09h23.11.735",NA,NA,249.622,249.622,249.622,249.973,NA,NA,NA,NA,NA,NA,NA,TRUE,3,1.469,246.623,249.622,0,50,50,34,1,25,35,NA,NA,NA,NA,NA,1,51,"likert"
"6D87F2B153954ACC8A746A48872AE6B1",1,"01990a98-52e5-7b48-b9bd-1bffeb4ca40b","01990a84-c4ee-73c2-a87b-ff46a7d3dde5","2025-09-02_09h23.11.735",NA,NA,252.974,252.974,252.974,253.319,NA,NA,NA,NA,NA,NA,NA,TRUE,4,1.297,249.975,252.973,0,51,51,63,1,50,40,NA,NA,NA,NA,NA,1,52,"likert"
"6D87F2B153954ACC8A746A48872AE6B1",1,"01990a98-52e5-7b48-b9bd-1bffeb4ca40b","01990a84-c4ee-73c2-a87b-ff46a7d3dde5","2025-09-02_09h23.11.735",NA,NA,256.318,256.318,256.318,256.669,NA,NA,NA,NA,NA,NA,NA,TRUE,1,1.305,253.32,256.318,0,52,52,55,1,45,29,NA,NA,NA,NA,NA,1,53,"likert"
"6D87F2B153954ACC8A746A48872AE6B1",1,"01990a98-52e5-7b48-b9bd-1bffeb4ca40b","01990a84-c4ee-73c2-a87b-ff46a7d3dde5","2025-09-02_09h23.11.735",NA,NA,259.669,259.669,259.669,260.02,NA,NA,NA,NA,NA,NA,NA,TRUE,4,1.51,256.67,259.669,0,53,53,83,1,95,54,NA,NA,NA,NA,NA,1,54,"likert"
"6D87F2B153954ACC8A746A48872AE6B1",1,"01990a98-52e5-7b48-b9bd-1bffeb4ca40b","01990a84-c4ee-73c2-a87b-ff46a7d3dde5","2025-09-02_09h23.11.735",NA,NA,263.02,263.02,263.02,263.372,NA,NA,NA,NA,NA,NA,NA,TRUE,1,1.322,260.022,263.02,0,54,54,92,1,150,35,NA,NA,NA,NA,NA,1,55,"likert"
"6D87F2B153954ACC8A746A48872AE6B1",1,"01990a98-52e5-7b48-b9bd-1bffeb4ca40b","01990a84-c4ee-73c2-a87b-ff46a7d3dde5","2025-09-02_09h23.11.735",NA,NA,266.371,266.371,266.371,266.722,NA,NA,NA,NA,NA,NA,NA,TRUE,3,1.407,263.373,266.371,0,55,55,62,1,50,35,NA,NA,NA,NA,NA,1,56,"likert"
"6D87F2B153954ACC8A746A48872AE6B1",1,"01990a98-52e5-7b48-b9bd-1bffeb4ca40b","01990a84-c4ee-73c2-a87b-ff46a7d3dde5","2025-09-02_09h23.11.735",NA,NA,269.723,269.724,269.724,270.068,NA,NA,NA,NA,NA,NA,NA,TRUE,4,1.479,266.723,269.723,0,56,56,70,1,60,47,NA,NA,NA,NA,NA,1,57,"likert"
"6D87F2B153954ACC8A746A48872AE6B1",1,"01990a98-52e5-7b48-b9bd-1bffeb4ca40b","01990a84-c4ee-73c2-a87b-ff46a7d3dde5","2025-09-02_09h23.11.735",NA,NA,273.074,273.074,273.074,273.418,NA,NA,NA,NA,NA,NA,NA,TRUE,1,1.057,270.071,273.074,0,57,57,78,1,95,31,NA,NA,NA,NA,NA,1,58,"likert"
"6D87F2B153954ACC8A746A48872AE6B1",1,"01990a98-52e5-7b48-b9bd-1bffeb4ca40b","01990a84-c4ee-73c2-a87b-ff46a7d3dde5","2025-09-02_09h23.11.735",NA,NA,276.419,276.419,276.419,276.77,NA,NA,NA,NA,NA,NA,NA,TRUE,1,0.994,273.42,276.418,0,58,58,73,1,90,30,NA,NA,NA,NA,NA,1,59,"likert"
"6D87F2B153954ACC8A746A48872AE6B1",1,"01990a98-52e5-7b48-b9bd-1bffeb4ca40b","01990a84-c4ee-73c2-a87b-ff46a7d3dde5","2025-09-02_09h23.11.735",NA,NA,279.77,279.77,279.77,280.121,NA,NA,NA,NA,NA,NA,NA,TRUE,1,1.032,276.772,279.77,0,59,59,30,1,25,27,NA,NA,NA,NA,NA,1,60,"likert"
"6D87F2B153954ACC8A746A48872AE6B1",1,"01990a98-52e5-7b48-b9bd-1bffeb4ca40b","01990a84-c4ee-73c2-a87b-ff46a7d3dde5","2025-09-02_09h23.11.735",NA,NA,283.124,283.124,283.124,283.472,NA,NA,NA,NA,NA,NA,NA,TRUE,4,1.758,280.122,283.123,0,60,60,75,1,90,40,NA,NA,NA,NA,NA,1,61,"likert"
"6D87F2B153954ACC8A746A48872AE6B1",1,"01990a98-52e5-7b48-b9bd-1bffeb4ca40b","01990a84-c4ee-73c2-a87b-ff46a7d3dde5","2025-09-02_09h23.11.735",NA,NA,286.472,286.472,286.472,286.823,NA,NA,NA,NA,NA,NA,NA,TRUE,1,0.951,283.473,286.471,0,61,61,91,1,150,33,NA,NA,NA,NA,NA,1,62,"likert"
"6D87F2B153954ACC8A746A48872AE6B1",1,"01990a98-52e5-7b48-b9bd-1bffeb4ca40b","01990a84-c4ee-73c2-a87b-ff46a7d3dde5","2025-09-02_09h23.11.735",NA,NA,289.823,289.823,289.823,290.168,NA,NA,NA,NA,NA,NA,NA,TRUE,1,1.308,286.824,289.823,0,62,62,18,1,14,25,NA,NA,NA,NA,NA,1,63,"likert"
"6D87F2B153954ACC8A746A48872AE6B1",1,"01990a98-52e5-7b48-b9bd-1bffeb4ca40b","01990a84-c4ee-73c2-a87b-ff46a7d3dde5","2025-09-02_09h23.11.735",NA,NA,293.174,293.174,293.174,293.519,NA,NA,NA,NA,NA,NA,NA,TRUE,4,1.922,290.17,293.174,0,63,63,29,1,21,38,NA,NA,NA,NA,NA,1,64,"likert"
"6D87F2B153954ACC8A746A48872AE6B1",1,"01990a98-52e5-7b48-b9bd-1bffeb4ca40b","01990a84-c4ee-73c2-a87b-ff46a7d3dde5","2025-09-02_09h23.11.735",NA,NA,296.519,296.519,296.519,296.871,NA,NA,NA,NA,NA,NA,NA,TRUE,4,1.322,293.52,296.518,0,64,64,40,1,28,39,NA,NA,NA,NA,NA,1,65,"likert"
"6D87F2B153954ACC8A746A48872AE6B1",1,"01990a98-52e5-7b48-b9bd-1bffeb4ca40b","01990a84-c4ee-73c2-a87b-ff46a7d3dde5","2025-09-02_09h23.11.735",NA,NA,299.87,299.87,299.87,300.222,NA,NA,NA,NA,NA,NA,NA,TRUE,4,1.545,296.871,299.87,0,65,65,5,1,7,35,NA,NA,NA,NA,NA,1,66,"likert"
"6D87F2B153954ACC8A746A48872AE6B1",1,"01990a98-52e5-7b48-b9bd-1bffeb4ca40b","01990a84-c4ee-73c2-a87b-ff46a7d3dde5","2025-09-02_09h23.11.735",NA,NA,303.222,303.222,303.222,303.573,NA,NA,NA,NA,NA,NA,NA,TRUE,1,1.609,300.222,303.221,0,66,66,61,1,50,30,NA,NA,NA,NA,NA,1,67,"likert"
"6D87F2B153954ACC8A746A48872AE6B1",1,"01990a98-52e5-7b48-b9bd-1bffeb4ca40b","01990a84-c4ee-73c2-a87b-ff46a7d3dde5","2025-09-02_09h23.11.735",NA,NA,306.572,306.573,306.573,306.923,NA,NA,NA,NA,NA,NA,NA,TRUE,3,1.857,303.576,306.572,0,67,67,79,1,95,33,NA,NA,NA,NA,NA,1,68,"likert"
"6D87F2B153954ACC8A746A48872AE6B1",1,"01990a98-52e5-7b48-b9bd-1bffeb4ca40b","01990a84-c4ee-73c2-a87b-ff46a7d3dde5","2025-09-02_09h23.11.735",NA,NA,309.917,309.917,309.917,310.269,NA,NA,NA,NA,NA,NA,NA,TRUE,1,1.45,306.924,309.917,0,68,68,105,1,200,39,NA,NA,NA,NA,NA,1,69,"likert"
"6D87F2B153954ACC8A746A48872AE6B1",1,"01990a98-52e5-7b48-b9bd-1bffeb4ca40b","01990a84-c4ee-73c2-a87b-ff46a7d3dde5","2025-09-02_09h23.11.735",NA,NA,313.269,313.269,313.269,313.62,NA,NA,NA,NA,NA,NA,NA,TRUE,5,1.341,310.27,313.269,0,69,69,10,1,10,30,NA,NA,NA,NA,NA,1,70,"likert"
"6D87F2B153954ACC8A746A48872AE6B1",1,"01990a98-52e5-7b48-b9bd-1bffeb4ca40b","01990a84-c4ee-73c2-a87b-ff46a7d3dde5","2025-09-02_09h23.11.735",NA,NA,316.62,316.62,316.62,316.97,NA,NA,NA,NA,NA,NA,NA,TRUE,1,1.789,313.621,316.62,0,70,70,50,1,40,35,NA,NA,NA,NA,NA,1,71,"likert"
"6D87F2B153954ACC8A746A48872AE6B1",1,"01990a98-52e5-7b48-b9bd-1bffeb4ca40b","01990a84-c4ee-73c2-a87b-ff46a7d3dde5","2025-09-02_09h23.11.735",NA,NA,319.97,319.97,319.97,320.322,NA,NA,NA,NA,NA,NA,NA,TRUE,3,1.87,316.971,319.97,0,71,71,94,1,150,47,NA,NA,NA,NA,NA,1,72,"likert"
"6D87F2B153954ACC8A746A48872AE6B1",1,"01990a98-52e5-7b48-b9bd-1bffeb4ca40b","01990a84-c4ee-73c2-a87b-ff46a7d3dde5","2025-09-02_09h23.11.735",NA,NA,323.322,323.322,323.322,323.673,NA,NA,NA,NA,NA,NA,NA,TRUE,1,1.588,320.323,323.322,0,72,72,33,1,25,33,NA,NA,NA,NA,NA,1,73,"likert"
"6D87F2B153954ACC8A746A48872AE6B1",1,"01990a98-52e5-7b48-b9bd-1bffeb4ca40b","01990a84-c4ee-73c2-a87b-ff46a7d3dde5","2025-09-02_09h23.11.735",NA,NA,326.672,326.673,326.673,327.018,NA,NA,NA,NA,NA,NA,NA,TRUE,1,1.979,323.674,326.672,0,73,73,19,1,14,26,NA,NA,NA,NA,NA,1,74,"likert"
"6D87F2B153954ACC8A746A48872AE6B1",1,"01990a98-52e5-7b48-b9bd-1bffeb4ca40b","01990a84-c4ee-73c2-a87b-ff46a7d3dde5","2025-09-02_09h23.11.735",NA,NA,330.018,330.018,330.018,330.37,NA,NA,NA,NA,NA,NA,NA,TRUE,3,1.669,327.018,330.018,0,74,74,56,1,45,31,NA,NA,NA,NA,NA,1,75,"likert"
"6D87F2B153954ACC8A746A48872AE6B1",1,"01990a98-52e5-7b48-b9bd-1bffeb4ca40b","01990a84-c4ee-73c2-a87b-ff46a7d3dde5","2025-09-02_09h23.11.735",NA,NA,333.369,333.369,333.369,333.72,NA,NA,NA,NA,NA,NA,NA,TRUE,1,1.275,330.37,333.368,0,75,75,74,1,90,33,NA,NA,NA,NA,NA,1,76,"likert"
"6D87F2B153954ACC8A746A48872AE6B1",1,"01990a98-52e5-7b48-b9bd-1bffeb4ca40b","01990a84-c4ee-73c2-a87b-ff46a7d3dde5","2025-09-02_09h23.11.735",NA,NA,336.721,336.721,336.721,337.072,NA,NA,NA,NA,NA,NA,NA,TRUE,1,1.623,333.721,336.72,0,76,76,32,1,25,31,NA,NA,NA,NA,NA,1,77,"likert"
"6D87F2B153954ACC8A746A48872AE6B1",1,"01990a98-52e5-7b48-b9bd-1bffeb4ca40b","01990a84-c4ee-73c2-a87b-ff46a7d3dde5","2025-09-02_09h23.11.735",NA,NA,340.072,340.072,340.072,340.423,NA,NA,NA,NA,NA,NA,NA,TRUE,1,1.396,337.075,340.071,0,77,77,39,1,28,35,NA,NA,NA,NA,NA,1,78,"likert"
"6D87F2B153954ACC8A746A48872AE6B1",1,"01990a98-52e5-7b48-b9bd-1bffeb4ca40b","01990a84-c4ee-73c2-a87b-ff46a7d3dde5","2025-09-02_09h23.11.735",NA,NA,343.423,343.423,343.423,343.773,NA,NA,NA,NA,NA,NA,NA,TRUE,1,1.047,340.424,343.422,0,78,78,1,1,7,26,NA,NA,NA,NA,NA,1,79,"likert"
"6D87F2B153954ACC8A746A48872AE6B1",1,"01990a98-52e5-7b48-b9bd-1bffeb4ca40b","01990a84-c4ee-73c2-a87b-ff46a7d3dde5","2025-09-02_09h23.11.735",NA,NA,346.774,346.774,346.774,347.118,NA,NA,NA,NA,NA,NA,NA,TRUE,1,1.256,343.774,346.773,0,79,79,20,1,14,28,NA,NA,NA,NA,NA,1,80,"likert"
"6D87F2B153954ACC8A746A48872AE6B1",1,"01990a98-52e5-7b48-b9bd-1bffeb4ca40b","01990a84-c4ee-73c2-a87b-ff46a7d3dde5","2025-09-02_09h23.11.735",NA,NA,350.118,350.118,350.118,350.469,NA,NA,NA,NA,NA,NA,NA,TRUE,4,1.347,347.12,350.118,0,80,80,67,1,60,33,NA,NA,NA,NA,NA,1,81,"likert"
"6D87F2B153954ACC8A746A48872AE6B1",1,"01990a98-52e5-7b48-b9bd-1bffeb4ca40b","01990a84-c4ee-73c2-a87b-ff46a7d3dde5","2025-09-02_09h23.11.735",NA,NA,353.47,353.47,353.47,353.821,NA,NA,NA,NA,NA,NA,NA,TRUE,4,1.377,350.47,353.47,0,81,81,21,1,14,32,NA,NA,NA,NA,NA,1,82,"likert"
"6D87F2B153954ACC8A746A48872AE6B1",1,"01990a98-52e5-7b48-b9bd-1bffeb4ca40b","01990a84-c4ee-73c2-a87b-ff46a7d3dde5","2025-09-02_09h23.11.735",NA,NA,356.821,356.821,356.821,357.172,NA,NA,NA,NA,NA,NA,NA,TRUE,1,1.141,353.821,356.82,0,82,82,80,1,95,35,NA,NA,NA,NA,NA,1,83,"likert"
"6D87F2B153954ACC8A746A48872AE6B1",1,"01990a98-52e5-7b48-b9bd-1bffeb4ca40b","01990a84-c4ee-73c2-a87b-ff46a7d3dde5","2025-09-02_09h23.11.735",NA,NA,360.172,360.172,360.172,360.523,NA,NA,NA,NA,NA,NA,NA,TRUE,1,0.893,357.174,360.171,0,83,83,103,1,200,28,NA,NA,NA,NA,NA,1,84,"likert"
"6D87F2B153954ACC8A746A48872AE6B1",1,"01990a98-52e5-7b48-b9bd-1bffeb4ca40b","01990a84-c4ee-73c2-a87b-ff46a7d3dde5","2025-09-02_09h23.11.735",NA,NA,363.523,363.523,363.523,363.868,NA,NA,NA,NA,NA,NA,NA,TRUE,4,1.464,360.524,363.523,0,84,84,47,1,30,38,NA,NA,NA,NA,NA,1,85,"likert"
"6D87F2B153954ACC8A746A48872AE6B1",1,"01990a98-52e5-7b48-b9bd-1bffeb4ca40b","01990a84-c4ee-73c2-a87b-ff46a7d3dde5","2025-09-02_09h23.11.735",NA,NA,366.874,366.874,366.874,367.219,NA,NA,NA,NA,NA,NA,NA,TRUE,1,0.887,363.869,366.874,0,85,85,84,1,100,26,NA,NA,NA,NA,NA,1,86,"likert"
"6D87F2B153954ACC8A746A48872AE6B1",1,"01990a98-52e5-7b48-b9bd-1bffeb4ca40b","01990a84-c4ee-73c2-a87b-ff46a7d3dde5","2025-09-02_09h23.11.735",NA,NA,370.22,370.22,370.22,370.57,NA,NA,NA,NA,NA,NA,NA,TRUE,4,1.647,367.221,370.219,0,86,86,12,1,12,25,NA,NA,NA,NA,NA,1,87,"likert"
"6D87F2B153954ACC8A746A48872AE6B1",1,"01990a98-52e5-7b48-b9bd-1bffeb4ca40b","01990a84-c4ee-73c2-a87b-ff46a7d3dde5","2025-09-02_09h23.11.735",NA,NA,373.571,373.571,373.571,373.921,NA,NA,NA,NA,NA,NA,NA,TRUE,1,1.122,370.573,373.57,0,87,87,54,1,45,26,NA,NA,NA,NA,NA,1,88,"likert"
"6D87F2B153954ACC8A746A48872AE6B1",1,"01990a98-52e5-7b48-b9bd-1bffeb4ca40b","01990a84-c4ee-73c2-a87b-ff46a7d3dde5","2025-09-02_09h23.11.735",NA,NA,376.921,376.921,376.921,377.272,NA,NA,NA,NA,NA,NA,NA,TRUE,1,1.758,373.924,376.921,0,88,88,42,1,30,26,NA,NA,NA,NA,NA,1,89,"likert"
"6D87F2B153954ACC8A746A48872AE6B1",1,"01990a98-52e5-7b48-b9bd-1bffeb4ca40b","01990a84-c4ee-73c2-a87b-ff46a7d3dde5","2025-09-02_09h23.11.735",NA,NA,380.272,380.272,380.272,380.623,NA,NA,NA,NA,NA,NA,NA,TRUE,1,1.22,377.275,380.271,0,89,89,96,1,180,27,NA,NA,NA,NA,NA,1,90,"likert"
"6D87F2B153954ACC8A746A48872AE6B1",1,"01990a98-52e5-7b48-b9bd-1bffeb4ca40b","01990a84-c4ee-73c2-a87b-ff46a7d3dde5","2025-09-02_09h23.11.735",NA,NA,383.623,383.623,383.623,383.968,NA,NA,NA,NA,NA,NA,NA,TRUE,1,1.666,380.625,383.623,0,90,90,104,1,200,35,NA,NA,NA,NA,NA,1,91,"likert"
"6D87F2B153954ACC8A746A48872AE6B1",1,"01990a98-52e5-7b48-b9bd-1bffeb4ca40b","01990a84-c4ee-73c2-a87b-ff46a7d3dde5","2025-09-02_09h23.11.735",NA,NA,386.976,386.976,386.976,387.32,NA,NA,NA,NA,NA,NA,NA,TRUE,1,1.851,383.97,386.969,0,91,91,26,1,21,29,NA,NA,NA,NA,NA,1,92,"likert"
"6D87F2B153954ACC8A746A48872AE6B1",1,"01990a98-52e5-7b48-b9bd-1bffeb4ca40b","01990a84-c4ee-73c2-a87b-ff46a7d3dde5","2025-09-02_09h23.11.735",NA,NA,390.32,390.32,390.32,390.67,NA,NA,NA,NA,NA,NA,NA,TRUE,4,2.002,387.321,390.319,0,92,92,11,1,10,32,NA,NA,NA,NA,NA,1,93,"likert"
"6D87F2B153954ACC8A746A48872AE6B1",1,"01990a98-52e5-7b48-b9bd-1bffeb4ca40b","01990a84-c4ee-73c2-a87b-ff46a7d3dde5","2025-09-02_09h23.11.735",NA,NA,393.67,393.67,393.67,394.022,NA,NA,NA,NA,NA,NA,NA,TRUE,1,0.975,390.672,393.67,0,93,93,99,1,180,39,NA,NA,NA,NA,NA,1,94,"likert"
"6D87F2B153954ACC8A746A48872AE6B1",1,"01990a98-52e5-7b48-b9bd-1bffeb4ca40b","01990a84-c4ee-73c2-a87b-ff46a7d3dde5","2025-09-02_09h23.11.735",NA,NA,397.022,397.022,397.022,397.373,NA,NA,NA,NA,NA,NA,NA,TRUE,5,1.268,394.023,397.021,0,94,94,3,1,7,30,NA,NA,NA,NA,NA,1,95,"likert"
"6D87F2B153954ACC8A746A48872AE6B1",1,"01990a98-52e5-7b48-b9bd-1bffeb4ca40b","01990a84-c4ee-73c2-a87b-ff46a7d3dde5","2025-09-02_09h23.11.735",NA,NA,400.374,400.374,400.374,400.718,NA,NA,NA,NA,NA,NA,NA,TRUE,5,0.957,397.375,400.373,0,95,95,4,1,7,32,NA,NA,NA,NA,NA,1,96,"likert"
"6D87F2B153954ACC8A746A48872AE6B1",1,"01990a98-52e5-7b48-b9bd-1bffeb4ca40b","01990a84-c4ee-73c2-a87b-ff46a7d3dde5","2025-09-02_09h23.11.735",NA,NA,403.718,403.718,403.718,404.069,NA,NA,NA,NA,NA,NA,NA,TRUE,3,2.069,400.72,403.718,0,96,96,51,1,40,40,NA,NA,NA,NA,NA,1,97,"likert"
"6D87F2B153954ACC8A746A48872AE6B1",1,"01990a98-52e5-7b48-b9bd-1bffeb4ca40b","01990a84-c4ee-73c2-a87b-ff46a7d3dde5","2025-09-02_09h23.11.735",NA,NA,407.07,407.07,407.07,407.42,NA,NA,NA,NA,NA,NA,NA,TRUE,3,1.181,404.072,407.069,0,97,97,82,1,95,47,NA,NA,NA,NA,NA,1,98,"likert"
"6D87F2B153954ACC8A746A48872AE6B1",1,"01990a98-52e5-7b48-b9bd-1bffeb4ca40b","01990a84-c4ee-73c2-a87b-ff46a7d3dde5","2025-09-02_09h23.11.735",NA,NA,410.42,410.42,410.42,410.771,NA,NA,NA,NA,NA,NA,NA,TRUE,1,1.862,407.421,410.42,0,98,98,45,1,30,30,NA,NA,NA,NA,NA,1,99,"likert"
"6D87F2B153954ACC8A746A48872AE6B1",1,"01990a98-52e5-7b48-b9bd-1bffeb4ca40b","01990a84-c4ee-73c2-a87b-ff46a7d3dde5","2025-09-02_09h23.11.735",NA,NA,413.771,413.771,413.771,414.123,NA,NA,NA,NA,NA,NA,NA,TRUE,1,1.519,410.772,413.771,0,99,99,25,1,21,27,NA,NA,NA,NA,NA,1,100,"likert"
"6D87F2B153954ACC8A746A48872AE6B1",1,"01990a98-52e5-7b48-b9bd-1bffeb4ca40b","01990a84-c4ee-73c2-a87b-ff46a7d3dde5","2025-09-02_09h23.11.735",NA,NA,417.123,417.123,417.123,417.474,NA,NA,NA,NA,NA,NA,NA,TRUE,1,1.241,414.124,417.122,0,100,100,43,1,30,27,NA,NA,NA,NA,NA,1,101,"likert"
"6D87F2B153954ACC8A746A48872AE6B1",1,"01990a98-52e5-7b48-b9bd-1bffeb4ca40b","01990a84-c4ee-73c2-a87b-ff46a7d3dde5","2025-09-02_09h23.11.735",NA,NA,420.473,420.473,420.473,420.818,NA,NA,NA,NA,NA,NA,NA,TRUE,4,2.014,417.475,420.473,0,101,101,76,1,90,46,NA,NA,NA,NA,NA,1,102,"likert"
"6D87F2B153954ACC8A746A48872AE6B1",1,"01990a98-52e5-7b48-b9bd-1bffeb4ca40b","01990a84-c4ee-73c2-a87b-ff46a7d3dde5","2025-09-02_09h23.11.735",NA,NA,423.818,423.818,423.818,424.169,NA,NA,NA,NA,NA,NA,NA,TRUE,4,1.382,420.82,423.818,0,102,102,16,1,12,33,NA,NA,NA,NA,NA,1,103,"likert"
"6D87F2B153954ACC8A746A48872AE6B1",1,"01990a98-52e5-7b48-b9bd-1bffeb4ca40b","01990a84-c4ee-73c2-a87b-ff46a7d3dde5","2025-09-02_09h23.11.735",NA,NA,427.17,427.17,427.17,427.521,NA,NA,NA,NA,NA,NA,NA,TRUE,3,1.679,424.17,427.17,0,103,103,52,1,40,47,NA,NA,NA,NA,NA,1,104,"likert"
"6D87F2B153954ACC8A746A48872AE6B1",1,"01990a98-52e5-7b48-b9bd-1bffeb4ca40b","01990a84-c4ee-73c2-a87b-ff46a7d3dde5","2025-09-02_09h23.11.735",NA,NA,430.521,430.521,430.521,430.871,NA,NA,NA,NA,NA,NA,NA,TRUE,1,0.977,427.522,430.52,0,104,104,102,1,200,26,NA,NA,NA,NA,NA,1,105,"likert"
"6D87F2B153954ACC8A746A48872AE6B1",1,"01990a98-52e5-7b48-b9bd-1bffeb4ca40b","01990a84-c4ee-73c2-a87b-ff46a7d3dde5","2025-09-02_09h23.11.735",NA,NA,433.871,433.871,433.871,434.223,NA,NA,NA,NA,NA,NA,NA,TRUE,4,2.093,430.874,433.871,0,105,105,14,1,12,28,NA,NA,NA,NA,NA,1,106,"likert"
"6D87F2B153954ACC8A746A48872AE6B1",1,"01990a98-52e5-7b48-b9bd-1bffeb4ca40b","01990a84-c4ee-73c2-a87b-ff46a7d3dde5","2025-09-02_09h23.11.735",NA,NA,437.223,437.471,437.471,437.568,NA,NA,NA,NA,NA,NA,NA,FALSE,NA,NA,434.225,437.223,0,106,106,85,1,100,31,NA,NA,NA,NA,NA,1,107,"likert"
"6D87F2B153954ACC8A746A48872AE6B1",1,"01990a98-52e5-7b48-b9bd-1bffeb4ca40b","01990a84-c4ee-73c2-a87b-ff46a7d3dde5","2025-09-02_09h23.11.735",NA,NA,440.568,440.568,440.568,440.919,NA,NA,NA,NA,NA,NA,NA,TRUE,4,1.275,437.572,440.568,0,107,107,36,1,28,26,NA,NA,NA,NA,NA,1,108,"likert"
"6D87F2B153954ACC8A746A48872AE6B1",1,"01990a98-52e5-7b48-b9bd-1bffeb4ca40b","01990a84-c4ee-73c2-a87b-ff46a7d3dde5","2025-09-02_09h23.11.735",NA,NA,515.262,515.262,515.262,515.614,NA,NA,NA,NA,NA,NA,NA,TRUE,1,1.541,512.274,515.262,NA,NA,NA,NA,NA,14,26,0,0,0,19,1,2,1,"likert"
"6D87F2B153954ACC8A746A48872AE6B1",1,"01990a98-52e5-7b48-b9bd-1bffeb4ca40b","01990a84-c4ee-73c2-a87b-ff46a7d3dde5","2025-09-02_09h23.11.735",NA,NA,518.613,518.613,518.613,518.965,NA,NA,NA,NA,NA,NA,NA,TRUE,5,0.864,515.615,518.613,NA,NA,NA,NA,NA,45,46,0,1,1,59,1,2,2,"likert"
"6D87F2B153954ACC8A746A48872AE6B1",1,"01990a98-52e5-7b48-b9bd-1bffeb4ca40b","01990a84-c4ee-73c2-a87b-ff46a7d3dde5","2025-09-02_09h23.11.735",NA,NA,521.964,521.964,521.964,522.31,NA,NA,NA,NA,NA,NA,NA,TRUE,1,1.288,518.965,521.964,NA,NA,NA,NA,NA,30,29,0,2,2,44,1,2,3,"likert"
"6D87F2B153954ACC8A746A48872AE6B1",1,"01990a98-52e5-7b48-b9bd-1bffeb4ca40b","01990a84-c4ee-73c2-a87b-ff46a7d3dde5","2025-09-02_09h23.11.735",NA,NA,525.31,525.31,525.31,525.66,NA,NA,NA,NA,NA,NA,NA,TRUE,5,0.849,522.311,525.309,NA,NA,NA,NA,NA,200,54,0,3,3,107,1,2,4,"likert"
"6D87F2B153954ACC8A746A48872AE6B1",1,"01990a98-52e5-7b48-b9bd-1bffeb4ca40b","01990a84-c4ee-73c2-a87b-ff46a7d3dde5","2025-09-02_09h23.11.735",NA,NA,528.661,528.661,528.661,529.012,NA,NA,NA,NA,NA,NA,NA,TRUE,1,1.724,525.661,528.661,NA,NA,NA,NA,NA,90,33,0,4,4,74,1,2,5,"likert"
"6D87F2B153954ACC8A746A48872AE6B1",1,"01990a98-52e5-7b48-b9bd-1bffeb4ca40b","01990a84-c4ee-73c2-a87b-ff46a7d3dde5","2025-09-02_09h23.11.735",NA,NA,532.012,532.012,532.012,532.363,NA,NA,NA,NA,NA,NA,NA,TRUE,1,0.766,529.013,532.012,NA,NA,NA,NA,NA,200,26,0,5,5,102,1,2,6,"likert"
"6D87F2B153954ACC8A746A48872AE6B1",1,"01990a98-52e5-7b48-b9bd-1bffeb4ca40b","01990a84-c4ee-73c2-a87b-ff46a7d3dde5","2025-09-02_09h23.11.735",NA,NA,535.363,535.363,535.363,535.713,NA,NA,NA,NA,NA,NA,NA,TRUE,4,1.267,532.365,535.363,NA,NA,NA,NA,NA,12,28,0,6,6,14,1,2,7,"likert"
"6D87F2B153954ACC8A746A48872AE6B1",1,"01990a98-52e5-7b48-b9bd-1bffeb4ca40b","01990a84-c4ee-73c2-a87b-ff46a7d3dde5","2025-09-02_09h23.11.735",NA,NA,538.714,538.714,538.714,539.059,NA,NA,NA,NA,NA,NA,NA,TRUE,1,0.773,535.715,538.713,NA,NA,NA,NA,NA,50,27,0,7,7,60,1,2,8,"likert"
"6D87F2B153954ACC8A746A48872AE6B1",1,"01990a98-52e5-7b48-b9bd-1bffeb4ca40b","01990a84-c4ee-73c2-a87b-ff46a7d3dde5","2025-09-02_09h23.11.735",NA,NA,542.059,542.059,542.059,542.411,NA,NA,NA,NA,NA,NA,NA,TRUE,1,1.133,539.06,542.059,NA,NA,NA,NA,NA,90,26,0,8,8,72,1,2,9,"likert"
"6D87F2B153954ACC8A746A48872AE6B1",1,"01990a98-52e5-7b48-b9bd-1bffeb4ca40b","01990a84-c4ee-73c2-a87b-ff46a7d3dde5","2025-09-02_09h23.11.735",NA,NA,545.41,545.41,545.41,545.761,NA,NA,NA,NA,NA,NA,NA,TRUE,1,1.739,542.412,545.41,NA,NA,NA,NA,NA,14,32,0,9,9,21,1,2,10,"likert"
"6D87F2B153954ACC8A746A48872AE6B1",1,"01990a98-52e5-7b48-b9bd-1bffeb4ca40b","01990a84-c4ee-73c2-a87b-ff46a7d3dde5","2025-09-02_09h23.11.735",NA,NA,548.761,548.761,548.761,549.112,NA,NA,NA,NA,NA,NA,NA,TRUE,5,1.076,545.762,548.761,NA,NA,NA,NA,NA,50,54,0,10,10,65,1,2,11,"likert"
"6D87F2B153954ACC8A746A48872AE6B1",1,"01990a98-52e5-7b48-b9bd-1bffeb4ca40b","01990a84-c4ee-73c2-a87b-ff46a7d3dde5","2025-09-02_09h23.11.735",NA,NA,552.113,552.113,552.113,552.463,NA,NA,NA,NA,NA,NA,NA,TRUE,4,1.205,549.113,552.112,NA,NA,NA,NA,NA,7,28,0,11,11,2,1,2,12,"likert"
"6D87F2B153954ACC8A746A48872AE6B1",1,"01990a98-52e5-7b48-b9bd-1bffeb4ca40b","01990a84-c4ee-73c2-a87b-ff46a7d3dde5","2025-09-02_09h23.11.735",NA,NA,555.463,555.463,555.463,555.814,NA,NA,NA,NA,NA,NA,NA,TRUE,1,0.715,552.464,555.463,NA,NA,NA,NA,NA,180,27,0,12,12,96,1,2,13,"likert"
"6D87F2B153954ACC8A746A48872AE6B1",1,"01990a98-52e5-7b48-b9bd-1bffeb4ca40b","01990a84-c4ee-73c2-a87b-ff46a7d3dde5","2025-09-02_09h23.11.735",NA,NA,558.814,558.814,558.814,559.159,NA,NA,NA,NA,NA,NA,NA,TRUE,1,1.089,555.815,558.814,NA,NA,NA,NA,NA,200,47,0,13,13,106,1,2,14,"likert"
"6D87F2B153954ACC8A746A48872AE6B1",1,"01990a98-52e5-7b48-b9bd-1bffeb4ca40b","01990a84-c4ee-73c2-a87b-ff46a7d3dde5","2025-09-02_09h23.11.735",NA,NA,562.159,562.159,562.159,562.511,NA,NA,NA,NA,NA,NA,NA,TRUE,4,1.125,559.16,562.159,NA,NA,NA,NA,NA,14,25,0,14,14,18,1,2,15,"likert"
"6D87F2B153954ACC8A746A48872AE6B1",1,"01990a98-52e5-7b48-b9bd-1bffeb4ca40b","01990a84-c4ee-73c2-a87b-ff46a7d3dde5","2025-09-02_09h23.11.735",NA,NA,565.511,565.511,565.511,565.862,NA,NA,NA,NA,NA,NA,NA,TRUE,4,1.055,562.512,565.511,NA,NA,NA,NA,NA,25,33,0,15,15,33,1,2,16,"likert"
"6D87F2B153954ACC8A746A48872AE6B1",1,"01990a98-52e5-7b48-b9bd-1bffeb4ca40b","01990a84-c4ee-73c2-a87b-ff46a7d3dde5","2025-09-02_09h23.11.735",NA,NA,568.862,568.862,568.862,569.213,NA,NA,NA,NA,NA,NA,NA,TRUE,1,0.71,565.865,568.862,NA,NA,NA,NA,NA,21,29,0,16,16,26,1,2,17,"likert"
"6D87F2B153954ACC8A746A48872AE6B1",1,"01990a98-52e5-7b48-b9bd-1bffeb4ca40b","01990a84-c4ee-73c2-a87b-ff46a7d3dde5","2025-09-02_09h23.11.735",NA,NA,572.213,572.213,572.213,572.564,NA,NA,NA,NA,NA,NA,NA,TRUE,1,1.103,569.214,572.213,NA,NA,NA,NA,NA,60,33,0,17,17,67,1,2,18,"likert"
"6D87F2B153954ACC8A746A48872AE6B1",1,"01990a98-52e5-7b48-b9bd-1bffeb4ca40b","01990a84-c4ee-73c2-a87b-ff46a7d3dde5","2025-09-02_09h23.11.735",NA,NA,575.563,575.564,575.564,575.909,NA,NA,NA,NA,NA,NA,NA,TRUE,1,1.651,572.565,575.563,NA,NA,NA,NA,NA,200,39,0,18,18,105,1,2,19,"likert"
"6D87F2B153954ACC8A746A48872AE6B1",1,"01990a98-52e5-7b48-b9bd-1bffeb4ca40b","01990a84-c4ee-73c2-a87b-ff46a7d3dde5","2025-09-02_09h23.11.735",NA,NA,578.915,578.915,578.915,579.26,NA,NA,NA,NA,NA,NA,NA,TRUE,4,0.982,575.91,578.915,NA,NA,NA,NA,NA,14,39,0,19,19,23,1,2,20,"likert"
"6D87F2B153954ACC8A746A48872AE6B1",1,"01990a98-52e5-7b48-b9bd-1bffeb4ca40b","01990a84-c4ee-73c2-a87b-ff46a7d3dde5","2025-09-02_09h23.11.735",NA,NA,582.26,582.26,582.26,582.611,NA,NA,NA,NA,NA,NA,NA,TRUE,4,1.303,579.261,582.26,NA,NA,NA,NA,NA,25,46,0,20,20,35,1,2,21,"likert"
"6D87F2B153954ACC8A746A48872AE6B1",1,"01990a98-52e5-7b48-b9bd-1bffeb4ca40b","01990a84-c4ee-73c2-a87b-ff46a7d3dde5","2025-09-02_09h23.11.735",NA,NA,585.611,585.611,585.611,585.963,NA,NA,NA,NA,NA,NA,NA,TRUE,4,1.036,582.612,585.61,NA,NA,NA,NA,NA,40,54,0,21,21,53,1,2,22,"likert"
"6D87F2B153954ACC8A746A48872AE6B1",1,"01990a98-52e5-7b48-b9bd-1bffeb4ca40b","01990a84-c4ee-73c2-a87b-ff46a7d3dde5","2025-09-02_09h23.11.735",NA,NA,588.963,588.963,588.963,589.313,NA,NA,NA,NA,NA,NA,NA,TRUE,1,1.271,585.963,588.962,NA,NA,NA,NA,NA,30,30,0,22,22,45,1,2,23,"likert"
"6D87F2B153954ACC8A746A48872AE6B1",1,"01990a98-52e5-7b48-b9bd-1bffeb4ca40b","01990a84-c4ee-73c2-a87b-ff46a7d3dde5","2025-09-02_09h23.11.735",NA,NA,592.314,592.314,592.314,592.665,NA,NA,NA,NA,NA,NA,NA,TRUE,1,1.74,589.314,592.313,NA,NA,NA,NA,NA,10,26,0,23,23,7,1,2,24,"likert"
"6D87F2B153954ACC8A746A48872AE6B1",1,"01990a98-52e5-7b48-b9bd-1bffeb4ca40b","01990a84-c4ee-73c2-a87b-ff46a7d3dde5","2025-09-02_09h23.11.735",NA,NA,595.665,595.665,595.665,596.009,NA,NA,NA,NA,NA,NA,NA,TRUE,1,1.572,592.666,595.664,NA,NA,NA,NA,NA,21,30,0,24,24,27,1,2,25,"likert"
"6D87F2B153954ACC8A746A48872AE6B1",1,"01990a98-52e5-7b48-b9bd-1bffeb4ca40b","01990a84-c4ee-73c2-a87b-ff46a7d3dde5","2025-09-02_09h23.11.735",NA,NA,599.01,599.01,599.01,599.361,NA,NA,NA,NA,NA,NA,NA,TRUE,4,1.51,596.01,599.009,NA,NA,NA,NA,NA,21,27,0,25,25,25,1,2,26,"likert"
"6D87F2B153954ACC8A746A48872AE6B1",1,"01990a98-52e5-7b48-b9bd-1bffeb4ca40b","01990a84-c4ee-73c2-a87b-ff46a7d3dde5","2025-09-02_09h23.11.735",NA,NA,602.361,602.361,602.361,602.712,NA,NA,NA,NA,NA,NA,NA,TRUE,1,2.063,599.364,602.361,NA,NA,NA,NA,NA,40,33,0,26,26,49,1,2,27,"likert"
"6D87F2B153954ACC8A746A48872AE6B1",1,"01990a98-52e5-7b48-b9bd-1bffeb4ca40b","01990a84-c4ee-73c2-a87b-ff46a7d3dde5","2025-09-02_09h23.11.735",NA,NA,605.711,605.712,605.712,606.063,NA,NA,NA,NA,NA,NA,NA,TRUE,4,1.751,602.712,605.711,NA,NA,NA,NA,NA,60,47,0,27,27,70,1,2,28,"likert"
"6D87F2B153954ACC8A746A48872AE6B1",1,"01990a98-52e5-7b48-b9bd-1bffeb4ca40b","01990a84-c4ee-73c2-a87b-ff46a7d3dde5","2025-09-02_09h23.11.735",NA,NA,609.063,609.063,609.063,609.409,NA,NA,NA,NA,NA,NA,NA,TRUE,1,0.952,606.064,609.063,NA,NA,NA,NA,NA,90,40,0,28,28,75,1,2,29,"likert"
"6D87F2B153954ACC8A746A48872AE6B1",1,"01990a98-52e5-7b48-b9bd-1bffeb4ca40b","01990a84-c4ee-73c2-a87b-ff46a7d3dde5","2025-09-02_09h23.11.735",NA,NA,612.414,612.414,612.414,612.759,NA,NA,NA,NA,NA,NA,NA,TRUE,4,1.17,609.409,612.414,NA,NA,NA,NA,NA,30,38,0,29,29,47,1,2,30,"likert"
"6D87F2B153954ACC8A746A48872AE6B1",1,"01990a98-52e5-7b48-b9bd-1bffeb4ca40b","01990a84-c4ee-73c2-a87b-ff46a7d3dde5","2025-09-02_09h23.11.735",NA,NA,615.759,615.759,615.759,616.11,NA,NA,NA,NA,NA,NA,NA,TRUE,1,0.796,612.76,615.759,NA,NA,NA,NA,NA,60,35,0,30,30,68,1,2,31,"likert"
"6D87F2B153954ACC8A746A48872AE6B1",1,"01990a98-52e5-7b48-b9bd-1bffeb4ca40b","01990a84-c4ee-73c2-a87b-ff46a7d3dde5","2025-09-02_09h23.11.735",NA,NA,619.11,619.11,619.11,619.461,NA,NA,NA,NA,NA,NA,NA,TRUE,2,1.547,616.111,619.11,NA,NA,NA,NA,NA,45,31,0,31,31,56,1,2,32,"likert"
"6D87F2B153954ACC8A746A48872AE6B1",1,"01990a98-52e5-7b48-b9bd-1bffeb4ca40b","01990a84-c4ee-73c2-a87b-ff46a7d3dde5","2025-09-02_09h23.11.735",NA,NA,622.462,622.462,622.462,622.813,NA,NA,NA,NA,NA,NA,NA,TRUE,5,1.869,619.462,622.461,NA,NA,NA,NA,NA,40,40,0,32,32,51,1,2,33,"likert"
"6D87F2B153954ACC8A746A48872AE6B1",1,"01990a98-52e5-7b48-b9bd-1bffeb4ca40b","01990a84-c4ee-73c2-a87b-ff46a7d3dde5","2025-09-02_09h23.11.735",NA,NA,625.813,625.813,625.813,626.164,NA,NA,NA,NA,NA,NA,NA,TRUE,1,0.766,622.813,625.813,NA,NA,NA,NA,NA,45,29,0,33,33,55,1,2,34,"likert"
"6D87F2B153954ACC8A746A48872AE6B1",1,"01990a98-52e5-7b48-b9bd-1bffeb4ca40b","01990a84-c4ee-73c2-a87b-ff46a7d3dde5","2025-09-02_09h23.11.735",NA,NA,629.164,629.164,629.164,629.515,NA,NA,NA,NA,NA,NA,NA,TRUE,1,1.186,626.165,629.163,NA,NA,NA,NA,NA,180,35,0,34,34,98,1,2,35,"likert"
"6D87F2B153954ACC8A746A48872AE6B1",1,"01990a98-52e5-7b48-b9bd-1bffeb4ca40b","01990a84-c4ee-73c2-a87b-ff46a7d3dde5","2025-09-02_09h23.11.735",NA,NA,632.509,632.509,632.509,632.86,NA,NA,NA,NA,NA,NA,NA,TRUE,4,1.43,629.515,632.509,NA,NA,NA,NA,NA,45,35,0,35,35,57,1,2,36,"likert"
"6D87F2B153954ACC8A746A48872AE6B1",1,"01990a98-52e5-7b48-b9bd-1bffeb4ca40b","01990a84-c4ee-73c2-a87b-ff46a7d3dde5","2025-09-02_09h23.11.735",NA,NA,635.86,635.86,635.86,636.211,NA,NA,NA,NA,NA,NA,NA,TRUE,1,1.264,632.862,635.859,NA,NA,NA,NA,NA,150,47,0,36,36,94,1,2,37,"likert"
"6D87F2B153954ACC8A746A48872AE6B1",1,"01990a98-52e5-7b48-b9bd-1bffeb4ca40b","01990a84-c4ee-73c2-a87b-ff46a7d3dde5","2025-09-02_09h23.11.735",NA,NA,639.211,639.211,639.211,639.562,NA,NA,NA,NA,NA,NA,NA,TRUE,4,1.368,636.212,639.211,NA,NA,NA,NA,NA,21,32,0,37,37,28,1,2,38,"likert"
"6D87F2B153954ACC8A746A48872AE6B1",1,"01990a98-52e5-7b48-b9bd-1bffeb4ca40b","01990a84-c4ee-73c2-a87b-ff46a7d3dde5","2025-09-02_09h23.11.735",NA,NA,642.562,642.562,642.562,642.913,NA,NA,NA,NA,NA,NA,NA,TRUE,3,2.034,639.563,642.562,NA,NA,NA,NA,NA,180,46,0,38,38,100,1,2,39,"likert"
"6D87F2B153954ACC8A746A48872AE6B1",1,"01990a98-52e5-7b48-b9bd-1bffeb4ca40b","01990a84-c4ee-73c2-a87b-ff46a7d3dde5","2025-09-02_09h23.11.735",NA,NA,645.914,645.914,645.914,646.264,NA,NA,NA,NA,NA,NA,NA,TRUE,5,1.214,642.914,645.913,NA,NA,NA,NA,NA,7,30,0,39,39,3,1,2,40,"likert"
"6D87F2B153954ACC8A746A48872AE6B1",1,"01990a98-52e5-7b48-b9bd-1bffeb4ca40b","01990a84-c4ee-73c2-a87b-ff46a7d3dde5","2025-09-02_09h23.11.735",NA,NA,649.265,649.265,649.265,649.609,NA,NA,NA,NA,NA,NA,NA,TRUE,1,1.485,646.265,649.264,NA,NA,NA,NA,NA,95,47,0,40,40,82,1,2,41,"likert"
"6D87F2B153954ACC8A746A48872AE6B1",1,"01990a98-52e5-7b48-b9bd-1bffeb4ca40b","01990a84-c4ee-73c2-a87b-ff46a7d3dde5","2025-09-02_09h23.11.735",NA,NA,652.609,652.609,652.609,652.961,NA,NA,NA,NA,NA,NA,NA,TRUE,1,1.283,649.61,652.609,NA,NA,NA,NA,NA,30,26,0,41,41,42,1,2,42,"likert"
"6D87F2B153954ACC8A746A48872AE6B1",1,"01990a98-52e5-7b48-b9bd-1bffeb4ca40b","01990a84-c4ee-73c2-a87b-ff46a7d3dde5","2025-09-02_09h23.11.735",NA,NA,655.96,655.96,655.96,656.312,NA,NA,NA,NA,NA,NA,NA,TRUE,4,1.12,652.961,655.96,NA,NA,NA,NA,NA,7,32,0,42,42,4,1,2,43,"likert"
"6D87F2B153954ACC8A746A48872AE6B1",1,"01990a98-52e5-7b48-b9bd-1bffeb4ca40b","01990a84-c4ee-73c2-a87b-ff46a7d3dde5","2025-09-02_09h23.11.735",NA,NA,659.311,659.311,659.311,659.663,NA,NA,NA,NA,NA,NA,NA,TRUE,4,1.766,656.313,659.311,NA,NA,NA,NA,NA,12,31,0,43,43,15,1,2,44,"likert"
"6D87F2B153954ACC8A746A48872AE6B1",1,"01990a98-52e5-7b48-b9bd-1bffeb4ca40b","01990a84-c4ee-73c2-a87b-ff46a7d3dde5","2025-09-02_09h23.11.735",NA,NA,662.662,662.662,662.662,663.014,NA,NA,NA,NA,NA,NA,NA,TRUE,4,1.707,659.664,662.662,NA,NA,NA,NA,NA,10,32,0,44,44,11,1,2,45,"likert"
"6D87F2B153954ACC8A746A48872AE6B1",1,"01990a98-52e5-7b48-b9bd-1bffeb4ca40b","01990a84-c4ee-73c2-a87b-ff46a7d3dde5","2025-09-02_09h23.11.735",NA,NA,666.014,666.014,666.014,666.359,NA,NA,NA,NA,NA,NA,NA,TRUE,2,1.873,663.014,666.013,NA,NA,NA,NA,NA,100,46,0,45,45,88,1,2,46,"likert"
"6D87F2B153954ACC8A746A48872AE6B1",1,"01990a98-52e5-7b48-b9bd-1bffeb4ca40b","01990a84-c4ee-73c2-a87b-ff46a7d3dde5","2025-09-02_09h23.11.735",NA,NA,669.359,669.359,669.359,669.71,NA,NA,NA,NA,NA,NA,NA,TRUE,4,1.926,666.361,669.359,NA,NA,NA,NA,NA,28,46,0,46,46,41,1,2,47,"likert"
"6D87F2B153954ACC8A746A48872AE6B1",1,"01990a98-52e5-7b48-b9bd-1bffeb4ca40b","01990a84-c4ee-73c2-a87b-ff46a7d3dde5","2025-09-02_09h23.11.735",NA,NA,672.71,672.71,672.71,673.061,NA,NA,NA,NA,NA,NA,NA,TRUE,1,2.137,669.711,672.71,NA,NA,NA,NA,NA,40,27,0,47,47,48,1,2,48,"likert"
"6D87F2B153954ACC8A746A48872AE6B1",1,"01990a98-52e5-7b48-b9bd-1bffeb4ca40b","01990a84-c4ee-73c2-a87b-ff46a7d3dde5","2025-09-02_09h23.11.735",NA,NA,676.062,676.062,676.062,676.412,NA,NA,NA,NA,NA,NA,NA,TRUE,1,1.093,673.061,676.062,NA,NA,NA,NA,NA,150,35,0,48,48,92,1,2,49,"likert"
"6D87F2B153954ACC8A746A48872AE6B1",1,"01990a98-52e5-7b48-b9bd-1bffeb4ca40b","01990a84-c4ee-73c2-a87b-ff46a7d3dde5","2025-09-02_09h23.11.735",NA,NA,679.412,679.412,679.412,679.763,NA,NA,NA,NA,NA,NA,NA,TRUE,1,1.269,676.413,679.412,NA,NA,NA,NA,NA,25,35,0,49,49,34,1,2,50,"likert"
"6D87F2B153954ACC8A746A48872AE6B1",1,"01990a98-52e5-7b48-b9bd-1bffeb4ca40b","01990a84-c4ee-73c2-a87b-ff46a7d3dde5","2025-09-02_09h23.11.735",NA,NA,682.763,682.763,682.763,683.115,NA,NA,NA,NA,NA,NA,NA,TRUE,1,1.561,679.764,682.763,NA,NA,NA,NA,NA,180,39,0,50,50,99,1,2,51,"likert"
"6D87F2B153954ACC8A746A48872AE6B1",1,"01990a98-52e5-7b48-b9bd-1bffeb4ca40b","01990a84-c4ee-73c2-a87b-ff46a7d3dde5","2025-09-02_09h23.11.735",NA,NA,686.115,686.115,686.115,686.46,NA,NA,NA,NA,NA,NA,NA,TRUE,4,1.033,683.116,686.114,NA,NA,NA,NA,NA,50,40,0,51,51,63,1,2,52,"likert"
"6D87F2B153954ACC8A746A48872AE6B1",1,"01990a98-52e5-7b48-b9bd-1bffeb4ca40b","01990a84-c4ee-73c2-a87b-ff46a7d3dde5","2025-09-02_09h23.11.735",NA,NA,689.46,689.46,689.46,689.81,NA,NA,NA,NA,NA,NA,NA,TRUE,1,0.826,686.46,689.46,NA,NA,NA,NA,NA,12,35,0,52,52,17,1,2,53,"likert"
"6D87F2B153954ACC8A746A48872AE6B1",1,"01990a98-52e5-7b48-b9bd-1bffeb4ca40b","01990a84-c4ee-73c2-a87b-ff46a7d3dde5","2025-09-02_09h23.11.735",NA,NA,692.81,692.81,692.81,693.162,NA,NA,NA,NA,NA,NA,NA,TRUE,1,0.822,689.811,692.81,NA,NA,NA,NA,NA,95,31,0,53,53,78,1,2,54,"likert"
"6D87F2B153954ACC8A746A48872AE6B1",1,"01990a98-52e5-7b48-b9bd-1bffeb4ca40b","01990a84-c4ee-73c2-a87b-ff46a7d3dde5","2025-09-02_09h23.11.735",NA,NA,696.162,696.162,696.162,696.513,NA,NA,NA,NA,NA,NA,NA,TRUE,5,0.974,693.162,696.162,NA,NA,NA,NA,NA,7,35,0,54,54,5,1,2,55,"likert"
"6D87F2B153954ACC8A746A48872AE6B1",1,"01990a98-52e5-7b48-b9bd-1bffeb4ca40b","01990a84-c4ee-73c2-a87b-ff46a7d3dde5","2025-09-02_09h23.11.735",NA,NA,699.513,699.513,699.513,699.864,NA,NA,NA,NA,NA,NA,NA,TRUE,3,1.8,696.514,699.513,NA,NA,NA,NA,NA,14,35,0,55,55,22,1,2,56,"likert"
"6D87F2B153954ACC8A746A48872AE6B1",1,"01990a98-52e5-7b48-b9bd-1bffeb4ca40b","01990a84-c4ee-73c2-a87b-ff46a7d3dde5","2025-09-02_09h23.11.735",NA,NA,702.864,702.864,702.864,703.209,NA,NA,NA,NA,NA,NA,NA,TRUE,3,1.843,699.866,702.863,NA,NA,NA,NA,NA,180,54,0,56,56,101,1,2,57,"likert"
"6D87F2B153954ACC8A746A48872AE6B1",1,"01990a98-52e5-7b48-b9bd-1bffeb4ca40b","01990a84-c4ee-73c2-a87b-ff46a7d3dde5","2025-09-02_09h23.11.735",NA,NA,706.215,706.216,706.216,706.56,NA,NA,NA,NA,NA,NA,NA,TRUE,1,1.127,703.21,706.215,NA,NA,NA,NA,NA,45,26,0,57,57,54,1,2,58,"likert"
"6D87F2B153954ACC8A746A48872AE6B1",1,"01990a98-52e5-7b48-b9bd-1bffeb4ca40b","01990a84-c4ee-73c2-a87b-ff46a7d3dde5","2025-09-02_09h23.11.735",NA,NA,709.559,709.56,709.56,709.912,NA,NA,NA,NA,NA,NA,NA,TRUE,5,1.477,706.561,709.559,NA,NA,NA,NA,NA,60,54,0,58,58,71,1,2,59,"likert"
"6D87F2B153954ACC8A746A48872AE6B1",1,"01990a98-52e5-7b48-b9bd-1bffeb4ca40b","01990a84-c4ee-73c2-a87b-ff46a7d3dde5","2025-09-02_09h23.11.735",NA,NA,712.911,712.911,712.911,713.262,NA,NA,NA,NA,NA,NA,NA,TRUE,4,1.173,709.913,712.911,NA,NA,NA,NA,NA,40,47,0,59,59,52,1,2,60,"likert"
"6D87F2B153954ACC8A746A48872AE6B1",1,"01990a98-52e5-7b48-b9bd-1bffeb4ca40b","01990a84-c4ee-73c2-a87b-ff46a7d3dde5","2025-09-02_09h23.11.735",NA,NA,716.262,716.262,716.262,716.614,NA,NA,NA,NA,NA,NA,NA,TRUE,1,1.049,713.263,716.262,NA,NA,NA,NA,NA,28,26,0,60,60,36,1,2,61,"likert"
"6D87F2B153954ACC8A746A48872AE6B1",1,"01990a98-52e5-7b48-b9bd-1bffeb4ca40b","01990a84-c4ee-73c2-a87b-ff46a7d3dde5","2025-09-02_09h23.11.735",NA,NA,719.614,719.614,719.614,719.959,NA,NA,NA,NA,NA,NA,NA,TRUE,4,1.283,716.614,719.613,NA,NA,NA,NA,NA,12,33,0,61,61,16,1,2,62,"likert"
"6D87F2B153954ACC8A746A48872AE6B1",1,"01990a98-52e5-7b48-b9bd-1bffeb4ca40b","01990a84-c4ee-73c2-a87b-ff46a7d3dde5","2025-09-02_09h23.11.735",NA,NA,722.965,722.965,722.965,723.31,NA,NA,NA,NA,NA,NA,NA,TRUE,1,0.774,719.959,722.964,NA,NA,NA,NA,NA,200,35,0,62,62,104,1,2,63,"likert"
"6D87F2B153954ACC8A746A48872AE6B1",1,"01990a98-52e5-7b48-b9bd-1bffeb4ca40b","01990a84-c4ee-73c2-a87b-ff46a7d3dde5","2025-09-02_09h23.11.735",NA,NA,726.309,726.309,726.309,726.661,NA,NA,NA,NA,NA,NA,NA,TRUE,3,2.074,723.311,726.309,NA,NA,NA,NA,NA,150,54,0,63,63,95,1,2,64,"likert"
"6D87F2B153954ACC8A746A48872AE6B1",1,"01990a98-52e5-7b48-b9bd-1bffeb4ca40b","01990a84-c4ee-73c2-a87b-ff46a7d3dde5","2025-09-02_09h23.11.735",NA,NA,729.661,729.661,729.661,730.012,NA,NA,NA,NA,NA,NA,NA,TRUE,4,1.628,726.662,729.66,NA,NA,NA,NA,NA,7,26,0,64,64,1,1,2,65,"likert"
"6D87F2B153954ACC8A746A48872AE6B1",1,"01990a98-52e5-7b48-b9bd-1bffeb4ca40b","01990a84-c4ee-73c2-a87b-ff46a7d3dde5","2025-09-02_09h23.11.735",NA,NA,733.013,733.013,733.013,733.363,NA,NA,NA,NA,NA,NA,NA,TRUE,1,0.962,730.013,733.013,NA,NA,NA,NA,NA,14,28,0,65,65,20,1,2,66,"likert"
"6D87F2B153954ACC8A746A48872AE6B1",1,"01990a98-52e5-7b48-b9bd-1bffeb4ca40b","01990a84-c4ee-73c2-a87b-ff46a7d3dde5","2025-09-02_09h23.11.735",NA,NA,736.363,736.363,736.363,736.715,NA,NA,NA,NA,NA,NA,NA,TRUE,1,1.613,733.366,736.363,NA,NA,NA,NA,NA,60,40,0,66,66,69,1,2,67,"likert"
"6D87F2B153954ACC8A746A48872AE6B1",1,"01990a98-52e5-7b48-b9bd-1bffeb4ca40b","01990a84-c4ee-73c2-a87b-ff46a7d3dde5","2025-09-02_09h23.11.735",NA,NA,739.714,739.714,739.714,740.059,NA,NA,NA,NA,NA,NA,NA,TRUE,1,1.407,736.715,739.714,NA,NA,NA,NA,NA,25,31,0,67,67,32,1,2,68,"likert"
"6D87F2B153954ACC8A746A48872AE6B1",1,"01990a98-52e5-7b48-b9bd-1bffeb4ca40b","01990a84-c4ee-73c2-a87b-ff46a7d3dde5","2025-09-02_09h23.11.735",NA,NA,743.059,743.06,743.06,743.41,NA,NA,NA,NA,NA,NA,NA,TRUE,1,1.325,740.06,743.059,NA,NA,NA,NA,NA,28,28,0,68,68,37,1,2,69,"likert"
"6D87F2B153954ACC8A746A48872AE6B1",1,"01990a98-52e5-7b48-b9bd-1bffeb4ca40b","01990a84-c4ee-73c2-a87b-ff46a7d3dde5","2025-09-02_09h23.11.735",NA,NA,746.41,746.41,746.41,746.761,NA,NA,NA,NA,NA,NA,NA,TRUE,1,1.306,743.411,746.41,NA,NA,NA,NA,NA,50,35,0,69,69,62,1,2,70,"likert"
"6D87F2B153954ACC8A746A48872AE6B1",1,"01990a98-52e5-7b48-b9bd-1bffeb4ca40b","01990a84-c4ee-73c2-a87b-ff46a7d3dde5","2025-09-02_09h23.11.735",NA,NA,749.761,749.761,749.761,750.113,NA,NA,NA,NA,NA,NA,NA,TRUE,4,1.781,746.762,749.761,NA,NA,NA,NA,NA,90,46,0,70,70,76,1,2,71,"likert"
"6D87F2B153954ACC8A746A48872AE6B1",1,"01990a98-52e5-7b48-b9bd-1bffeb4ca40b","01990a84-c4ee-73c2-a87b-ff46a7d3dde5","2025-09-02_09h23.11.735",NA,NA,753.112,753.112,753.112,753.464,NA,NA,NA,NA,NA,NA,NA,TRUE,1,1.552,750.114,753.112,NA,NA,NA,NA,NA,28,32,0,71,71,38,1,2,72,"likert"
"6D87F2B153954ACC8A746A48872AE6B1",1,"01990a98-52e5-7b48-b9bd-1bffeb4ca40b","01990a84-c4ee-73c2-a87b-ff46a7d3dde5","2025-09-02_09h23.11.735",NA,NA,756.464,756.464,756.464,756.809,NA,NA,NA,NA,NA,NA,NA,TRUE,4,1.181,753.465,756.463,NA,NA,NA,NA,NA,10,30,0,72,72,10,1,2,73,"likert"
"6D87F2B153954ACC8A746A48872AE6B1",1,"01990a98-52e5-7b48-b9bd-1bffeb4ca40b","01990a84-c4ee-73c2-a87b-ff46a7d3dde5","2025-09-02_09h23.11.735",NA,NA,759.809,759.809,759.809,760.16,NA,NA,NA,NA,NA,NA,NA,TRUE,1,2.002,756.81,759.809,NA,NA,NA,NA,NA,12,25,0,73,73,12,1,2,74,"likert"
"6D87F2B153954ACC8A746A48872AE6B1",1,"01990a98-52e5-7b48-b9bd-1bffeb4ca40b","01990a84-c4ee-73c2-a87b-ff46a7d3dde5","2025-09-02_09h23.11.735",NA,NA,763.159,763.159,763.159,763.511,NA,NA,NA,NA,NA,NA,NA,TRUE,1,1.327,760.16,763.159,NA,NA,NA,NA,NA,40,35,0,74,74,50,1,2,75,"likert"
"6D87F2B153954ACC8A746A48872AE6B1",1,"01990a98-52e5-7b48-b9bd-1bffeb4ca40b","01990a84-c4ee-73c2-a87b-ff46a7d3dde5","2025-09-02_09h23.11.735",NA,NA,766.512,766.512,766.512,766.862,NA,NA,NA,NA,NA,NA,NA,TRUE,5,1.126,763.511,766.511,NA,NA,NA,NA,NA,100,54,0,75,75,89,1,2,76,"likert"
"6D87F2B153954ACC8A746A48872AE6B1",1,"01990a98-52e5-7b48-b9bd-1bffeb4ca40b","01990a84-c4ee-73c2-a87b-ff46a7d3dde5","2025-09-02_09h23.11.735",NA,NA,769.862,769.862,769.862,770.213,NA,NA,NA,NA,NA,NA,NA,TRUE,1,0.672,766.864,769.862,NA,NA,NA,NA,NA,25,29,0,76,76,31,1,2,77,"likert"
"6D87F2B153954ACC8A746A48872AE6B1",1,"01990a98-52e5-7b48-b9bd-1bffeb4ca40b","01990a84-c4ee-73c2-a87b-ff46a7d3dde5","2025-09-02_09h23.11.735",NA,NA,773.214,773.214,773.214,773.564,NA,NA,NA,NA,NA,NA,NA,TRUE,4,1,770.214,773.213,NA,NA,NA,NA,NA,50,46,0,77,77,64,1,2,78,"likert"
"6D87F2B153954ACC8A746A48872AE6B1",1,"01990a98-52e5-7b48-b9bd-1bffeb4ca40b","01990a84-c4ee-73c2-a87b-ff46a7d3dde5","2025-09-02_09h23.11.735",NA,NA,776.564,776.564,776.564,776.909,NA,NA,NA,NA,NA,NA,NA,TRUE,1,0.852,773.566,776.564,NA,NA,NA,NA,NA,60,29,0,78,78,66,1,2,79,"likert"
"6D87F2B153954ACC8A746A48872AE6B1",1,"01990a98-52e5-7b48-b9bd-1bffeb4ca40b","01990a84-c4ee-73c2-a87b-ff46a7d3dde5","2025-09-02_09h23.11.735",NA,NA,779.909,779.909,779.909,780.26,NA,NA,NA,NA,NA,NA,NA,TRUE,1,1.116,776.911,779.909,NA,NA,NA,NA,NA,200,28,0,79,79,103,1,2,80,"likert"
"6D87F2B153954ACC8A746A48872AE6B1",1,"01990a98-52e5-7b48-b9bd-1bffeb4ca40b","01990a84-c4ee-73c2-a87b-ff46a7d3dde5","2025-09-02_09h23.11.735",NA,NA,783.261,783.261,783.261,783.612,NA,NA,NA,NA,NA,NA,NA,TRUE,4,1.212,780.261,783.26,NA,NA,NA,NA,NA,95,54,0,80,80,83,1,2,81,"likert"
"6D87F2B153954ACC8A746A48872AE6B1",1,"01990a98-52e5-7b48-b9bd-1bffeb4ca40b","01990a84-c4ee-73c2-a87b-ff46a7d3dde5","2025-09-02_09h23.11.735",NA,NA,786.611,786.611,786.611,786.963,NA,NA,NA,NA,NA,NA,NA,TRUE,1,0.684,783.613,786.611,NA,NA,NA,NA,NA,150,33,0,81,81,91,1,2,82,"likert"
"6D87F2B153954ACC8A746A48872AE6B1",1,"01990a98-52e5-7b48-b9bd-1bffeb4ca40b","01990a84-c4ee-73c2-a87b-ff46a7d3dde5","2025-09-02_09h23.11.735",NA,NA,789.963,789.963,789.963,790.314,NA,NA,NA,NA,NA,NA,NA,TRUE,1,0.804,786.963,789.963,NA,NA,NA,NA,NA,21,26,0,82,82,24,1,2,83,"likert"
"6D87F2B153954ACC8A746A48872AE6B1",1,"01990a98-52e5-7b48-b9bd-1bffeb4ca40b","01990a84-c4ee-73c2-a87b-ff46a7d3dde5","2025-09-02_09h23.11.735",NA,NA,793.314,793.314,793.314,793.659,NA,NA,NA,NA,NA,NA,NA,TRUE,1,0.57,790.314,793.314,NA,NA,NA,NA,NA,25,27,0,83,83,30,1,2,84,"likert"
"6D87F2B153954ACC8A746A48872AE6B1",1,"01990a98-52e5-7b48-b9bd-1bffeb4ca40b","01990a84-c4ee-73c2-a87b-ff46a7d3dde5","2025-09-02_09h23.11.735",NA,NA,796.665,796.665,796.665,797.01,NA,NA,NA,NA,NA,NA,NA,TRUE,1,0.944,793.659,796.665,NA,NA,NA,NA,NA,7,25,0,84,84,0,1,2,85,"likert"
"6D87F2B153954ACC8A746A48872AE6B1",1,"01990a98-52e5-7b48-b9bd-1bffeb4ca40b","01990a84-c4ee-73c2-a87b-ff46a7d3dde5","2025-09-02_09h23.11.735",NA,NA,800.01,800.01,800.01,800.361,NA,NA,NA,NA,NA,NA,NA,TRUE,1,0.564,797.012,800.01,NA,NA,NA,NA,NA,150,40,0,85,85,93,1,2,86,"likert"
"6D87F2B153954ACC8A746A48872AE6B1",1,"01990a98-52e5-7b48-b9bd-1bffeb4ca40b","01990a84-c4ee-73c2-a87b-ff46a7d3dde5","2025-09-02_09h23.11.735",NA,NA,803.361,803.361,803.361,803.712,NA,NA,NA,NA,NA,NA,NA,TRUE,4,0.996,800.362,803.361,NA,NA,NA,NA,NA,10,29,0,86,86,9,1,2,87,"likert"
"6D87F2B153954ACC8A746A48872AE6B1",1,"01990a98-52e5-7b48-b9bd-1bffeb4ca40b","01990a84-c4ee-73c2-a87b-ff46a7d3dde5","2025-09-02_09h23.11.735",NA,NA,806.712,806.712,806.712,807.063,NA,NA,NA,NA,NA,NA,NA,TRUE,1,0.723,803.713,806.712,NA,NA,NA,NA,NA,100,39,0,87,87,87,1,2,88,"likert"
"6D87F2B153954ACC8A746A48872AE6B1",1,"01990a98-52e5-7b48-b9bd-1bffeb4ca40b","01990a84-c4ee-73c2-a87b-ff46a7d3dde5","2025-09-02_09h23.11.735",NA,NA,810.063,810.063,810.063,810.415,NA,NA,NA,NA,NA,NA,NA,TRUE,4,1.183,807.064,810.063,NA,NA,NA,NA,NA,21,38,0,88,88,29,1,2,89,"likert"
"6D87F2B153954ACC8A746A48872AE6B1",1,"01990a98-52e5-7b48-b9bd-1bffeb4ca40b","01990a84-c4ee-73c2-a87b-ff46a7d3dde5","2025-09-02_09h23.11.735",NA,NA,813.415,813.415,813.415,813.76,NA,NA,NA,NA,NA,NA,NA,TRUE,1,1.149,810.416,813.415,NA,NA,NA,NA,NA,95,33,0,89,89,79,1,2,90,"likert"
"6D87F2B153954ACC8A746A48872AE6B1",1,"01990a98-52e5-7b48-b9bd-1bffeb4ca40b","01990a84-c4ee-73c2-a87b-ff46a7d3dde5","2025-09-02_09h23.11.735",NA,NA,816.76,816.76,816.76,817.111,NA,NA,NA,NA,NA,NA,NA,TRUE,1,0.684,813.761,816.76,NA,NA,NA,NA,NA,12,26,0,90,90,13,1,2,91,"likert"
"6D87F2B153954ACC8A746A48872AE6B1",1,"01990a98-52e5-7b48-b9bd-1bffeb4ca40b","01990a84-c4ee-73c2-a87b-ff46a7d3dde5","2025-09-02_09h23.11.735",NA,NA,820.111,820.111,820.111,820.462,NA,NA,NA,NA,NA,NA,NA,TRUE,4,1.246,817.112,820.11,NA,NA,NA,NA,NA,45,40,0,91,91,58,1,2,92,"likert"
"6D87F2B153954ACC8A746A48872AE6B1",1,"01990a98-52e5-7b48-b9bd-1bffeb4ca40b","01990a84-c4ee-73c2-a87b-ff46a7d3dde5","2025-09-02_09h23.11.735",NA,NA,823.462,823.462,823.462,823.813,NA,NA,NA,NA,NA,NA,NA,TRUE,4,1.106,820.462,823.462,NA,NA,NA,NA,NA,90,54,0,92,92,77,1,2,93,"likert"
"6D87F2B153954ACC8A746A48872AE6B1",1,"01990a98-52e5-7b48-b9bd-1bffeb4ca40b","01990a84-c4ee-73c2-a87b-ff46a7d3dde5","2025-09-02_09h23.11.735",NA,NA,826.813,826.813,826.813,827.164,NA,NA,NA,NA,NA,NA,NA,TRUE,1,1.583,823.813,826.813,NA,NA,NA,NA,NA,28,39,0,93,93,40,1,2,94,"likert"
"6D87F2B153954ACC8A746A48872AE6B1",1,"01990a98-52e5-7b48-b9bd-1bffeb4ca40b","01990a84-c4ee-73c2-a87b-ff46a7d3dde5","2025-09-02_09h23.11.735",NA,NA,830.164,830.164,830.164,830.509,NA,NA,NA,NA,NA,NA,NA,TRUE,1,1.042,827.165,830.164,NA,NA,NA,NA,NA,95,35,0,94,94,80,1,2,95,"likert"
"6D87F2B153954ACC8A746A48872AE6B1",1,"01990a98-52e5-7b48-b9bd-1bffeb4ca40b","01990a84-c4ee-73c2-a87b-ff46a7d3dde5","2025-09-02_09h23.11.735",NA,NA,833.509,833.51,833.51,833.861,NA,NA,NA,NA,NA,NA,NA,TRUE,4,1.494,830.513,833.509,NA,NA,NA,NA,NA,95,40,0,95,95,81,1,2,96,"likert"
"6D87F2B153954ACC8A746A48872AE6B1",1,"01990a98-52e5-7b48-b9bd-1bffeb4ca40b","01990a84-c4ee-73c2-a87b-ff46a7d3dde5","2025-09-02_09h23.11.735",NA,NA,836.861,836.861,836.861,837.212,NA,NA,NA,NA,NA,NA,NA,TRUE,1,0.559,833.862,836.86,NA,NA,NA,NA,NA,30,27,0,96,96,43,1,2,97,"likert"
"6D87F2B153954ACC8A746A48872AE6B1",1,"01990a98-52e5-7b48-b9bd-1bffeb4ca40b","01990a84-c4ee-73c2-a87b-ff46a7d3dde5","2025-09-02_09h23.11.735",NA,NA,840.212,840.212,840.212,840.562,NA,NA,NA,NA,NA,NA,NA,TRUE,1,0.51,837.212,840.212,NA,NA,NA,NA,NA,150,31,0,97,97,90,1,2,98,"likert"
"6D87F2B153954ACC8A746A48872AE6B1",1,"01990a98-52e5-7b48-b9bd-1bffeb4ca40b","01990a84-c4ee-73c2-a87b-ff46a7d3dde5","2025-09-02_09h23.11.735",NA,NA,843.563,843.563,843.563,843.913,NA,NA,NA,NA,NA,NA,NA,TRUE,1,0.482,840.563,843.563,NA,NA,NA,NA,NA,90,30,0,98,98,73,1,2,99,"likert"
"6D87F2B153954ACC8A746A48872AE6B1",1,"01990a98-52e5-7b48-b9bd-1bffeb4ca40b","01990a84-c4ee-73c2-a87b-ff46a7d3dde5","2025-09-02_09h23.11.735",NA,NA,846.914,846.914,846.914,847.259,NA,NA,NA,NA,NA,NA,NA,TRUE,1,0.447,843.914,846.913,NA,NA,NA,NA,NA,100,26,0,99,99,84,1,2,100,"likert"
"6D87F2B153954ACC8A746A48872AE6B1",1,"01990a98-52e5-7b48-b9bd-1bffeb4ca40b","01990a84-c4ee-73c2-a87b-ff46a7d3dde5","2025-09-02_09h23.11.735",NA,NA,850.259,850.259,850.259,850.61,NA,NA,NA,NA,NA,NA,NA,TRUE,1,0.708,847.26,850.259,NA,NA,NA,NA,NA,10,25,0,100,100,6,1,2,101,"likert"
"6D87F2B153954ACC8A746A48872AE6B1",1,"01990a98-52e5-7b48-b9bd-1bffeb4ca40b","01990a84-c4ee-73c2-a87b-ff46a7d3dde5","2025-09-02_09h23.11.735",NA,NA,853.61,853.61,853.61,853.961,NA,NA,NA,NA,NA,NA,NA,TRUE,1,0.38,850.611,853.61,NA,NA,NA,NA,NA,28,35,0,101,101,39,1,2,102,"likert"
"6D87F2B153954ACC8A746A48872AE6B1",1,"01990a98-52e5-7b48-b9bd-1bffeb4ca40b","01990a84-c4ee-73c2-a87b-ff46a7d3dde5","2025-09-02_09h23.11.735",NA,NA,856.961,856.961,856.961,857.312,NA,NA,NA,NA,NA,NA,NA,TRUE,4,0.77,853.962,856.961,NA,NA,NA,NA,NA,10,27,0,102,102,8,1,2,103,"likert"
"6D87F2B153954ACC8A746A48872AE6B1",1,"01990a98-52e5-7b48-b9bd-1bffeb4ca40b","01990a84-c4ee-73c2-a87b-ff46a7d3dde5","2025-09-02_09h23.11.735",NA,NA,860.311,860.312,860.312,860.663,NA,NA,NA,NA,NA,NA,NA,TRUE,1,1.677,857.313,860.311,NA,NA,NA,NA,NA,100,38,0,103,103,86,1,2,104,"likert"
"6D87F2B153954ACC8A746A48872AE6B1",1,"01990a98-52e5-7b48-b9bd-1bffeb4ca40b","01990a84-c4ee-73c2-a87b-ff46a7d3dde5","2025-09-02_09h23.11.735",NA,NA,863.664,863.664,863.664,864.009,NA,NA,NA,NA,NA,NA,NA,TRUE,1,2.213,860.664,863.663,NA,NA,NA,NA,NA,50,30,0,104,104,61,1,2,105,"likert"
"6D87F2B153954ACC8A746A48872AE6B1",1,"01990a98-52e5-7b48-b9bd-1bffeb4ca40b","01990a84-c4ee-73c2-a87b-ff46a7d3dde5","2025-09-02_09h23.11.735",NA,NA,867.014,867.014,867.014,867.359,NA,NA,NA,NA,NA,NA,NA,TRUE,3,1.922,864.011,867.014,NA,NA,NA,NA,NA,100,31,0,105,105,85,1,2,106,"likert"
"6D87F2B153954ACC8A746A48872AE6B1",1,"01990a98-52e5-7b48-b9bd-1bffeb4ca40b","01990a84-c4ee-73c2-a87b-ff46a7d3dde5","2025-09-02_09h23.11.735",NA,NA,870.359,870.359,870.359,870.71,NA,NA,NA,NA,NA,NA,NA,TRUE,1,0.774,867.36,870.359,NA,NA,NA,NA,NA,180,31,0,106,106,97,1,2,107,"likert"
"6D87F2B153954ACC8A746A48872AE6B1",1,"01990a98-52e5-7b48-b9bd-1bffeb4ca40b","01990a84-c4ee-73c2-a87b-ff46a7d3dde5","2025-09-02_09h23.11.735",NA,NA,873.71,873.71,873.71,874.062,NA,NA,NA,NA,NA,NA,NA,TRUE,3,1.451,870.711,873.71,NA,NA,NA,NA,NA,30,32,0,107,107,46,1,2,108,"likert"
