"participant","session","assignmentId","projectId","date","practiceTrial.started","practiceTrial.stopped","tooLate.started","tooLate.stopped","blank.started","blank.stopped","trials_pract.thisRepN","trials_pract.thisTrialN","trials_pract.thisN","trials_pract.thisIndex","trials_pract.ran","delay_pract","amount_pract","responseMade","key","rt","trial.started","trial.stopped","trials.thisRepN","trials.thisTrialN","trials.thisN","trials.thisIndex","trials.ran","delay","amount","trials_2.thisRepN","trials_2.thisTrialN","trials_2.thisN","trials_2.thisIndex","trials_2.ran","block","trial","taskType"
"71F47EAEE775441E9220F5F965A24448",1,"0198f77c-fee7-7077-afe9-9d3ad2c95a67","0198f768-e4d2-711c-944b-6f03c09216de","2025-08-29_16h23.35.070",77.9413,80.8869,80.8876,81.1366,81.1368,81.2369,0,0,0,4,1,30,40,FALSE,NA,NA,NA,NA,NA,NA,NA,NA,NA,NA,NA,NA,NA,NA,NA,NA,0,1,"likert"
"71F47EAEE775441E9220F5F965A24448",1,"0198f77c-fee7-7077-afe9-9d3ad2c95a67","0198f768-e4d2-711c-944b-6f03c09216de","2025-08-29_16h23.35.070",81.2394,84.2362,84.2364,84.486,84.4862,84.5856,0,1,1,2,1,14,45,FALSE,NA,NA,NA,NA,NA,NA,NA,NA,NA,NA,NA,NA,NA,NA,NA,NA,0,2,"likert"
"71F47EAEE775441E9220F5F965A24448",1,"0198f77c-fee7-7077-afe9-9d3ad2c95a67","0198f768-e4d2-711c-944b-6f03c09216de","2025-08-29_16h23.35.070",84.5873,87.5859,87.586,87.8357,87.8358,87.9357,0,2,2,0,1,7,30,FALSE,NA,NA,NA,NA,NA,NA,NA,NA,NA,NA,NA,NA,NA,NA,NA,NA,0,3,"likert"
"71F47EAEE775441E9220F5F965A24448",1,"0198f77c-fee7-7077-afe9-9d3ad2c95a67","0198f768-e4d2-711c-944b-6f03c09216de","2025-08-29_16h23.35.070",87.937,90.9354,90.9355,90.9356,90.9356,91.2849,0,3,3,3,1,3,27,TRUE,2,2.4795,NA,NA,NA,NA,NA,NA,NA,NA,NA,NA,NA,NA,NA,NA,0,4,"likert"
"71F47EAEE775441E9220F5F965A24448",1,"0198f77c-fee7-7077-afe9-9d3ad2c95a67","0198f768-e4d2-711c-944b-6f03c09216de","2025-08-29_16h23.35.070",91.2856,94.2851,94.2852,94.2853,94.2853,94.6344,0,4,4,1,1,100,50,TRUE,3,2.4651,NA,NA,NA,NA,NA,NA,NA,NA,NA,NA,NA,NA,NA,NA,0,5,"likert"
"71F47EAEE775441E9220F5F965A24448",1,"0198f77c-fee7-7077-afe9-9d3ad2c95a67","0198f768-e4d2-711c-944b-6f03c09216de","2025-08-29_16h23.35.070",NA,NA,124.0495,124.2988,124.2989,124.3986,NA,NA,NA,NA,NA,NA,NA,FALSE,NA,NA,121.0665,124.0493,0,0,0,18,1,14,25,NA,NA,NA,NA,NA,1,1,"likert"
"71F47EAEE775441E9220F5F965A24448",1,"0198f77c-fee7-7077-afe9-9d3ad2c95a67","0198f768-e4d2-711c-944b-6f03c09216de","2025-08-29_16h23.35.070",NA,NA,127.3985,127.6479,127.6479,127.7481,NA,NA,NA,NA,NA,NA,NA,FALSE,NA,NA,124.3999,127.3984,0,1,1,46,1,30,32,NA,NA,NA,NA,NA,1,2,"likert"
"71F47EAEE775441E9220F5F965A24448",1,"0198f77c-fee7-7077-afe9-9d3ad2c95a67","0198f768-e4d2-711c-944b-6f03c09216de","2025-08-29_16h23.35.070",NA,NA,130.7482,130.9985,130.9986,131.0984,NA,NA,NA,NA,NA,NA,NA,FALSE,NA,NA,127.7494,130.748,0,2,2,8,1,10,27,NA,NA,NA,NA,NA,1,3,"likert"
"71F47EAEE775441E9220F5F965A24448",1,"0198f77c-fee7-7077-afe9-9d3ad2c95a67","0198f768-e4d2-711c-944b-6f03c09216de","2025-08-29_16h23.35.070",NA,NA,134.0984,134.0984,134.0984,134.4481,NA,NA,NA,NA,NA,NA,NA,TRUE,4,1.576,131.0997,134.0982,0,3,3,57,1,45,35,NA,NA,NA,NA,NA,1,4,"likert"
"71F47EAEE775441E9220F5F965A24448",1,"0198f77c-fee7-7077-afe9-9d3ad2c95a67","0198f768-e4d2-711c-944b-6f03c09216de","2025-08-29_16h23.35.070",NA,NA,137.4477,137.4478,137.4478,137.797,NA,NA,NA,NA,NA,NA,NA,TRUE,4,0.6928,134.45,137.4476,0,4,4,80,1,95,35,NA,NA,NA,NA,NA,1,5,"likert"
"71F47EAEE775441E9220F5F965A24448",1,"0198f77c-fee7-7077-afe9-9d3ad2c95a67","0198f768-e4d2-711c-944b-6f03c09216de","2025-08-29_16h23.35.070",NA,NA,140.7972,140.7973,140.7973,141.1474,NA,NA,NA,NA,NA,NA,NA,TRUE,1,0.5782,137.7983,140.7969,0,5,5,83,1,95,54,NA,NA,NA,NA,NA,1,6,"likert"
"71F47EAEE775441E9220F5F965A24448",1,"0198f77c-fee7-7077-afe9-9d3ad2c95a67","0198f768-e4d2-711c-944b-6f03c09216de","2025-08-29_16h23.35.070",NA,NA,144.1469,144.3967,144.3969,144.4967,NA,NA,NA,NA,NA,NA,NA,FALSE,NA,NA,141.1486,144.1468,0,6,6,23,1,14,39,NA,NA,NA,NA,NA,1,7,"likert"
"71F47EAEE775441E9220F5F965A24448",1,"0198f77c-fee7-7077-afe9-9d3ad2c95a67","0198f768-e4d2-711c-944b-6f03c09216de","2025-08-29_16h23.35.070",NA,NA,147.4968,147.746,147.746,147.8464,NA,NA,NA,NA,NA,NA,NA,FALSE,NA,NA,144.4985,147.4965,0,7,7,41,1,28,46,NA,NA,NA,NA,NA,1,8,"likert"
"71F47EAEE775441E9220F5F965A24448",1,"0198f77c-fee7-7077-afe9-9d3ad2c95a67","0198f768-e4d2-711c-944b-6f03c09216de","2025-08-29_16h23.35.070",NA,NA,150.8464,150.8464,150.8464,151.1958,NA,NA,NA,NA,NA,NA,NA,TRUE,2,0.4095,147.8477,150.8462,0,8,8,38,1,28,32,NA,NA,NA,NA,NA,1,9,"likert"
"71F47EAEE775441E9220F5F965A24448",1,"0198f77c-fee7-7077-afe9-9d3ad2c95a67","0198f768-e4d2-711c-944b-6f03c09216de","2025-08-29_16h23.35.070",NA,NA,154.1989,154.4452,154.4454,154.5524,NA,NA,NA,NA,NA,NA,NA,FALSE,NA,NA,151.1973,154.1955,0,9,9,60,1,50,27,NA,NA,NA,NA,NA,1,10,"likert"
"71F47EAEE775441E9220F5F965A24448",1,"0198f77c-fee7-7077-afe9-9d3ad2c95a67","0198f768-e4d2-711c-944b-6f03c09216de","2025-08-29_16h23.35.070",NA,NA,157.547,157.5477,157.548,157.895,NA,NA,NA,NA,NA,NA,NA,TRUE,4,2.7995,154.5542,157.5462,0,10,10,100,1,180,46,NA,NA,NA,NA,NA,1,11,"likert"
"71F47EAEE775441E9220F5F965A24448",1,"0198f77c-fee7-7077-afe9-9d3ad2c95a67","0198f768-e4d2-711c-944b-6f03c09216de","2025-08-29_16h23.35.070",NA,NA,160.9019,160.9019,160.902,161.2444,NA,NA,NA,NA,NA,NA,NA,TRUE,1,0.0011,157.8987,160.9018,0,11,11,82,1,95,47,NA,NA,NA,NA,NA,1,12,"likert"
"71F47EAEE775441E9220F5F965A24448",1,"0198f77c-fee7-7077-afe9-9d3ad2c95a67","0198f768-e4d2-711c-944b-6f03c09216de","2025-08-29_16h23.35.070",NA,NA,164.2448,164.2449,164.245,164.5941,NA,NA,NA,NA,NA,NA,NA,TRUE,3,0.1868,161.2483,164.2447,0,12,12,15,1,12,31,NA,NA,NA,NA,NA,1,13,"likert"
"71F47EAEE775441E9220F5F965A24448",1,"0198f77c-fee7-7077-afe9-9d3ad2c95a67","0198f768-e4d2-711c-944b-6f03c09216de","2025-08-29_16h23.35.070",NA,NA,167.5947,167.5948,167.5948,167.9439,NA,NA,NA,NA,NA,NA,NA,TRUE,1,2.7513,164.5983,167.5943,0,13,13,68,1,60,35,NA,NA,NA,NA,NA,1,14,"likert"
"71F47EAEE775441E9220F5F965A24448",1,"0198f77c-fee7-7077-afe9-9d3ad2c95a67","0198f768-e4d2-711c-944b-6f03c09216de","2025-08-29_16h23.35.070",NA,NA,170.9442,171.1941,171.1942,171.2934,NA,NA,NA,NA,NA,NA,NA,FALSE,NA,NA,167.9477,170.944,0,14,14,94,1,150,47,NA,NA,NA,NA,NA,1,15,"likert"
"71F47EAEE775441E9220F5F965A24448",1,"0198f77c-fee7-7077-afe9-9d3ad2c95a67","0198f768-e4d2-711c-944b-6f03c09216de","2025-08-29_16h23.35.070",NA,NA,174.2936,174.2938,174.2938,174.6431,NA,NA,NA,NA,NA,NA,NA,TRUE,5,1.0668,171.2971,174.2935,0,15,15,55,1,45,29,NA,NA,NA,NA,NA,1,16,"likert"
"71F47EAEE775441E9220F5F965A24448",1,"0198f77c-fee7-7077-afe9-9d3ad2c95a67","0198f768-e4d2-711c-944b-6f03c09216de","2025-08-29_16h23.35.070",NA,NA,177.6494,177.6494,177.6494,177.9931,NA,NA,NA,NA,NA,NA,NA,TRUE,1,0.3343,174.6462,177.6493,0,16,16,71,1,60,54,NA,NA,NA,NA,NA,1,17,"likert"
"71F47EAEE775441E9220F5F965A24448",1,"0198f77c-fee7-7077-afe9-9d3ad2c95a67","0198f768-e4d2-711c-944b-6f03c09216de","2025-08-29_16h23.35.070",NA,NA,180.9929,180.9929,180.9929,181.3426,NA,NA,NA,NA,NA,NA,NA,TRUE,1,1.3504,177.997,180.9927,0,17,17,73,1,90,30,NA,NA,NA,NA,NA,1,18,"likert"
"71F47EAEE775441E9220F5F965A24448",1,"0198f77c-fee7-7077-afe9-9d3ad2c95a67","0198f768-e4d2-711c-944b-6f03c09216de","2025-08-29_16h23.35.070",NA,NA,184.3431,184.3432,184.3434,184.6929,NA,NA,NA,NA,NA,NA,NA,TRUE,1,0.5336,181.3463,184.3426,0,18,18,43,1,30,27,NA,NA,NA,NA,NA,1,19,"likert"
"71F47EAEE775441E9220F5F965A24448",1,"0198f77c-fee7-7077-afe9-9d3ad2c95a67","0198f768-e4d2-711c-944b-6f03c09216de","2025-08-29_16h23.35.070",NA,NA,187.6927,187.6929,187.693,188.0482,NA,NA,NA,NA,NA,NA,NA,TRUE,5,1.2263,184.6966,187.692,0,19,19,44,1,30,29,NA,NA,NA,NA,NA,1,20,"likert"
"71F47EAEE775441E9220F5F965A24448",1,"0198f77c-fee7-7077-afe9-9d3ad2c95a67","0198f768-e4d2-711c-944b-6f03c09216de","2025-08-29_16h23.35.070",NA,NA,191.0418,191.042,191.042,191.3916,NA,NA,NA,NA,NA,NA,NA,TRUE,5,0.1901,188.0495,191.0417,0,20,20,30,1,25,27,NA,NA,NA,NA,NA,1,21,"likert"
"71F47EAEE775441E9220F5F965A24448",1,"0198f77c-fee7-7077-afe9-9d3ad2c95a67","0198f768-e4d2-711c-944b-6f03c09216de","2025-08-29_16h23.35.070",NA,NA,194.3917,194.3917,194.3917,194.7423,NA,NA,NA,NA,NA,NA,NA,TRUE,5,0.1515,191.3955,194.3915,0,21,21,28,1,21,32,NA,NA,NA,NA,NA,1,22,"likert"
"71F47EAEE775441E9220F5F965A24448",1,"0198f77c-fee7-7077-afe9-9d3ad2c95a67","0198f768-e4d2-711c-944b-6f03c09216de","2025-08-29_16h23.35.070",NA,NA,197.7445,197.7446,197.7446,198.0916,NA,NA,NA,NA,NA,NA,NA,TRUE,5,2.9551,194.7455,197.744,0,22,22,64,1,50,46,NA,NA,NA,NA,NA,1,23,"likert"
"71F47EAEE775441E9220F5F965A24448",1,"0198f77c-fee7-7077-afe9-9d3ad2c95a67","0198f768-e4d2-711c-944b-6f03c09216de","2025-08-29_16h23.35.070",NA,NA,201.0983,201.0985,201.0985,201.4404,NA,NA,NA,NA,NA,NA,NA,TRUE,1,2.3501,198.0953,201.0982,0,23,23,53,1,40,54,NA,NA,NA,NA,NA,1,24,"likert"
"71F47EAEE775441E9220F5F965A24448",1,"0198f77c-fee7-7077-afe9-9d3ad2c95a67","0198f768-e4d2-711c-944b-6f03c09216de","2025-08-29_16h23.35.070",NA,NA,204.4405,204.4406,204.4407,204.7902,NA,NA,NA,NA,NA,NA,NA,TRUE,5,1.0178,201.4442,204.4402,0,24,24,70,1,60,47,NA,NA,NA,NA,NA,1,25,"likert"
"71F47EAEE775441E9220F5F965A24448",1,"0198f77c-fee7-7077-afe9-9d3ad2c95a67","0198f768-e4d2-711c-944b-6f03c09216de","2025-08-29_16h23.35.070",NA,NA,207.7983,207.7983,207.7984,208.1398,NA,NA,NA,NA,NA,NA,NA,TRUE,5,0.0383,204.7949,207.7981,0,25,25,81,1,95,40,NA,NA,NA,NA,NA,1,26,"likert"
"71F47EAEE775441E9220F5F965A24448",1,"0198f77c-fee7-7077-afe9-9d3ad2c95a67","0198f768-e4d2-711c-944b-6f03c09216de","2025-08-29_16h23.35.070",NA,NA,211.1401,211.1402,211.1402,211.4897,NA,NA,NA,NA,NA,NA,NA,TRUE,5,1.0892,208.1437,211.1399,0,26,26,66,1,60,29,NA,NA,NA,NA,NA,1,27,"likert"
"71F47EAEE775441E9220F5F965A24448",1,"0198f77c-fee7-7077-afe9-9d3ad2c95a67","0198f768-e4d2-711c-944b-6f03c09216de","2025-08-29_16h23.35.070",NA,NA,214.4896,214.4897,214.4897,214.8436,NA,NA,NA,NA,NA,NA,NA,TRUE,5,1.3537,211.4935,214.4895,0,27,27,42,1,30,26,NA,NA,NA,NA,NA,1,28,"likert"
"71F47EAEE775441E9220F5F965A24448",1,"0198f77c-fee7-7077-afe9-9d3ad2c95a67","0198f768-e4d2-711c-944b-6f03c09216de","2025-08-29_16h23.35.070",NA,NA,217.8391,217.8391,217.8391,218.189,NA,NA,NA,NA,NA,NA,NA,TRUE,1,1.6184,214.8448,217.8389,0,28,28,24,1,21,26,NA,NA,NA,NA,NA,1,29,"likert"
"71F47EAEE775441E9220F5F965A24448",1,"0198f77c-fee7-7077-afe9-9d3ad2c95a67","0198f768-e4d2-711c-944b-6f03c09216de","2025-08-29_16h23.35.070",NA,NA,221.1892,221.1893,221.1894,221.5384,NA,NA,NA,NA,NA,NA,NA,TRUE,5,0.3842,218.1927,221.189,0,29,29,106,1,200,47,NA,NA,NA,NA,NA,1,30,"likert"
"71F47EAEE775441E9220F5F965A24448",1,"0198f77c-fee7-7077-afe9-9d3ad2c95a67","0198f768-e4d2-711c-944b-6f03c09216de","2025-08-29_16h23.35.070",NA,NA,224.5384,224.5386,224.5387,224.8881,NA,NA,NA,NA,NA,NA,NA,TRUE,1,1.2001,221.542,224.5382,0,30,30,76,1,90,46,NA,NA,NA,NA,NA,1,31,"likert"
"71F47EAEE775441E9220F5F965A24448",1,"0198f77c-fee7-7077-afe9-9d3ad2c95a67","0198f768-e4d2-711c-944b-6f03c09216de","2025-08-29_16h23.35.070",NA,NA,227.8887,227.8887,227.8888,228.2388,NA,NA,NA,NA,NA,NA,NA,TRUE,5,0.6088,224.8919,227.888,0,31,31,67,1,60,33,NA,NA,NA,NA,NA,1,32,"likert"
"71F47EAEE775441E9220F5F965A24448",1,"0198f77c-fee7-7077-afe9-9d3ad2c95a67","0198f768-e4d2-711c-944b-6f03c09216de","2025-08-29_16h23.35.070",NA,NA,231.2386,231.2388,231.2388,231.5879,NA,NA,NA,NA,NA,NA,NA,TRUE,3,0.5188,228.2424,231.2382,0,32,32,39,1,28,35,NA,NA,NA,NA,NA,1,33,"likert"
"71F47EAEE775441E9220F5F965A24448",1,"0198f77c-fee7-7077-afe9-9d3ad2c95a67","0198f768-e4d2-711c-944b-6f03c09216de","2025-08-29_16h23.35.070",NA,NA,234.5877,234.5879,234.588,234.9371,NA,NA,NA,NA,NA,NA,NA,TRUE,1,0.8664,231.5917,234.5872,0,33,33,52,1,40,47,NA,NA,NA,NA,NA,1,34,"likert"
"71F47EAEE775441E9220F5F965A24448",1,"0198f77c-fee7-7077-afe9-9d3ad2c95a67","0198f768-e4d2-711c-944b-6f03c09216de","2025-08-29_16h23.35.070",NA,NA,237.9369,237.9369,237.9369,238.3041,NA,NA,NA,NA,NA,NA,NA,TRUE,5,0.4546,234.9409,237.9367,0,34,34,98,1,180,35,NA,NA,NA,NA,NA,1,35,"likert"
"71F47EAEE775441E9220F5F965A24448",1,"0198f77c-fee7-7077-afe9-9d3ad2c95a67","0198f768-e4d2-711c-944b-6f03c09216de","2025-08-29_16h23.35.070",NA,NA,241.3042,241.3042,241.3042,241.6531,NA,NA,NA,NA,NA,NA,NA,TRUE,2,0.4477,238.305,241.304,0,35,35,54,1,45,26,NA,NA,NA,NA,NA,1,36,"likert"
"71F47EAEE775441E9220F5F965A24448",1,"0198f77c-fee7-7077-afe9-9d3ad2c95a67","0198f768-e4d2-711c-944b-6f03c09216de","2025-08-29_16h23.35.070",NA,NA,244.6532,244.6534,244.6534,245.0029,NA,NA,NA,NA,NA,NA,NA,TRUE,1,0.2942,241.6542,244.6531,0,36,36,78,1,95,31,NA,NA,NA,NA,NA,1,37,"likert"
"71F47EAEE775441E9220F5F965A24448",1,"0198f77c-fee7-7077-afe9-9d3ad2c95a67","0198f768-e4d2-711c-944b-6f03c09216de","2025-08-29_16h23.35.070",NA,NA,248.0026,248.003,248.0031,248.3529,NA,NA,NA,NA,NA,NA,NA,TRUE,1,0.5529,245.0089,248.0025,0,37,37,17,1,12,35,NA,NA,NA,NA,NA,1,38,"likert"
"71F47EAEE775441E9220F5F965A24448",1,"0198f77c-fee7-7077-afe9-9d3ad2c95a67","0198f768-e4d2-711c-944b-6f03c09216de","2025-08-29_16h23.35.070",NA,NA,251.3528,251.3532,251.3533,251.7021,NA,NA,NA,NA,NA,NA,NA,TRUE,1,0.3735,248.3566,251.3526,0,38,38,105,1,200,39,NA,NA,NA,NA,NA,1,39,"likert"
"71F47EAEE775441E9220F5F965A24448",1,"0198f77c-fee7-7077-afe9-9d3ad2c95a67","0198f768-e4d2-711c-944b-6f03c09216de","2025-08-29_16h23.35.070",NA,NA,254.7023,254.7025,254.7026,255.0521,NA,NA,NA,NA,NA,NA,NA,TRUE,5,0.4909,251.7067,254.7019,0,39,39,5,1,7,35,NA,NA,NA,NA,NA,1,40,"likert"
"71F47EAEE775441E9220F5F965A24448",1,"0198f77c-fee7-7077-afe9-9d3ad2c95a67","0198f768-e4d2-711c-944b-6f03c09216de","2025-08-29_16h23.35.070",NA,NA,258.0561,258.0561,258.0561,258.4081,NA,NA,NA,NA,NA,NA,NA,TRUE,3,1.9179,255.0561,258.0559,0,40,40,97,1,180,31,NA,NA,NA,NA,NA,1,41,"likert"
"71F47EAEE775441E9220F5F965A24448",1,"0198f77c-fee7-7077-afe9-9d3ad2c95a67","0198f768-e4d2-711c-944b-6f03c09216de","2025-08-29_16h23.35.070",NA,NA,261.4017,261.4021,261.4022,261.7509,NA,NA,NA,NA,NA,NA,NA,TRUE,3,1.3017,258.4095,261.4016,0,41,41,102,1,200,26,NA,NA,NA,NA,NA,1,42,"likert"
"71F47EAEE775441E9220F5F965A24448",1,"0198f77c-fee7-7077-afe9-9d3ad2c95a67","0198f768-e4d2-711c-944b-6f03c09216de","2025-08-29_16h23.35.070",NA,NA,264.7384,264.7385,264.7386,265.1006,NA,NA,NA,NA,NA,NA,NA,TRUE,5,1.2356,261.7549,264.7383,0,42,42,75,1,90,40,NA,NA,NA,NA,NA,1,43,"likert"
"71F47EAEE775441E9220F5F965A24448",1,"0198f77c-fee7-7077-afe9-9d3ad2c95a67","0198f768-e4d2-711c-944b-6f03c09216de","2025-08-29_16h23.35.070",NA,NA,268.1013,268.1017,268.1018,268.4504,NA,NA,NA,NA,NA,NA,NA,TRUE,1,1.1207,265.1042,268.101,0,43,43,0,1,7,25,NA,NA,NA,NA,NA,1,44,"likert"
"71F47EAEE775441E9220F5F965A24448",1,"0198f77c-fee7-7077-afe9-9d3ad2c95a67","0198f768-e4d2-711c-944b-6f03c09216de","2025-08-29_16h23.35.070",NA,NA,271.4507,271.4508,271.4509,271.8002,NA,NA,NA,NA,NA,NA,NA,TRUE,1,0.4505,268.4544,271.4506,0,44,44,45,1,30,30,NA,NA,NA,NA,NA,1,45,"likert"
"71F47EAEE775441E9220F5F965A24448",1,"0198f77c-fee7-7077-afe9-9d3ad2c95a67","0198f768-e4d2-711c-944b-6f03c09216de","2025-08-29_16h23.35.070",NA,NA,274.8005,274.8007,274.8007,275.1499,NA,NA,NA,NA,NA,NA,NA,TRUE,1,0.7012,271.8038,274.8003,0,45,45,89,1,100,54,NA,NA,NA,NA,NA,1,46,"likert"
"71F47EAEE775441E9220F5F965A24448",1,"0198f77c-fee7-7077-afe9-9d3ad2c95a67","0198f768-e4d2-711c-944b-6f03c09216de","2025-08-29_16h23.35.070",NA,NA,278.1503,278.1504,278.1505,278.4996,NA,NA,NA,NA,NA,NA,NA,TRUE,5,1.5226,275.1536,278.1499,0,46,46,31,1,25,29,NA,NA,NA,NA,NA,1,47,"likert"
"71F47EAEE775441E9220F5F965A24448",1,"0198f77c-fee7-7077-afe9-9d3ad2c95a67","0198f768-e4d2-711c-944b-6f03c09216de","2025-08-29_16h23.35.070",NA,NA,281.4995,281.4997,281.4997,281.8567,NA,NA,NA,NA,NA,NA,NA,TRUE,5,0.4171,278.5033,281.4994,0,47,47,3,1,7,30,NA,NA,NA,NA,NA,1,48,"likert"
"71F47EAEE775441E9220F5F965A24448",1,"0198f77c-fee7-7077-afe9-9d3ad2c95a67","0198f768-e4d2-711c-944b-6f03c09216de","2025-08-29_16h23.35.070",NA,NA,284.8491,284.8491,284.8491,285.199,NA,NA,NA,NA,NA,NA,NA,TRUE,2,1.4016,281.858,284.849,0,48,48,26,1,21,29,NA,NA,NA,NA,NA,1,49,"likert"
"71F47EAEE775441E9220F5F965A24448",1,"0198f77c-fee7-7077-afe9-9d3ad2c95a67","0198f768-e4d2-711c-944b-6f03c09216de","2025-08-29_16h23.35.070",NA,NA,288.1989,288.1991,288.1993,288.5485,NA,NA,NA,NA,NA,NA,NA,TRUE,5,1.8675,285.2025,288.1985,0,49,49,14,1,12,28,NA,NA,NA,NA,NA,1,50,"likert"
"71F47EAEE775441E9220F5F965A24448",1,"0198f77c-fee7-7077-afe9-9d3ad2c95a67","0198f768-e4d2-711c-944b-6f03c09216de","2025-08-29_16h23.35.070",NA,NA,291.5517,291.552,291.552,291.8981,NA,NA,NA,NA,NA,NA,NA,TRUE,2,0.8757,288.5527,291.5493,0,50,50,56,1,45,31,NA,NA,NA,NA,NA,1,51,"likert"
"71F47EAEE775441E9220F5F965A24448",1,"0198f77c-fee7-7077-afe9-9d3ad2c95a67","0198f768-e4d2-711c-944b-6f03c09216de","2025-08-29_16h23.35.070",NA,NA,294.8978,294.898,294.898,295.2483,NA,NA,NA,NA,NA,NA,NA,TRUE,1,0.8334,291.9018,294.8977,0,51,51,2,1,7,28,NA,NA,NA,NA,NA,1,52,"likert"
"71F47EAEE775441E9220F5F965A24448",1,"0198f77c-fee7-7077-afe9-9d3ad2c95a67","0198f768-e4d2-711c-944b-6f03c09216de","2025-08-29_16h23.35.070",NA,NA,298.2484,298.2485,298.2487,298.5973,NA,NA,NA,NA,NA,NA,NA,TRUE,5,0.5168,295.252,298.2475,0,52,52,79,1,95,33,NA,NA,NA,NA,NA,1,53,"likert"
"71F47EAEE775441E9220F5F965A24448",1,"0198f77c-fee7-7077-afe9-9d3ad2c95a67","0198f768-e4d2-711c-944b-6f03c09216de","2025-08-29_16h23.35.070",NA,NA,301.5976,301.5977,301.5978,301.9475,NA,NA,NA,NA,NA,NA,NA,TRUE,1,1.2016,298.6029,301.5972,0,53,53,96,1,180,27,NA,NA,NA,NA,NA,1,54,"likert"
"71F47EAEE775441E9220F5F965A24448",1,"0198f77c-fee7-7077-afe9-9d3ad2c95a67","0198f768-e4d2-711c-944b-6f03c09216de","2025-08-29_16h23.35.070",NA,NA,304.9474,305.1972,305.1973,305.2968,NA,NA,NA,NA,NA,NA,NA,FALSE,NA,NA,301.9513,304.9472,0,54,54,33,1,25,33,NA,NA,NA,NA,NA,1,55,"likert"
"71F47EAEE775441E9220F5F965A24448",1,"0198f77c-fee7-7077-afe9-9d3ad2c95a67","0198f768-e4d2-711c-944b-6f03c09216de","2025-08-29_16h23.35.070",NA,NA,308.297,308.297,308.297,308.6462,NA,NA,NA,NA,NA,NA,NA,TRUE,4,0.9307,305.3004,308.2969,0,55,55,37,1,28,28,NA,NA,NA,NA,NA,1,56,"likert"
"71F47EAEE775441E9220F5F965A24448",1,"0198f77c-fee7-7077-afe9-9d3ad2c95a67","0198f768-e4d2-711c-944b-6f03c09216de","2025-08-29_16h23.35.070",NA,NA,311.6461,311.6462,311.6462,311.9961,NA,NA,NA,NA,NA,NA,NA,TRUE,4,0.5478,308.6505,311.6461,0,56,56,29,1,21,38,NA,NA,NA,NA,NA,1,57,"likert"
"71F47EAEE775441E9220F5F965A24448",1,"0198f77c-fee7-7077-afe9-9d3ad2c95a67","0198f768-e4d2-711c-944b-6f03c09216de","2025-08-29_16h23.35.070",NA,NA,314.996,314.9962,314.9963,315.3528,NA,NA,NA,NA,NA,NA,NA,TRUE,2,0.5002,311.9998,314.9957,0,57,57,72,1,90,26,NA,NA,NA,NA,NA,1,58,"likert"
"71F47EAEE775441E9220F5F965A24448",1,"0198f77c-fee7-7077-afe9-9d3ad2c95a67","0198f768-e4d2-711c-944b-6f03c09216de","2025-08-29_16h23.35.070",NA,NA,318.3498,318.35,318.35,318.6954,NA,NA,NA,NA,NA,NA,NA,TRUE,5,1.9185,315.3547,318.3497,0,58,58,85,1,100,31,NA,NA,NA,NA,NA,1,59,"likert"
"71F47EAEE775441E9220F5F965A24448",1,"0198f77c-fee7-7077-afe9-9d3ad2c95a67","0198f768-e4d2-711c-944b-6f03c09216de","2025-08-29_16h23.35.070",NA,NA,321.6952,321.9453,321.9453,322.045,NA,NA,NA,NA,NA,NA,NA,FALSE,NA,NA,318.6993,321.6951,0,59,59,47,1,30,38,NA,NA,NA,NA,NA,1,60,"likert"
"71F47EAEE775441E9220F5F965A24448",1,"0198f77c-fee7-7077-afe9-9d3ad2c95a67","0198f768-e4d2-711c-944b-6f03c09216de","2025-08-29_16h23.35.070",NA,NA,325.045,325.0451,325.0451,325.3946,NA,NA,NA,NA,NA,NA,NA,TRUE,2,0.6518,322.0501,325.0449,0,60,60,69,1,60,40,NA,NA,NA,NA,NA,1,61,"likert"
"71F47EAEE775441E9220F5F965A24448",1,"0198f77c-fee7-7077-afe9-9d3ad2c95a67","0198f768-e4d2-711c-944b-6f03c09216de","2025-08-29_16h23.35.070",NA,NA,328.4024,328.4026,328.4026,328.7444,NA,NA,NA,NA,NA,NA,NA,TRUE,2,0.723,325.399,328.4022,0,61,61,86,1,100,38,NA,NA,NA,NA,NA,1,62,"likert"
"71F47EAEE775441E9220F5F965A24448",1,"0198f77c-fee7-7077-afe9-9d3ad2c95a67","0198f768-e4d2-711c-944b-6f03c09216de","2025-08-29_16h23.35.070",NA,NA,331.7518,331.7518,331.7518,332.0939,NA,NA,NA,NA,NA,NA,NA,TRUE,3,0.3919,328.7492,331.7516,0,62,62,61,1,50,30,NA,NA,NA,NA,NA,1,63,"likert"
"71F47EAEE775441E9220F5F965A24448",1,"0198f77c-fee7-7077-afe9-9d3ad2c95a67","0198f768-e4d2-711c-944b-6f03c09216de","2025-08-29_16h23.35.070",NA,NA,335.0944,335.0946,335.0947,335.4446,NA,NA,NA,NA,NA,NA,NA,TRUE,4,1.5566,332.0977,335.0939,0,63,63,87,1,100,39,NA,NA,NA,NA,NA,1,64,"likert"
"71F47EAEE775441E9220F5F965A24448",1,"0198f77c-fee7-7077-afe9-9d3ad2c95a67","0198f768-e4d2-711c-944b-6f03c09216de","2025-08-29_16h23.35.070",NA,NA,338.4439,338.4441,338.4443,338.8005,NA,NA,NA,NA,NA,NA,NA,TRUE,2,0.5338,335.4488,338.4434,0,64,64,13,1,12,26,NA,NA,NA,NA,NA,1,65,"likert"
"71F47EAEE775441E9220F5F965A24448",1,"0198f77c-fee7-7077-afe9-9d3ad2c95a67","0198f768-e4d2-711c-944b-6f03c09216de","2025-08-29_16h23.35.070",NA,NA,341.7934,341.7934,341.7934,342.1436,NA,NA,NA,NA,NA,NA,NA,TRUE,2,0.768,338.8018,341.7933,0,65,65,74,1,90,33,NA,NA,NA,NA,NA,1,66,"likert"
"71F47EAEE775441E9220F5F965A24448",1,"0198f77c-fee7-7077-afe9-9d3ad2c95a67","0198f768-e4d2-711c-944b-6f03c09216de","2025-08-29_16h23.35.070",NA,NA,345.1431,345.1432,345.1432,345.493,NA,NA,NA,NA,NA,NA,NA,TRUE,2,0.7326,342.1475,345.143,0,66,66,49,1,40,33,NA,NA,NA,NA,NA,1,67,"likert"
"71F47EAEE775441E9220F5F965A24448",1,"0198f77c-fee7-7077-afe9-9d3ad2c95a67","0198f768-e4d2-711c-944b-6f03c09216de","2025-08-29_16h23.35.070",NA,NA,348.4996,348.4997,348.4997,348.8425,NA,NA,NA,NA,NA,NA,NA,TRUE,1,0.9004,345.4969,348.4995,0,67,67,4,1,7,32,NA,NA,NA,NA,NA,1,68,"likert"
"71F47EAEE775441E9220F5F965A24448",1,"0198f77c-fee7-7077-afe9-9d3ad2c95a67","0198f768-e4d2-711c-944b-6f03c09216de","2025-08-29_16h23.35.070",NA,NA,351.8426,351.8427,351.8428,352.1922,NA,NA,NA,NA,NA,NA,NA,TRUE,2,1.719,348.8466,351.8422,0,68,68,12,1,12,25,NA,NA,NA,NA,NA,1,69,"likert"
"71F47EAEE775441E9220F5F965A24448",1,"0198f77c-fee7-7077-afe9-9d3ad2c95a67","0198f768-e4d2-711c-944b-6f03c09216de","2025-08-29_16h23.35.070",NA,NA,355.1923,355.1924,355.1928,355.5419,NA,NA,NA,NA,NA,NA,NA,TRUE,4,0.2301,352.196,355.192,0,69,69,22,1,14,35,NA,NA,NA,NA,NA,1,70,"likert"
"71F47EAEE775441E9220F5F965A24448",1,"0198f77c-fee7-7077-afe9-9d3ad2c95a67","0198f768-e4d2-711c-944b-6f03c09216de","2025-08-29_16h23.35.070",NA,NA,358.5414,358.5414,358.5414,358.8915,NA,NA,NA,NA,NA,NA,NA,TRUE,5,0.5242,355.5454,358.5413,0,70,70,77,1,90,54,NA,NA,NA,NA,NA,1,71,"likert"
"71F47EAEE775441E9220F5F965A24448",1,"0198f77c-fee7-7077-afe9-9d3ad2c95a67","0198f768-e4d2-711c-944b-6f03c09216de","2025-08-29_16h23.35.070",NA,NA,361.8921,361.8922,361.8924,362.2411,NA,NA,NA,NA,NA,NA,NA,TRUE,2,1.1899,358.8959,361.8916,0,71,71,101,1,180,54,NA,NA,NA,NA,NA,1,72,"likert"
"71F47EAEE775441E9220F5F965A24448",1,"0198f77c-fee7-7077-afe9-9d3ad2c95a67","0198f768-e4d2-711c-944b-6f03c09216de","2025-08-29_16h23.35.070",NA,NA,365.2411,365.2411,365.2411,365.5906,NA,NA,NA,NA,NA,NA,NA,TRUE,1,1.6501,362.2451,365.2409,0,72,72,25,1,21,27,NA,NA,NA,NA,NA,1,73,"likert"
"71F47EAEE775441E9220F5F965A24448",1,"0198f77c-fee7-7077-afe9-9d3ad2c95a67","0198f768-e4d2-711c-944b-6f03c09216de","2025-08-29_16h23.35.070",NA,NA,368.5907,368.5908,368.5909,368.9405,NA,NA,NA,NA,NA,NA,NA,TRUE,4,1.1896,365.5944,368.5904,0,73,73,36,1,28,26,NA,NA,NA,NA,NA,1,74,"likert"
"71F47EAEE775441E9220F5F965A24448",1,"0198f77c-fee7-7077-afe9-9d3ad2c95a67","0198f768-e4d2-711c-944b-6f03c09216de","2025-08-29_16h23.35.070",NA,NA,371.9403,371.9405,371.9405,372.2901,NA,NA,NA,NA,NA,NA,NA,TRUE,2,0.9009,368.9442,371.9402,0,74,74,21,1,14,32,NA,NA,NA,NA,NA,1,75,"likert"
"71F47EAEE775441E9220F5F965A24448",1,"0198f77c-fee7-7077-afe9-9d3ad2c95a67","0198f768-e4d2-711c-944b-6f03c09216de","2025-08-29_16h23.35.070",NA,NA,375.2901,375.2902,375.2902,375.6397,NA,NA,NA,NA,NA,NA,NA,TRUE,1,1.1742,372.2939,375.2899,0,75,75,20,1,14,28,NA,NA,NA,NA,NA,1,76,"likert"
"71F47EAEE775441E9220F5F965A24448",1,"0198f77c-fee7-7077-afe9-9d3ad2c95a67","0198f768-e4d2-711c-944b-6f03c09216de","2025-08-29_16h23.35.070",NA,NA,378.642,378.6424,378.6425,378.9892,NA,NA,NA,NA,NA,NA,NA,TRUE,4,2.658,375.6436,378.6412,0,76,76,51,1,40,40,NA,NA,NA,NA,NA,1,77,"likert"
"71F47EAEE775441E9220F5F965A24448",1,"0198f77c-fee7-7077-afe9-9d3ad2c95a67","0198f768-e4d2-711c-944b-6f03c09216de","2025-08-29_16h23.35.070",NA,NA,381.9901,381.9903,381.9904,382.3388,NA,NA,NA,NA,NA,NA,NA,TRUE,2,1.1694,378.9942,381.9893,0,77,77,19,1,14,26,NA,NA,NA,NA,NA,1,78,"likert"
"71F47EAEE775441E9220F5F965A24448",1,"0198f77c-fee7-7077-afe9-9d3ad2c95a67","0198f768-e4d2-711c-944b-6f03c09216de","2025-08-29_16h23.35.070",NA,NA,385.3393,385.3395,385.3395,385.6886,NA,NA,NA,NA,NA,NA,NA,TRUE,4,1.3513,382.3432,385.3388,0,78,78,84,1,100,26,NA,NA,NA,NA,NA,1,79,"likert"
"71F47EAEE775441E9220F5F965A24448",1,"0198f77c-fee7-7077-afe9-9d3ad2c95a67","0198f768-e4d2-711c-944b-6f03c09216de","2025-08-29_16h23.35.070",NA,NA,388.6893,388.6894,388.6895,389.0383,NA,NA,NA,NA,NA,NA,NA,TRUE,1,1.9661,385.6923,388.6886,0,79,79,88,1,100,46,NA,NA,NA,NA,NA,1,80,"likert"
"71F47EAEE775441E9220F5F965A24448",1,"0198f77c-fee7-7077-afe9-9d3ad2c95a67","0198f768-e4d2-711c-944b-6f03c09216de","2025-08-29_16h23.35.070",NA,NA,392.0395,392.0397,392.0398,392.388,NA,NA,NA,NA,NA,NA,NA,TRUE,2,1.9508,389.0422,392.0389,0,80,80,103,1,200,28,NA,NA,NA,NA,NA,1,81,"likert"
"71F47EAEE775441E9220F5F965A24448",1,"0198f77c-fee7-7077-afe9-9d3ad2c95a67","0198f768-e4d2-711c-944b-6f03c09216de","2025-08-29_16h23.35.070",NA,NA,395.3886,395.3887,395.3889,395.7379,NA,NA,NA,NA,NA,NA,NA,TRUE,4,1.7508,392.3925,395.388,0,81,81,59,1,45,46,NA,NA,NA,NA,NA,1,82,"likert"
"71F47EAEE775441E9220F5F965A24448",1,"0198f77c-fee7-7077-afe9-9d3ad2c95a67","0198f768-e4d2-711c-944b-6f03c09216de","2025-08-29_16h23.35.070",NA,NA,398.7378,398.738,398.738,399.0872,NA,NA,NA,NA,NA,NA,NA,TRUE,2,0.7569,395.742,398.7374,0,82,82,10,1,10,30,NA,NA,NA,NA,NA,1,83,"likert"
"71F47EAEE775441E9220F5F965A24448",1,"0198f77c-fee7-7077-afe9-9d3ad2c95a67","0198f768-e4d2-711c-944b-6f03c09216de","2025-08-29_16h23.35.070",NA,NA,402.0881,402.0882,402.0883,402.4376,NA,NA,NA,NA,NA,NA,NA,TRUE,2,0.5857,399.0911,402.0876,0,83,83,107,1,200,54,NA,NA,NA,NA,NA,1,84,"likert"
"71F47EAEE775441E9220F5F965A24448",1,"0198f77c-fee7-7077-afe9-9d3ad2c95a67","0198f768-e4d2-711c-944b-6f03c09216de","2025-08-29_16h23.35.070",NA,NA,405.4386,405.4388,405.4389,405.8033,NA,NA,NA,NA,NA,NA,NA,TRUE,2,0.6399,402.4416,405.4379,0,84,84,93,1,150,40,NA,NA,NA,NA,NA,1,85,"likert"
"71F47EAEE775441E9220F5F965A24448",1,"0198f77c-fee7-7077-afe9-9d3ad2c95a67","0198f768-e4d2-711c-944b-6f03c09216de","2025-08-29_16h23.35.070",NA,NA,408.8046,408.8049,408.805,409.1534,NA,NA,NA,NA,NA,NA,NA,TRUE,1,1.6174,405.8072,408.8038,0,85,85,99,1,180,39,NA,NA,NA,NA,NA,1,86,"likert"
"71F47EAEE775441E9220F5F965A24448",1,"0198f77c-fee7-7077-afe9-9d3ad2c95a67","0198f768-e4d2-711c-944b-6f03c09216de","2025-08-29_16h23.35.070",NA,NA,412.1536,412.1545,412.1546,412.5031,NA,NA,NA,NA,NA,NA,NA,TRUE,2,1.4674,409.1581,412.1531,0,86,86,9,1,10,29,NA,NA,NA,NA,NA,1,87,"likert"
"71F47EAEE775441E9220F5F965A24448",1,"0198f77c-fee7-7077-afe9-9d3ad2c95a67","0198f768-e4d2-711c-944b-6f03c09216de","2025-08-29_16h23.35.070",NA,NA,415.5028,415.5031,415.5033,415.8527,NA,NA,NA,NA,NA,NA,NA,TRUE,3,0.6008,412.5072,415.5027,0,87,87,6,1,10,25,NA,NA,NA,NA,NA,1,88,"likert"
"71F47EAEE775441E9220F5F965A24448",1,"0198f77c-fee7-7077-afe9-9d3ad2c95a67","0198f768-e4d2-711c-944b-6f03c09216de","2025-08-29_16h23.35.070",NA,NA,418.8528,419.1023,419.1024,419.2024,NA,NA,NA,NA,NA,NA,NA,FALSE,NA,NA,415.8562,418.8521,0,88,88,11,1,10,32,NA,NA,NA,NA,NA,1,89,"likert"
"71F47EAEE775441E9220F5F965A24448",1,"0198f77c-fee7-7077-afe9-9d3ad2c95a67","0198f768-e4d2-711c-944b-6f03c09216de","2025-08-29_16h23.35.070",NA,NA,422.2016,422.2017,422.2017,422.5517,NA,NA,NA,NA,NA,NA,NA,TRUE,3,0.5099,419.2065,422.2015,0,89,89,40,1,28,39,NA,NA,NA,NA,NA,1,90,"likert"
"71F47EAEE775441E9220F5F965A24448",1,"0198f77c-fee7-7077-afe9-9d3ad2c95a67","0198f768-e4d2-711c-944b-6f03c09216de","2025-08-29_16h23.35.070",NA,NA,425.5514,425.5517,425.5518,425.901,NA,NA,NA,NA,NA,NA,NA,TRUE,4,0.2714,422.5551,425.5512,0,90,90,104,1,200,35,NA,NA,NA,NA,NA,1,91,"likert"
"71F47EAEE775441E9220F5F965A24448",1,"0198f77c-fee7-7077-afe9-9d3ad2c95a67","0198f768-e4d2-711c-944b-6f03c09216de","2025-08-29_16h23.35.070",NA,NA,428.901,428.9015,428.9018,429.251,NA,NA,NA,NA,NA,NA,NA,TRUE,4,1.5568,425.9048,428.9009,0,91,91,27,1,21,30,NA,NA,NA,NA,NA,1,92,"likert"
"71F47EAEE775441E9220F5F965A24448",1,"0198f77c-fee7-7077-afe9-9d3ad2c95a67","0198f768-e4d2-711c-944b-6f03c09216de","2025-08-29_16h23.35.070",NA,NA,432.2514,432.252,432.2521,432.6006,NA,NA,NA,NA,NA,NA,NA,TRUE,2,1.3347,429.2545,432.2507,0,92,92,90,1,150,31,NA,NA,NA,NA,NA,1,93,"likert"
"71F47EAEE775441E9220F5F965A24448",1,"0198f77c-fee7-7077-afe9-9d3ad2c95a67","0198f768-e4d2-711c-944b-6f03c09216de","2025-08-29_16h23.35.070",NA,NA,435.6014,435.6016,435.6018,435.95,NA,NA,NA,NA,NA,NA,NA,TRUE,4,0.2345,432.6048,435.6008,0,93,93,35,1,25,46,NA,NA,NA,NA,NA,1,94,"likert"
"71F47EAEE775441E9220F5F965A24448",1,"0198f77c-fee7-7077-afe9-9d3ad2c95a67","0198f768-e4d2-711c-944b-6f03c09216de","2025-08-29_16h23.35.070",NA,NA,438.9402,438.9402,438.9402,439.2999,NA,NA,NA,NA,NA,NA,NA,TRUE,2,0.3538,435.9533,438.9401,0,94,94,34,1,25,35,NA,NA,NA,NA,NA,1,95,"likert"
"71F47EAEE775441E9220F5F965A24448",1,"0198f77c-fee7-7077-afe9-9d3ad2c95a67","0198f768-e4d2-711c-944b-6f03c09216de","2025-08-29_16h23.35.070",NA,NA,442.2999,442.3,442.3001,442.6499,NA,NA,NA,NA,NA,NA,NA,TRUE,5,1.3687,439.3039,442.2998,0,95,95,50,1,40,35,NA,NA,NA,NA,NA,1,96,"likert"
"71F47EAEE775441E9220F5F965A24448",1,"0198f77c-fee7-7077-afe9-9d3ad2c95a67","0198f768-e4d2-711c-944b-6f03c09216de","2025-08-29_16h23.35.070",NA,NA,445.6502,445.6509,445.651,445.9999,NA,NA,NA,NA,NA,NA,NA,TRUE,4,0.3499,442.6535,445.6497,0,96,96,58,1,45,40,NA,NA,NA,NA,NA,1,97,"likert"
"71F47EAEE775441E9220F5F965A24448",1,"0198f77c-fee7-7077-afe9-9d3ad2c95a67","0198f768-e4d2-711c-944b-6f03c09216de","2025-08-29_16h23.35.070",NA,NA,448.9992,448.9994,448.9995,449.3488,NA,NA,NA,NA,NA,NA,NA,TRUE,4,0.518,446.0027,448.9989,0,97,97,48,1,40,27,NA,NA,NA,NA,NA,1,98,"likert"
"71F47EAEE775441E9220F5F965A24448",1,"0198f77c-fee7-7077-afe9-9d3ad2c95a67","0198f768-e4d2-711c-944b-6f03c09216de","2025-08-29_16h23.35.070",NA,NA,452.3488,452.3489,452.3489,452.6988,NA,NA,NA,NA,NA,NA,NA,TRUE,1,0.7028,449.3523,452.3487,0,98,98,92,1,150,35,NA,NA,NA,NA,NA,1,99,"likert"
"71F47EAEE775441E9220F5F965A24448",1,"0198f77c-fee7-7077-afe9-9d3ad2c95a67","0198f768-e4d2-711c-944b-6f03c09216de","2025-08-29_16h23.35.070",NA,NA,455.7005,455.7008,455.7009,456.0482,NA,NA,NA,NA,NA,NA,NA,TRUE,2,0.4743,452.7025,455.6998,0,99,99,63,1,50,40,NA,NA,NA,NA,NA,1,100,"likert"
"71F47EAEE775441E9220F5F965A24448",1,"0198f77c-fee7-7077-afe9-9d3ad2c95a67","0198f768-e4d2-711c-944b-6f03c09216de","2025-08-29_16h23.35.070",NA,NA,459.049,459.0492,459.0493,459.3978,NA,NA,NA,NA,NA,NA,NA,TRUE,4,0.9848,456.0518,459.0484,0,100,100,16,1,12,33,NA,NA,NA,NA,NA,1,101,"likert"
"71F47EAEE775441E9220F5F965A24448",1,"0198f77c-fee7-7077-afe9-9d3ad2c95a67","0198f768-e4d2-711c-944b-6f03c09216de","2025-08-29_16h23.35.070",NA,NA,462.3984,462.3986,462.3987,462.7476,NA,NA,NA,NA,NA,NA,NA,TRUE,3,1.0341,459.4018,462.3981,0,101,101,7,1,10,26,NA,NA,NA,NA,NA,1,102,"likert"
"71F47EAEE775441E9220F5F965A24448",1,"0198f77c-fee7-7077-afe9-9d3ad2c95a67","0198f768-e4d2-711c-944b-6f03c09216de","2025-08-29_16h23.35.070",NA,NA,465.7476,465.7479,465.748,466.0973,NA,NA,NA,NA,NA,NA,NA,TRUE,3,1.2019,462.7511,465.7474,0,102,102,95,1,150,54,NA,NA,NA,NA,NA,1,103,"likert"
"71F47EAEE775441E9220F5F965A24448",1,"0198f77c-fee7-7077-afe9-9d3ad2c95a67","0198f768-e4d2-711c-944b-6f03c09216de","2025-08-29_16h23.35.070",NA,NA,469.0984,469.3387,469.3388,469.4468,NA,NA,NA,NA,NA,NA,NA,FALSE,NA,NA,466.1014,469.0977,0,103,103,32,1,25,31,NA,NA,NA,NA,NA,1,104,"likert"
"71F47EAEE775441E9220F5F965A24448",1,"0198f77c-fee7-7077-afe9-9d3ad2c95a67","0198f768-e4d2-711c-944b-6f03c09216de","2025-08-29_16h23.35.070",NA,NA,472.448,472.4481,472.4482,472.7964,NA,NA,NA,NA,NA,NA,NA,TRUE,2,0.0346,469.451,472.4474,0,104,104,65,1,50,54,NA,NA,NA,NA,NA,1,105,"likert"
"71F47EAEE775441E9220F5F965A24448",1,"0198f77c-fee7-7077-afe9-9d3ad2c95a67","0198f768-e4d2-711c-944b-6f03c09216de","2025-08-29_16h23.35.070",NA,NA,475.7968,475.7968,475.7969,476.1462,NA,NA,NA,NA,NA,NA,NA,TRUE,5,0.7564,472.8004,475.7968,0,105,105,1,1,7,26,NA,NA,NA,NA,NA,1,106,"likert"
"71F47EAEE775441E9220F5F965A24448",1,"0198f77c-fee7-7077-afe9-9d3ad2c95a67","0198f768-e4d2-711c-944b-6f03c09216de","2025-08-29_16h23.35.070",NA,NA,479.1488,479.1491,479.1493,479.496,NA,NA,NA,NA,NA,NA,NA,TRUE,1,0.6045,476.1499,479.1459,0,106,106,62,1,50,35,NA,NA,NA,NA,NA,1,107,"likert"
"71F47EAEE775441E9220F5F965A24448",1,"0198f77c-fee7-7077-afe9-9d3ad2c95a67","0198f768-e4d2-711c-944b-6f03c09216de","2025-08-29_16h23.35.070",NA,NA,482.4958,482.4959,482.4959,482.8459,NA,NA,NA,NA,NA,NA,NA,TRUE,2,1.1371,479.5006,482.4958,0,107,107,91,1,150,33,NA,NA,NA,NA,NA,1,108,"likert"
"71F47EAEE775441E9220F5F965A24448",1,"0198f77c-fee7-7077-afe9-9d3ad2c95a67","0198f768-e4d2-711c-944b-6f03c09216de","2025-08-29_16h23.35.070",NA,NA,529.8587,529.859,529.8592,530.2075,NA,NA,NA,NA,NA,NA,NA,TRUE,1,1.0837,526.8731,529.8579,NA,NA,NA,NA,NA,50,40,0,0,0,63,1,2,1,"likert"
"71F47EAEE775441E9220F5F965A24448",1,"0198f77c-fee7-7077-afe9-9d3ad2c95a67","0198f768-e4d2-711c-944b-6f03c09216de","2025-08-29_16h23.35.070",NA,NA,533.2081,533.2082,533.2083,533.557,NA,NA,NA,NA,NA,NA,NA,TRUE,3,1.15,530.2113,533.2076,NA,NA,NA,NA,NA,150,31,0,1,1,90,1,2,2,"likert"
"71F47EAEE775441E9220F5F965A24448",1,"0198f77c-fee7-7077-afe9-9d3ad2c95a67","0198f768-e4d2-711c-944b-6f03c09216de","2025-08-29_16h23.35.070",NA,NA,536.5578,536.558,536.5581,536.9074,NA,NA,NA,NA,NA,NA,NA,TRUE,3,1.6341,533.5609,536.5574,NA,NA,NA,NA,NA,95,33,0,2,2,79,1,2,3,"likert"
"71F47EAEE775441E9220F5F965A24448",1,"0198f77c-fee7-7077-afe9-9d3ad2c95a67","0198f768-e4d2-711c-944b-6f03c09216de","2025-08-29_16h23.35.070",NA,NA,539.9071,540.1571,540.1574,540.2568,NA,NA,NA,NA,NA,NA,NA,FALSE,NA,NA,536.911,539.907,NA,NA,NA,NA,NA,10,26,0,3,3,7,1,2,4,"likert"
"71F47EAEE775441E9220F5F965A24448",1,"0198f77c-fee7-7077-afe9-9d3ad2c95a67","0198f768-e4d2-711c-944b-6f03c09216de","2025-08-29_16h23.35.070",NA,NA,543.2566,543.2567,543.2568,543.6061,NA,NA,NA,NA,NA,NA,NA,TRUE,4,0.7498,540.2606,543.2565,NA,NA,NA,NA,NA,12,33,0,4,4,16,1,2,5,"likert"
"71F47EAEE775441E9220F5F965A24448",1,"0198f77c-fee7-7077-afe9-9d3ad2c95a67","0198f768-e4d2-711c-944b-6f03c09216de","2025-08-29_16h23.35.070",NA,NA,546.6067,546.6068,546.6069,546.9557,NA,NA,NA,NA,NA,NA,NA,TRUE,2,1.2008,543.6099,546.6063,NA,NA,NA,NA,NA,90,30,0,5,5,73,1,2,6,"likert"
"71F47EAEE775441E9220F5F965A24448",1,"0198f77c-fee7-7077-afe9-9d3ad2c95a67","0198f768-e4d2-711c-944b-6f03c09216de","2025-08-29_16h23.35.070",NA,NA,549.9559,549.9562,549.9563,550.3057,NA,NA,NA,NA,NA,NA,NA,TRUE,1,1.3892,546.9596,549.9555,NA,NA,NA,NA,NA,180,35,0,6,6,98,1,2,7,"likert"
"71F47EAEE775441E9220F5F965A24448",1,"0198f77c-fee7-7077-afe9-9d3ad2c95a67","0198f768-e4d2-711c-944b-6f03c09216de","2025-08-29_16h23.35.070",NA,NA,553.3056,553.3056,553.3058,553.6553,NA,NA,NA,NA,NA,NA,NA,TRUE,1,0.4834,550.3094,553.3055,NA,NA,NA,NA,NA,14,35,0,7,7,22,1,2,8,"likert"
"71F47EAEE775441E9220F5F965A24448",1,"0198f77c-fee7-7077-afe9-9d3ad2c95a67","0198f768-e4d2-711c-944b-6f03c09216de","2025-08-29_16h23.35.070",NA,NA,556.6619,556.6619,556.6619,557.0048,NA,NA,NA,NA,NA,NA,NA,TRUE,5,0.4236,553.6593,556.6618,NA,NA,NA,NA,NA,10,32,0,8,8,11,1,2,9,"likert"
"71F47EAEE775441E9220F5F965A24448",1,"0198f77c-fee7-7077-afe9-9d3ad2c95a67","0198f768-e4d2-711c-944b-6f03c09216de","2025-08-29_16h23.35.070",NA,NA,560.006,560.0062,560.0062,560.3616,NA,NA,NA,NA,NA,NA,NA,TRUE,1,0.3052,557.0085,560.0054,NA,NA,NA,NA,NA,12,25,0,9,9,12,1,2,10,"likert"
"71F47EAEE775441E9220F5F965A24448",1,"0198f77c-fee7-7077-afe9-9d3ad2c95a67","0198f768-e4d2-711c-944b-6f03c09216de","2025-08-29_16h23.35.070",NA,NA,563.3614,563.3615,563.3615,563.704,NA,NA,NA,NA,NA,NA,NA,TRUE,5,1.1561,560.3636,563.3612,NA,NA,NA,NA,NA,60,54,0,10,10,71,1,2,11,"likert"
"71F47EAEE775441E9220F5F965A24448",1,"0198f77c-fee7-7077-afe9-9d3ad2c95a67","0198f768-e4d2-711c-944b-6f03c09216de","2025-08-29_16h23.35.070",NA,NA,566.7042,566.7043,566.7044,567.0537,NA,NA,NA,NA,NA,NA,NA,TRUE,1,0.8045,563.7075,566.7041,NA,NA,NA,NA,NA,21,27,0,11,11,25,1,2,12,"likert"
"71F47EAEE775441E9220F5F965A24448",1,"0198f77c-fee7-7077-afe9-9d3ad2c95a67","0198f768-e4d2-711c-944b-6f03c09216de","2025-08-29_16h23.35.070",NA,NA,570.0546,570.0548,570.0548,570.4033,NA,NA,NA,NA,NA,NA,NA,TRUE,5,1.1088,567.0576,570.0539,NA,NA,NA,NA,NA,95,54,0,12,12,83,1,2,13,"likert"
"71F47EAEE775441E9220F5F965A24448",1,"0198f77c-fee7-7077-afe9-9d3ad2c95a67","0198f768-e4d2-711c-944b-6f03c09216de","2025-08-29_16h23.35.070",NA,NA,573.4037,573.4038,573.4039,573.7535,NA,NA,NA,NA,NA,NA,NA,TRUE,1,0.5002,570.4071,573.4035,NA,NA,NA,NA,NA,14,39,0,13,13,23,1,2,14,"likert"
"71F47EAEE775441E9220F5F965A24448",1,"0198f77c-fee7-7077-afe9-9d3ad2c95a67","0198f768-e4d2-711c-944b-6f03c09216de","2025-08-29_16h23.35.070",NA,NA,576.7546,576.7548,576.7549,577.1027,NA,NA,NA,NA,NA,NA,NA,TRUE,5,1.7698,573.7574,576.7539,NA,NA,NA,NA,NA,14,32,0,14,14,21,1,2,15,"likert"
"71F47EAEE775441E9220F5F965A24448",1,"0198f77c-fee7-7077-afe9-9d3ad2c95a67","0198f768-e4d2-711c-944b-6f03c09216de","2025-08-29_16h23.35.070",NA,NA,580.1025,580.1028,580.1029,580.4524,NA,NA,NA,NA,NA,NA,NA,TRUE,5,1.1911,577.1069,580.1022,NA,NA,NA,NA,NA,28,46,0,15,15,41,1,2,16,"likert"
"71F47EAEE775441E9220F5F965A24448",1,"0198f77c-fee7-7077-afe9-9d3ad2c95a67","0198f768-e4d2-711c-944b-6f03c09216de","2025-08-29_16h23.35.070",NA,NA,583.4526,583.4528,583.453,583.8019,NA,NA,NA,NA,NA,NA,NA,TRUE,1,0.6004,580.4563,583.4523,NA,NA,NA,NA,NA,45,40,0,16,16,58,1,2,17,"likert"
"71F47EAEE775441E9220F5F965A24448",1,"0198f77c-fee7-7077-afe9-9d3ad2c95a67","0198f768-e4d2-711c-944b-6f03c09216de","2025-08-29_16h23.35.070",NA,NA,586.8024,586.8026,586.8026,587.1518,NA,NA,NA,NA,NA,NA,NA,TRUE,1,2.8839,583.8056,586.8021,NA,NA,NA,NA,NA,100,26,0,17,17,84,1,2,18,"likert"
"71F47EAEE775441E9220F5F965A24448",1,"0198f77c-fee7-7077-afe9-9d3ad2c95a67","0198f768-e4d2-711c-944b-6f03c09216de","2025-08-29_16h23.35.070",NA,NA,590.1516,590.1516,590.1516,590.5018,NA,NA,NA,NA,NA,NA,NA,TRUE,5,1.0883,587.1555,590.1515,NA,NA,NA,NA,NA,180,54,0,18,18,101,1,2,19,"likert"
"71F47EAEE775441E9220F5F965A24448",1,"0198f77c-fee7-7077-afe9-9d3ad2c95a67","0198f768-e4d2-711c-944b-6f03c09216de","2025-08-29_16h23.35.070",NA,NA,593.5079,593.5079,593.508,593.8512,NA,NA,NA,NA,NA,NA,NA,TRUE,1,0.519,590.5053,593.5079,NA,NA,NA,NA,NA,30,38,0,19,19,47,1,2,20,"likert"
"71F47EAEE775441E9220F5F965A24448",1,"0198f77c-fee7-7077-afe9-9d3ad2c95a67","0198f768-e4d2-711c-944b-6f03c09216de","2025-08-29_16h23.35.070",NA,NA,596.8509,596.8509,596.8509,597.201,NA,NA,NA,NA,NA,NA,NA,TRUE,5,0.4414,593.8552,596.8507,NA,NA,NA,NA,NA,30,30,0,20,20,45,1,2,21,"likert"
"71F47EAEE775441E9220F5F965A24448",1,"0198f77c-fee7-7077-afe9-9d3ad2c95a67","0198f768-e4d2-711c-944b-6f03c09216de","2025-08-29_16h23.35.070",NA,NA,600.2006,600.2007,600.2008,600.5508,NA,NA,NA,NA,NA,NA,NA,TRUE,1,0.3594,597.2048,600.2004,NA,NA,NA,NA,NA,90,54,0,21,21,77,1,2,22,"likert"
"71F47EAEE775441E9220F5F965A24448",1,"0198f77c-fee7-7077-afe9-9d3ad2c95a67","0198f768-e4d2-711c-944b-6f03c09216de","2025-08-29_16h23.35.070",NA,NA,603.5522,603.5525,603.5527,603.9,NA,NA,NA,NA,NA,NA,NA,TRUE,1,1.1,600.5548,603.55,NA,NA,NA,NA,NA,100,38,0,22,22,86,1,2,23,"likert"
"71F47EAEE775441E9220F5F965A24448",1,"0198f77c-fee7-7077-afe9-9d3ad2c95a67","0198f768-e4d2-711c-944b-6f03c09216de","2025-08-29_16h23.35.070",NA,NA,606.8998,606.8998,606.8999,607.2496,NA,NA,NA,NA,NA,NA,NA,TRUE,1,1.7678,603.9037,606.8997,NA,NA,NA,NA,NA,7,26,0,23,23,1,1,2,24,"likert"
"71F47EAEE775441E9220F5F965A24448",1,"0198f77c-fee7-7077-afe9-9d3ad2c95a67","0198f768-e4d2-711c-944b-6f03c09216de","2025-08-29_16h23.35.070",NA,NA,610.2495,610.2495,610.2496,610.5991,NA,NA,NA,NA,NA,NA,NA,TRUE,1,1.3177,607.2536,610.2494,NA,NA,NA,NA,NA,100,31,0,24,24,85,1,2,25,"likert"
"71F47EAEE775441E9220F5F965A24448",1,"0198f77c-fee7-7077-afe9-9d3ad2c95a67","0198f768-e4d2-711c-944b-6f03c09216de","2025-08-29_16h23.35.070",NA,NA,613.5991,613.5992,613.5993,613.9566,NA,NA,NA,NA,NA,NA,NA,TRUE,4,0.7076,610.6031,613.599,NA,NA,NA,NA,NA,45,29,0,25,25,55,1,2,26,"likert"
"71F47EAEE775441E9220F5F965A24448",1,"0198f77c-fee7-7077-afe9-9d3ad2c95a67","0198f768-e4d2-711c-944b-6f03c09216de","2025-08-29_16h23.35.070",NA,NA,616.956,616.956,616.956,617.2987,NA,NA,NA,NA,NA,NA,NA,TRUE,2,0.7347,613.9582,616.9559,NA,NA,NA,NA,NA,60,40,0,26,26,69,1,2,27,"likert"
"71F47EAEE775441E9220F5F965A24448",1,"0198f77c-fee7-7077-afe9-9d3ad2c95a67","0198f768-e4d2-711c-944b-6f03c09216de","2025-08-29_16h23.35.070",NA,NA,620.2986,620.2986,620.2986,620.6483,NA,NA,NA,NA,NA,NA,NA,TRUE,2,1.3539,617.3025,620.2985,NA,NA,NA,NA,NA,100,46,0,27,27,88,1,2,28,"likert"
"71F47EAEE775441E9220F5F965A24448",1,"0198f77c-fee7-7077-afe9-9d3ad2c95a67","0198f768-e4d2-711c-944b-6f03c09216de","2025-08-29_16h23.35.070",NA,NA,623.6493,623.6494,623.6496,623.998,NA,NA,NA,NA,NA,NA,NA,TRUE,5,1.2206,620.6525,623.6482,NA,NA,NA,NA,NA,50,35,0,28,28,62,1,2,29,"likert"
"71F47EAEE775441E9220F5F965A24448",1,"0198f77c-fee7-7077-afe9-9d3ad2c95a67","0198f768-e4d2-711c-944b-6f03c09216de","2025-08-29_16h23.35.070",NA,NA,627.0045,627.0045,627.0045,627.3476,NA,NA,NA,NA,NA,NA,NA,TRUE,2,0.6084,624.0013,627.0043,NA,NA,NA,NA,NA,40,54,0,29,29,53,1,2,30,"likert"
"71F47EAEE775441E9220F5F965A24448",1,"0198f77c-fee7-7077-afe9-9d3ad2c95a67","0198f768-e4d2-711c-944b-6f03c09216de","2025-08-29_16h23.35.070",NA,NA,630.3487,630.3488,630.3488,630.698,NA,NA,NA,NA,NA,NA,NA,TRUE,2,0.6161,627.3522,630.3473,NA,NA,NA,NA,NA,50,27,0,30,30,60,1,2,31,"likert"
"71F47EAEE775441E9220F5F965A24448",1,"0198f77c-fee7-7077-afe9-9d3ad2c95a67","0198f768-e4d2-711c-944b-6f03c09216de","2025-08-29_16h23.35.070",NA,NA,633.6979,633.6981,633.6981,634.0508,NA,NA,NA,NA,NA,NA,NA,TRUE,2,0.4831,630.7018,633.6973,NA,NA,NA,NA,NA,28,39,0,31,31,40,1,2,32,"likert"
"71F47EAEE775441E9220F5F965A24448",1,"0198f77c-fee7-7077-afe9-9d3ad2c95a67","0198f768-e4d2-711c-944b-6f03c09216de","2025-08-29_16h23.35.070",NA,NA,637.0485,637.0501,637.0502,637.3973,NA,NA,NA,NA,NA,NA,NA,TRUE,2,0.7078,634.053,637.0474,NA,NA,NA,NA,NA,14,25,0,32,32,18,1,2,33,"likert"
"71F47EAEE775441E9220F5F965A24448",1,"0198f77c-fee7-7077-afe9-9d3ad2c95a67","0198f768-e4d2-711c-944b-6f03c09216de","2025-08-29_16h23.35.070",NA,NA,640.3974,640.3976,640.3976,640.747,NA,NA,NA,NA,NA,NA,NA,TRUE,5,0.434,637.4011,640.3966,NA,NA,NA,NA,NA,150,54,0,33,33,95,1,2,34,"likert"
"71F47EAEE775441E9220F5F965A24448",1,"0198f77c-fee7-7077-afe9-9d3ad2c95a67","0198f768-e4d2-711c-944b-6f03c09216de","2025-08-29_16h23.35.070",NA,NA,643.7463,643.7464,643.7464,644.1127,NA,NA,NA,NA,NA,NA,NA,TRUE,2,0.1873,640.751,643.7462,NA,NA,NA,NA,NA,100,54,0,34,34,89,1,2,35,"likert"
"71F47EAEE775441E9220F5F965A24448",1,"0198f77c-fee7-7077-afe9-9d3ad2c95a67","0198f768-e4d2-711c-944b-6f03c09216de","2025-08-29_16h23.35.070",NA,NA,647.1137,647.1138,647.114,647.4624,NA,NA,NA,NA,NA,NA,NA,TRUE,2,0.1201,644.1168,647.1128,NA,NA,NA,NA,NA,45,26,0,35,35,54,1,2,36,"likert"
"71F47EAEE775441E9220F5F965A24448",1,"0198f77c-fee7-7077-afe9-9d3ad2c95a67","0198f768-e4d2-711c-944b-6f03c09216de","2025-08-29_16h23.35.070",NA,NA,650.4695,650.4696,650.4696,650.8028,NA,NA,NA,NA,NA,NA,NA,TRUE,2,1.2351,647.4675,650.4693,NA,NA,NA,NA,NA,45,35,0,36,36,57,1,2,37,"likert"
"71F47EAEE775441E9220F5F965A24448",1,"0198f77c-fee7-7077-afe9-9d3ad2c95a67","0198f768-e4d2-711c-944b-6f03c09216de","2025-08-29_16h23.35.070",NA,NA,653.8118,653.8119,653.8119,654.1615,NA,NA,NA,NA,NA,NA,NA,TRUE,2,0.3619,650.8052,653.8116,NA,NA,NA,NA,NA,7,28,0,37,37,2,1,2,38,"likert"
"71F47EAEE775441E9220F5F965A24448",1,"0198f77c-fee7-7077-afe9-9d3ad2c95a67","0198f768-e4d2-711c-944b-6f03c09216de","2025-08-29_16h23.35.070",NA,NA,657.1614,657.1617,657.1617,657.5112,NA,NA,NA,NA,NA,NA,NA,TRUE,2,0.6204,654.1654,657.1613,NA,NA,NA,NA,NA,7,30,0,38,38,3,1,2,39,"likert"
"71F47EAEE775441E9220F5F965A24448",1,"0198f77c-fee7-7077-afe9-9d3ad2c95a67","0198f768-e4d2-711c-944b-6f03c09216de","2025-08-29_16h23.35.070",NA,NA,660.519,660.519,660.519,660.8652,NA,NA,NA,NA,NA,NA,NA,TRUE,2,0.6349,657.5158,660.5188,NA,NA,NA,NA,NA,40,47,0,39,39,52,1,2,40,"likert"
"71F47EAEE775441E9220F5F965A24448",1,"0198f77c-fee7-7077-afe9-9d3ad2c95a67","0198f768-e4d2-711c-944b-6f03c09216de","2025-08-29_16h23.35.070",NA,NA,663.861,663.8611,663.8611,664.2179,NA,NA,NA,NA,NA,NA,NA,TRUE,2,0.4249,660.8668,663.8609,NA,NA,NA,NA,NA,25,27,0,40,40,30,1,2,41,"likert"
"71F47EAEE775441E9220F5F965A24448",1,"0198f77c-fee7-7077-afe9-9d3ad2c95a67","0198f768-e4d2-711c-944b-6f03c09216de","2025-08-29_16h23.35.070",NA,NA,667.211,667.2111,667.2111,667.5604,NA,NA,NA,NA,NA,NA,NA,TRUE,2,0.267,664.2186,667.2109,NA,NA,NA,NA,NA,25,35,0,41,41,34,1,2,42,"likert"
"71F47EAEE775441E9220F5F965A24448",1,"0198f77c-fee7-7077-afe9-9d3ad2c95a67","0198f768-e4d2-711c-944b-6f03c09216de","2025-08-29_16h23.35.070",NA,NA,670.5601,670.5602,670.5602,670.9103,NA,NA,NA,NA,NA,NA,NA,TRUE,1,2.9671,667.5649,670.56,NA,NA,NA,NA,NA,12,28,0,42,42,14,1,2,43,"likert"
"71F47EAEE775441E9220F5F965A24448",1,"0198f77c-fee7-7077-afe9-9d3ad2c95a67","0198f768-e4d2-711c-944b-6f03c09216de","2025-08-29_16h23.35.070",NA,NA,673.91,673.9101,673.9102,674.2603,NA,NA,NA,NA,NA,NA,NA,TRUE,1,0.3678,670.9145,673.9098,NA,NA,NA,NA,NA,28,26,0,43,43,36,1,2,44,"likert"
"71F47EAEE775441E9220F5F965A24448",1,"0198f77c-fee7-7077-afe9-9d3ad2c95a67","0198f768-e4d2-711c-944b-6f03c09216de","2025-08-29_16h23.35.070",NA,NA,677.2593,677.2594,677.2594,677.6168,NA,NA,NA,NA,NA,NA,NA,TRUE,1,0.3829,674.264,677.2592,NA,NA,NA,NA,NA,90,26,0,44,44,72,1,2,45,"likert"
"71F47EAEE775441E9220F5F965A24448",1,"0198f77c-fee7-7077-afe9-9d3ad2c95a67","0198f768-e4d2-711c-944b-6f03c09216de","2025-08-29_16h23.35.070",NA,NA,680.6091,680.6094,680.6095,680.9588,NA,NA,NA,NA,NA,NA,NA,TRUE,5,0.8095,677.6179,680.6089,NA,NA,NA,NA,NA,7,35,0,45,45,5,1,2,46,"likert"
"71F47EAEE775441E9220F5F965A24448",1,"0198f77c-fee7-7077-afe9-9d3ad2c95a67","0198f768-e4d2-711c-944b-6f03c09216de","2025-08-29_16h23.35.070",NA,NA,683.9587,683.9587,683.9588,684.3089,NA,NA,NA,NA,NA,NA,NA,TRUE,1,0.5698,680.9623,683.9585,NA,NA,NA,NA,NA,40,40,0,46,46,51,1,2,47,"likert"
"71F47EAEE775441E9220F5F965A24448",1,"0198f77c-fee7-7077-afe9-9d3ad2c95a67","0198f768-e4d2-711c-944b-6f03c09216de","2025-08-29_16h23.35.070",NA,NA,687.3086,687.3086,687.3086,687.6648,NA,NA,NA,NA,NA,NA,NA,TRUE,1,0.569,684.3125,687.3085,NA,NA,NA,NA,NA,180,31,0,47,47,97,1,2,48,"likert"
"71F47EAEE775441E9220F5F965A24448",1,"0198f77c-fee7-7077-afe9-9d3ad2c95a67","0198f768-e4d2-711c-944b-6f03c09216de","2025-08-29_16h23.35.070",NA,NA,690.6581,690.6584,690.6585,691.0078,NA,NA,NA,NA,NA,NA,NA,TRUE,1,0.834,687.6654,690.658,NA,NA,NA,NA,NA,180,39,0,48,48,99,1,2,49,"likert"
"71F47EAEE775441E9220F5F965A24448",1,"0198f77c-fee7-7077-afe9-9d3ad2c95a67","0198f768-e4d2-711c-944b-6f03c09216de","2025-08-29_16h23.35.070",NA,NA,694.0078,694.008,694.008,694.3644,NA,NA,NA,NA,NA,NA,NA,TRUE,1,0.9668,691.0123,694.0076,NA,NA,NA,NA,NA,10,29,0,49,49,9,1,2,50,"likert"
"71F47EAEE775441E9220F5F965A24448",1,"0198f77c-fee7-7077-afe9-9d3ad2c95a67","0198f768-e4d2-711c-944b-6f03c09216de","2025-08-29_16h23.35.070",NA,NA,697.3646,697.3648,697.3653,697.7071,NA,NA,NA,NA,NA,NA,NA,TRUE,1,1.7522,694.3658,697.3645,NA,NA,NA,NA,NA,50,54,0,50,50,65,1,2,51,"likert"
"71F47EAEE775441E9220F5F965A24448",1,"0198f77c-fee7-7077-afe9-9d3ad2c95a67","0198f768-e4d2-711c-944b-6f03c09216de","2025-08-29_16h23.35.070",NA,NA,700.7075,700.7077,700.7077,701.057,NA,NA,NA,NA,NA,NA,NA,TRUE,1,1.4402,697.7112,700.707,NA,NA,NA,NA,NA,28,28,0,51,51,37,1,2,52,"likert"
"71F47EAEE775441E9220F5F965A24448",1,"0198f77c-fee7-7077-afe9-9d3ad2c95a67","0198f768-e4d2-711c-944b-6f03c09216de","2025-08-29_16h23.35.070",NA,NA,704.0572,704.0573,704.0574,704.4066,NA,NA,NA,NA,NA,NA,NA,TRUE,5,0.4847,701.0615,704.0566,NA,NA,NA,NA,NA,21,29,0,52,52,26,1,2,53,"likert"
"71F47EAEE775441E9220F5F965A24448",1,"0198f77c-fee7-7077-afe9-9d3ad2c95a67","0198f768-e4d2-711c-944b-6f03c09216de","2025-08-29_16h23.35.070",NA,NA,707.4063,707.4063,707.4063,707.756,NA,NA,NA,NA,NA,NA,NA,TRUE,1,1.8002,704.4105,707.4062,NA,NA,NA,NA,NA,21,30,0,53,53,27,1,2,54,"likert"
"71F47EAEE775441E9220F5F965A24448",1,"0198f77c-fee7-7077-afe9-9d3ad2c95a67","0198f768-e4d2-711c-944b-6f03c09216de","2025-08-29_16h23.35.070",NA,NA,710.7563,710.7564,710.7564,711.1059,NA,NA,NA,NA,NA,NA,NA,TRUE,1,0.6679,707.7597,710.7562,NA,NA,NA,NA,NA,150,35,0,54,54,92,1,2,55,"likert"
"71F47EAEE775441E9220F5F965A24448",1,"0198f77c-fee7-7077-afe9-9d3ad2c95a67","0198f768-e4d2-711c-944b-6f03c09216de","2025-08-29_16h23.35.070",NA,NA,714.1056,714.1057,714.1059,714.4557,NA,NA,NA,NA,NA,NA,NA,TRUE,5,0.3384,711.1098,714.1055,NA,NA,NA,NA,NA,45,46,0,55,55,59,1,2,56,"likert"
"71F47EAEE775441E9220F5F965A24448",1,"0198f77c-fee7-7077-afe9-9d3ad2c95a67","0198f768-e4d2-711c-944b-6f03c09216de","2025-08-29_16h23.35.070",NA,NA,717.4581,717.4586,717.4588,717.8053,NA,NA,NA,NA,NA,NA,NA,TRUE,1,0.685,714.4596,717.4555,NA,NA,NA,NA,NA,25,31,0,56,56,32,1,2,57,"likert"
"71F47EAEE775441E9220F5F965A24448",1,"0198f77c-fee7-7077-afe9-9d3ad2c95a67","0198f768-e4d2-711c-944b-6f03c09216de","2025-08-29_16h23.35.070",NA,NA,720.8061,720.8063,720.8064,721.1549,NA,NA,NA,NA,NA,NA,NA,TRUE,1,0.9668,717.8095,720.8054,NA,NA,NA,NA,NA,60,33,0,57,57,67,1,2,58,"likert"
"71F47EAEE775441E9220F5F965A24448",1,"0198f77c-fee7-7077-afe9-9d3ad2c95a67","0198f768-e4d2-711c-944b-6f03c09216de","2025-08-29_16h23.35.070",NA,NA,724.1546,724.1546,724.1546,724.5043,NA,NA,NA,NA,NA,NA,NA,TRUE,1,0.5345,721.1587,724.1544,NA,NA,NA,NA,NA,30,29,0,58,58,44,1,2,59,"likert"
"71F47EAEE775441E9220F5F965A24448",1,"0198f77c-fee7-7077-afe9-9d3ad2c95a67","0198f768-e4d2-711c-944b-6f03c09216de","2025-08-29_16h23.35.070",NA,NA,727.5043,727.5043,727.5044,727.8544,NA,NA,NA,NA,NA,NA,NA,TRUE,4,0.9047,724.5083,727.5041,NA,NA,NA,NA,NA,12,35,0,59,59,17,1,2,60,"likert"
"71F47EAEE775441E9220F5F965A24448",1,"0198f77c-fee7-7077-afe9-9d3ad2c95a67","0198f768-e4d2-711c-944b-6f03c09216de","2025-08-29_16h23.35.070",NA,NA,730.854,730.854,730.854,731.2108,NA,NA,NA,NA,NA,NA,NA,TRUE,1,0.8355,727.8582,730.8539,NA,NA,NA,NA,NA,40,33,0,60,60,49,1,2,61,"likert"
"71F47EAEE775441E9220F5F965A24448",1,"0198f77c-fee7-7077-afe9-9d3ad2c95a67","0198f768-e4d2-711c-944b-6f03c09216de","2025-08-29_16h23.35.070",NA,NA,734.2038,734.2038,734.2038,734.5539,NA,NA,NA,NA,NA,NA,NA,TRUE,1,0.7052,731.2115,734.2036,NA,NA,NA,NA,NA,60,47,0,61,61,70,1,2,62,"likert"
"71F47EAEE775441E9220F5F965A24448",1,"0198f77c-fee7-7077-afe9-9d3ad2c95a67","0198f768-e4d2-711c-944b-6f03c09216de","2025-08-29_16h23.35.070",NA,NA,737.5551,737.5552,737.5552,737.9032,NA,NA,NA,NA,NA,NA,NA,TRUE,5,0.3551,734.5585,737.5544,NA,NA,NA,NA,NA,28,35,0,62,62,39,1,2,63,"likert"
"71F47EAEE775441E9220F5F965A24448",1,"0198f77c-fee7-7077-afe9-9d3ad2c95a67","0198f768-e4d2-711c-944b-6f03c09216de","2025-08-29_16h23.35.070",NA,NA,740.9034,740.9036,740.9036,741.2527,NA,NA,NA,NA,NA,NA,NA,TRUE,1,0.2997,737.9072,740.9029,NA,NA,NA,NA,NA,30,26,0,63,63,42,1,2,64,"likert"
"71F47EAEE775441E9220F5F965A24448",1,"0198f77c-fee7-7077-afe9-9d3ad2c95a67","0198f768-e4d2-711c-944b-6f03c09216de","2025-08-29_16h23.35.070",NA,NA,744.2526,744.253,744.2534,744.6026,NA,NA,NA,NA,NA,NA,NA,TRUE,1,0.3178,741.2567,744.2525,NA,NA,NA,NA,NA,12,26,0,64,64,13,1,2,65,"likert"
"71F47EAEE775441E9220F5F965A24448",1,"0198f77c-fee7-7077-afe9-9d3ad2c95a67","0198f768-e4d2-711c-944b-6f03c09216de","2025-08-29_16h23.35.070",NA,NA,747.6023,747.6025,747.6027,747.958,NA,NA,NA,NA,NA,NA,NA,TRUE,1,0.6724,744.6064,747.6021,NA,NA,NA,NA,NA,95,47,0,65,65,82,1,2,66,"likert"
"71F47EAEE775441E9220F5F965A24448",1,"0198f77c-fee7-7077-afe9-9d3ad2c95a67","0198f768-e4d2-711c-944b-6f03c09216de","2025-08-29_16h23.35.070",NA,NA,750.9519,750.952,750.952,751.302,NA,NA,NA,NA,NA,NA,NA,TRUE,1,1.1887,747.9597,750.9518,NA,NA,NA,NA,NA,14,26,0,66,66,19,1,2,67,"likert"
"71F47EAEE775441E9220F5F965A24448",1,"0198f77c-fee7-7077-afe9-9d3ad2c95a67","0198f768-e4d2-711c-944b-6f03c09216de","2025-08-29_16h23.35.070",NA,NA,754.3016,754.3016,754.3016,754.6514,NA,NA,NA,NA,NA,NA,NA,TRUE,5,1.1525,751.3059,754.3015,NA,NA,NA,NA,NA,90,40,0,67,67,75,1,2,68,"likert"
"71F47EAEE775441E9220F5F965A24448",1,"0198f77c-fee7-7077-afe9-9d3ad2c95a67","0198f768-e4d2-711c-944b-6f03c09216de","2025-08-29_16h23.35.070",NA,NA,757.6516,757.6518,757.6519,758.0011,NA,NA,NA,NA,NA,NA,NA,TRUE,1,0.4688,754.6553,757.6515,NA,NA,NA,NA,NA,30,32,0,68,68,46,1,2,69,"likert"
"71F47EAEE775441E9220F5F965A24448",1,"0198f77c-fee7-7077-afe9-9d3ad2c95a67","0198f768-e4d2-711c-944b-6f03c09216de","2025-08-29_16h23.35.070",NA,NA,761.0021,761.0024,761.0026,761.3507,NA,NA,NA,NA,NA,NA,NA,TRUE,1,0.2157,758.0049,761.0013,NA,NA,NA,NA,NA,100,39,0,69,69,87,1,2,70,"likert"
"71F47EAEE775441E9220F5F965A24448",1,"0198f77c-fee7-7077-afe9-9d3ad2c95a67","0198f768-e4d2-711c-944b-6f03c09216de","2025-08-29_16h23.35.070",NA,NA,764.3507,764.3509,764.3509,764.701,NA,NA,NA,NA,NA,NA,NA,TRUE,5,0.2693,761.3543,764.3507,NA,NA,NA,NA,NA,12,31,0,70,70,15,1,2,71,"likert"
"71F47EAEE775441E9220F5F965A24448",1,"0198f77c-fee7-7077-afe9-9d3ad2c95a67","0198f768-e4d2-711c-944b-6f03c09216de","2025-08-29_16h23.35.070",NA,NA,767.7075,767.7075,767.7075,768.0502,NA,NA,NA,NA,NA,NA,NA,TRUE,5,0.3879,764.7048,767.7074,NA,NA,NA,NA,NA,200,26,0,71,71,102,1,2,72,"likert"
"71F47EAEE775441E9220F5F965A24448",1,"0198f77c-fee7-7077-afe9-9d3ad2c95a67","0198f768-e4d2-711c-944b-6f03c09216de","2025-08-29_16h23.35.070",NA,NA,771.0503,771.0505,771.0505,771.4,NA,NA,NA,NA,NA,NA,NA,TRUE,3,1.7309,768.0543,771.05,NA,NA,NA,NA,NA,180,27,0,72,72,96,1,2,73,"likert"
"71F47EAEE775441E9220F5F965A24448",1,"0198f77c-fee7-7077-afe9-9d3ad2c95a67","0198f768-e4d2-711c-944b-6f03c09216de","2025-08-29_16h23.35.070",NA,NA,774.3995,774.3996,774.3996,774.7497,NA,NA,NA,NA,NA,NA,NA,TRUE,4,0.9676,771.4037,774.3994,NA,NA,NA,NA,NA,40,35,0,73,73,50,1,2,74,"likert"
"71F47EAEE775441E9220F5F965A24448",1,"0198f77c-fee7-7077-afe9-9d3ad2c95a67","0198f768-e4d2-711c-944b-6f03c09216de","2025-08-29_16h23.35.070",NA,NA,777.7496,777.7497,777.7497,778.0992,NA,NA,NA,NA,NA,NA,NA,TRUE,2,0.8051,774.7533,777.7495,NA,NA,NA,NA,NA,60,35,0,74,74,68,1,2,75,"likert"
"71F47EAEE775441E9220F5F965A24448",1,"0198f77c-fee7-7077-afe9-9d3ad2c95a67","0198f768-e4d2-711c-944b-6f03c09216de","2025-08-29_16h23.35.070",NA,NA,781.1001,781.1028,781.1028,781.4495,NA,NA,NA,NA,NA,NA,NA,TRUE,4,0.3339,778.1031,781.0992,NA,NA,NA,NA,NA,95,35,0,75,75,80,1,2,76,"likert"
"71F47EAEE775441E9220F5F965A24448",1,"0198f77c-fee7-7077-afe9-9d3ad2c95a67","0198f768-e4d2-711c-944b-6f03c09216de","2025-08-29_16h23.35.070",NA,NA,784.4572,784.4572,784.4572,784.7985,NA,NA,NA,NA,NA,NA,NA,TRUE,5,1.426,781.4532,784.457,NA,NA,NA,NA,NA,25,29,0,76,76,31,1,2,77,"likert"
"71F47EAEE775441E9220F5F965A24448",1,"0198f77c-fee7-7077-afe9-9d3ad2c95a67","0198f768-e4d2-711c-944b-6f03c09216de","2025-08-29_16h23.35.070",NA,NA,787.7981,787.7982,787.7983,788.148,NA,NA,NA,NA,NA,NA,NA,TRUE,5,1.3743,784.8038,787.7981,NA,NA,NA,NA,NA,21,38,0,77,77,29,1,2,78,"likert"
"71F47EAEE775441E9220F5F965A24448",1,"0198f77c-fee7-7077-afe9-9d3ad2c95a67","0198f768-e4d2-711c-944b-6f03c09216de","2025-08-29_16h23.35.070",NA,NA,791.1546,791.1546,791.1546,791.4977,NA,NA,NA,NA,NA,NA,NA,TRUE,4,0.2191,788.1517,791.1545,NA,NA,NA,NA,NA,90,33,0,78,78,74,1,2,79,"likert"
"71F47EAEE775441E9220F5F965A24448",1,"0198f77c-fee7-7077-afe9-9d3ad2c95a67","0198f768-e4d2-711c-944b-6f03c09216de","2025-08-29_16h23.35.070",NA,NA,794.4976,794.4977,794.4977,794.8477,NA,NA,NA,NA,NA,NA,NA,TRUE,1,1.1358,791.5015,794.4975,NA,NA,NA,NA,NA,200,39,0,79,79,105,1,2,80,"likert"
"71F47EAEE775441E9220F5F965A24448",1,"0198f77c-fee7-7077-afe9-9d3ad2c95a67","0198f768-e4d2-711c-944b-6f03c09216de","2025-08-29_16h23.35.070",NA,NA,797.8481,797.8482,797.8483,798.1974,NA,NA,NA,NA,NA,NA,NA,TRUE,2,2.7342,794.8513,797.8477,NA,NA,NA,NA,NA,200,47,0,80,80,106,1,2,81,"likert"
"71F47EAEE775441E9220F5F965A24448",1,"0198f77c-fee7-7077-afe9-9d3ad2c95a67","0198f768-e4d2-711c-944b-6f03c09216de","2025-08-29_16h23.35.070",NA,NA,801.1973,801.1974,801.1983,801.547,NA,NA,NA,NA,NA,NA,NA,TRUE,2,0.4007,798.2014,801.1971,NA,NA,NA,NA,NA,10,27,0,81,81,8,1,2,82,"likert"
"71F47EAEE775441E9220F5F965A24448",1,"0198f77c-fee7-7077-afe9-9d3ad2c95a67","0198f768-e4d2-711c-944b-6f03c09216de","2025-08-29_16h23.35.070",NA,NA,804.5492,804.5497,804.5499,804.8974,NA,NA,NA,NA,NA,NA,NA,TRUE,1,0.0388,801.5511,804.5485,NA,NA,NA,NA,NA,45,31,0,82,82,56,1,2,83,"likert"
"71F47EAEE775441E9220F5F965A24448",1,"0198f77c-fee7-7077-afe9-9d3ad2c95a67","0198f768-e4d2-711c-944b-6f03c09216de","2025-08-29_16h23.35.070",NA,NA,807.8965,807.8969,807.897,808.263,NA,NA,NA,NA,NA,NA,NA,TRUE,5,0.6317,804.9011,807.8961,NA,NA,NA,NA,NA,150,33,0,83,83,91,1,2,84,"likert"
"71F47EAEE775441E9220F5F965A24448",1,"0198f77c-fee7-7077-afe9-9d3ad2c95a67","0198f768-e4d2-711c-944b-6f03c09216de","2025-08-29_16h23.35.070",NA,NA,811.2631,811.2634,811.2635,811.6124,NA,NA,NA,NA,NA,NA,NA,TRUE,2,0.9015,808.2671,811.263,NA,NA,NA,NA,NA,21,32,0,84,84,28,1,2,85,"likert"
"71F47EAEE775441E9220F5F965A24448",1,"0198f77c-fee7-7077-afe9-9d3ad2c95a67","0198f768-e4d2-711c-944b-6f03c09216de","2025-08-29_16h23.35.070",NA,NA,814.6037,814.6037,814.6037,814.9619,NA,NA,NA,NA,NA,NA,NA,TRUE,5,0.384,811.6159,814.6035,NA,NA,NA,NA,NA,25,46,0,85,85,35,1,2,86,"likert"
"71F47EAEE775441E9220F5F965A24448",1,"0198f77c-fee7-7077-afe9-9d3ad2c95a67","0198f768-e4d2-711c-944b-6f03c09216de","2025-08-29_16h23.35.070",NA,NA,817.9619,817.9619,817.9619,818.312,NA,NA,NA,NA,NA,NA,NA,TRUE,1,1.0055,814.9657,817.9617,NA,NA,NA,NA,NA,150,47,0,86,86,94,1,2,87,"likert"
"71F47EAEE775441E9220F5F965A24448",1,"0198f77c-fee7-7077-afe9-9d3ad2c95a67","0198f768-e4d2-711c-944b-6f03c09216de","2025-08-29_16h23.35.070",NA,NA,821.3195,821.3196,821.3196,821.6613,NA,NA,NA,NA,NA,NA,NA,TRUE,1,1.1044,818.3155,821.3193,NA,NA,NA,NA,NA,25,33,0,87,87,33,1,2,88,"likert"
"71F47EAEE775441E9220F5F965A24448",1,"0198f77c-fee7-7077-afe9-9d3ad2c95a67","0198f768-e4d2-711c-944b-6f03c09216de","2025-08-29_16h23.35.070",NA,NA,824.6684,824.6685,824.6685,825.0109,NA,NA,NA,NA,NA,NA,NA,TRUE,5,0.31,821.6652,824.6683,NA,NA,NA,NA,NA,10,25,0,88,88,6,1,2,89,"likert"
"71F47EAEE775441E9220F5F965A24448",1,"0198f77c-fee7-7077-afe9-9d3ad2c95a67","0198f768-e4d2-711c-944b-6f03c09216de","2025-08-29_16h23.35.070",NA,NA,828.0117,828.0128,828.013,828.3685,NA,NA,NA,NA,NA,NA,NA,TRUE,4,1.1679,825.015,828.011,NA,NA,NA,NA,NA,14,28,0,89,89,20,1,2,90,"likert"
"71F47EAEE775441E9220F5F965A24448",1,"0198f77c-fee7-7077-afe9-9d3ad2c95a67","0198f768-e4d2-711c-944b-6f03c09216de","2025-08-29_16h23.35.070",NA,NA,831.3606,831.361,831.361,831.7177,NA,NA,NA,NA,NA,NA,NA,TRUE,2,1.8181,828.3701,831.3604,NA,NA,NA,NA,NA,50,30,0,90,90,61,1,2,91,"likert"
"71F47EAEE775441E9220F5F965A24448",1,"0198f77c-fee7-7077-afe9-9d3ad2c95a67","0198f768-e4d2-711c-944b-6f03c09216de","2025-08-29_16h23.35.070",NA,NA,834.7102,834.7103,834.7103,835.0505,NA,NA,NA,NA,NA,NA,NA,TRUE,1,2.0331,831.7192,834.71,NA,NA,NA,NA,NA,7,32,0,91,91,4,1,2,92,"likert"
"71F47EAEE775441E9220F5F965A24448",1,"0198f77c-fee7-7077-afe9-9d3ad2c95a67","0198f768-e4d2-711c-944b-6f03c09216de","2025-08-29_16h23.35.070",NA,NA,838.0502,838.0503,838.0503,838.4096,NA,NA,NA,NA,NA,NA,NA,TRUE,1,0.6025,835.0522,838.05,NA,NA,NA,NA,NA,200,35,0,92,92,104,1,2,93,"likert"
"71F47EAEE775441E9220F5F965A24448",1,"0198f77c-fee7-7077-afe9-9d3ad2c95a67","0198f768-e4d2-711c-944b-6f03c09216de","2025-08-29_16h23.35.070",NA,NA,841.4104,841.4109,841.4109,841.7593,NA,NA,NA,NA,NA,NA,NA,TRUE,2,0.7735,838.4135,841.4102,NA,NA,NA,NA,NA,200,28,0,93,93,103,1,2,94,"likert"
"71F47EAEE775441E9220F5F965A24448",1,"0198f77c-fee7-7077-afe9-9d3ad2c95a67","0198f768-e4d2-711c-944b-6f03c09216de","2025-08-29_16h23.35.070",NA,NA,844.7592,844.7593,844.7593,845.0991,NA,NA,NA,NA,NA,NA,NA,TRUE,3,1.8006,841.7628,844.759,NA,NA,NA,NA,NA,150,40,0,94,94,93,1,2,95,"likert"
"71F47EAEE775441E9220F5F965A24448",1,"0198f77c-fee7-7077-afe9-9d3ad2c95a67","0198f768-e4d2-711c-944b-6f03c09216de","2025-08-29_16h23.35.070",NA,NA,848.1088,848.1089,848.109,848.4592,NA,NA,NA,NA,NA,NA,NA,TRUE,1,0.1857,845.0997,848.1087,NA,NA,NA,NA,NA,30,27,0,95,95,43,1,2,96,"likert"
"71F47EAEE775441E9220F5F965A24448",1,"0198f77c-fee7-7077-afe9-9d3ad2c95a67","0198f768-e4d2-711c-944b-6f03c09216de","2025-08-29_16h23.35.070",NA,NA,851.4627,851.4627,851.4627,851.8083,NA,NA,NA,NA,NA,NA,NA,TRUE,4,0.206,848.4629,851.4626,NA,NA,NA,NA,NA,180,46,0,96,96,100,1,2,97,"likert"
"71F47EAEE775441E9220F5F965A24448",1,"0198f77c-fee7-7077-afe9-9d3ad2c95a67","0198f768-e4d2-711c-944b-6f03c09216de","2025-08-29_16h23.35.070",NA,NA,854.8083,854.8083,854.8083,855.1581,NA,NA,NA,NA,NA,NA,NA,TRUE,2,1.0504,851.8123,854.8081,NA,NA,NA,NA,NA,40,27,0,97,97,48,1,2,98,"likert"
"71F47EAEE775441E9220F5F965A24448",1,"0198f77c-fee7-7077-afe9-9d3ad2c95a67","0198f768-e4d2-711c-944b-6f03c09216de","2025-08-29_16h23.35.070",NA,NA,858.1578,858.1579,858.1579,858.508,NA,NA,NA,NA,NA,NA,NA,TRUE,2,0.5729,855.1616,858.1578,NA,NA,NA,NA,NA,90,46,0,98,98,76,1,2,99,"likert"
"71F47EAEE775441E9220F5F965A24448",1,"0198f77c-fee7-7077-afe9-9d3ad2c95a67","0198f768-e4d2-711c-944b-6f03c09216de","2025-08-29_16h23.35.070",NA,NA,861.5088,861.5091,861.5092,861.8574,NA,NA,NA,NA,NA,NA,NA,TRUE,2,0.2342,858.5119,861.5078,NA,NA,NA,NA,NA,10,30,0,99,99,10,1,2,100,"likert"
"71F47EAEE775441E9220F5F965A24448",1,"0198f77c-fee7-7077-afe9-9d3ad2c95a67","0198f768-e4d2-711c-944b-6f03c09216de","2025-08-29_16h23.35.070",NA,NA,864.8572,864.8574,864.8575,865.207,NA,NA,NA,NA,NA,NA,NA,TRUE,4,1.0511,861.8613,864.857,NA,NA,NA,NA,NA,200,54,0,100,100,107,1,2,101,"likert"
"71F47EAEE775441E9220F5F965A24448",1,"0198f77c-fee7-7077-afe9-9d3ad2c95a67","0198f768-e4d2-711c-944b-6f03c09216de","2025-08-29_16h23.35.070",NA,NA,868.2075,868.2076,868.2077,868.5571,NA,NA,NA,NA,NA,NA,NA,TRUE,5,1.4747,865.2106,868.207,NA,NA,NA,NA,NA,95,40,0,101,101,81,1,2,102,"likert"
"71F47EAEE775441E9220F5F965A24448",1,"0198f77c-fee7-7077-afe9-9d3ad2c95a67","0198f768-e4d2-711c-944b-6f03c09216de","2025-08-29_16h23.35.070",NA,NA,871.5577,871.5579,871.5579,871.9066,NA,NA,NA,NA,NA,NA,NA,TRUE,1,0.322,868.5608,871.5569,NA,NA,NA,NA,NA,28,32,0,102,102,38,1,2,103,"likert"
"71F47EAEE775441E9220F5F965A24448",1,"0198f77c-fee7-7077-afe9-9d3ad2c95a67","0198f768-e4d2-711c-944b-6f03c09216de","2025-08-29_16h23.35.070",NA,NA,874.9067,874.9069,874.907,875.2558,NA,NA,NA,NA,NA,NA,NA,TRUE,1,0.4066,871.9103,874.9062,NA,NA,NA,NA,NA,60,29,0,103,103,66,1,2,104,"likert"
"71F47EAEE775441E9220F5F965A24448",1,"0198f77c-fee7-7077-afe9-9d3ad2c95a67","0198f768-e4d2-711c-944b-6f03c09216de","2025-08-29_16h23.35.070",NA,NA,878.2578,878.2582,878.2584,878.6128,NA,NA,NA,NA,NA,NA,NA,TRUE,2,1.7854,875.2595,878.2569,NA,NA,NA,NA,NA,7,25,0,104,104,0,1,2,105,"likert"
"71F47EAEE775441E9220F5F965A24448",1,"0198f77c-fee7-7077-afe9-9d3ad2c95a67","0198f768-e4d2-711c-944b-6f03c09216de","2025-08-29_16h23.35.070",NA,NA,881.6055,881.6057,881.6057,881.9552,NA,NA,NA,NA,NA,NA,NA,TRUE,2,0.3852,878.6138,881.6053,NA,NA,NA,NA,NA,21,26,0,105,105,24,1,2,106,"likert"
"71F47EAEE775441E9220F5F965A24448",1,"0198f77c-fee7-7077-afe9-9d3ad2c95a67","0198f768-e4d2-711c-944b-6f03c09216de","2025-08-29_16h23.35.070",NA,NA,884.9557,884.9558,884.9558,885.3053,NA,NA,NA,NA,NA,NA,NA,TRUE,1,0.3083,881.9589,884.9554,NA,NA,NA,NA,NA,50,46,0,106,106,64,1,2,107,"likert"
"71F47EAEE775441E9220F5F965A24448",1,"0198f77c-fee7-7077-afe9-9d3ad2c95a67","0198f768-e4d2-711c-944b-6f03c09216de","2025-08-29_16h23.35.070",NA,NA,888.305,888.305,888.3051,888.6549,NA,NA,NA,NA,NA,NA,NA,TRUE,1,0.2342,885.3099,888.3048,NA,NA,NA,NA,NA,95,31,0,107,107,78,1,2,108,"likert"
