"participant","session","assignmentId","projectId","date","practiceTrial.started","practiceTrial.stopped","tooLate.started","tooLate.stopped","blank.started","blank.stopped","trials_pract.thisRepN","trials_pract.thisTrialN","trials_pract.thisN","trials_pract.thisIndex","trials_pract.ran","delay_pract","amount_pract","responseMade","key","rt","trial.started","trial.stopped","trials.thisRepN","trials.thisTrialN","trials.thisN","trials.thisIndex","trials.ran","delay","amount","trials_2.thisRepN","trials_2.thisTrialN","trials_2.thisN","trials_2.thisIndex","trials_2.ran","block","trial","taskType"
"75855CF14D7445938636BC9DC9893591",1,"01990a97-dcf5-78ae-972f-b8d437c7e986","01990a84-c4ee-73c2-a87b-ff46a7d3dde5","2025-09-02_08h23.37.954",105.1737,108.1405,108.1414,108.3901,108.3902,108.4899,0,0,0,2,1,14,45,FALSE,NA,NA,NA,NA,NA,NA,NA,NA,NA,NA,NA,NA,NA,NA,NA,NA,0,1,"likert"
"75855CF14D7445938636BC9DC9893591",1,"01990a97-dcf5-78ae-972f-b8d437c7e986","01990a84-c4ee-73c2-a87b-ff46a7d3dde5","2025-09-02_08h23.37.954",108.4931,111.4859,111.4863,111.4863,111.4863,111.8356,0,1,1,3,1,3,27,TRUE,5,1.6621,NA,NA,NA,NA,NA,NA,NA,NA,NA,NA,NA,NA,NA,NA,0,2,"likert"
"75855CF14D7445938636BC9DC9893591",1,"01990a97-dcf5-78ae-972f-b8d437c7e986","01990a84-c4ee-73c2-a87b-ff46a7d3dde5","2025-09-02_08h23.37.954",111.8364,114.8486,114.8488,114.849,114.849,115.198,0,2,2,1,1,100,50,TRUE,5,1.5793,NA,NA,NA,NA,NA,NA,NA,NA,NA,NA,NA,NA,NA,NA,0,3,"likert"
"75855CF14D7445938636BC9DC9893591",1,"01990a97-dcf5-78ae-972f-b8d437c7e986","01990a84-c4ee-73c2-a87b-ff46a7d3dde5","2025-09-02_08h23.37.954",115.2005,118.1945,118.1948,118.1949,118.195,118.544,0,3,3,0,1,7,30,TRUE,5,1.5084,NA,NA,NA,NA,NA,NA,NA,NA,NA,NA,NA,NA,NA,NA,0,4,"likert"
"75855CF14D7445938636BC9DC9893591",1,"01990a97-dcf5-78ae-972f-b8d437c7e986","01990a84-c4ee-73c2-a87b-ff46a7d3dde5","2025-09-02_08h23.37.954",118.5465,121.5401,121.5406,121.5406,121.5406,121.8896,0,4,4,4,1,30,40,TRUE,5,1.5655,NA,NA,NA,NA,NA,NA,NA,NA,NA,NA,NA,NA,NA,NA,0,5,"likert"
"75855CF14D7445938636BC9DC9893591",1,"01990a97-dcf5-78ae-972f-b8d437c7e986","01990a84-c4ee-73c2-a87b-ff46a7d3dde5","2025-09-02_08h23.37.954",NA,NA,172.3948,172.395,172.3953,172.7434,NA,NA,NA,NA,NA,NA,NA,TRUE,1,1.3573,169.4345,172.394,0,0,0,102,1,200,26,NA,NA,NA,NA,NA,1,1,"likert"
"75855CF14D7445938636BC9DC9893591",1,"01990a97-dcf5-78ae-972f-b8d437c7e986","01990a84-c4ee-73c2-a87b-ff46a7d3dde5","2025-09-02_08h23.37.954",NA,NA,175.7399,175.74,175.74,176.089,NA,NA,NA,NA,NA,NA,NA,TRUE,1,1.306,172.746,175.7395,0,1,1,30,1,25,27,NA,NA,NA,NA,NA,1,2,"likert"
"75855CF14D7445938636BC9DC9893591",1,"01990a97-dcf5-78ae-972f-b8d437c7e986","01990a84-c4ee-73c2-a87b-ff46a7d3dde5","2025-09-02_08h23.37.954",NA,NA,179.102,179.1022,179.1022,179.4516,NA,NA,NA,NA,NA,NA,NA,TRUE,3,1.3964,176.0917,179.1019,0,2,2,29,1,21,38,NA,NA,NA,NA,NA,1,3,"likert"
"75855CF14D7445938636BC9DC9893591",1,"01990a97-dcf5-78ae-972f-b8d437c7e986","01990a84-c4ee-73c2-a87b-ff46a7d3dde5","2025-09-02_08h23.37.954",NA,NA,182.4483,182.4484,182.4484,182.7972,NA,NA,NA,NA,NA,NA,NA,TRUE,1,1.6156,179.4541,182.448,0,3,3,100,1,180,46,NA,NA,NA,NA,NA,1,4,"likert"
"75855CF14D7445938636BC9DC9893591",1,"01990a97-dcf5-78ae-972f-b8d437c7e986","01990a84-c4ee-73c2-a87b-ff46a7d3dde5","2025-09-02_08h23.37.954",NA,NA,185.7941,185.7942,185.7942,186.1433,NA,NA,NA,NA,NA,NA,NA,TRUE,1,1.7239,182.7999,185.7938,0,4,4,53,1,40,54,NA,NA,NA,NA,NA,1,5,"likert"
"75855CF14D7445938636BC9DC9893591",1,"01990a97-dcf5-78ae-972f-b8d437c7e986","01990a84-c4ee-73c2-a87b-ff46a7d3dde5","2025-09-02_08h23.37.954",NA,NA,189.14,189.14,189.1401,189.4889,NA,NA,NA,NA,NA,NA,NA,TRUE,1,1.8176,186.1458,189.1396,0,5,5,49,1,40,33,NA,NA,NA,NA,NA,1,6,"likert"
"75855CF14D7445938636BC9DC9893591",1,"01990a97-dcf5-78ae-972f-b8d437c7e986","01990a84-c4ee-73c2-a87b-ff46a7d3dde5","2025-09-02_08h23.37.954",NA,NA,192.5025,192.5026,192.5026,192.8517,NA,NA,NA,NA,NA,NA,NA,TRUE,1,1.3788,189.4911,192.5021,0,6,6,24,1,21,26,NA,NA,NA,NA,NA,1,7,"likert"
"75855CF14D7445938636BC9DC9893591",1,"01990a97-dcf5-78ae-972f-b8d437c7e986","01990a84-c4ee-73c2-a87b-ff46a7d3dde5","2025-09-02_08h23.37.954",NA,NA,195.8481,195.8482,195.8482,196.1978,NA,NA,NA,NA,NA,NA,NA,TRUE,1,1.1661,192.8544,195.8477,0,7,7,99,1,180,39,NA,NA,NA,NA,NA,1,8,"likert"
"75855CF14D7445938636BC9DC9893591",1,"01990a97-dcf5-78ae-972f-b8d437c7e986","01990a84-c4ee-73c2-a87b-ff46a7d3dde5","2025-09-02_08h23.37.954",NA,NA,199.1939,199.194,199.194,199.5437,NA,NA,NA,NA,NA,NA,NA,TRUE,1,1.9225,196.2001,199.1937,0,8,8,35,1,25,46,NA,NA,NA,NA,NA,1,9,"likert"
"75855CF14D7445938636BC9DC9893591",1,"01990a97-dcf5-78ae-972f-b8d437c7e986","01990a84-c4ee-73c2-a87b-ff46a7d3dde5","2025-09-02_08h23.37.954",NA,NA,202.54,202.5401,202.5401,202.8892,NA,NA,NA,NA,NA,NA,NA,TRUE,1,1.2153,199.5454,202.5397,0,9,9,95,1,150,54,NA,NA,NA,NA,NA,1,10,"likert"
"75855CF14D7445938636BC9DC9893591",1,"01990a97-dcf5-78ae-972f-b8d437c7e986","01990a84-c4ee-73c2-a87b-ff46a7d3dde5","2025-09-02_08h23.37.954",NA,NA,205.9023,205.9024,205.9025,206.2514,NA,NA,NA,NA,NA,NA,NA,TRUE,5,1.5298,202.8914,205.9022,0,10,10,37,1,28,28,NA,NA,NA,NA,NA,1,11,"likert"
"75855CF14D7445938636BC9DC9893591",1,"01990a97-dcf5-78ae-972f-b8d437c7e986","01990a84-c4ee-73c2-a87b-ff46a7d3dde5","2025-09-02_08h23.37.954",NA,NA,209.2481,209.2481,209.2481,209.5972,NA,NA,NA,NA,NA,NA,NA,TRUE,5,1.5884,206.2538,209.2478,0,11,11,5,1,7,35,NA,NA,NA,NA,NA,1,12,"likert"
"75855CF14D7445938636BC9DC9893591",1,"01990a97-dcf5-78ae-972f-b8d437c7e986","01990a84-c4ee-73c2-a87b-ff46a7d3dde5","2025-09-02_08h23.37.954",NA,NA,212.5941,212.5941,212.5942,212.9433,NA,NA,NA,NA,NA,NA,NA,TRUE,5,1.7288,209.5992,212.5939,0,12,12,8,1,10,27,NA,NA,NA,NA,NA,1,13,"likert"
"75855CF14D7445938636BC9DC9893591",1,"01990a97-dcf5-78ae-972f-b8d437c7e986","01990a84-c4ee-73c2-a87b-ff46a7d3dde5","2025-09-02_08h23.37.954",NA,NA,215.9398,215.9399,215.9399,216.2891,NA,NA,NA,NA,NA,NA,NA,TRUE,1,1.439,212.9445,215.9395,0,13,13,68,1,60,35,NA,NA,NA,NA,NA,1,14,"likert"
"75855CF14D7445938636BC9DC9893591",1,"01990a97-dcf5-78ae-972f-b8d437c7e986","01990a84-c4ee-73c2-a87b-ff46a7d3dde5","2025-09-02_08h23.37.954",NA,NA,219.3022,219.3024,219.3024,219.6517,NA,NA,NA,NA,NA,NA,NA,TRUE,1,1.4766,216.2922,219.3021,0,14,14,81,1,95,40,NA,NA,NA,NA,NA,1,15,"likert"
"75855CF14D7445938636BC9DC9893591",1,"01990a97-dcf5-78ae-972f-b8d437c7e986","01990a84-c4ee-73c2-a87b-ff46a7d3dde5","2025-09-02_08h23.37.954",NA,NA,222.6484,222.6485,222.6485,222.9973,NA,NA,NA,NA,NA,NA,NA,TRUE,1,1.6331,219.6535,222.6481,0,15,15,43,1,30,27,NA,NA,NA,NA,NA,1,16,"likert"
"75855CF14D7445938636BC9DC9893591",1,"01990a97-dcf5-78ae-972f-b8d437c7e986","01990a84-c4ee-73c2-a87b-ff46a7d3dde5","2025-09-02_08h23.37.954",NA,NA,225.9942,225.9942,225.9943,226.3432,NA,NA,NA,NA,NA,NA,NA,TRUE,1,1.4657,222.9989,225.9939,0,16,16,26,1,21,29,NA,NA,NA,NA,NA,1,17,"likert"
"75855CF14D7445938636BC9DC9893591",1,"01990a97-dcf5-78ae-972f-b8d437c7e986","01990a84-c4ee-73c2-a87b-ff46a7d3dde5","2025-09-02_08h23.37.954",NA,NA,229.3401,229.3401,229.3402,229.6892,NA,NA,NA,NA,NA,NA,NA,TRUE,1,1.1973,226.3449,229.3397,0,17,17,72,1,90,26,NA,NA,NA,NA,NA,1,18,"likert"
"75855CF14D7445938636BC9DC9893591",1,"01990a97-dcf5-78ae-972f-b8d437c7e986","01990a84-c4ee-73c2-a87b-ff46a7d3dde5","2025-09-02_08h23.37.954",NA,NA,232.7025,232.7026,232.7028,233.0515,NA,NA,NA,NA,NA,NA,NA,TRUE,1,1.3129,229.6906,232.7022,0,18,18,17,1,12,35,NA,NA,NA,NA,NA,1,19,"likert"
"75855CF14D7445938636BC9DC9893591",1,"01990a97-dcf5-78ae-972f-b8d437c7e986","01990a84-c4ee-73c2-a87b-ff46a7d3dde5","2025-09-02_08h23.37.954",NA,NA,236.0481,236.0481,236.0482,236.3977,NA,NA,NA,NA,NA,NA,NA,TRUE,3,1.6888,233.053,236.0477,0,19,19,15,1,12,31,NA,NA,NA,NA,NA,1,20,"likert"
"75855CF14D7445938636BC9DC9893591",1,"01990a97-dcf5-78ae-972f-b8d437c7e986","01990a84-c4ee-73c2-a87b-ff46a7d3dde5","2025-09-02_08h23.37.954",NA,NA,239.3942,239.3943,239.3943,239.7434,NA,NA,NA,NA,NA,NA,NA,TRUE,1,1.3445,236.4002,239.3939,0,20,20,74,1,90,33,NA,NA,NA,NA,NA,1,21,"likert"
"75855CF14D7445938636BC9DC9893591",1,"01990a97-dcf5-78ae-972f-b8d437c7e986","01990a84-c4ee-73c2-a87b-ff46a7d3dde5","2025-09-02_08h23.37.954",NA,NA,242.7399,242.7399,242.7399,243.0891,NA,NA,NA,NA,NA,NA,NA,TRUE,1,1.332,239.7453,242.7395,0,21,21,84,1,100,26,NA,NA,NA,NA,NA,1,22,"likert"
"75855CF14D7445938636BC9DC9893591",1,"01990a97-dcf5-78ae-972f-b8d437c7e986","01990a84-c4ee-73c2-a87b-ff46a7d3dde5","2025-09-02_08h23.37.954",NA,NA,246.1023,246.1024,246.1024,246.4518,NA,NA,NA,NA,NA,NA,NA,TRUE,1,1.0966,243.0908,246.102,0,22,22,64,1,50,46,NA,NA,NA,NA,NA,1,23,"likert"
"75855CF14D7445938636BC9DC9893591",1,"01990a97-dcf5-78ae-972f-b8d437c7e986","01990a84-c4ee-73c2-a87b-ff46a7d3dde5","2025-09-02_08h23.37.954",NA,NA,249.4484,249.4484,249.4484,249.7974,NA,NA,NA,NA,NA,NA,NA,TRUE,1,1.3455,246.4536,249.4482,0,23,23,90,1,150,31,NA,NA,NA,NA,NA,1,24,"likert"
"75855CF14D7445938636BC9DC9893591",1,"01990a97-dcf5-78ae-972f-b8d437c7e986","01990a84-c4ee-73c2-a87b-ff46a7d3dde5","2025-09-02_08h23.37.954",NA,NA,252.7961,252.7962,252.7963,253.1432,NA,NA,NA,NA,NA,NA,NA,TRUE,1,1.2712,249.799,252.7957,0,24,24,33,1,25,33,NA,NA,NA,NA,NA,1,25,"likert"
"75855CF14D7445938636BC9DC9893591",1,"01990a97-dcf5-78ae-972f-b8d437c7e986","01990a84-c4ee-73c2-a87b-ff46a7d3dde5","2025-09-02_08h23.37.954",NA,NA,256.14,256.1401,256.1401,256.4893,NA,NA,NA,NA,NA,NA,NA,TRUE,1,1.3013,253.145,256.1397,0,25,25,45,1,30,30,NA,NA,NA,NA,NA,1,26,"likert"
"75855CF14D7445938636BC9DC9893591",1,"01990a97-dcf5-78ae-972f-b8d437c7e986","01990a84-c4ee-73c2-a87b-ff46a7d3dde5","2025-09-02_08h23.37.954",NA,NA,259.5032,259.5033,259.5033,259.8518,NA,NA,NA,NA,NA,NA,NA,TRUE,1,1.3871,256.4905,259.5031,0,26,26,80,1,95,35,NA,NA,NA,NA,NA,1,27,"likert"
"75855CF14D7445938636BC9DC9893591",1,"01990a97-dcf5-78ae-972f-b8d437c7e986","01990a84-c4ee-73c2-a87b-ff46a7d3dde5","2025-09-02_08h23.37.954",NA,NA,262.8481,262.8482,262.8482,263.1973,NA,NA,NA,NA,NA,NA,NA,TRUE,1,0.9464,259.8532,262.8479,0,27,27,47,1,30,38,NA,NA,NA,NA,NA,1,28,"likert"
"75855CF14D7445938636BC9DC9893591",1,"01990a97-dcf5-78ae-972f-b8d437c7e986","01990a84-c4ee-73c2-a87b-ff46a7d3dde5","2025-09-02_08h23.37.954",NA,NA,266.1939,266.1939,266.1939,266.5434,NA,NA,NA,NA,NA,NA,NA,TRUE,1,1.5297,263.1993,266.1938,0,28,28,77,1,90,54,NA,NA,NA,NA,NA,1,29,"likert"
"75855CF14D7445938636BC9DC9893591",1,"01990a97-dcf5-78ae-972f-b8d437c7e986","01990a84-c4ee-73c2-a87b-ff46a7d3dde5","2025-09-02_08h23.37.954",NA,NA,269.5402,269.5403,269.5403,269.8892,NA,NA,NA,NA,NA,NA,NA,TRUE,1,1.6958,266.5447,269.5398,0,29,29,40,1,28,39,NA,NA,NA,NA,NA,1,30,"likert"
"75855CF14D7445938636BC9DC9893591",1,"01990a97-dcf5-78ae-972f-b8d437c7e986","01990a84-c4ee-73c2-a87b-ff46a7d3dde5","2025-09-02_08h23.37.954",NA,NA,272.9023,272.9024,272.9024,273.2518,NA,NA,NA,NA,NA,NA,NA,TRUE,1,1.585,269.8913,272.9022,0,30,30,18,1,14,25,NA,NA,NA,NA,NA,1,31,"likert"
"75855CF14D7445938636BC9DC9893591",1,"01990a97-dcf5-78ae-972f-b8d437c7e986","01990a84-c4ee-73c2-a87b-ff46a7d3dde5","2025-09-02_08h23.37.954",NA,NA,276.248,276.248,276.2481,276.5976,NA,NA,NA,NA,NA,NA,NA,TRUE,1,1.896,273.2543,276.2478,0,31,31,61,1,50,30,NA,NA,NA,NA,NA,1,32,"likert"
"75855CF14D7445938636BC9DC9893591",1,"01990a97-dcf5-78ae-972f-b8d437c7e986","01990a84-c4ee-73c2-a87b-ff46a7d3dde5","2025-09-02_08h23.37.954",NA,NA,279.594,279.594,279.594,279.9436,NA,NA,NA,NA,NA,NA,NA,TRUE,1,1.495,276.5989,279.5939,0,32,32,39,1,28,35,NA,NA,NA,NA,NA,1,33,"likert"
"75855CF14D7445938636BC9DC9893591",1,"01990a97-dcf5-78ae-972f-b8d437c7e986","01990a84-c4ee-73c2-a87b-ff46a7d3dde5","2025-09-02_08h23.37.954",NA,NA,282.9396,282.9397,282.9398,283.289,NA,NA,NA,NA,NA,NA,NA,TRUE,1,1.136,279.945,282.9395,0,33,33,91,1,150,33,NA,NA,NA,NA,NA,1,34,"likert"
"75855CF14D7445938636BC9DC9893591",1,"01990a97-dcf5-78ae-972f-b8d437c7e986","01990a84-c4ee-73c2-a87b-ff46a7d3dde5","2025-09-02_08h23.37.954",NA,NA,286.3027,286.3027,286.3028,286.6518,NA,NA,NA,NA,NA,NA,NA,TRUE,5,1.2474,283.2961,286.3023,0,34,34,41,1,28,46,NA,NA,NA,NA,NA,1,35,"likert"
"75855CF14D7445938636BC9DC9893591",1,"01990a97-dcf5-78ae-972f-b8d437c7e986","01990a84-c4ee-73c2-a87b-ff46a7d3dde5","2025-09-02_08h23.37.954",NA,NA,289.6485,289.6485,289.6485,289.9974,NA,NA,NA,NA,NA,NA,NA,TRUE,1,1.1386,286.653,289.6481,0,35,35,106,1,200,47,NA,NA,NA,NA,NA,1,36,"likert"
"75855CF14D7445938636BC9DC9893591",1,"01990a97-dcf5-78ae-972f-b8d437c7e986","01990a84-c4ee-73c2-a87b-ff46a7d3dde5","2025-09-02_08h23.37.954",NA,NA,292.9942,292.9943,292.9943,293.3432,NA,NA,NA,NA,NA,NA,NA,TRUE,1,1.6249,289.9996,292.9939,0,36,36,103,1,200,28,NA,NA,NA,NA,NA,1,37,"likert"
"75855CF14D7445938636BC9DC9893591",1,"01990a97-dcf5-78ae-972f-b8d437c7e986","01990a84-c4ee-73c2-a87b-ff46a7d3dde5","2025-09-02_08h23.37.954",NA,NA,296.3398,296.3398,296.3399,296.6893,NA,NA,NA,NA,NA,NA,NA,TRUE,5,1.2673,293.3454,296.3398,0,37,37,59,1,45,46,NA,NA,NA,NA,NA,1,38,"likert"
"75855CF14D7445938636BC9DC9893591",1,"01990a97-dcf5-78ae-972f-b8d437c7e986","01990a84-c4ee-73c2-a87b-ff46a7d3dde5","2025-09-02_08h23.37.954",NA,NA,299.7024,299.7025,299.7026,300.0516,NA,NA,NA,NA,NA,NA,NA,TRUE,1,1.6869,296.6911,299.7021,0,38,38,82,1,95,47,NA,NA,NA,NA,NA,1,39,"likert"
"75855CF14D7445938636BC9DC9893591",1,"01990a97-dcf5-78ae-972f-b8d437c7e986","01990a84-c4ee-73c2-a87b-ff46a7d3dde5","2025-09-02_08h23.37.954",NA,NA,303.0484,303.0485,303.0485,303.3973,NA,NA,NA,NA,NA,NA,NA,TRUE,1,0.9116,300.0538,303.0481,0,39,39,73,1,90,30,NA,NA,NA,NA,NA,1,40,"likert"
"75855CF14D7445938636BC9DC9893591",1,"01990a97-dcf5-78ae-972f-b8d437c7e986","01990a84-c4ee-73c2-a87b-ff46a7d3dde5","2025-09-02_08h23.37.954",NA,NA,306.3942,306.3943,306.3943,306.7434,NA,NA,NA,NA,NA,NA,NA,TRUE,5,1.6124,303.3987,306.3939,0,40,40,4,1,7,32,NA,NA,NA,NA,NA,1,41,"likert"
"75855CF14D7445938636BC9DC9893591",1,"01990a97-dcf5-78ae-972f-b8d437c7e986","01990a84-c4ee-73c2-a87b-ff46a7d3dde5","2025-09-02_08h23.37.954",NA,NA,309.7398,309.7398,309.7398,310.0893,NA,NA,NA,NA,NA,NA,NA,TRUE,5,1.7882,306.7453,309.7396,0,41,41,71,1,60,54,NA,NA,NA,NA,NA,1,42,"likert"
"75855CF14D7445938636BC9DC9893591",1,"01990a97-dcf5-78ae-972f-b8d437c7e986","01990a84-c4ee-73c2-a87b-ff46a7d3dde5","2025-09-02_08h23.37.954",NA,NA,313.1027,313.1028,313.1028,313.4518,NA,NA,NA,NA,NA,NA,NA,TRUE,1,1.4654,310.0906,313.1022,0,42,42,19,1,14,26,NA,NA,NA,NA,NA,1,43,"likert"
"75855CF14D7445938636BC9DC9893591",1,"01990a97-dcf5-78ae-972f-b8d437c7e986","01990a84-c4ee-73c2-a87b-ff46a7d3dde5","2025-09-02_08h23.37.954",NA,NA,316.4482,316.4482,316.4482,316.7975,NA,NA,NA,NA,NA,NA,NA,TRUE,5,2.0802,313.4535,316.4481,0,43,43,16,1,12,33,NA,NA,NA,NA,NA,1,44,"likert"
"75855CF14D7445938636BC9DC9893591",1,"01990a97-dcf5-78ae-972f-b8d437c7e986","01990a84-c4ee-73c2-a87b-ff46a7d3dde5","2025-09-02_08h23.37.954",NA,NA,319.7943,319.7944,319.7946,320.1468,NA,NA,NA,NA,NA,NA,NA,TRUE,5,1.5204,316.7994,319.7942,0,44,44,3,1,7,30,NA,NA,NA,NA,NA,1,45,"likert"
"75855CF14D7445938636BC9DC9893591",1,"01990a97-dcf5-78ae-972f-b8d437c7e986","01990a84-c4ee-73c2-a87b-ff46a7d3dde5","2025-09-02_08h23.37.954",NA,NA,323.1402,323.1403,323.1403,323.4893,NA,NA,NA,NA,NA,NA,NA,TRUE,5,1.3479,320.1483,323.1399,0,45,45,62,1,50,35,NA,NA,NA,NA,NA,1,46,"likert"
"75855CF14D7445938636BC9DC9893591",1,"01990a97-dcf5-78ae-972f-b8d437c7e986","01990a84-c4ee-73c2-a87b-ff46a7d3dde5","2025-09-02_08h23.37.954",NA,NA,326.5026,326.5027,326.5027,326.8518,NA,NA,NA,NA,NA,NA,NA,TRUE,1,0.8014,323.4907,326.5023,0,46,46,85,1,100,31,NA,NA,NA,NA,NA,1,47,"likert"
"75855CF14D7445938636BC9DC9893591",1,"01990a97-dcf5-78ae-972f-b8d437c7e986","01990a84-c4ee-73c2-a87b-ff46a7d3dde5","2025-09-02_08h23.37.954",NA,NA,329.8484,329.8484,329.8484,330.1975,NA,NA,NA,NA,NA,NA,NA,TRUE,5,1.4458,326.8536,329.848,0,47,47,38,1,28,32,NA,NA,NA,NA,NA,1,48,"likert"
"75855CF14D7445938636BC9DC9893591",1,"01990a97-dcf5-78ae-972f-b8d437c7e986","01990a84-c4ee-73c2-a87b-ff46a7d3dde5","2025-09-02_08h23.37.954",NA,NA,333.1941,333.1941,333.1941,333.5433,NA,NA,NA,NA,NA,NA,NA,TRUE,1,1.6381,330.1992,333.1938,0,48,48,65,1,50,54,NA,NA,NA,NA,NA,1,49,"likert"
"75855CF14D7445938636BC9DC9893591",1,"01990a97-dcf5-78ae-972f-b8d437c7e986","01990a84-c4ee-73c2-a87b-ff46a7d3dde5","2025-09-02_08h23.37.954",NA,NA,336.541,336.541,336.541,336.8919,NA,NA,NA,NA,NA,NA,NA,TRUE,1,1.6452,333.5452,336.5409,0,49,49,46,1,30,32,NA,NA,NA,NA,NA,1,50,"likert"
"75855CF14D7445938636BC9DC9893591",1,"01990a97-dcf5-78ae-972f-b8d437c7e986","01990a84-c4ee-73c2-a87b-ff46a7d3dde5","2025-09-02_08h23.37.954",NA,NA,339.8885,339.8885,339.8885,340.253,NA,NA,NA,NA,NA,NA,NA,TRUE,5,1.4153,336.8929,339.8884,0,50,50,22,1,14,35,NA,NA,NA,NA,NA,1,51,"likert"
"75855CF14D7445938636BC9DC9893591",1,"01990a97-dcf5-78ae-972f-b8d437c7e986","01990a84-c4ee-73c2-a87b-ff46a7d3dde5","2025-09-02_08h23.37.954",NA,NA,343.2493,343.2495,343.2495,343.5996,NA,NA,NA,NA,NA,NA,NA,TRUE,1,1.5697,340.2542,343.249,0,51,51,75,1,90,40,NA,NA,NA,NA,NA,1,52,"likert"
"75855CF14D7445938636BC9DC9893591",1,"01990a97-dcf5-78ae-972f-b8d437c7e986","01990a84-c4ee-73c2-a87b-ff46a7d3dde5","2025-09-02_08h23.37.954",NA,NA,346.5969,346.597,346.597,346.9438,NA,NA,NA,NA,NA,NA,NA,TRUE,1,1.2334,343.6006,346.5968,0,52,52,87,1,100,39,NA,NA,NA,NA,NA,1,53,"likert"
"75855CF14D7445938636BC9DC9893591",1,"01990a97-dcf5-78ae-972f-b8d437c7e986","01990a84-c4ee-73c2-a87b-ff46a7d3dde5","2025-09-02_08h23.37.954",NA,NA,349.9428,349.9428,349.9429,350.2914,NA,NA,NA,NA,NA,NA,NA,TRUE,5,1.5449,346.9458,349.9427,0,53,53,31,1,25,29,NA,NA,NA,NA,NA,1,54,"likert"
"75855CF14D7445938636BC9DC9893591",1,"01990a97-dcf5-78ae-972f-b8d437c7e986","01990a84-c4ee-73c2-a87b-ff46a7d3dde5","2025-09-02_08h23.37.954",NA,NA,353.3056,353.3057,353.3057,353.6523,NA,NA,NA,NA,NA,NA,NA,TRUE,5,1.0325,350.2924,353.3055,0,54,54,6,1,10,25,NA,NA,NA,NA,NA,1,55,"likert"
"75855CF14D7445938636BC9DC9893591",1,"01990a97-dcf5-78ae-972f-b8d437c7e986","01990a84-c4ee-73c2-a87b-ff46a7d3dde5","2025-09-02_08h23.37.954",NA,NA,356.6508,356.6509,356.6509,357.0004,NA,NA,NA,NA,NA,NA,NA,TRUE,1,1.9399,353.6541,356.6507,0,55,55,2,1,7,28,NA,NA,NA,NA,NA,1,56,"likert"
"75855CF14D7445938636BC9DC9893591",1,"01990a97-dcf5-78ae-972f-b8d437c7e986","01990a84-c4ee-73c2-a87b-ff46a7d3dde5","2025-09-02_08h23.37.954",NA,NA,359.9953,359.9953,359.9953,360.3441,NA,NA,NA,NA,NA,NA,NA,TRUE,1,1.8856,357.0015,359.995,0,56,56,93,1,150,40,NA,NA,NA,NA,NA,1,57,"likert"
"75855CF14D7445938636BC9DC9893591",1,"01990a97-dcf5-78ae-972f-b8d437c7e986","01990a84-c4ee-73c2-a87b-ff46a7d3dde5","2025-09-02_08h23.37.954",NA,NA,363.3409,363.341,363.341,363.6922,NA,NA,NA,NA,NA,NA,NA,TRUE,1,1.0201,360.346,363.3406,0,57,57,92,1,150,35,NA,NA,NA,NA,NA,1,58,"likert"
"75855CF14D7445938636BC9DC9893591",1,"01990a97-dcf5-78ae-972f-b8d437c7e986","01990a84-c4ee-73c2-a87b-ff46a7d3dde5","2025-09-02_08h23.37.954",NA,NA,366.7049,366.7049,366.705,367.052,NA,NA,NA,NA,NA,NA,NA,TRUE,5,1.8484,363.6933,366.7047,0,58,58,55,1,45,29,NA,NA,NA,NA,NA,1,59,"likert"
"75855CF14D7445938636BC9DC9893591",1,"01990a97-dcf5-78ae-972f-b8d437c7e986","01990a84-c4ee-73c2-a87b-ff46a7d3dde5","2025-09-02_08h23.37.954",NA,NA,370.0499,370.05,370.05,370.3983,NA,NA,NA,NA,NA,NA,NA,TRUE,3,1.8983,367.0542,370.0496,0,59,59,27,1,21,30,NA,NA,NA,NA,NA,1,60,"likert"
"75855CF14D7445938636BC9DC9893591",1,"01990a97-dcf5-78ae-972f-b8d437c7e986","01990a84-c4ee-73c2-a87b-ff46a7d3dde5","2025-09-02_08h23.37.954",NA,NA,373.3952,373.3953,373.3953,373.7444,NA,NA,NA,NA,NA,NA,NA,TRUE,1,1.3518,370.4,373.3952,0,60,60,86,1,100,38,NA,NA,NA,NA,NA,1,61,"likert"
"75855CF14D7445938636BC9DC9893591",1,"01990a97-dcf5-78ae-972f-b8d437c7e986","01990a84-c4ee-73c2-a87b-ff46a7d3dde5","2025-09-02_08h23.37.954",NA,NA,376.741,376.741,376.741,377.0905,NA,NA,NA,NA,NA,NA,NA,TRUE,4,1.8677,373.7461,376.7404,0,61,61,25,1,21,27,NA,NA,NA,NA,NA,1,62,"likert"
"75855CF14D7445938636BC9DC9893591",1,"01990a97-dcf5-78ae-972f-b8d437c7e986","01990a84-c4ee-73c2-a87b-ff46a7d3dde5","2025-09-02_08h23.37.954",NA,NA,380.1035,380.1037,380.1038,380.4545,NA,NA,NA,NA,NA,NA,NA,TRUE,1,1.3088,377.0918,380.1033,0,62,62,94,1,150,47,NA,NA,NA,NA,NA,1,63,"likert"
"75855CF14D7445938636BC9DC9893591",1,"01990a97-dcf5-78ae-972f-b8d437c7e986","01990a84-c4ee-73c2-a87b-ff46a7d3dde5","2025-09-02_08h23.37.954",NA,NA,383.4509,383.451,383.451,383.8001,NA,NA,NA,NA,NA,NA,NA,TRUE,1,1.7433,380.4555,383.4508,0,63,63,52,1,40,47,NA,NA,NA,NA,NA,1,64,"likert"
"75855CF14D7445938636BC9DC9893591",1,"01990a97-dcf5-78ae-972f-b8d437c7e986","01990a84-c4ee-73c2-a87b-ff46a7d3dde5","2025-09-02_08h23.37.954",NA,NA,386.797,386.797,386.797,387.1442,NA,NA,NA,NA,NA,NA,NA,TRUE,1,1.4319,383.8011,386.7968,0,64,64,79,1,95,33,NA,NA,NA,NA,NA,1,65,"likert"
"75855CF14D7445938636BC9DC9893591",1,"01990a97-dcf5-78ae-972f-b8d437c7e986","01990a84-c4ee-73c2-a87b-ff46a7d3dde5","2025-09-02_08h23.37.954",NA,NA,390.1408,390.141,390.141,390.4901,NA,NA,NA,NA,NA,NA,NA,TRUE,1,1.2657,387.146,390.1403,0,65,65,97,1,180,31,NA,NA,NA,NA,NA,1,66,"likert"
"75855CF14D7445938636BC9DC9893591",1,"01990a97-dcf5-78ae-972f-b8d437c7e986","01990a84-c4ee-73c2-a87b-ff46a7d3dde5","2025-09-02_08h23.37.954",NA,NA,393.4886,393.4886,393.4886,393.8527,NA,NA,NA,NA,NA,NA,NA,TRUE,1,1.3607,390.4919,393.4885,0,66,66,101,1,180,54,NA,NA,NA,NA,NA,1,67,"likert"
"75855CF14D7445938636BC9DC9893591",1,"01990a97-dcf5-78ae-972f-b8d437c7e986","01990a84-c4ee-73c2-a87b-ff46a7d3dde5","2025-09-02_08h23.37.954",NA,NA,396.8501,396.8503,396.8503,397.1981,NA,NA,NA,NA,NA,NA,NA,TRUE,5,1.7879,393.8546,396.85,0,67,67,36,1,28,26,NA,NA,NA,NA,NA,1,68,"likert"
"75855CF14D7445938636BC9DC9893591",1,"01990a97-dcf5-78ae-972f-b8d437c7e986","01990a84-c4ee-73c2-a87b-ff46a7d3dde5","2025-09-02_08h23.37.954",NA,NA,400.1969,400.1969,400.1969,400.544,NA,NA,NA,NA,NA,NA,NA,TRUE,5,1.855,397.1998,400.1968,0,68,68,32,1,25,31,NA,NA,NA,NA,NA,1,69,"likert"
"75855CF14D7445938636BC9DC9893591",1,"01990a97-dcf5-78ae-972f-b8d437c7e986","01990a84-c4ee-73c2-a87b-ff46a7d3dde5","2025-09-02_08h23.37.954",NA,NA,403.5402,403.5403,403.5403,403.8895,NA,NA,NA,NA,NA,NA,NA,TRUE,1,0.638,400.546,403.5401,0,69,69,107,1,200,54,NA,NA,NA,NA,NA,1,70,"likert"
"75855CF14D7445938636BC9DC9893591",1,"01990a97-dcf5-78ae-972f-b8d437c7e986","01990a84-c4ee-73c2-a87b-ff46a7d3dde5","2025-09-02_08h23.37.954",NA,NA,406.903,406.9031,406.9031,407.2518,NA,NA,NA,NA,NA,NA,NA,TRUE,1,0.5407,403.8915,406.9026,0,70,70,54,1,45,26,NA,NA,NA,NA,NA,1,71,"likert"
"75855CF14D7445938636BC9DC9893591",1,"01990a97-dcf5-78ae-972f-b8d437c7e986","01990a84-c4ee-73c2-a87b-ff46a7d3dde5","2025-09-02_08h23.37.954",NA,NA,410.2488,410.2489,410.2489,410.598,NA,NA,NA,NA,NA,NA,NA,TRUE,1,1.5541,407.2542,410.2486,0,71,71,56,1,45,31,NA,NA,NA,NA,NA,1,72,"likert"
"75855CF14D7445938636BC9DC9893591",1,"01990a97-dcf5-78ae-972f-b8d437c7e986","01990a84-c4ee-73c2-a87b-ff46a7d3dde5","2025-09-02_08h23.37.954",NA,NA,413.5944,413.5944,413.5944,413.9438,NA,NA,NA,NA,NA,NA,NA,TRUE,1,1.4059,410.6,413.5941,0,72,72,76,1,90,46,NA,NA,NA,NA,NA,1,73,"likert"
"75855CF14D7445938636BC9DC9893591",1,"01990a97-dcf5-78ae-972f-b8d437c7e986","01990a84-c4ee-73c2-a87b-ff46a7d3dde5","2025-09-02_08h23.37.954",NA,NA,416.9402,416.9403,416.9403,417.2895,NA,NA,NA,NA,NA,NA,NA,TRUE,1,1.0801,413.9459,416.9399,0,73,73,78,1,95,31,NA,NA,NA,NA,NA,1,74,"likert"
"75855CF14D7445938636BC9DC9893591",1,"01990a97-dcf5-78ae-972f-b8d437c7e986","01990a84-c4ee-73c2-a87b-ff46a7d3dde5","2025-09-02_08h23.37.954",NA,NA,420.3038,420.3042,420.3043,420.6518,NA,NA,NA,NA,NA,NA,NA,TRUE,1,1.1739,417.2917,420.3034,0,74,74,104,1,200,35,NA,NA,NA,NA,NA,1,75,"likert"
"75855CF14D7445938636BC9DC9893591",1,"01990a97-dcf5-78ae-972f-b8d437c7e986","01990a84-c4ee-73c2-a87b-ff46a7d3dde5","2025-09-02_08h23.37.954",NA,NA,423.6487,423.6488,423.6488,423.9978,NA,NA,NA,NA,NA,NA,NA,TRUE,5,1.91,420.654,423.6484,0,75,75,11,1,10,32,NA,NA,NA,NA,NA,1,76,"likert"
"75855CF14D7445938636BC9DC9893591",1,"01990a97-dcf5-78ae-972f-b8d437c7e986","01990a84-c4ee-73c2-a87b-ff46a7d3dde5","2025-09-02_08h23.37.954",NA,NA,426.9946,426.9946,426.9946,427.3439,NA,NA,NA,NA,NA,NA,NA,TRUE,4,2.0314,423.9999,426.9943,0,76,76,20,1,14,28,NA,NA,NA,NA,NA,1,77,"likert"
"75855CF14D7445938636BC9DC9893591",1,"01990a97-dcf5-78ae-972f-b8d437c7e986","01990a84-c4ee-73c2-a87b-ff46a7d3dde5","2025-09-02_08h23.37.954",NA,NA,430.3404,430.3404,430.3405,430.6895,NA,NA,NA,NA,NA,NA,NA,TRUE,4,1.776,427.3462,430.3401,0,77,77,28,1,21,32,NA,NA,NA,NA,NA,1,78,"likert"
"75855CF14D7445938636BC9DC9893591",1,"01990a97-dcf5-78ae-972f-b8d437c7e986","01990a84-c4ee-73c2-a87b-ff46a7d3dde5","2025-09-02_08h23.37.954",NA,NA,433.7026,433.7028,433.7028,434.0521,NA,NA,NA,NA,NA,NA,NA,TRUE,1,1.0243,430.6919,433.7026,0,78,78,105,1,200,39,NA,NA,NA,NA,NA,1,79,"likert"
"75855CF14D7445938636BC9DC9893591",1,"01990a97-dcf5-78ae-972f-b8d437c7e986","01990a84-c4ee-73c2-a87b-ff46a7d3dde5","2025-09-02_08h23.37.954",NA,NA,437.0484,437.0485,437.0486,437.398,NA,NA,NA,NA,NA,NA,NA,TRUE,1,1.5684,434.0544,437.0482,0,79,79,60,1,50,27,NA,NA,NA,NA,NA,1,80,"likert"
"75855CF14D7445938636BC9DC9893591",1,"01990a97-dcf5-78ae-972f-b8d437c7e986","01990a84-c4ee-73c2-a87b-ff46a7d3dde5","2025-09-02_08h23.37.954",NA,NA,440.3942,440.3942,440.3944,440.744,NA,NA,NA,NA,NA,NA,NA,TRUE,1,1.5989,437.4004,440.3941,0,80,80,57,1,45,35,NA,NA,NA,NA,NA,1,81,"likert"
"75855CF14D7445938636BC9DC9893591",1,"01990a97-dcf5-78ae-972f-b8d437c7e986","01990a84-c4ee-73c2-a87b-ff46a7d3dde5","2025-09-02_08h23.37.954",NA,NA,443.7402,443.7404,443.7405,444.0897,NA,NA,NA,NA,NA,NA,NA,TRUE,1,1.6293,440.746,443.7401,0,81,81,70,1,60,47,NA,NA,NA,NA,NA,1,82,"likert"
"75855CF14D7445938636BC9DC9893591",1,"01990a97-dcf5-78ae-972f-b8d437c7e986","01990a84-c4ee-73c2-a87b-ff46a7d3dde5","2025-09-02_08h23.37.954",NA,NA,447.1048,447.1051,447.1051,447.4522,NA,NA,NA,NA,NA,NA,NA,TRUE,4,1.6206,444.0918,447.1047,0,82,82,14,1,12,28,NA,NA,NA,NA,NA,1,83,"likert"
"75855CF14D7445938636BC9DC9893591",1,"01990a97-dcf5-78ae-972f-b8d437c7e986","01990a84-c4ee-73c2-a87b-ff46a7d3dde5","2025-09-02_08h23.37.954",NA,NA,450.4486,450.4486,450.4487,450.7977,NA,NA,NA,NA,NA,NA,NA,TRUE,1,1.6856,447.4546,450.4484,0,83,83,10,1,10,30,NA,NA,NA,NA,NA,1,84,"likert"
"75855CF14D7445938636BC9DC9893591",1,"01990a97-dcf5-78ae-972f-b8d437c7e986","01990a84-c4ee-73c2-a87b-ff46a7d3dde5","2025-09-02_08h23.37.954",NA,NA,453.7944,453.7945,453.7946,454.1439,NA,NA,NA,NA,NA,NA,NA,TRUE,1,2.5118,450.8,453.7943,0,84,84,0,1,7,25,NA,NA,NA,NA,NA,1,85,"likert"
"75855CF14D7445938636BC9DC9893591",1,"01990a97-dcf5-78ae-972f-b8d437c7e986","01990a84-c4ee-73c2-a87b-ff46a7d3dde5","2025-09-02_08h23.37.954",NA,NA,457.1413,457.1414,457.1416,457.4895,NA,NA,NA,NA,NA,NA,NA,TRUE,1,1.4904,454.1461,457.1404,0,85,85,1,1,7,26,NA,NA,NA,NA,NA,1,86,"likert"
"75855CF14D7445938636BC9DC9893591",1,"01990a97-dcf5-78ae-972f-b8d437c7e986","01990a84-c4ee-73c2-a87b-ff46a7d3dde5","2025-09-02_08h23.37.954",NA,NA,460.503,460.5031,460.5031,460.8519,NA,NA,NA,NA,NA,NA,NA,TRUE,1,2.1807,457.4918,460.5027,0,86,86,13,1,12,26,NA,NA,NA,NA,NA,1,87,"likert"
"75855CF14D7445938636BC9DC9893591",1,"01990a97-dcf5-78ae-972f-b8d437c7e986","01990a84-c4ee-73c2-a87b-ff46a7d3dde5","2025-09-02_08h23.37.954",NA,NA,463.8486,463.8486,463.8487,464.1985,NA,NA,NA,NA,NA,NA,NA,TRUE,1,0.7099,460.8541,463.8483,0,87,87,98,1,180,35,NA,NA,NA,NA,NA,1,88,"likert"
"75855CF14D7445938636BC9DC9893591",1,"01990a97-dcf5-78ae-972f-b8d437c7e986","01990a84-c4ee-73c2-a87b-ff46a7d3dde5","2025-09-02_08h23.37.954",NA,NA,467.1943,467.1943,467.1945,467.5439,NA,NA,NA,NA,NA,NA,NA,TRUE,3,2.7463,464.2005,467.1941,0,88,88,9,1,10,29,NA,NA,NA,NA,NA,1,89,"likert"
"75855CF14D7445938636BC9DC9893591",1,"01990a97-dcf5-78ae-972f-b8d437c7e986","01990a84-c4ee-73c2-a87b-ff46a7d3dde5","2025-09-02_08h23.37.954",NA,NA,470.5403,470.5404,470.5404,470.8896,NA,NA,NA,NA,NA,NA,NA,TRUE,1,1.7959,467.5462,470.54,0,89,89,67,1,60,33,NA,NA,NA,NA,NA,1,90,"likert"
"75855CF14D7445938636BC9DC9893591",1,"01990a97-dcf5-78ae-972f-b8d437c7e986","01990a84-c4ee-73c2-a87b-ff46a7d3dde5","2025-09-02_08h23.37.954",NA,NA,473.9027,473.9028,473.9029,474.2521,NA,NA,NA,NA,NA,NA,NA,TRUE,5,1.7019,470.8918,473.9027,0,90,90,21,1,14,32,NA,NA,NA,NA,NA,1,91,"likert"
"75855CF14D7445938636BC9DC9893591",1,"01990a97-dcf5-78ae-972f-b8d437c7e986","01990a84-c4ee-73c2-a87b-ff46a7d3dde5","2025-09-02_08h23.37.954",NA,NA,477.2486,477.2487,477.2487,477.5978,NA,NA,NA,NA,NA,NA,NA,TRUE,1,1.3798,474.2543,477.2484,0,91,91,88,1,100,46,NA,NA,NA,NA,NA,1,92,"likert"
"75855CF14D7445938636BC9DC9893591",1,"01990a97-dcf5-78ae-972f-b8d437c7e986","01990a84-c4ee-73c2-a87b-ff46a7d3dde5","2025-09-02_08h23.37.954",NA,NA,480.5945,480.5945,480.5946,480.9438,NA,NA,NA,NA,NA,NA,NA,TRUE,1,2.2538,477.5999,480.5944,0,92,92,83,1,95,54,NA,NA,NA,NA,NA,1,93,"likert"
"75855CF14D7445938636BC9DC9893591",1,"01990a97-dcf5-78ae-972f-b8d437c7e986","01990a84-c4ee-73c2-a87b-ff46a7d3dde5","2025-09-02_08h23.37.954",NA,NA,483.9401,483.9401,483.9402,484.2898,NA,NA,NA,NA,NA,NA,NA,TRUE,1,1.8705,480.9461,483.9399,0,93,93,12,1,12,25,NA,NA,NA,NA,NA,1,94,"likert"
"75855CF14D7445938636BC9DC9893591",1,"01990a97-dcf5-78ae-972f-b8d437c7e986","01990a84-c4ee-73c2-a87b-ff46a7d3dde5","2025-09-02_08h23.37.954",NA,NA,487.3027,487.3029,487.303,487.6521,NA,NA,NA,NA,NA,NA,NA,TRUE,1,1.5728,484.2922,487.3025,0,94,94,58,1,45,40,NA,NA,NA,NA,NA,1,95,"likert"
"75855CF14D7445938636BC9DC9893591",1,"01990a97-dcf5-78ae-972f-b8d437c7e986","01990a84-c4ee-73c2-a87b-ff46a7d3dde5","2025-09-02_08h23.37.954",NA,NA,490.6484,490.6484,490.6485,490.9979,NA,NA,NA,NA,NA,NA,NA,TRUE,1,0.9129,487.6542,490.6483,0,95,95,66,1,60,29,NA,NA,NA,NA,NA,1,96,"likert"
"75855CF14D7445938636BC9DC9893591",1,"01990a97-dcf5-78ae-972f-b8d437c7e986","01990a84-c4ee-73c2-a87b-ff46a7d3dde5","2025-09-02_08h23.37.954",NA,NA,493.9944,493.9945,493.9946,494.3437,NA,NA,NA,NA,NA,NA,NA,TRUE,1,2.0612,491.0001,493.9944,0,96,96,63,1,50,40,NA,NA,NA,NA,NA,1,97,"likert"
"75855CF14D7445938636BC9DC9893591",1,"01990a97-dcf5-78ae-972f-b8d437c7e986","01990a84-c4ee-73c2-a87b-ff46a7d3dde5","2025-09-02_08h23.37.954",NA,NA,497.3404,497.59,497.59,497.6898,NA,NA,NA,NA,NA,NA,NA,FALSE,NA,NA,494.3458,497.34,0,97,97,44,1,30,29,NA,NA,NA,NA,NA,1,98,"likert"
"75855CF14D7445938636BC9DC9893591",1,"01990a97-dcf5-78ae-972f-b8d437c7e986","01990a84-c4ee-73c2-a87b-ff46a7d3dde5","2025-09-02_08h23.37.954",NA,NA,500.6889,500.6889,500.689,501.0523,NA,NA,NA,NA,NA,NA,NA,TRUE,1,1.7669,497.6923,500.6887,0,98,98,42,1,30,26,NA,NA,NA,NA,NA,1,99,"likert"
"75855CF14D7445938636BC9DC9893591",1,"01990a97-dcf5-78ae-972f-b8d437c7e986","01990a84-c4ee-73c2-a87b-ff46a7d3dde5","2025-09-02_08h23.37.954",NA,NA,504.049,504.0493,504.0493,504.3984,NA,NA,NA,NA,NA,NA,NA,TRUE,1,1.0312,501.0543,504.0487,0,99,99,50,1,40,35,NA,NA,NA,NA,NA,1,100,"likert"
"75855CF14D7445938636BC9DC9893591",1,"01990a97-dcf5-78ae-972f-b8d437c7e986","01990a84-c4ee-73c2-a87b-ff46a7d3dde5","2025-09-02_08h23.37.954",NA,NA,507.3945,507.3945,507.3946,507.7438,NA,NA,NA,NA,NA,NA,NA,TRUE,4,1.6373,504.4004,507.3944,0,100,100,23,1,14,39,NA,NA,NA,NA,NA,1,101,"likert"
"75855CF14D7445938636BC9DC9893591",1,"01990a97-dcf5-78ae-972f-b8d437c7e986","01990a84-c4ee-73c2-a87b-ff46a7d3dde5","2025-09-02_08h23.37.954",NA,NA,510.7404,510.7407,510.7407,511.0897,NA,NA,NA,NA,NA,NA,NA,TRUE,1,1.3628,507.7462,510.7402,0,101,101,48,1,40,27,NA,NA,NA,NA,NA,1,102,"likert"
"75855CF14D7445938636BC9DC9893591",1,"01990a97-dcf5-78ae-972f-b8d437c7e986","01990a84-c4ee-73c2-a87b-ff46a7d3dde5","2025-09-02_08h23.37.954",NA,NA,514.1031,514.1032,514.1032,514.4523,NA,NA,NA,NA,NA,NA,NA,TRUE,1,1.1072,511.092,514.1028,0,102,102,96,1,180,27,NA,NA,NA,NA,NA,1,103,"likert"
"75855CF14D7445938636BC9DC9893591",1,"01990a97-dcf5-78ae-972f-b8d437c7e986","01990a84-c4ee-73c2-a87b-ff46a7d3dde5","2025-09-02_08h23.37.954",NA,NA,517.4487,517.449,517.449,517.798,NA,NA,NA,NA,NA,NA,NA,TRUE,4,1.7375,514.4546,517.4486,0,103,103,51,1,40,40,NA,NA,NA,NA,NA,1,104,"likert"
"75855CF14D7445938636BC9DC9893591",1,"01990a97-dcf5-78ae-972f-b8d437c7e986","01990a84-c4ee-73c2-a87b-ff46a7d3dde5","2025-09-02_08h23.37.954",NA,NA,520.7948,520.7948,520.7948,521.1438,NA,NA,NA,NA,NA,NA,NA,TRUE,1,1.5788,517.8002,520.7944,0,104,104,89,1,100,54,NA,NA,NA,NA,NA,1,105,"likert"
"75855CF14D7445938636BC9DC9893591",1,"01990a97-dcf5-78ae-972f-b8d437c7e986","01990a84-c4ee-73c2-a87b-ff46a7d3dde5","2025-09-02_08h23.37.954",NA,NA,524.1418,524.1419,524.1419,524.4896,NA,NA,NA,NA,NA,NA,NA,TRUE,1,1.1402,521.1462,524.1413,0,105,105,69,1,60,40,NA,NA,NA,NA,NA,1,106,"likert"
"75855CF14D7445938636BC9DC9893591",1,"01990a97-dcf5-78ae-972f-b8d437c7e986","01990a84-c4ee-73c2-a87b-ff46a7d3dde5","2025-09-02_08h23.37.954",NA,NA,527.5031,527.5032,527.5033,527.8522,NA,NA,NA,NA,NA,NA,NA,TRUE,1,1.5306,524.4919,527.5029,0,106,106,34,1,25,35,NA,NA,NA,NA,NA,1,107,"likert"
"75855CF14D7445938636BC9DC9893591",1,"01990a97-dcf5-78ae-972f-b8d437c7e986","01990a84-c4ee-73c2-a87b-ff46a7d3dde5","2025-09-02_08h23.37.954",NA,NA,530.849,530.8493,530.8495,531.1982,NA,NA,NA,NA,NA,NA,NA,TRUE,1,1.5288,527.8546,530.8486,0,107,107,7,1,10,26,NA,NA,NA,NA,NA,1,108,"likert"
"75855CF14D7445938636BC9DC9893591",1,"01990a97-dcf5-78ae-972f-b8d437c7e986","01990a84-c4ee-73c2-a87b-ff46a7d3dde5","2025-09-02_08h23.37.954",NA,NA,539.0716,539.0716,539.0718,539.421,NA,NA,NA,NA,NA,NA,NA,TRUE,1,1.7386,536.1115,539.0715,NA,NA,NA,NA,NA,30,32,0,0,0,46,1,2,1,"likert"
"75855CF14D7445938636BC9DC9893591",1,"01990a97-dcf5-78ae-972f-b8d437c7e986","01990a84-c4ee-73c2-a87b-ff46a7d3dde5","2025-09-02_08h23.37.954",NA,NA,542.4179,542.4179,542.4179,542.767,NA,NA,NA,NA,NA,NA,NA,TRUE,1,1.446,539.4233,542.4177,NA,NA,NA,NA,NA,100,54,0,1,1,89,1,2,2,"likert"
"75855CF14D7445938636BC9DC9893591",1,"01990a97-dcf5-78ae-972f-b8d437c7e986","01990a84-c4ee-73c2-a87b-ff46a7d3dde5","2025-09-02_08h23.37.954",NA,NA,545.782,545.782,545.782,546.1293,NA,NA,NA,NA,NA,NA,NA,TRUE,1,1.2374,542.7692,545.7819,NA,NA,NA,NA,NA,50,54,0,2,2,65,1,2,3,"likert"
"75855CF14D7445938636BC9DC9893591",1,"01990a97-dcf5-78ae-972f-b8d437c7e986","01990a84-c4ee-73c2-a87b-ff46a7d3dde5","2025-09-02_08h23.37.954",NA,NA,549.1258,549.1259,549.1259,549.4754,NA,NA,NA,NA,NA,NA,NA,TRUE,5,1.5952,546.1317,549.1257,NA,NA,NA,NA,NA,40,54,0,3,3,53,1,2,4,"likert"
"75855CF14D7445938636BC9DC9893591",1,"01990a97-dcf5-78ae-972f-b8d437c7e986","01990a84-c4ee-73c2-a87b-ff46a7d3dde5","2025-09-02_08h23.37.954",NA,NA,552.4717,552.4717,552.4717,552.8211,NA,NA,NA,NA,NA,NA,NA,TRUE,1,1.4424,549.4779,552.4716,NA,NA,NA,NA,NA,10,25,0,4,4,6,1,2,5,"likert"
"75855CF14D7445938636BC9DC9893591",1,"01990a97-dcf5-78ae-972f-b8d437c7e986","01990a84-c4ee-73c2-a87b-ff46a7d3dde5","2025-09-02_08h23.37.954",NA,NA,555.8175,555.8175,555.8177,556.1668,NA,NA,NA,NA,NA,NA,NA,TRUE,2,2.0666,552.8234,555.8173,NA,NA,NA,NA,NA,50,40,0,5,5,63,1,2,6,"likert"
"75855CF14D7445938636BC9DC9893591",1,"01990a97-dcf5-78ae-972f-b8d437c7e986","01990a84-c4ee-73c2-a87b-ff46a7d3dde5","2025-09-02_08h23.37.954",NA,NA,559.18,559.1801,559.1801,559.5294,NA,NA,NA,NA,NA,NA,NA,TRUE,3,2.1498,556.169,559.1798,NA,NA,NA,NA,NA,21,30,0,6,6,27,1,2,7,"likert"
"75855CF14D7445938636BC9DC9893591",1,"01990a97-dcf5-78ae-972f-b8d437c7e986","01990a84-c4ee-73c2-a87b-ff46a7d3dde5","2025-09-02_08h23.37.954",NA,NA,562.5262,562.5262,562.5262,562.8754,NA,NA,NA,NA,NA,NA,NA,TRUE,5,2.2449,559.5318,562.526,NA,NA,NA,NA,NA,7,35,0,7,7,5,1,2,8,"likert"
"75855CF14D7445938636BC9DC9893591",1,"01990a97-dcf5-78ae-972f-b8d437c7e986","01990a84-c4ee-73c2-a87b-ff46a7d3dde5","2025-09-02_08h23.37.954",NA,NA,565.8718,565.8719,565.8719,566.2214,NA,NA,NA,NA,NA,NA,NA,TRUE,1,1.1955,562.8778,565.8716,NA,NA,NA,NA,NA,200,47,0,8,8,106,1,2,9,"likert"
"75855CF14D7445938636BC9DC9893591",1,"01990a97-dcf5-78ae-972f-b8d437c7e986","01990a84-c4ee-73c2-a87b-ff46a7d3dde5","2025-09-02_08h23.37.954",NA,NA,569.2178,569.2178,569.2178,569.5672,NA,NA,NA,NA,NA,NA,NA,TRUE,1,1.0763,566.2237,569.2175,NA,NA,NA,NA,NA,200,54,0,9,9,107,1,2,10,"likert"
"75855CF14D7445938636BC9DC9893591",1,"01990a97-dcf5-78ae-972f-b8d437c7e986","01990a84-c4ee-73c2-a87b-ff46a7d3dde5","2025-09-02_08h23.37.954",NA,NA,572.5669,572.5669,572.5669,572.9296,NA,NA,NA,NA,NA,NA,NA,TRUE,1,1.5091,569.5695,572.5666,NA,NA,NA,NA,NA,100,26,0,10,10,84,1,2,11,"likert"
"75855CF14D7445938636BC9DC9893591",1,"01990a97-dcf5-78ae-972f-b8d437c7e986","01990a84-c4ee-73c2-a87b-ff46a7d3dde5","2025-09-02_08h23.37.954",NA,NA,575.9264,575.9265,575.9266,576.2755,NA,NA,NA,NA,NA,NA,NA,TRUE,1,1.2543,572.9324,575.926,NA,NA,NA,NA,NA,95,33,0,11,11,79,1,2,12,"likert"
"75855CF14D7445938636BC9DC9893591",1,"01990a97-dcf5-78ae-972f-b8d437c7e986","01990a84-c4ee-73c2-a87b-ff46a7d3dde5","2025-09-02_08h23.37.954",NA,NA,579.2721,579.2721,579.2722,579.6212,NA,NA,NA,NA,NA,NA,NA,TRUE,1,1.6628,576.2775,579.2718,NA,NA,NA,NA,NA,180,46,0,12,12,100,1,2,13,"likert"
"75855CF14D7445938636BC9DC9893591",1,"01990a97-dcf5-78ae-972f-b8d437c7e986","01990a84-c4ee-73c2-a87b-ff46a7d3dde5","2025-09-02_08h23.37.954",NA,NA,582.6175,582.6176,582.6176,582.9671,NA,NA,NA,NA,NA,NA,NA,TRUE,1,2.8303,579.6235,582.6174,NA,NA,NA,NA,NA,60,35,0,13,13,68,1,2,14,"likert"
"75855CF14D7445938636BC9DC9893591",1,"01990a97-dcf5-78ae-972f-b8d437c7e986","01990a84-c4ee-73c2-a87b-ff46a7d3dde5","2025-09-02_08h23.37.954",NA,NA,585.9802,585.9804,585.9805,586.3295,NA,NA,NA,NA,NA,NA,NA,TRUE,4,1.7924,582.9692,585.9802,NA,NA,NA,NA,NA,40,35,0,14,14,50,1,2,15,"likert"
"75855CF14D7445938636BC9DC9893591",1,"01990a97-dcf5-78ae-972f-b8d437c7e986","01990a84-c4ee-73c2-a87b-ff46a7d3dde5","2025-09-02_08h23.37.954",NA,NA,589.3264,589.3264,589.3265,589.6754,NA,NA,NA,NA,NA,NA,NA,TRUE,5,2.8464,586.3317,589.3261,NA,NA,NA,NA,NA,12,31,0,15,15,15,1,2,16,"likert"
"75855CF14D7445938636BC9DC9893591",1,"01990a97-dcf5-78ae-972f-b8d437c7e986","01990a84-c4ee-73c2-a87b-ff46a7d3dde5","2025-09-02_08h23.37.954",NA,NA,592.6716,592.6717,592.6717,593.0212,NA,NA,NA,NA,NA,NA,NA,TRUE,1,1.2885,589.6775,592.6715,NA,NA,NA,NA,NA,200,39,0,16,16,105,1,2,17,"likert"
"75855CF14D7445938636BC9DC9893591",1,"01990a97-dcf5-78ae-972f-b8d437c7e986","01990a84-c4ee-73c2-a87b-ff46a7d3dde5","2025-09-02_08h23.37.954",NA,NA,596.0176,596.0177,596.0177,596.3671,NA,NA,NA,NA,NA,NA,NA,TRUE,1,1.9849,593.0235,596.0174,NA,NA,NA,NA,NA,40,27,0,17,17,48,1,2,18,"likert"
"75855CF14D7445938636BC9DC9893591",1,"01990a97-dcf5-78ae-972f-b8d437c7e986","01990a84-c4ee-73c2-a87b-ff46a7d3dde5","2025-09-02_08h23.37.954",NA,NA,599.3802,599.3803,599.3803,599.7297,NA,NA,NA,NA,NA,NA,NA,TRUE,1,1.2725,596.3693,599.38,NA,NA,NA,NA,NA,150,31,0,18,18,90,1,2,19,"likert"
"75855CF14D7445938636BC9DC9893591",1,"01990a97-dcf5-78ae-972f-b8d437c7e986","01990a84-c4ee-73c2-a87b-ff46a7d3dde5","2025-09-02_08h23.37.954",NA,NA,602.7263,602.7264,602.7264,603.0755,NA,NA,NA,NA,NA,NA,NA,TRUE,1,1.3826,599.732,602.726,NA,NA,NA,NA,NA,60,40,0,19,19,69,1,2,20,"likert"
"75855CF14D7445938636BC9DC9893591",1,"01990a97-dcf5-78ae-972f-b8d437c7e986","01990a84-c4ee-73c2-a87b-ff46a7d3dde5","2025-09-02_08h23.37.954",NA,NA,606.0716,606.0717,606.0717,606.4213,NA,NA,NA,NA,NA,NA,NA,TRUE,1,1.9945,603.0778,606.0715,NA,NA,NA,NA,NA,95,35,0,20,20,80,1,2,21,"likert"
"75855CF14D7445938636BC9DC9893591",1,"01990a97-dcf5-78ae-972f-b8d437c7e986","01990a84-c4ee-73c2-a87b-ff46a7d3dde5","2025-09-02_08h23.37.954",NA,NA,609.4189,609.4193,609.4193,609.7669,NA,NA,NA,NA,NA,NA,NA,TRUE,1,1.9381,606.4233,609.4175,NA,NA,NA,NA,NA,7,26,0,21,21,1,1,2,22,"likert"
"75855CF14D7445938636BC9DC9893591",1,"01990a97-dcf5-78ae-972f-b8d437c7e986","01990a84-c4ee-73c2-a87b-ff46a7d3dde5","2025-09-02_08h23.37.954",NA,NA,612.7806,612.7809,612.781,613.1295,NA,NA,NA,NA,NA,NA,NA,TRUE,1,2.1579,609.7692,612.7802,NA,NA,NA,NA,NA,10,32,0,22,22,11,1,2,23,"likert"
"75855CF14D7445938636BC9DC9893591",1,"01990a97-dcf5-78ae-972f-b8d437c7e986","01990a84-c4ee-73c2-a87b-ff46a7d3dde5","2025-09-02_08h23.37.954",NA,NA,616.1259,616.126,616.126,616.4754,NA,NA,NA,NA,NA,NA,NA,TRUE,1,1.4007,613.1317,616.1258,NA,NA,NA,NA,NA,60,33,0,23,23,67,1,2,24,"likert"
"75855CF14D7445938636BC9DC9893591",1,"01990a97-dcf5-78ae-972f-b8d437c7e986","01990a84-c4ee-73c2-a87b-ff46a7d3dde5","2025-09-02_08h23.37.954",NA,NA,619.472,619.4721,619.4722,619.8212,NA,NA,NA,NA,NA,NA,NA,TRUE,1,1.7412,616.4777,619.4718,NA,NA,NA,NA,NA,40,33,0,24,24,49,1,2,25,"likert"
"75855CF14D7445938636BC9DC9893591",1,"01990a97-dcf5-78ae-972f-b8d437c7e986","01990a84-c4ee-73c2-a87b-ff46a7d3dde5","2025-09-02_08h23.37.954",NA,NA,622.8177,622.8178,622.8178,623.1673,NA,NA,NA,NA,NA,NA,NA,TRUE,5,1.1669,619.8232,622.8176,NA,NA,NA,NA,NA,12,35,0,25,25,17,1,2,26,"likert"
"75855CF14D7445938636BC9DC9893591",1,"01990a97-dcf5-78ae-972f-b8d437c7e986","01990a84-c4ee-73c2-a87b-ff46a7d3dde5","2025-09-02_08h23.37.954",NA,NA,626.1807,626.1808,626.1809,626.5297,NA,NA,NA,NA,NA,NA,NA,TRUE,1,1.077,623.1696,626.1803,NA,NA,NA,NA,NA,95,47,0,26,26,82,1,2,27,"likert"
"75855CF14D7445938636BC9DC9893591",1,"01990a97-dcf5-78ae-972f-b8d437c7e986","01990a84-c4ee-73c2-a87b-ff46a7d3dde5","2025-09-02_08h23.37.954",NA,NA,629.5259,629.5259,629.526,629.8756,NA,NA,NA,NA,NA,NA,NA,TRUE,4,2.0282,626.5322,629.5258,NA,NA,NA,NA,NA,10,29,0,27,27,9,1,2,28,"likert"
"75855CF14D7445938636BC9DC9893591",1,"01990a97-dcf5-78ae-972f-b8d437c7e986","01990a84-c4ee-73c2-a87b-ff46a7d3dde5","2025-09-02_08h23.37.954",NA,NA,632.8719,632.8722,632.8722,633.2211,NA,NA,NA,NA,NA,NA,NA,TRUE,4,1.8819,629.8777,632.8718,NA,NA,NA,NA,NA,50,30,0,28,28,61,1,2,29,"likert"
"75855CF14D7445938636BC9DC9893591",1,"01990a97-dcf5-78ae-972f-b8d437c7e986","01990a84-c4ee-73c2-a87b-ff46a7d3dde5","2025-09-02_08h23.37.954",NA,NA,636.2177,636.2178,636.2179,636.567,NA,NA,NA,NA,NA,NA,NA,TRUE,4,2.3658,633.2234,636.2176,NA,NA,NA,NA,NA,45,31,0,29,29,56,1,2,30,"likert"
"75855CF14D7445938636BC9DC9893591",1,"01990a97-dcf5-78ae-972f-b8d437c7e986","01990a84-c4ee-73c2-a87b-ff46a7d3dde5","2025-09-02_08h23.37.954",NA,NA,639.5804,639.5807,639.5808,639.9294,NA,NA,NA,NA,NA,NA,NA,TRUE,5,2.0354,636.5691,639.5799,NA,NA,NA,NA,NA,25,31,0,30,30,32,1,2,31,"likert"
"75855CF14D7445938636BC9DC9893591",1,"01990a97-dcf5-78ae-972f-b8d437c7e986","01990a84-c4ee-73c2-a87b-ff46a7d3dde5","2025-09-02_08h23.37.954",NA,NA,642.9261,642.9262,642.9263,643.2754,NA,NA,NA,NA,NA,NA,NA,TRUE,1,2.0883,639.9318,642.926,NA,NA,NA,NA,NA,45,29,0,31,31,55,1,2,32,"likert"
"75855CF14D7445938636BC9DC9893591",1,"01990a97-dcf5-78ae-972f-b8d437c7e986","01990a84-c4ee-73c2-a87b-ff46a7d3dde5","2025-09-02_08h23.37.954",NA,NA,646.2723,646.2724,646.2724,646.6215,NA,NA,NA,NA,NA,NA,NA,TRUE,5,2.2123,643.2776,646.272,NA,NA,NA,NA,NA,60,54,0,32,32,71,1,2,33,"likert"
"75855CF14D7445938636BC9DC9893591",1,"01990a97-dcf5-78ae-972f-b8d437c7e986","01990a84-c4ee-73c2-a87b-ff46a7d3dde5","2025-09-02_08h23.37.954",NA,NA,649.6179,649.6179,649.6179,649.9671,NA,NA,NA,NA,NA,NA,NA,TRUE,1,1.9196,646.6236,649.6175,NA,NA,NA,NA,NA,150,40,0,33,33,93,1,2,34,"likert"
"75855CF14D7445938636BC9DC9893591",1,"01990a97-dcf5-78ae-972f-b8d437c7e986","01990a84-c4ee-73c2-a87b-ff46a7d3dde5","2025-09-02_08h23.37.954",NA,NA,652.9805,652.9806,652.9806,653.3296,NA,NA,NA,NA,NA,NA,NA,TRUE,1,0.7837,649.9694,652.9802,NA,NA,NA,NA,NA,100,46,0,34,34,88,1,2,35,"likert"
"75855CF14D7445938636BC9DC9893591",1,"01990a97-dcf5-78ae-972f-b8d437c7e986","01990a84-c4ee-73c2-a87b-ff46a7d3dde5","2025-09-02_08h23.37.954",NA,NA,656.3259,656.3261,656.3261,656.6756,NA,NA,NA,NA,NA,NA,NA,TRUE,1,1.1955,653.3319,656.3258,NA,NA,NA,NA,NA,150,54,0,35,35,95,1,2,36,"likert"
"75855CF14D7445938636BC9DC9893591",1,"01990a97-dcf5-78ae-972f-b8d437c7e986","01990a84-c4ee-73c2-a87b-ff46a7d3dde5","2025-09-02_08h23.37.954",NA,NA,659.6723,659.6723,659.6723,660.0213,NA,NA,NA,NA,NA,NA,NA,TRUE,4,1.6569,656.6777,659.6719,NA,NA,NA,NA,NA,25,35,0,36,36,34,1,2,37,"likert"
"75855CF14D7445938636BC9DC9893591",1,"01990a97-dcf5-78ae-972f-b8d437c7e986","01990a84-c4ee-73c2-a87b-ff46a7d3dde5","2025-09-02_08h23.37.954",NA,NA,663.0179,663.0179,663.0179,663.3674,NA,NA,NA,NA,NA,NA,NA,TRUE,1,0.7393,660.0237,663.0175,NA,NA,NA,NA,NA,14,32,0,37,37,21,1,2,38,"likert"
"75855CF14D7445938636BC9DC9893591",1,"01990a97-dcf5-78ae-972f-b8d437c7e986","01990a84-c4ee-73c2-a87b-ff46a7d3dde5","2025-09-02_08h23.37.954",NA,NA,666.3804,666.3805,666.3806,666.7298,NA,NA,NA,NA,NA,NA,NA,TRUE,1,1.3661,663.3699,666.3803,NA,NA,NA,NA,NA,90,40,0,38,38,75,1,2,39,"likert"
"75855CF14D7445938636BC9DC9893591",1,"01990a97-dcf5-78ae-972f-b8d437c7e986","01990a84-c4ee-73c2-a87b-ff46a7d3dde5","2025-09-02_08h23.37.954",NA,NA,669.7264,669.7264,669.7264,670.0757,NA,NA,NA,NA,NA,NA,NA,TRUE,4,2.2683,666.7319,669.7262,NA,NA,NA,NA,NA,30,30,0,39,39,45,1,2,40,"likert"
"75855CF14D7445938636BC9DC9893591",1,"01990a97-dcf5-78ae-972f-b8d437c7e986","01990a84-c4ee-73c2-a87b-ff46a7d3dde5","2025-09-02_08h23.37.954",NA,NA,673.072,673.072,673.0721,673.4211,NA,NA,NA,NA,NA,NA,NA,TRUE,1,1.6548,670.0778,673.0717,NA,NA,NA,NA,NA,30,29,0,40,40,44,1,2,41,"likert"
"75855CF14D7445938636BC9DC9893591",1,"01990a97-dcf5-78ae-972f-b8d437c7e986","01990a84-c4ee-73c2-a87b-ff46a7d3dde5","2025-09-02_08h23.37.954",NA,NA,676.4181,676.4181,676.4181,676.767,NA,NA,NA,NA,NA,NA,NA,TRUE,1,1.5625,673.4234,676.4176,NA,NA,NA,NA,NA,150,35,0,41,41,92,1,2,42,"likert"
"75855CF14D7445938636BC9DC9893591",1,"01990a97-dcf5-78ae-972f-b8d437c7e986","01990a84-c4ee-73c2-a87b-ff46a7d3dde5","2025-09-02_08h23.37.954",NA,NA,679.7805,679.7806,679.7806,680.1295,NA,NA,NA,NA,NA,NA,NA,TRUE,1,1.2055,676.7692,679.7802,NA,NA,NA,NA,NA,200,26,0,42,42,102,1,2,43,"likert"
"75855CF14D7445938636BC9DC9893591",1,"01990a97-dcf5-78ae-972f-b8d437c7e986","01990a84-c4ee-73c2-a87b-ff46a7d3dde5","2025-09-02_08h23.37.954",NA,NA,683.1261,683.1261,683.1261,683.4757,NA,NA,NA,NA,NA,NA,NA,TRUE,1,1.4287,680.1319,683.1257,NA,NA,NA,NA,NA,10,30,0,43,43,10,1,2,44,"likert"
"75855CF14D7445938636BC9DC9893591",1,"01990a97-dcf5-78ae-972f-b8d437c7e986","01990a84-c4ee-73c2-a87b-ff46a7d3dde5","2025-09-02_08h23.37.954",NA,NA,686.4721,686.4721,686.4721,686.8214,NA,NA,NA,NA,NA,NA,NA,TRUE,1,2.0371,683.4781,686.4717,NA,NA,NA,NA,NA,30,27,0,44,44,43,1,2,45,"likert"
"75855CF14D7445938636BC9DC9893591",1,"01990a97-dcf5-78ae-972f-b8d437c7e986","01990a84-c4ee-73c2-a87b-ff46a7d3dde5","2025-09-02_08h23.37.954",NA,NA,689.8182,689.8182,689.8183,690.1675,NA,NA,NA,NA,NA,NA,NA,TRUE,1,0.9715,686.8235,689.8178,NA,NA,NA,NA,NA,40,40,0,45,45,51,1,2,46,"likert"
"75855CF14D7445938636BC9DC9893591",1,"01990a97-dcf5-78ae-972f-b8d437c7e986","01990a84-c4ee-73c2-a87b-ff46a7d3dde5","2025-09-02_08h23.37.954",NA,NA,693.1805,693.1805,693.1805,693.5296,NA,NA,NA,NA,NA,NA,NA,TRUE,3,2.2444,690.1695,693.18,NA,NA,NA,NA,NA,21,32,0,46,46,28,1,2,47,"likert"
"75855CF14D7445938636BC9DC9893591",1,"01990a97-dcf5-78ae-972f-b8d437c7e986","01990a84-c4ee-73c2-a87b-ff46a7d3dde5","2025-09-02_08h23.37.954",NA,NA,696.5274,696.5279,696.5279,696.8754,NA,NA,NA,NA,NA,NA,NA,TRUE,4,1.2294,693.5316,696.5264,NA,NA,NA,NA,NA,25,33,0,47,47,33,1,2,48,"likert"
"75855CF14D7445938636BC9DC9893591",1,"01990a97-dcf5-78ae-972f-b8d437c7e986","01990a84-c4ee-73c2-a87b-ff46a7d3dde5","2025-09-02_08h23.37.954",NA,NA,699.8718,699.8718,699.8719,700.2212,NA,NA,NA,NA,NA,NA,NA,TRUE,1,1.0071,696.8777,699.8717,NA,NA,NA,NA,NA,100,38,0,48,48,86,1,2,49,"likert"
"75855CF14D7445938636BC9DC9893591",1,"01990a97-dcf5-78ae-972f-b8d437c7e986","01990a84-c4ee-73c2-a87b-ff46a7d3dde5","2025-09-02_08h23.37.954",NA,NA,703.218,703.218,703.218,703.567,NA,NA,NA,NA,NA,NA,NA,TRUE,1,1.0633,700.2236,703.2177,NA,NA,NA,NA,NA,150,33,0,49,49,91,1,2,50,"likert"
"75855CF14D7445938636BC9DC9893591",1,"01990a97-dcf5-78ae-972f-b8d437c7e986","01990a84-c4ee-73c2-a87b-ff46a7d3dde5","2025-09-02_08h23.37.954",NA,NA,706.5802,706.5804,706.5804,706.9296,NA,NA,NA,NA,NA,NA,NA,TRUE,1,1.986,703.5692,706.58,NA,NA,NA,NA,NA,150,47,0,50,50,94,1,2,51,"likert"
"75855CF14D7445938636BC9DC9893591",1,"01990a97-dcf5-78ae-972f-b8d437c7e986","01990a84-c4ee-73c2-a87b-ff46a7d3dde5","2025-09-02_08h23.37.954",NA,NA,709.9264,709.9264,709.9269,710.2756,NA,NA,NA,NA,NA,NA,NA,TRUE,1,1.443,706.9319,709.926,NA,NA,NA,NA,NA,12,25,0,51,51,12,1,2,52,"likert"
"75855CF14D7445938636BC9DC9893591",1,"01990a97-dcf5-78ae-972f-b8d437c7e986","01990a84-c4ee-73c2-a87b-ff46a7d3dde5","2025-09-02_08h23.37.954",NA,NA,713.2719,713.272,713.2721,713.6215,NA,NA,NA,NA,NA,NA,NA,TRUE,1,1.3786,710.2776,713.2718,NA,NA,NA,NA,NA,200,28,0,52,52,103,1,2,53,"likert"
"75855CF14D7445938636BC9DC9893591",1,"01990a97-dcf5-78ae-972f-b8d437c7e986","01990a84-c4ee-73c2-a87b-ff46a7d3dde5","2025-09-02_08h23.37.954",NA,NA,716.618,716.6181,716.6182,716.9672,NA,NA,NA,NA,NA,NA,NA,TRUE,1,1.6637,713.6238,716.6178,NA,NA,NA,NA,NA,28,28,0,53,53,37,1,2,54,"likert"
"75855CF14D7445938636BC9DC9893591",1,"01990a97-dcf5-78ae-972f-b8d437c7e986","01990a84-c4ee-73c2-a87b-ff46a7d3dde5","2025-09-02_08h23.37.954",NA,NA,719.9804,719.9804,719.9805,720.3296,NA,NA,NA,NA,NA,NA,NA,TRUE,1,1.6876,716.9693,719.9801,NA,NA,NA,NA,NA,50,27,0,54,54,60,1,2,55,"likert"
"75855CF14D7445938636BC9DC9893591",1,"01990a97-dcf5-78ae-972f-b8d437c7e986","01990a84-c4ee-73c2-a87b-ff46a7d3dde5","2025-09-02_08h23.37.954",NA,NA,723.3262,723.3264,723.3264,723.6757,NA,NA,NA,NA,NA,NA,NA,TRUE,1,1.3388,720.3318,723.3261,NA,NA,NA,NA,NA,28,26,0,55,55,36,1,2,56,"likert"
"75855CF14D7445938636BC9DC9893591",1,"01990a97-dcf5-78ae-972f-b8d437c7e986","01990a84-c4ee-73c2-a87b-ff46a7d3dde5","2025-09-02_08h23.37.954",NA,NA,726.672,726.6721,726.6721,727.0213,NA,NA,NA,NA,NA,NA,NA,TRUE,5,2.126,723.6779,726.6719,NA,NA,NA,NA,NA,25,46,0,56,56,35,1,2,57,"likert"
"75855CF14D7445938636BC9DC9893591",1,"01990a97-dcf5-78ae-972f-b8d437c7e986","01990a84-c4ee-73c2-a87b-ff46a7d3dde5","2025-09-02_08h23.37.954",NA,NA,730.0183,730.0185,730.0188,730.3671,NA,NA,NA,NA,NA,NA,NA,TRUE,1,1.1706,727.0235,730.0178,NA,NA,NA,NA,NA,90,33,0,57,57,74,1,2,58,"likert"
"75855CF14D7445938636BC9DC9893591",1,"01990a97-dcf5-78ae-972f-b8d437c7e986","01990a84-c4ee-73c2-a87b-ff46a7d3dde5","2025-09-02_08h23.37.954",NA,NA,733.3805,733.3806,733.3806,733.73,NA,NA,NA,NA,NA,NA,NA,TRUE,4,1.2317,730.3695,733.3801,NA,NA,NA,NA,NA,60,47,0,58,58,70,1,2,59,"likert"
"75855CF14D7445938636BC9DC9893591",1,"01990a97-dcf5-78ae-972f-b8d437c7e986","01990a84-c4ee-73c2-a87b-ff46a7d3dde5","2025-09-02_08h23.37.954",NA,NA,736.7266,736.7269,736.7269,737.0754,NA,NA,NA,NA,NA,NA,NA,TRUE,1,1.6111,733.732,736.7265,NA,NA,NA,NA,NA,7,32,0,59,59,4,1,2,60,"likert"
"75855CF14D7445938636BC9DC9893591",1,"01990a97-dcf5-78ae-972f-b8d437c7e986","01990a84-c4ee-73c2-a87b-ff46a7d3dde5","2025-09-02_08h23.37.954",NA,NA,740.072,740.0721,740.0722,740.4212,NA,NA,NA,NA,NA,NA,NA,TRUE,1,1.8136,737.0779,740.0718,NA,NA,NA,NA,NA,50,46,0,60,60,64,1,2,61,"likert"
"75855CF14D7445938636BC9DC9893591",1,"01990a97-dcf5-78ae-972f-b8d437c7e986","01990a84-c4ee-73c2-a87b-ff46a7d3dde5","2025-09-02_08h23.37.954",NA,NA,743.4181,743.4181,743.4181,743.7672,NA,NA,NA,NA,NA,NA,NA,TRUE,1,1.9727,740.4237,743.4178,NA,NA,NA,NA,NA,90,30,0,61,61,73,1,2,62,"likert"
"75855CF14D7445938636BC9DC9893591",1,"01990a97-dcf5-78ae-972f-b8d437c7e986","01990a84-c4ee-73c2-a87b-ff46a7d3dde5","2025-09-02_08h23.37.954",NA,NA,746.7807,746.7808,746.7808,747.1297,NA,NA,NA,NA,NA,NA,NA,TRUE,1,1.7194,743.7694,746.7804,NA,NA,NA,NA,NA,21,26,0,62,62,24,1,2,63,"likert"
"75855CF14D7445938636BC9DC9893591",1,"01990a97-dcf5-78ae-972f-b8d437c7e986","01990a84-c4ee-73c2-a87b-ff46a7d3dde5","2025-09-02_08h23.37.954",NA,NA,750.126,750.126,750.126,750.4757,NA,NA,NA,NA,NA,NA,NA,TRUE,1,2.0801,747.1326,750.1259,NA,NA,NA,NA,NA,95,54,0,63,63,83,1,2,64,"likert"
"75855CF14D7445938636BC9DC9893591",1,"01990a97-dcf5-78ae-972f-b8d437c7e986","01990a84-c4ee-73c2-a87b-ff46a7d3dde5","2025-09-02_08h23.37.954",NA,NA,753.4722,753.4723,753.4723,753.8216,NA,NA,NA,NA,NA,NA,NA,TRUE,1,2.0673,750.4781,753.4721,NA,NA,NA,NA,NA,10,26,0,64,64,7,1,2,65,"likert"
"75855CF14D7445938636BC9DC9893591",1,"01990a97-dcf5-78ae-972f-b8d437c7e986","01990a84-c4ee-73c2-a87b-ff46a7d3dde5","2025-09-02_08h23.37.954",NA,NA,756.8178,756.818,756.818,757.1672,NA,NA,NA,NA,NA,NA,NA,TRUE,4,2.0705,753.824,756.8177,NA,NA,NA,NA,NA,40,47,0,65,65,52,1,2,66,"likert"
"75855CF14D7445938636BC9DC9893591",1,"01990a97-dcf5-78ae-972f-b8d437c7e986","01990a84-c4ee-73c2-a87b-ff46a7d3dde5","2025-09-02_08h23.37.954",NA,NA,760.1804,760.1806,760.1806,760.5297,NA,NA,NA,NA,NA,NA,NA,TRUE,1,2.0964,757.1695,760.1803,NA,NA,NA,NA,NA,90,46,0,66,66,76,1,2,67,"likert"
"75855CF14D7445938636BC9DC9893591",1,"01990a97-dcf5-78ae-972f-b8d437c7e986","01990a84-c4ee-73c2-a87b-ff46a7d3dde5","2025-09-02_08h23.37.954",NA,NA,763.5266,763.5267,763.5267,763.8757,NA,NA,NA,NA,NA,NA,NA,TRUE,1,1.9949,760.5322,763.5263,NA,NA,NA,NA,NA,28,32,0,67,67,38,1,2,68,"likert"
"75855CF14D7445938636BC9DC9893591",1,"01990a97-dcf5-78ae-972f-b8d437c7e986","01990a84-c4ee-73c2-a87b-ff46a7d3dde5","2025-09-02_08h23.37.954",NA,NA,766.8719,766.872,766.872,767.2213,NA,NA,NA,NA,NA,NA,NA,TRUE,4,2.1945,763.8784,766.8717,NA,NA,NA,NA,NA,12,33,0,68,68,16,1,2,69,"likert"
"75855CF14D7445938636BC9DC9893591",1,"01990a97-dcf5-78ae-972f-b8d437c7e986","01990a84-c4ee-73c2-a87b-ff46a7d3dde5","2025-09-02_08h23.37.954",NA,NA,770.2179,770.2181,770.2181,770.5673,NA,NA,NA,NA,NA,NA,NA,TRUE,4,2.0713,767.2236,770.2177,NA,NA,NA,NA,NA,180,39,0,69,69,99,1,2,70,"likert"
"75855CF14D7445938636BC9DC9893591",1,"01990a97-dcf5-78ae-972f-b8d437c7e986","01990a84-c4ee-73c2-a87b-ff46a7d3dde5","2025-09-02_08h23.37.954",NA,NA,773.5806,773.5807,773.5808,773.9297,NA,NA,NA,NA,NA,NA,NA,TRUE,1,1.8436,770.5698,773.5804,NA,NA,NA,NA,NA,200,35,0,70,70,104,1,2,71,"likert"
"75855CF14D7445938636BC9DC9893591",1,"01990a97-dcf5-78ae-972f-b8d437c7e986","01990a84-c4ee-73c2-a87b-ff46a7d3dde5","2025-09-02_08h23.37.954",NA,NA,776.9264,776.9264,776.9264,777.2756,NA,NA,NA,NA,NA,NA,NA,TRUE,1,1.24,773.9321,776.9263,NA,NA,NA,NA,NA,95,40,0,71,71,81,1,2,72,"likert"
"75855CF14D7445938636BC9DC9893591",1,"01990a97-dcf5-78ae-972f-b8d437c7e986","01990a84-c4ee-73c2-a87b-ff46a7d3dde5","2025-09-02_08h23.37.954",NA,NA,780.2719,780.272,780.272,780.6215,NA,NA,NA,NA,NA,NA,NA,TRUE,1,1.2624,777.2778,780.2719,NA,NA,NA,NA,NA,14,35,0,72,72,22,1,2,73,"likert"
"75855CF14D7445938636BC9DC9893591",1,"01990a97-dcf5-78ae-972f-b8d437c7e986","01990a84-c4ee-73c2-a87b-ff46a7d3dde5","2025-09-02_08h23.37.954",NA,NA,783.6183,783.6183,783.6184,783.9671,NA,NA,NA,NA,NA,NA,NA,TRUE,1,1.58,780.6236,783.6179,NA,NA,NA,NA,NA,14,25,0,73,73,18,1,2,74,"likert"
"75855CF14D7445938636BC9DC9893591",1,"01990a97-dcf5-78ae-972f-b8d437c7e986","01990a84-c4ee-73c2-a87b-ff46a7d3dde5","2025-09-02_08h23.37.954",NA,NA,786.9803,786.9805,786.9805,787.3299,NA,NA,NA,NA,NA,NA,NA,TRUE,3,1.3025,783.9692,786.9802,NA,NA,NA,NA,NA,30,38,0,74,74,47,1,2,75,"likert"
"75855CF14D7445938636BC9DC9893591",1,"01990a97-dcf5-78ae-972f-b8d437c7e986","01990a84-c4ee-73c2-a87b-ff46a7d3dde5","2025-09-02_08h23.37.954",NA,NA,790.3264,790.3267,790.3267,790.6758,NA,NA,NA,NA,NA,NA,NA,TRUE,1,1.4961,787.3318,790.3264,NA,NA,NA,NA,NA,180,27,0,75,75,96,1,2,76,"likert"
"75855CF14D7445938636BC9DC9893591",1,"01990a97-dcf5-78ae-972f-b8d437c7e986","01990a84-c4ee-73c2-a87b-ff46a7d3dde5","2025-09-02_08h23.37.954",NA,NA,793.6723,793.6724,793.6724,794.0217,NA,NA,NA,NA,NA,NA,NA,TRUE,1,1.3034,790.678,793.6721,NA,NA,NA,NA,NA,60,29,0,76,76,66,1,2,77,"likert"
"75855CF14D7445938636BC9DC9893591",1,"01990a97-dcf5-78ae-972f-b8d437c7e986","01990a84-c4ee-73c2-a87b-ff46a7d3dde5","2025-09-02_08h23.37.954",NA,NA,797.0184,797.0186,797.0187,797.3675,NA,NA,NA,NA,NA,NA,NA,TRUE,1,2.201,794.024,797.0183,NA,NA,NA,NA,NA,28,46,0,77,77,41,1,2,78,"likert"
"75855CF14D7445938636BC9DC9893591",1,"01990a97-dcf5-78ae-972f-b8d437c7e986","01990a84-c4ee-73c2-a87b-ff46a7d3dde5","2025-09-02_08h23.37.954",NA,NA,800.3806,800.6304,800.6304,800.73,NA,NA,NA,NA,NA,NA,NA,FALSE,NA,NA,797.3697,800.3803,NA,NA,NA,NA,NA,90,54,0,78,78,77,1,2,79,"likert"
"75855CF14D7445938636BC9DC9893591",1,"01990a97-dcf5-78ae-972f-b8d437c7e986","01990a84-c4ee-73c2-a87b-ff46a7d3dde5","2025-09-02_08h23.37.954",NA,NA,803.7265,803.7265,803.7265,804.0756,NA,NA,NA,NA,NA,NA,NA,TRUE,1,0.5966,800.7322,803.7264,NA,NA,NA,NA,NA,7,28,0,79,79,2,1,2,80,"likert"
"75855CF14D7445938636BC9DC9893591",1,"01990a97-dcf5-78ae-972f-b8d437c7e986","01990a84-c4ee-73c2-a87b-ff46a7d3dde5","2025-09-02_08h23.37.954",NA,NA,807.0725,807.0727,807.0727,807.4216,NA,NA,NA,NA,NA,NA,NA,TRUE,1,0.9367,804.0779,807.0721,NA,NA,NA,NA,NA,180,35,0,80,80,98,1,2,81,"likert"
"75855CF14D7445938636BC9DC9893591",1,"01990a97-dcf5-78ae-972f-b8d437c7e986","01990a84-c4ee-73c2-a87b-ff46a7d3dde5","2025-09-02_08h23.37.954",NA,NA,810.4181,810.4181,810.4181,810.7673,NA,NA,NA,NA,NA,NA,NA,TRUE,3,2.5285,807.4239,810.4177,NA,NA,NA,NA,NA,10,27,0,81,81,8,1,2,82,"likert"
"75855CF14D7445938636BC9DC9893591",1,"01990a97-dcf5-78ae-972f-b8d437c7e986","01990a84-c4ee-73c2-a87b-ff46a7d3dde5","2025-09-02_08h23.37.954",NA,NA,813.782,813.7822,813.7822,814.1318,NA,NA,NA,NA,NA,NA,NA,TRUE,1,1.3075,810.7699,813.7811,NA,NA,NA,NA,NA,100,39,0,82,82,87,1,2,83,"likert"
"75855CF14D7445938636BC9DC9893591",1,"01990a97-dcf5-78ae-972f-b8d437c7e986","01990a84-c4ee-73c2-a87b-ff46a7d3dde5","2025-09-02_08h23.37.954",NA,NA,817.1266,817.1266,817.1266,817.4756,NA,NA,NA,NA,NA,NA,NA,TRUE,1,1.8946,814.133,817.1263,NA,NA,NA,NA,NA,30,26,0,83,83,42,1,2,84,"likert"
"75855CF14D7445938636BC9DC9893591",1,"01990a97-dcf5-78ae-972f-b8d437c7e986","01990a84-c4ee-73c2-a87b-ff46a7d3dde5","2025-09-02_08h23.37.954",NA,NA,820.4732,820.4736,820.4738,820.8217,NA,NA,NA,NA,NA,NA,NA,TRUE,1,1.077,817.478,820.4728,NA,NA,NA,NA,NA,180,54,0,84,84,101,1,2,85,"likert"
"75855CF14D7445938636BC9DC9893591",1,"01990a97-dcf5-78ae-972f-b8d437c7e986","01990a84-c4ee-73c2-a87b-ff46a7d3dde5","2025-09-02_08h23.37.954",NA,NA,823.8185,823.8187,823.8188,824.1677,NA,NA,NA,NA,NA,NA,NA,TRUE,1,1.3549,820.8237,823.8182,NA,NA,NA,NA,NA,12,26,0,85,85,13,1,2,86,"likert"
"75855CF14D7445938636BC9DC9893591",1,"01990a97-dcf5-78ae-972f-b8d437c7e986","01990a84-c4ee-73c2-a87b-ff46a7d3dde5","2025-09-02_08h23.37.954",NA,NA,827.1803,827.1805,827.1805,827.53,NA,NA,NA,NA,NA,NA,NA,TRUE,3,1.7659,824.1697,827.1803,NA,NA,NA,NA,NA,28,35,0,86,86,39,1,2,87,"likert"
"75855CF14D7445938636BC9DC9893591",1,"01990a97-dcf5-78ae-972f-b8d437c7e986","01990a84-c4ee-73c2-a87b-ff46a7d3dde5","2025-09-02_08h23.37.954",NA,NA,830.5262,830.5262,830.5262,830.8756,NA,NA,NA,NA,NA,NA,NA,TRUE,3,1.8284,827.5322,830.5261,NA,NA,NA,NA,NA,21,38,0,87,87,29,1,2,88,"likert"
"75855CF14D7445938636BC9DC9893591",1,"01990a97-dcf5-78ae-972f-b8d437c7e986","01990a84-c4ee-73c2-a87b-ff46a7d3dde5","2025-09-02_08h23.37.954",NA,NA,833.872,833.8721,833.8722,834.2216,NA,NA,NA,NA,NA,NA,NA,TRUE,2,2.1856,830.8779,833.8719,NA,NA,NA,NA,NA,14,28,0,88,88,20,1,2,89,"likert"
"75855CF14D7445938636BC9DC9893591",1,"01990a97-dcf5-78ae-972f-b8d437c7e986","01990a84-c4ee-73c2-a87b-ff46a7d3dde5","2025-09-02_08h23.37.954",NA,NA,837.218,837.2181,837.2181,837.5672,NA,NA,NA,NA,NA,NA,NA,TRUE,2,2.1853,834.2238,837.2178,NA,NA,NA,NA,NA,25,29,0,89,89,31,1,2,90,"likert"
"75855CF14D7445938636BC9DC9893591",1,"01990a97-dcf5-78ae-972f-b8d437c7e986","01990a84-c4ee-73c2-a87b-ff46a7d3dde5","2025-09-02_08h23.37.954",NA,NA,840.5805,840.5806,840.5806,840.9299,NA,NA,NA,NA,NA,NA,NA,TRUE,1,2.2676,837.5696,840.5804,NA,NA,NA,NA,NA,100,31,0,90,90,85,1,2,91,"likert"
"75855CF14D7445938636BC9DC9893591",1,"01990a97-dcf5-78ae-972f-b8d437c7e986","01990a84-c4ee-73c2-a87b-ff46a7d3dde5","2025-09-02_08h23.37.954",NA,NA,843.9264,843.9264,843.9264,844.2757,NA,NA,NA,NA,NA,NA,NA,TRUE,1,1.4488,840.9321,843.9261,NA,NA,NA,NA,NA,90,26,0,91,91,72,1,2,92,"likert"
"75855CF14D7445938636BC9DC9893591",1,"01990a97-dcf5-78ae-972f-b8d437c7e986","01990a84-c4ee-73c2-a87b-ff46a7d3dde5","2025-09-02_08h23.37.954",NA,NA,847.2725,847.2725,847.2726,847.6217,NA,NA,NA,NA,NA,NA,NA,TRUE,1,1.4953,844.2781,847.2722,NA,NA,NA,NA,NA,28,39,0,92,92,40,1,2,93,"likert"
"75855CF14D7445938636BC9DC9893591",1,"01990a97-dcf5-78ae-972f-b8d437c7e986","01990a84-c4ee-73c2-a87b-ff46a7d3dde5","2025-09-02_08h23.37.954",NA,NA,850.6181,850.6181,850.6182,850.9675,NA,NA,NA,NA,NA,NA,NA,TRUE,1,0.9908,847.6236,850.6179,NA,NA,NA,NA,NA,25,27,0,93,93,30,1,2,94,"likert"
"75855CF14D7445938636BC9DC9893591",1,"01990a97-dcf5-78ae-972f-b8d437c7e986","01990a84-c4ee-73c2-a87b-ff46a7d3dde5","2025-09-02_08h23.37.954",NA,NA,853.9809,853.981,853.981,854.33,NA,NA,NA,NA,NA,NA,NA,TRUE,1,1.1129,850.9697,853.9806,NA,NA,NA,NA,NA,95,31,0,94,94,78,1,2,95,"likert"
"75855CF14D7445938636BC9DC9893591",1,"01990a97-dcf5-78ae-972f-b8d437c7e986","01990a84-c4ee-73c2-a87b-ff46a7d3dde5","2025-09-02_08h23.37.954",NA,NA,857.3261,857.3262,857.3263,857.6779,NA,NA,NA,NA,NA,NA,NA,TRUE,1,1.4649,854.3321,857.326,NA,NA,NA,NA,NA,45,40,0,95,95,58,1,2,96,"likert"
"75855CF14D7445938636BC9DC9893591",1,"01990a97-dcf5-78ae-972f-b8d437c7e986","01990a84-c4ee-73c2-a87b-ff46a7d3dde5","2025-09-02_08h23.37.954",NA,NA,860.6723,860.6723,860.6723,861.0217,NA,NA,NA,NA,NA,NA,NA,TRUE,1,1.8267,857.679,860.6718,NA,NA,NA,NA,NA,45,35,0,96,96,57,1,2,97,"likert"
"75855CF14D7445938636BC9DC9893591",1,"01990a97-dcf5-78ae-972f-b8d437c7e986","01990a84-c4ee-73c2-a87b-ff46a7d3dde5","2025-09-02_08h23.37.954",NA,NA,864.0181,864.0182,864.0183,864.3672,NA,NA,NA,NA,NA,NA,NA,TRUE,1,1.9744,861.0238,864.018,NA,NA,NA,NA,NA,45,26,0,97,97,54,1,2,98,"likert"
"75855CF14D7445938636BC9DC9893591",1,"01990a97-dcf5-78ae-972f-b8d437c7e986","01990a84-c4ee-73c2-a87b-ff46a7d3dde5","2025-09-02_08h23.37.954",NA,NA,867.3808,867.3808,867.3808,867.7299,NA,NA,NA,NA,NA,NA,NA,TRUE,5,2.1632,864.3697,867.3804,NA,NA,NA,NA,NA,12,28,0,98,98,14,1,2,99,"likert"
"75855CF14D7445938636BC9DC9893591",1,"01990a97-dcf5-78ae-972f-b8d437c7e986","01990a84-c4ee-73c2-a87b-ff46a7d3dde5","2025-09-02_08h23.37.954",NA,NA,870.7266,870.7266,870.7268,871.0758,NA,NA,NA,NA,NA,NA,NA,TRUE,2,1.9042,867.7322,870.7264,NA,NA,NA,NA,NA,180,31,0,99,99,97,1,2,100,"likert"
"75855CF14D7445938636BC9DC9893591",1,"01990a97-dcf5-78ae-972f-b8d437c7e986","01990a84-c4ee-73c2-a87b-ff46a7d3dde5","2025-09-02_08h23.37.954",NA,NA,874.0723,874.0725,874.0725,874.4214,NA,NA,NA,NA,NA,NA,NA,TRUE,5,1.8668,871.0784,874.0721,NA,NA,NA,NA,NA,7,30,0,100,100,3,1,2,101,"likert"
"75855CF14D7445938636BC9DC9893591",1,"01990a97-dcf5-78ae-972f-b8d437c7e986","01990a84-c4ee-73c2-a87b-ff46a7d3dde5","2025-09-02_08h23.37.954",NA,NA,877.4184,877.4185,877.4185,877.7674,NA,NA,NA,NA,NA,NA,NA,TRUE,5,1.5792,874.4236,877.418,NA,NA,NA,NA,NA,14,39,0,101,101,23,1,2,102,"likert"
"75855CF14D7445938636BC9DC9893591",1,"01990a97-dcf5-78ae-972f-b8d437c7e986","01990a84-c4ee-73c2-a87b-ff46a7d3dde5","2025-09-02_08h23.37.954",NA,NA,880.7805,880.7808,880.7808,881.1299,NA,NA,NA,NA,NA,NA,NA,TRUE,1,1.3627,877.7696,880.7805,NA,NA,NA,NA,NA,45,46,0,102,102,59,1,2,103,"likert"
"75855CF14D7445938636BC9DC9893591",1,"01990a97-dcf5-78ae-972f-b8d437c7e986","01990a84-c4ee-73c2-a87b-ff46a7d3dde5","2025-09-02_08h23.37.954",NA,NA,884.1264,884.1265,884.1265,884.4759,NA,NA,NA,NA,NA,NA,NA,TRUE,5,2.3139,881.132,884.1263,NA,NA,NA,NA,NA,21,29,0,103,103,26,1,2,104,"likert"
"75855CF14D7445938636BC9DC9893591",1,"01990a97-dcf5-78ae-972f-b8d437c7e986","01990a84-c4ee-73c2-a87b-ff46a7d3dde5","2025-09-02_08h23.37.954",NA,NA,887.4724,887.4725,887.4725,887.8215,NA,NA,NA,NA,NA,NA,NA,TRUE,5,1.5919,884.4781,887.4722,NA,NA,NA,NA,NA,21,27,0,104,104,25,1,2,105,"likert"
"75855CF14D7445938636BC9DC9893591",1,"01990a97-dcf5-78ae-972f-b8d437c7e986","01990a84-c4ee-73c2-a87b-ff46a7d3dde5","2025-09-02_08h23.37.954",NA,NA,890.8179,890.8179,890.8181,891.1718,NA,NA,NA,NA,NA,NA,NA,TRUE,1,1.6792,887.8238,890.8178,NA,NA,NA,NA,NA,7,25,0,105,105,0,1,2,106,"likert"
"75855CF14D7445938636BC9DC9893591",1,"01990a97-dcf5-78ae-972f-b8d437c7e986","01990a84-c4ee-73c2-a87b-ff46a7d3dde5","2025-09-02_08h23.37.954",NA,NA,894.1806,894.1808,894.1809,894.5298,NA,NA,NA,NA,NA,NA,NA,TRUE,1,1.1713,891.1739,894.1805,NA,NA,NA,NA,NA,50,35,0,106,106,62,1,2,107,"likert"
"75855CF14D7445938636BC9DC9893591",1,"01990a97-dcf5-78ae-972f-b8d437c7e986","01990a84-c4ee-73c2-a87b-ff46a7d3dde5","2025-09-02_08h23.37.954",NA,NA,897.5268,897.5268,897.5268,897.876,NA,NA,NA,NA,NA,NA,NA,TRUE,1,2.0698,894.532,897.5263,NA,NA,NA,NA,NA,14,26,0,107,107,19,1,2,108,"likert"
