"participant","session","assignmentId","projectId","date","practiceTrial.started","practiceTrial.stopped","tooLate.started","tooLate.stopped","blank.started","blank.stopped","trials_pract.thisRepN","trials_pract.thisTrialN","trials_pract.thisN","trials_pract.thisIndex","trials_pract.ran","delay_pract","amount_pract","responseMade","key","rt","trial.started","trial.stopped","trials.thisRepN","trials.thisTrialN","trials.thisN","trials.thisIndex","trials.ran","delay","amount","trials_2.thisRepN","trials_2.thisTrialN","trials_2.thisN","trials_2.thisIndex","trials_2.ran","block","trial","taskType"
"8975664DAC7B4D7D926F3667FFF9A602",1,"01990a98-3114-78cc-8a4d-80abc0a3c0eb","01990a84-c4ee-73c2-a87b-ff46a7d3dde5","2025-09-02_09h24.23.984",109.7696,112.7922,112.7925,112.7931,112.7932,113.1247,0,0,0,2,1,14,45,FALSE,NA,NA,NA,NA,NA,NA,NA,NA,NA,NA,NA,NA,NA,NA,NA,NA,0,1,"likert"
"8975664DAC7B4D7D926F3667FFF9A602",1,"01990a98-3114-78cc-8a4d-80abc0a3c0eb","01990a84-c4ee-73c2-a87b-ff46a7d3dde5","2025-09-02_09h24.23.984",113.1271,116.1089,116.1092,116.1092,116.1092,116.4445,0,1,1,1,1,100,50,FALSE,NA,NA,NA,NA,NA,NA,NA,NA,NA,NA,NA,NA,NA,NA,NA,NA,0,2,"likert"
"8975664DAC7B4D7D926F3667FFF9A602",1,"01990a98-3114-78cc-8a4d-80abc0a3c0eb","01990a84-c4ee-73c2-a87b-ff46a7d3dde5","2025-09-02_09h24.23.984",116.4457,119.27,119.2703,119.6014,119.6014,119.7649,0,2,2,3,1,3,27,FALSE,NA,NA,NA,NA,NA,NA,NA,NA,NA,NA,NA,NA,NA,NA,NA,NA,0,3,"likert"
"8975664DAC7B4D7D926F3667FFF9A602",1,"01990a98-3114-78cc-8a4d-80abc0a3c0eb","01990a84-c4ee-73c2-a87b-ff46a7d3dde5","2025-09-02_09h24.23.984",119.7658,122.8734,122.8736,122.8737,122.8737,123.0343,0,3,3,0,1,7,30,TRUE,5,0.0026,NA,NA,NA,NA,NA,NA,NA,NA,NA,NA,NA,NA,NA,NA,0,4,"likert"
"8975664DAC7B4D7D926F3667FFF9A602",1,"01990a98-3114-78cc-8a4d-80abc0a3c0eb","01990a84-c4ee-73c2-a87b-ff46a7d3dde5","2025-09-02_09h24.23.984",123.035,126.0005,126.0007,126.0007,126.0008,126.5023,0,4,4,4,1,30,40,TRUE,1,1.4355,NA,NA,NA,NA,NA,NA,NA,NA,NA,NA,NA,NA,NA,NA,0,5,"likert"
"8975664DAC7B4D7D926F3667FFF9A602",1,"01990a98-3114-78cc-8a4d-80abc0a3c0eb","01990a84-c4ee-73c2-a87b-ff46a7d3dde5","2025-09-02_09h24.23.984",NA,NA,213.7779,213.7781,213.7781,214.1079,NA,NA,NA,NA,NA,NA,NA,TRUE,1,2.4703,210.776,213.7777,0,0,0,30,1,25,27,NA,NA,NA,NA,NA,1,1,"likert"
"8975664DAC7B4D7D926F3667FFF9A602",1,"01990a98-3114-78cc-8a4d-80abc0a3c0eb","01990a84-c4ee-73c2-a87b-ff46a7d3dde5","2025-09-02_09h24.23.984",NA,NA,217.089,217.089,217.089,217.4133,NA,NA,NA,NA,NA,NA,NA,TRUE,1,1.4206,214.1088,217.0887,0,1,1,37,1,28,28,NA,NA,NA,NA,NA,1,2,"likert"
"8975664DAC7B4D7D926F3667FFF9A602",1,"01990a98-3114-78cc-8a4d-80abc0a3c0eb","01990a84-c4ee-73c2-a87b-ff46a7d3dde5","2025-09-02_09h24.23.984",NA,NA,220.4152,220.4153,220.4153,220.7377,NA,NA,NA,NA,NA,NA,NA,TRUE,1,2.651,217.4141,220.415,0,2,2,91,1,150,33,NA,NA,NA,NA,NA,1,3,"likert"
"8975664DAC7B4D7D926F3667FFF9A602",1,"01990a98-3114-78cc-8a4d-80abc0a3c0eb","01990a84-c4ee-73c2-a87b-ff46a7d3dde5","2025-09-02_09h24.23.984",NA,NA,223.6993,224.0299,224.0299,224.1968,NA,NA,NA,NA,NA,NA,NA,FALSE,NA,NA,220.7385,223.6991,0,3,3,62,1,50,35,NA,NA,NA,NA,NA,1,4,"likert"
"8975664DAC7B4D7D926F3667FFF9A602",1,"01990a98-3114-78cc-8a4d-80abc0a3c0eb","01990a84-c4ee-73c2-a87b-ff46a7d3dde5","2025-09-02_09h24.23.984",NA,NA,227.1339,227.1339,227.1339,227.4657,NA,NA,NA,NA,NA,NA,NA,TRUE,1,1.5749,224.1978,227.1336,0,4,4,82,1,95,47,NA,NA,NA,NA,NA,1,5,"likert"
"8975664DAC7B4D7D926F3667FFF9A602",1,"01990a98-3114-78cc-8a4d-80abc0a3c0eb","01990a84-c4ee-73c2-a87b-ff46a7d3dde5","2025-09-02_09h24.23.984",NA,NA,230.4165,230.4165,230.4165,230.7401,NA,NA,NA,NA,NA,NA,NA,TRUE,1,1.5708,227.4666,230.4162,0,5,5,102,1,200,26,NA,NA,NA,NA,NA,1,6,"likert"
"8975664DAC7B4D7D926F3667FFF9A602",1,"01990a98-3114-78cc-8a4d-80abc0a3c0eb","01990a84-c4ee-73c2-a87b-ff46a7d3dde5","2025-09-02_09h24.23.984",NA,NA,233.8561,233.8562,233.8562,234.1841,NA,NA,NA,NA,NA,NA,NA,TRUE,1,1.2442,230.7409,233.8559,0,6,6,8,1,10,27,NA,NA,NA,NA,NA,1,7,"likert"
"8975664DAC7B4D7D926F3667FFF9A602",1,"01990a98-3114-78cc-8a4d-80abc0a3c0eb","01990a84-c4ee-73c2-a87b-ff46a7d3dde5","2025-09-02_09h24.23.984",NA,NA,237.1684,237.3473,237.3475,237.5156,NA,NA,NA,NA,NA,NA,NA,FALSE,NA,NA,234.1848,237.1682,0,7,7,25,1,21,27,NA,NA,NA,NA,NA,1,8,"likert"
"8975664DAC7B4D7D926F3667FFF9A602",1,"01990a98-3114-78cc-8a4d-80abc0a3c0eb","01990a84-c4ee-73c2-a87b-ff46a7d3dde5","2025-09-02_09h24.23.984",NA,NA,240.4933,240.4934,240.4934,240.8205,NA,NA,NA,NA,NA,NA,NA,TRUE,1,2.4659,237.5164,240.4932,0,8,8,23,1,14,39,NA,NA,NA,NA,NA,1,9,"likert"
"8975664DAC7B4D7D926F3667FFF9A602",1,"01990a98-3114-78cc-8a4d-80abc0a3c0eb","01990a84-c4ee-73c2-a87b-ff46a7d3dde5","2025-09-02_09h24.23.984",NA,NA,243.8994,243.8994,243.8995,244.221,NA,NA,NA,NA,NA,NA,NA,TRUE,5,0.357,240.8211,243.8992,0,9,9,18,1,14,25,NA,NA,NA,NA,NA,1,10,"likert"
"8975664DAC7B4D7D926F3667FFF9A602",1,"01990a98-3114-78cc-8a4d-80abc0a3c0eb","01990a84-c4ee-73c2-a87b-ff46a7d3dde5","2025-09-02_09h24.23.984",NA,NA,247.1744,247.1745,247.1745,247.5107,NA,NA,NA,NA,NA,NA,NA,TRUE,1,1.7507,244.2216,247.1742,0,10,10,103,1,200,28,NA,NA,NA,NA,NA,1,11,"likert"
"8975664DAC7B4D7D926F3667FFF9A602",1,"01990a98-3114-78cc-8a4d-80abc0a3c0eb","01990a84-c4ee-73c2-a87b-ff46a7d3dde5","2025-09-02_09h24.23.984",NA,NA,250.5058,250.5059,250.5059,251.0082,NA,NA,NA,NA,NA,NA,NA,TRUE,1,0.8941,247.5116,250.5056,0,11,11,96,1,180,27,NA,NA,NA,NA,NA,1,12,"likert"
"8975664DAC7B4D7D926F3667FFF9A602",1,"01990a98-3114-78cc-8a4d-80abc0a3c0eb","01990a84-c4ee-73c2-a87b-ff46a7d3dde5","2025-09-02_09h24.23.984",NA,NA,253.8899,253.8899,253.8899,254.2097,NA,NA,NA,NA,NA,NA,NA,TRUE,3,1.512,251.0089,253.8897,0,12,12,48,1,40,27,NA,NA,NA,NA,NA,1,13,"likert"
"8975664DAC7B4D7D926F3667FFF9A602",1,"01990a98-3114-78cc-8a4d-80abc0a3c0eb","01990a84-c4ee-73c2-a87b-ff46a7d3dde5","2025-09-02_09h24.23.984",NA,NA,257.1707,257.1707,257.1707,257.6635,NA,NA,NA,NA,NA,NA,NA,TRUE,1,0.9095,254.2109,257.1705,0,13,13,72,1,90,26,NA,NA,NA,NA,NA,1,14,"likert"
"8975664DAC7B4D7D926F3667FFF9A602",1,"01990a98-3114-78cc-8a4d-80abc0a3c0eb","01990a84-c4ee-73c2-a87b-ff46a7d3dde5","2025-09-02_09h24.23.984",NA,NA,260.6099,260.6099,260.6099,260.9421,NA,NA,NA,NA,NA,NA,NA,TRUE,1,1.2315,257.6643,260.6097,0,14,14,79,1,95,33,NA,NA,NA,NA,NA,1,15,"likert"
"8975664DAC7B4D7D926F3667FFF9A602",1,"01990a98-3114-78cc-8a4d-80abc0a3c0eb","01990a84-c4ee-73c2-a87b-ff46a7d3dde5","2025-09-02_09h24.23.984",NA,NA,263.8993,263.8994,263.8994,264.3886,NA,NA,NA,NA,NA,NA,NA,TRUE,1,1.2315,260.9434,263.8992,0,15,15,9,1,10,29,NA,NA,NA,NA,NA,1,16,"likert"
"8975664DAC7B4D7D926F3667FFF9A602",1,"01990a98-3114-78cc-8a4d-80abc0a3c0eb","01990a84-c4ee-73c2-a87b-ff46a7d3dde5","2025-09-02_09h24.23.984",NA,NA,267.335,267.335,267.335,267.6757,NA,NA,NA,NA,NA,NA,NA,TRUE,1,1.0661,264.3894,267.3348,0,16,16,6,1,10,25,NA,NA,NA,NA,NA,1,17,"likert"
"8975664DAC7B4D7D926F3667FFF9A602",1,"01990a98-3114-78cc-8a4d-80abc0a3c0eb","01990a84-c4ee-73c2-a87b-ff46a7d3dde5","2025-09-02_09h24.23.984",NA,NA,270.6178,270.6178,270.6178,270.9522,NA,NA,NA,NA,NA,NA,NA,TRUE,1,0.7006,267.6763,270.6176,0,17,17,94,1,150,47,NA,NA,NA,NA,NA,1,18,"likert"
"8975664DAC7B4D7D926F3667FFF9A602",1,"01990a98-3114-78cc-8a4d-80abc0a3c0eb","01990a84-c4ee-73c2-a87b-ff46a7d3dde5","2025-09-02_09h24.23.984",NA,NA,274.0655,274.0655,274.0655,274.3966,NA,NA,NA,NA,NA,NA,NA,TRUE,1,1.0609,270.9529,274.0652,0,18,18,44,1,30,29,NA,NA,NA,NA,NA,1,19,"likert"
"8975664DAC7B4D7D926F3667FFF9A602",1,"01990a98-3114-78cc-8a4d-80abc0a3c0eb","01990a84-c4ee-73c2-a87b-ff46a7d3dde5","2025-09-02_09h24.23.984",NA,NA,277.3455,277.3456,277.3456,277.6688,NA,NA,NA,NA,NA,NA,NA,TRUE,1,0.8917,274.3972,277.3453,0,19,19,29,1,21,38,NA,NA,NA,NA,NA,1,20,"likert"
"8975664DAC7B4D7D926F3667FFF9A602",1,"01990a98-3114-78cc-8a4d-80abc0a3c0eb","01990a84-c4ee-73c2-a87b-ff46a7d3dde5","2025-09-02_09h24.23.984",NA,NA,280.7539,280.754,280.754,281.077,NA,NA,NA,NA,NA,NA,NA,TRUE,1,0.7022,277.6696,280.7537,0,20,20,46,1,30,32,NA,NA,NA,NA,NA,1,21,"likert"
"8975664DAC7B4D7D926F3667FFF9A602",1,"01990a98-3114-78cc-8a4d-80abc0a3c0eb","01990a84-c4ee-73c2-a87b-ff46a7d3dde5","2025-09-02_09h24.23.984",NA,NA,284.0574,284.0574,284.0574,284.3992,NA,NA,NA,NA,NA,NA,NA,TRUE,5,1.7909,281.0777,284.0572,0,21,21,100,1,180,46,NA,NA,NA,NA,NA,1,22,"likert"
"8975664DAC7B4D7D926F3667FFF9A602",1,"01990a98-3114-78cc-8a4d-80abc0a3c0eb","01990a84-c4ee-73c2-a87b-ff46a7d3dde5","2025-09-02_09h24.23.984",NA,NA,287.3372,287.3372,287.3372,287.8351,NA,NA,NA,NA,NA,NA,NA,TRUE,1,0.8786,284.4,287.337,0,22,22,99,1,180,39,NA,NA,NA,NA,NA,1,23,"likert"
"8975664DAC7B4D7D926F3667FFF9A602",1,"01990a98-3114-78cc-8a4d-80abc0a3c0eb","01990a84-c4ee-73c2-a87b-ff46a7d3dde5","2025-09-02_09h24.23.984",NA,NA,290.7823,290.7824,290.7824,291.2677,NA,NA,NA,NA,NA,NA,NA,TRUE,1,1.0504,287.8357,290.7821,0,23,23,105,1,200,39,NA,NA,NA,NA,NA,1,24,"likert"
"8975664DAC7B4D7D926F3667FFF9A602",1,"01990a98-3114-78cc-8a4d-80abc0a3c0eb","01990a84-c4ee-73c2-a87b-ff46a7d3dde5","2025-09-02_09h24.23.984",NA,NA,294.0195,294.0196,294.0196,294.505,NA,NA,NA,NA,NA,NA,NA,TRUE,1,1.0488,291.2685,294.0194,0,24,24,89,1,100,54,NA,NA,NA,NA,NA,1,25,"likert"
"8975664DAC7B4D7D926F3667FFF9A602",1,"01990a98-3114-78cc-8a4d-80abc0a3c0eb","01990a84-c4ee-73c2-a87b-ff46a7d3dde5","2025-09-02_09h24.23.984",NA,NA,297.5203,297.5204,297.5204,297.8509,NA,NA,NA,NA,NA,NA,NA,TRUE,1,1.2548,294.5058,297.5201,0,25,25,39,1,28,35,NA,NA,NA,NA,NA,1,26,"likert"
"8975664DAC7B4D7D926F3667FFF9A602",1,"01990a98-3114-78cc-8a4d-80abc0a3c0eb","01990a84-c4ee-73c2-a87b-ff46a7d3dde5","2025-09-02_09h24.23.984",NA,NA,300.7728,300.7728,300.7728,301.2709,NA,NA,NA,NA,NA,NA,NA,TRUE,5,0.5388,297.8517,300.7726,0,26,26,1,1,7,26,NA,NA,NA,NA,NA,1,27,"likert"
"8975664DAC7B4D7D926F3667FFF9A602",1,"01990a98-3114-78cc-8a4d-80abc0a3c0eb","01990a84-c4ee-73c2-a87b-ff46a7d3dde5","2025-09-02_09h24.23.984",NA,NA,304.3287,304.3287,304.3287,304.5039,NA,NA,NA,NA,NA,NA,NA,TRUE,5,1.7183,301.2716,304.3284,0,27,27,69,1,60,40,NA,NA,NA,NA,NA,1,28,"likert"
"8975664DAC7B4D7D926F3667FFF9A602",1,"01990a98-3114-78cc-8a4d-80abc0a3c0eb","01990a84-c4ee-73c2-a87b-ff46a7d3dde5","2025-09-02_09h24.23.984",NA,NA,307.4636,307.4636,307.4636,307.7896,NA,NA,NA,NA,NA,NA,NA,TRUE,1,0.8918,304.5046,307.4634,0,28,28,2,1,7,28,NA,NA,NA,NA,NA,1,29,"likert"
"8975664DAC7B4D7D926F3667FFF9A602",1,"01990a98-3114-78cc-8a4d-80abc0a3c0eb","01990a84-c4ee-73c2-a87b-ff46a7d3dde5","2025-09-02_09h24.23.984",NA,NA,310.7634,310.7634,310.7634,311.2603,NA,NA,NA,NA,NA,NA,NA,TRUE,1,1.2444,307.7902,310.7632,0,29,29,66,1,60,29,NA,NA,NA,NA,NA,1,30,"likert"
"8975664DAC7B4D7D926F3667FFF9A602",1,"01990a98-3114-78cc-8a4d-80abc0a3c0eb","01990a84-c4ee-73c2-a87b-ff46a7d3dde5","2025-09-02_09h24.23.984",NA,NA,314.2134,314.2134,314.2134,314.5331,NA,NA,NA,NA,NA,NA,NA,TRUE,1,0.7108,311.261,314.2131,0,30,30,55,1,45,29,NA,NA,NA,NA,NA,1,31,"likert"
"8975664DAC7B4D7D926F3667FFF9A602",1,"01990a98-3114-78cc-8a4d-80abc0a3c0eb","01990a84-c4ee-73c2-a87b-ff46a7d3dde5","2025-09-02_09h24.23.984",NA,NA,317.5164,317.839,317.839,317.839,NA,NA,NA,NA,NA,NA,NA,FALSE,NA,NA,314.5337,317.5162,0,31,31,86,1,100,38,NA,NA,NA,NA,NA,1,32,"likert"
"8975664DAC7B4D7D926F3667FFF9A602",1,"01990a98-3114-78cc-8a4d-80abc0a3c0eb","01990a84-c4ee-73c2-a87b-ff46a7d3dde5","2025-09-02_09h24.23.984",NA,NA,320.9701,321.1326,321.1326,321.2996,NA,NA,NA,NA,NA,NA,NA,FALSE,NA,NA,317.8397,320.9698,0,32,32,50,1,40,35,NA,NA,NA,NA,NA,1,33,"likert"
"8975664DAC7B4D7D926F3667FFF9A602",1,"01990a98-3114-78cc-8a4d-80abc0a3c0eb","01990a84-c4ee-73c2-a87b-ff46a7d3dde5","2025-09-02_09h24.23.984",NA,NA,324.1953,324.1953,324.1953,324.7033,NA,NA,NA,NA,NA,NA,NA,TRUE,1,1.3816,321.3002,324.1952,0,33,33,21,1,14,32,NA,NA,NA,NA,NA,1,34,"likert"
"8975664DAC7B4D7D926F3667FFF9A602",1,"01990a98-3114-78cc-8a4d-80abc0a3c0eb","01990a84-c4ee-73c2-a87b-ff46a7d3dde5","2025-09-02_09h24.23.984",NA,NA,327.618,327.618,327.6181,327.9377,NA,NA,NA,NA,NA,NA,NA,TRUE,1,0.8811,324.7039,327.6178,0,34,34,43,1,30,27,NA,NA,NA,NA,NA,1,35,"likert"
"8975664DAC7B4D7D926F3667FFF9A602",1,"01990a98-3114-78cc-8a4d-80abc0a3c0eb","01990a84-c4ee-73c2-a87b-ff46a7d3dde5","2025-09-02_09h24.23.984",NA,NA,330.9213,330.9213,330.9213,331.2511,NA,NA,NA,NA,NA,NA,NA,TRUE,1,1.2431,327.9383,330.9211,0,35,35,95,1,150,54,NA,NA,NA,NA,NA,1,36,"likert"
"8975664DAC7B4D7D926F3667FFF9A602",1,"01990a98-3114-78cc-8a4d-80abc0a3c0eb","01990a84-c4ee-73c2-a87b-ff46a7d3dde5","2025-09-02_09h24.23.984",NA,NA,334.369,334.369,334.369,334.6928,NA,NA,NA,NA,NA,NA,NA,TRUE,5,1.235,331.252,334.3688,0,36,36,10,1,10,30,NA,NA,NA,NA,NA,1,37,"likert"
"8975664DAC7B4D7D926F3667FFF9A602",1,"01990a98-3114-78cc-8a4d-80abc0a3c0eb","01990a84-c4ee-73c2-a87b-ff46a7d3dde5","2025-09-02_09h24.23.984",NA,NA,337.6915,337.6915,337.6915,338.0295,NA,NA,NA,NA,NA,NA,NA,TRUE,1,0.7216,334.6936,337.6913,0,37,37,15,1,12,31,NA,NA,NA,NA,NA,1,38,"likert"
"8975664DAC7B4D7D926F3667FFF9A602",1,"01990a98-3114-78cc-8a4d-80abc0a3c0eb","01990a84-c4ee-73c2-a87b-ff46a7d3dde5","2025-09-02_09h24.23.984",NA,NA,340.9512,340.9512,340.9512,341.3015,NA,NA,NA,NA,NA,NA,NA,TRUE,1,0.6941,338.0303,340.951,0,38,38,35,1,25,46,NA,NA,NA,NA,NA,1,39,"likert"
"8975664DAC7B4D7D926F3667FFF9A602",1,"01990a98-3114-78cc-8a4d-80abc0a3c0eb","01990a84-c4ee-73c2-a87b-ff46a7d3dde5","2025-09-02_09h24.23.984",NA,NA,344.2672,344.2672,344.2672,344.7627,NA,NA,NA,NA,NA,NA,NA,TRUE,1,1.0568,341.3023,344.267,0,39,39,93,1,150,40,NA,NA,NA,NA,NA,1,40,"likert"
"8975664DAC7B4D7D926F3667FFF9A602",1,"01990a98-3114-78cc-8a4d-80abc0a3c0eb","01990a84-c4ee-73c2-a87b-ff46a7d3dde5","2025-09-02_09h24.23.984",NA,NA,347.5943,347.5943,347.5943,348.0818,NA,NA,NA,NA,NA,NA,NA,TRUE,1,0.8808,344.7634,347.594,0,40,40,65,1,50,54,NA,NA,NA,NA,NA,1,41,"likert"
"8975664DAC7B4D7D926F3667FFF9A602",1,"01990a98-3114-78cc-8a4d-80abc0a3c0eb","01990a84-c4ee-73c2-a87b-ff46a7d3dde5","2025-09-02_09h24.23.984",NA,NA,351.1166,351.1166,351.1166,351.4436,NA,NA,NA,NA,NA,NA,NA,TRUE,5,1.8064,348.0824,351.1164,0,41,41,41,1,28,46,NA,NA,NA,NA,NA,1,42,"likert"
"8975664DAC7B4D7D926F3667FFF9A602",1,"01990a98-3114-78cc-8a4d-80abc0a3c0eb","01990a84-c4ee-73c2-a87b-ff46a7d3dde5","2025-09-02_09h24.23.984",NA,NA,354.4089,354.4089,354.409,354.7465,NA,NA,NA,NA,NA,NA,NA,TRUE,1,1.2279,351.4443,354.4088,0,42,42,97,1,180,31,NA,NA,NA,NA,NA,1,43,"likert"
"8975664DAC7B4D7D926F3667FFF9A602",1,"01990a98-3114-78cc-8a4d-80abc0a3c0eb","01990a84-c4ee-73c2-a87b-ff46a7d3dde5","2025-09-02_09h24.23.984",NA,NA,357.8482,357.8482,357.8482,358.1764,NA,NA,NA,NA,NA,NA,NA,TRUE,1,0.0027,354.7471,357.848,0,43,43,98,1,180,35,NA,NA,NA,NA,NA,1,44,"likert"
"8975664DAC7B4D7D926F3667FFF9A602",1,"01990a98-3114-78cc-8a4d-80abc0a3c0eb","01990a84-c4ee-73c2-a87b-ff46a7d3dde5","2025-09-02_09h24.23.984",NA,NA,361.2756,361.2757,361.2757,361.4577,NA,NA,NA,NA,NA,NA,NA,TRUE,1,1.0394,358.178,361.2754,0,44,44,76,1,90,46,NA,NA,NA,NA,NA,1,45,"likert"
"8975664DAC7B4D7D926F3667FFF9A602",1,"01990a98-3114-78cc-8a4d-80abc0a3c0eb","01990a84-c4ee-73c2-a87b-ff46a7d3dde5","2025-09-02_09h24.23.984",NA,NA,364.5919,364.592,364.592,364.752,NA,NA,NA,NA,NA,NA,NA,TRUE,1,1.5967,361.4585,364.5917,0,45,45,88,1,100,46,NA,NA,NA,NA,NA,1,46,"likert"
"8975664DAC7B4D7D926F3667FFF9A602",1,"01990a98-3114-78cc-8a4d-80abc0a3c0eb","01990a84-c4ee-73c2-a87b-ff46a7d3dde5","2025-09-02_09h24.23.984",NA,NA,367.8436,367.8437,367.8437,368.1682,NA,NA,NA,NA,NA,NA,NA,TRUE,1,1.2547,364.7526,367.8435,0,46,46,106,1,200,47,NA,NA,NA,NA,NA,1,47,"likert"
"8975664DAC7B4D7D926F3667FFF9A602",1,"01990a98-3114-78cc-8a4d-80abc0a3c0eb","01990a84-c4ee-73c2-a87b-ff46a7d3dde5","2025-09-02_09h24.23.984",NA,NA,371.1056,371.1056,371.1056,371.5946,NA,NA,NA,NA,NA,NA,NA,TRUE,1,0.871,368.1689,371.1053,0,47,47,42,1,30,26,NA,NA,NA,NA,NA,1,48,"likert"
"8975664DAC7B4D7D926F3667FFF9A602",1,"01990a98-3114-78cc-8a4d-80abc0a3c0eb","01990a84-c4ee-73c2-a87b-ff46a7d3dde5","2025-09-02_09h24.23.984",NA,NA,374.5322,374.7049,374.7049,374.8736,NA,NA,NA,NA,NA,NA,NA,FALSE,NA,NA,371.5953,374.5321,0,48,48,26,1,21,29,NA,NA,NA,NA,NA,1,49,"likert"
"8975664DAC7B4D7D926F3667FFF9A602",1,"01990a98-3114-78cc-8a4d-80abc0a3c0eb","01990a84-c4ee-73c2-a87b-ff46a7d3dde5","2025-09-02_09h24.23.984",NA,NA,377.8088,377.8088,377.8088,378.2991,NA,NA,NA,NA,NA,NA,NA,TRUE,1,1.7426,374.8754,377.8086,0,49,49,3,1,7,30,NA,NA,NA,NA,NA,1,50,"likert"
"8975664DAC7B4D7D926F3667FFF9A602",1,"01990a98-3114-78cc-8a4d-80abc0a3c0eb","01990a84-c4ee-73c2-a87b-ff46a7d3dde5","2025-09-02_09h24.23.984",NA,NA,381.1107,381.4364,381.4365,381.5988,NA,NA,NA,NA,NA,NA,NA,FALSE,NA,NA,378.2999,381.1105,0,50,50,68,1,60,35,NA,NA,NA,NA,NA,1,51,"likert"
"8975664DAC7B4D7D926F3667FFF9A602",1,"01990a98-3114-78cc-8a4d-80abc0a3c0eb","01990a84-c4ee-73c2-a87b-ff46a7d3dde5","2025-09-02_09h24.23.984",NA,NA,384.5785,384.5785,384.5785,384.9097,NA,NA,NA,NA,NA,NA,NA,TRUE,1,1.0823,381.5995,384.5783,0,51,51,0,1,7,25,NA,NA,NA,NA,NA,1,52,"likert"
"8975664DAC7B4D7D926F3667FFF9A602",1,"01990a98-3114-78cc-8a4d-80abc0a3c0eb","01990a84-c4ee-73c2-a87b-ff46a7d3dde5","2025-09-02_09h24.23.984",NA,NA,387.9065,387.9065,387.9065,388.2457,NA,NA,NA,NA,NA,NA,NA,TRUE,5,1.61,384.9103,387.9061,0,52,52,52,1,40,47,NA,NA,NA,NA,NA,1,53,"likert"
"8975664DAC7B4D7D926F3667FFF9A602",1,"01990a98-3114-78cc-8a4d-80abc0a3c0eb","01990a84-c4ee-73c2-a87b-ff46a7d3dde5","2025-09-02_09h24.23.984",NA,NA,391.2485,391.5731,391.5732,391.5732,NA,NA,NA,NA,NA,NA,NA,FALSE,NA,NA,388.2465,391.2483,0,53,53,101,1,180,54,NA,NA,NA,NA,NA,1,54,"likert"
"8975664DAC7B4D7D926F3667FFF9A602",1,"01990a98-3114-78cc-8a4d-80abc0a3c0eb","01990a84-c4ee-73c2-a87b-ff46a7d3dde5","2025-09-02_09h24.23.984",NA,NA,394.5216,394.5216,394.5217,395.0247,NA,NA,NA,NA,NA,NA,NA,TRUE,5,1.5844,391.5739,394.5214,0,54,54,74,1,90,33,NA,NA,NA,NA,NA,1,55,"likert"
"8975664DAC7B4D7D926F3667FFF9A602",1,"01990a98-3114-78cc-8a4d-80abc0a3c0eb","01990a84-c4ee-73c2-a87b-ff46a7d3dde5","2025-09-02_09h24.23.984",NA,NA,398.0166,398.0166,398.0166,398.3412,NA,NA,NA,NA,NA,NA,NA,TRUE,1,1.076,395.0254,398.0165,0,55,55,61,1,50,30,NA,NA,NA,NA,NA,1,56,"likert"
"8975664DAC7B4D7D926F3667FFF9A602",1,"01990a98-3114-78cc-8a4d-80abc0a3c0eb","01990a84-c4ee-73c2-a87b-ff46a7d3dde5","2025-09-02_09h24.23.984",NA,NA,401.328,401.3281,401.3281,401.6502,NA,NA,NA,NA,NA,NA,NA,TRUE,1,1.2624,398.3422,401.3278,0,56,56,32,1,25,31,NA,NA,NA,NA,NA,1,57,"likert"
"8975664DAC7B4D7D926F3667FFF9A602",1,"01990a98-3114-78cc-8a4d-80abc0a3c0eb","01990a84-c4ee-73c2-a87b-ff46a7d3dde5","2025-09-02_09h24.23.984",NA,NA,404.5022,404.5022,404.5022,405.1719,NA,NA,NA,NA,NA,NA,NA,TRUE,1,1.049,401.6508,404.5018,0,57,57,22,1,14,35,NA,NA,NA,NA,NA,1,58,"likert"
"8975664DAC7B4D7D926F3667FFF9A602",1,"01990a98-3114-78cc-8a4d-80abc0a3c0eb","01990a84-c4ee-73c2-a87b-ff46a7d3dde5","2025-09-02_09h24.23.984",NA,NA,408.1155,408.1156,408.1156,408.4382,NA,NA,NA,NA,NA,NA,NA,TRUE,1,1.0548,405.1731,408.1153,0,58,58,92,1,150,35,NA,NA,NA,NA,NA,1,59,"likert"
"8975664DAC7B4D7D926F3667FFF9A602",1,"01990a98-3114-78cc-8a4d-80abc0a3c0eb","01990a84-c4ee-73c2-a87b-ff46a7d3dde5","2025-09-02_09h24.23.984",NA,NA,411.4211,411.4211,411.4211,411.7466,NA,NA,NA,NA,NA,NA,NA,TRUE,1,1.0547,408.4389,411.4209,0,59,59,36,1,28,26,NA,NA,NA,NA,NA,1,60,"likert"
"8975664DAC7B4D7D926F3667FFF9A602",1,"01990a98-3114-78cc-8a4d-80abc0a3c0eb","01990a84-c4ee-73c2-a87b-ff46a7d3dde5","2025-09-02_09h24.23.984",NA,NA,414.6718,414.6719,414.6719,415.0183,NA,NA,NA,NA,NA,NA,NA,TRUE,1,0.5348,411.7473,414.6716,0,60,60,84,1,100,26,NA,NA,NA,NA,NA,1,61,"likert"
"8975664DAC7B4D7D926F3667FFF9A602",1,"01990a98-3114-78cc-8a4d-80abc0a3c0eb","01990a84-c4ee-73c2-a87b-ff46a7d3dde5","2025-09-02_09h24.23.984",NA,NA,418.1259,418.1259,418.1259,418.4603,NA,NA,NA,NA,NA,NA,NA,TRUE,1,2.7503,415.0194,418.1256,0,61,61,4,1,7,32,NA,NA,NA,NA,NA,1,62,"likert"
"8975664DAC7B4D7D926F3667FFF9A602",1,"01990a98-3114-78cc-8a4d-80abc0a3c0eb","01990a84-c4ee-73c2-a87b-ff46a7d3dde5","2025-09-02_09h24.23.984",NA,NA,421.4184,421.4184,421.4184,421.7436,NA,NA,NA,NA,NA,NA,NA,TRUE,5,0.0087,418.4611,421.4181,0,62,62,38,1,28,32,NA,NA,NA,NA,NA,1,63,"likert"
"8975664DAC7B4D7D926F3667FFF9A602",1,"01990a98-3114-78cc-8a4d-80abc0a3c0eb","01990a84-c4ee-73c2-a87b-ff46a7d3dde5","2025-09-02_09h24.23.984",NA,NA,424.8533,424.8534,424.8534,425.1852,NA,NA,NA,NA,NA,NA,NA,TRUE,1,1.0547,421.7444,424.8531,0,63,63,70,1,60,47,NA,NA,NA,NA,NA,1,64,"likert"
"8975664DAC7B4D7D926F3667FFF9A602",1,"01990a98-3114-78cc-8a4d-80abc0a3c0eb","01990a84-c4ee-73c2-a87b-ff46a7d3dde5","2025-09-02_09h24.23.984",NA,NA,428.1357,428.1357,428.1357,428.4624,NA,NA,NA,NA,NA,NA,NA,TRUE,1,1.25,425.1859,428.1356,0,64,64,57,1,45,35,NA,NA,NA,NA,NA,1,65,"likert"
"8975664DAC7B4D7D926F3667FFF9A602",1,"01990a98-3114-78cc-8a4d-80abc0a3c0eb","01990a84-c4ee-73c2-a87b-ff46a7d3dde5","2025-09-02_09h24.23.984",NA,NA,431.5621,431.5624,431.5624,431.8839,NA,NA,NA,NA,NA,NA,NA,TRUE,1,0.8769,428.4632,431.5619,0,65,65,75,1,90,40,NA,NA,NA,NA,NA,1,66,"likert"
"8975664DAC7B4D7D926F3667FFF9A602",1,"01990a98-3114-78cc-8a4d-80abc0a3c0eb","01990a84-c4ee-73c2-a87b-ff46a7d3dde5","2025-09-02_09h24.23.984",NA,NA,434.843,434.843,434.843,435.2028,NA,NA,NA,NA,NA,NA,NA,TRUE,1,0.8892,431.8846,434.8428,0,66,66,63,1,50,40,NA,NA,NA,NA,NA,1,67,"likert"
"8975664DAC7B4D7D926F3667FFF9A602",1,"01990a98-3114-78cc-8a4d-80abc0a3c0eb","01990a84-c4ee-73c2-a87b-ff46a7d3dde5","2025-09-02_09h24.23.984",NA,NA,437.9721,437.9721,437.9721,438.4675,NA,NA,NA,NA,NA,NA,NA,TRUE,1,0.6904,435.2036,437.9718,0,67,67,7,1,10,26,NA,NA,NA,NA,NA,1,68,"likert"
"8975664DAC7B4D7D926F3667FFF9A602",1,"01990a98-3114-78cc-8a4d-80abc0a3c0eb","01990a84-c4ee-73c2-a87b-ff46a7d3dde5","2025-09-02_09h24.23.984",NA,NA,441.6331,441.6331,441.6331,441.8022,NA,NA,NA,NA,NA,NA,NA,TRUE,1,0.0028,438.4683,441.6329,0,68,68,83,1,95,54,NA,NA,NA,NA,NA,1,69,"likert"
"8975664DAC7B4D7D926F3667FFF9A602",1,"01990a98-3114-78cc-8a4d-80abc0a3c0eb","01990a84-c4ee-73c2-a87b-ff46a7d3dde5","2025-09-02_09h24.23.984",NA,NA,444.6315,444.6315,444.6315,445.3063,NA,NA,NA,NA,NA,NA,NA,TRUE,1,1.9563,441.8028,444.6314,0,69,69,54,1,45,26,NA,NA,NA,NA,NA,1,70,"likert"
"8975664DAC7B4D7D926F3667FFF9A602",1,"01990a98-3114-78cc-8a4d-80abc0a3c0eb","01990a84-c4ee-73c2-a87b-ff46a7d3dde5","2025-09-02_09h24.23.984",NA,NA,448.0975,448.0975,448.0976,448.5839,NA,NA,NA,NA,NA,NA,NA,TRUE,1,1.5968,445.307,448.0973,0,70,70,45,1,30,30,NA,NA,NA,NA,NA,1,71,"likert"
"8975664DAC7B4D7D926F3667FFF9A602",1,"01990a98-3114-78cc-8a4d-80abc0a3c0eb","01990a84-c4ee-73c2-a87b-ff46a7d3dde5","2025-09-02_09h24.23.984",NA,NA,451.6695,451.6695,451.6696,452.0014,NA,NA,NA,NA,NA,NA,NA,TRUE,1,0.1724,448.5846,451.6692,0,71,71,60,1,50,27,NA,NA,NA,NA,NA,1,72,"likert"
"8975664DAC7B4D7D926F3667FFF9A602",1,"01990a98-3114-78cc-8a4d-80abc0a3c0eb","01990a84-c4ee-73c2-a87b-ff46a7d3dde5","2025-09-02_09h24.23.984",NA,NA,454.9361,454.9361,454.9361,455.2917,NA,NA,NA,NA,NA,NA,NA,TRUE,1,0.0031,452.0023,454.9359,0,72,72,90,1,150,31,NA,NA,NA,NA,NA,1,73,"likert"
"8975664DAC7B4D7D926F3667FFF9A602",1,"01990a98-3114-78cc-8a4d-80abc0a3c0eb","01990a84-c4ee-73c2-a87b-ff46a7d3dde5","2025-09-02_09h24.23.984",NA,NA,458.4332,458.4332,458.4332,458.7586,NA,NA,NA,NA,NA,NA,NA,TRUE,1,1.2374,455.2923,458.433,0,73,73,78,1,95,31,NA,NA,NA,NA,NA,1,74,"likert"
"8975664DAC7B4D7D926F3667FFF9A602",1,"01990a98-3114-78cc-8a4d-80abc0a3c0eb","01990a84-c4ee-73c2-a87b-ff46a7d3dde5","2025-09-02_09h24.23.984",NA,NA,461.5229,461.5229,461.523,462.0183,NA,NA,NA,NA,NA,NA,NA,TRUE,1,0.0027,458.7593,461.5227,0,74,74,59,1,45,46,NA,NA,NA,NA,NA,1,75,"likert"
"8975664DAC7B4D7D926F3667FFF9A602",1,"01990a98-3114-78cc-8a4d-80abc0a3c0eb","01990a84-c4ee-73c2-a87b-ff46a7d3dde5","2025-09-02_09h24.23.984",NA,NA,464.865,464.865,464.865,465.3723,NA,NA,NA,NA,NA,NA,NA,TRUE,1,0.7365,462.0191,464.8648,0,75,75,20,1,14,28,NA,NA,NA,NA,NA,1,76,"likert"
"8975664DAC7B4D7D926F3667FFF9A602",1,"01990a98-3114-78cc-8a4d-80abc0a3c0eb","01990a84-c4ee-73c2-a87b-ff46a7d3dde5","2025-09-02_09h24.23.984",NA,NA,468.3201,468.3201,468.3201,468.6475,NA,NA,NA,NA,NA,NA,NA,TRUE,1,0.8842,465.373,468.3199,0,76,76,14,1,12,28,NA,NA,NA,NA,NA,1,77,"likert"
"8975664DAC7B4D7D926F3667FFF9A602",1,"01990a98-3114-78cc-8a4d-80abc0a3c0eb","01990a84-c4ee-73c2-a87b-ff46a7d3dde5","2025-09-02_09h24.23.984",NA,NA,471.72,471.7201,471.7201,472.0619,NA,NA,NA,NA,NA,NA,NA,TRUE,1,0.1803,468.6482,471.7199,0,77,77,56,1,45,31,NA,NA,NA,NA,NA,1,78,"likert"
"8975664DAC7B4D7D926F3667FFF9A602",1,"01990a98-3114-78cc-8a4d-80abc0a3c0eb","01990a84-c4ee-73c2-a87b-ff46a7d3dde5","2025-09-02_09h24.23.984",NA,NA,475.0638,475.0638,475.0638,475.3986,NA,NA,NA,NA,NA,NA,NA,TRUE,1,0.5308,472.0626,475.0636,0,78,78,85,1,100,31,NA,NA,NA,NA,NA,1,79,"likert"
"8975664DAC7B4D7D926F3667FFF9A602",1,"01990a98-3114-78cc-8a4d-80abc0a3c0eb","01990a84-c4ee-73c2-a87b-ff46a7d3dde5","2025-09-02_09h24.23.984",NA,NA,478.3215,478.3215,478.3215,478.6457,NA,NA,NA,NA,NA,NA,NA,TRUE,1,0.7099,475.3993,478.3213,0,79,79,87,1,100,39,NA,NA,NA,NA,NA,1,80,"likert"
"8975664DAC7B4D7D926F3667FFF9A602",1,"01990a98-3114-78cc-8a4d-80abc0a3c0eb","01990a84-c4ee-73c2-a87b-ff46a7d3dde5","2025-09-02_09h24.23.984",NA,NA,481.7679,481.7679,481.7679,482.0967,NA,NA,NA,NA,NA,NA,NA,TRUE,1,0.3574,478.6464,481.7676,0,80,80,47,1,30,38,NA,NA,NA,NA,NA,1,81,"likert"
"8975664DAC7B4D7D926F3667FFF9A602",1,"01990a98-3114-78cc-8a4d-80abc0a3c0eb","01990a84-c4ee-73c2-a87b-ff46a7d3dde5","2025-09-02_09h24.23.984",NA,NA,485.0668,485.0668,485.0669,485.3898,NA,NA,NA,NA,NA,NA,NA,TRUE,1,2.7803,482.0974,485.0665,0,81,81,53,1,40,54,NA,NA,NA,NA,NA,1,82,"likert"
"8975664DAC7B4D7D926F3667FFF9A602",1,"01990a98-3114-78cc-8a4d-80abc0a3c0eb","01990a84-c4ee-73c2-a87b-ff46a7d3dde5","2025-09-02_09h24.23.984",NA,NA,488.3357,488.3358,488.3358,488.8229,NA,NA,NA,NA,NA,NA,NA,TRUE,1,1.2338,485.3906,488.3356,0,82,82,28,1,21,32,NA,NA,NA,NA,NA,1,83,"likert"
"8975664DAC7B4D7D926F3667FFF9A602",1,"01990a98-3114-78cc-8a4d-80abc0a3c0eb","01990a84-c4ee-73c2-a87b-ff46a7d3dde5","2025-09-02_09h24.23.984",NA,NA,491.807,491.8073,491.8073,492.1388,NA,NA,NA,NA,NA,NA,NA,TRUE,1,2.2982,488.8237,491.8068,0,83,83,40,1,28,39,NA,NA,NA,NA,NA,1,84,"likert"
"8975664DAC7B4D7D926F3667FFF9A602",1,"01990a98-3114-78cc-8a4d-80abc0a3c0eb","01990a84-c4ee-73c2-a87b-ff46a7d3dde5","2025-09-02_09h24.23.984",NA,NA,495.1402,495.1402,495.1402,495.4735,NA,NA,NA,NA,NA,NA,NA,TRUE,1,1.7779,492.1394,495.14,0,84,84,27,1,21,30,NA,NA,NA,NA,NA,1,85,"likert"
"8975664DAC7B4D7D926F3667FFF9A602",1,"01990a98-3114-78cc-8a4d-80abc0a3c0eb","01990a84-c4ee-73c2-a87b-ff46a7d3dde5","2025-09-02_09h24.23.984",NA,NA,498.4231,498.4231,498.4231,498.7544,NA,NA,NA,NA,NA,NA,NA,TRUE,1,1.9156,495.4742,498.4228,0,85,85,13,1,12,26,NA,NA,NA,NA,NA,1,86,"likert"
"8975664DAC7B4D7D926F3667FFF9A602",1,"01990a98-3114-78cc-8a4d-80abc0a3c0eb","01990a84-c4ee-73c2-a87b-ff46a7d3dde5","2025-09-02_09h24.23.984",NA,NA,501.7525,501.7525,501.7525,502.2381,NA,NA,NA,NA,NA,NA,NA,TRUE,1,1.9467,498.7551,501.7523,0,86,86,34,1,25,35,NA,NA,NA,NA,NA,1,87,"likert"
"8975664DAC7B4D7D926F3667FFF9A602",1,"01990a98-3114-78cc-8a4d-80abc0a3c0eb","01990a84-c4ee-73c2-a87b-ff46a7d3dde5","2025-09-02_09h24.23.984",NA,NA,505.0804,505.0804,505.0805,505.5826,NA,NA,NA,NA,NA,NA,NA,TRUE,1,1.4241,502.2388,505.0803,0,87,87,31,1,25,29,NA,NA,NA,NA,NA,1,88,"likert"
"8975664DAC7B4D7D926F3667FFF9A602",1,"01990a98-3114-78cc-8a4d-80abc0a3c0eb","01990a84-c4ee-73c2-a87b-ff46a7d3dde5","2025-09-02_09h24.23.984",NA,NA,508.5286,508.5286,508.5286,508.8582,NA,NA,NA,NA,NA,NA,NA,TRUE,1,1.9146,505.5833,508.5284,0,88,88,49,1,40,33,NA,NA,NA,NA,NA,1,89,"likert"
"8975664DAC7B4D7D926F3667FFF9A602",1,"01990a98-3114-78cc-8a4d-80abc0a3c0eb","01990a84-c4ee-73c2-a87b-ff46a7d3dde5","2025-09-02_09h24.23.984",NA,NA,511.9065,511.9066,511.9066,512.2373,NA,NA,NA,NA,NA,NA,NA,TRUE,1,0.9527,508.8589,511.9064,0,89,89,58,1,45,40,NA,NA,NA,NA,NA,1,90,"likert"
"8975664DAC7B4D7D926F3667FFF9A602",1,"01990a98-3114-78cc-8a4d-80abc0a3c0eb","01990a84-c4ee-73c2-a87b-ff46a7d3dde5","2025-09-02_09h24.23.984",NA,NA,515.1864,515.1865,515.1865,515.5165,NA,NA,NA,NA,NA,NA,NA,TRUE,1,1.0547,512.2385,515.1863,0,90,90,77,1,90,54,NA,NA,NA,NA,NA,1,91,"likert"
"8975664DAC7B4D7D926F3667FFF9A602",1,"01990a98-3114-78cc-8a4d-80abc0a3c0eb","01990a84-c4ee-73c2-a87b-ff46a7d3dde5","2025-09-02_09h24.23.984",NA,NA,518.6754,518.6754,518.6754,519.0013,NA,NA,NA,NA,NA,NA,NA,TRUE,1,0.7316,515.5173,518.6753,0,91,91,51,1,40,40,NA,NA,NA,NA,NA,1,92,"likert"
"8975664DAC7B4D7D926F3667FFF9A602",1,"01990a98-3114-78cc-8a4d-80abc0a3c0eb","01990a84-c4ee-73c2-a87b-ff46a7d3dde5","2025-09-02_09h24.23.984",NA,NA,521.891,521.891,521.891,522.3853,NA,NA,NA,NA,NA,NA,NA,TRUE,1,0.9483,519.0019,521.8908,0,92,92,81,1,95,40,NA,NA,NA,NA,NA,1,93,"likert"
"8975664DAC7B4D7D926F3667FFF9A602",1,"01990a98-3114-78cc-8a4d-80abc0a3c0eb","01990a84-c4ee-73c2-a87b-ff46a7d3dde5","2025-09-02_09h24.23.984",NA,NA,525.3854,525.3854,525.3854,525.5461,NA,NA,NA,NA,NA,NA,NA,TRUE,1,0.9056,522.3864,525.3853,0,93,93,33,1,25,33,NA,NA,NA,NA,NA,1,94,"likert"
"8975664DAC7B4D7D926F3667FFF9A602",1,"01990a98-3114-78cc-8a4d-80abc0a3c0eb","01990a84-c4ee-73c2-a87b-ff46a7d3dde5","2025-09-02_09h24.23.984",NA,NA,528.6663,528.6663,528.6663,528.9883,NA,NA,NA,NA,NA,NA,NA,TRUE,1,1.0297,525.5468,528.666,0,94,94,24,1,21,26,NA,NA,NA,NA,NA,1,95,"likert"
"8975664DAC7B4D7D926F3667FFF9A602",1,"01990a98-3114-78cc-8a4d-80abc0a3c0eb","01990a84-c4ee-73c2-a87b-ff46a7d3dde5","2025-09-02_09h24.23.984",NA,NA,531.7962,531.7962,531.7962,532.4582,NA,NA,NA,NA,NA,NA,NA,TRUE,1,1.7643,528.99,531.796,0,95,95,67,1,60,33,NA,NA,NA,NA,NA,1,96,"likert"
"8975664DAC7B4D7D926F3667FFF9A602",1,"01990a98-3114-78cc-8a4d-80abc0a3c0eb","01990a84-c4ee-73c2-a87b-ff46a7d3dde5","2025-09-02_09h24.23.984",NA,NA,535.3227,535.3227,535.3227,535.6449,NA,NA,NA,NA,NA,NA,NA,TRUE,5,1.7986,532.459,535.3226,0,96,96,5,1,7,35,NA,NA,NA,NA,NA,1,97,"likert"
"8975664DAC7B4D7D926F3667FFF9A602",1,"01990a98-3114-78cc-8a4d-80abc0a3c0eb","01990a84-c4ee-73c2-a87b-ff46a7d3dde5","2025-09-02_09h24.23.984",NA,NA,538.7895,538.7895,538.7895,539.1196,NA,NA,NA,NA,NA,NA,NA,TRUE,5,1.6039,535.6458,538.7892,0,97,97,71,1,60,54,NA,NA,NA,NA,NA,1,98,"likert"
"8975664DAC7B4D7D926F3667FFF9A602",1,"01990a98-3114-78cc-8a4d-80abc0a3c0eb","01990a84-c4ee-73c2-a87b-ff46a7d3dde5","2025-09-02_09h24.23.984",NA,NA,541.9347,541.9347,541.9347,542.4341,NA,NA,NA,NA,NA,NA,NA,TRUE,1,1.5914,539.1205,541.9345,0,98,98,107,1,200,54,NA,NA,NA,NA,NA,1,99,"likert"
"8975664DAC7B4D7D926F3667FFF9A602",1,"01990a98-3114-78cc-8a4d-80abc0a3c0eb","01990a84-c4ee-73c2-a87b-ff46a7d3dde5","2025-09-02_09h24.23.984",NA,NA,545.4328,545.4328,545.4328,545.7623,NA,NA,NA,NA,NA,NA,NA,TRUE,1,1.0505,542.4348,545.4325,0,99,99,12,1,12,25,NA,NA,NA,NA,NA,1,100,"likert"
"8975664DAC7B4D7D926F3667FFF9A602",1,"01990a98-3114-78cc-8a4d-80abc0a3c0eb","01990a84-c4ee-73c2-a87b-ff46a7d3dde5","2025-09-02_09h24.23.984",NA,NA,548.7145,548.7145,548.7145,549.2067,NA,NA,NA,NA,NA,NA,NA,TRUE,1,1.243,545.7629,548.7143,0,100,100,16,1,12,33,NA,NA,NA,NA,NA,1,101,"likert"
"8975664DAC7B4D7D926F3667FFF9A602",1,"01990a98-3114-78cc-8a4d-80abc0a3c0eb","01990a84-c4ee-73c2-a87b-ff46a7d3dde5","2025-09-02_09h24.23.984",NA,NA,551.9968,551.9968,551.9971,552.4876,NA,NA,NA,NA,NA,NA,NA,TRUE,5,2.0857,549.2075,551.9966,0,101,101,17,1,12,35,NA,NA,NA,NA,NA,1,102,"likert"
"8975664DAC7B4D7D926F3667FFF9A602",1,"01990a98-3114-78cc-8a4d-80abc0a3c0eb","01990a84-c4ee-73c2-a87b-ff46a7d3dde5","2025-09-02_09h24.23.984",NA,NA,555.4567,555.4567,555.4567,555.7795,NA,NA,NA,NA,NA,NA,NA,TRUE,1,1.5699,552.4883,555.4565,0,102,102,19,1,14,26,NA,NA,NA,NA,NA,1,103,"likert"
"8975664DAC7B4D7D926F3667FFF9A602",1,"01990a98-3114-78cc-8a4d-80abc0a3c0eb","01990a84-c4ee-73c2-a87b-ff46a7d3dde5","2025-09-02_09h24.23.984",NA,NA,558.5857,558.5857,558.5857,559.0778,NA,NA,NA,NA,NA,NA,NA,TRUE,1,1.2305,555.7802,558.5855,0,103,103,73,1,90,30,NA,NA,NA,NA,NA,1,104,"likert"
"8975664DAC7B4D7D926F3667FFF9A602",1,"01990a98-3114-78cc-8a4d-80abc0a3c0eb","01990a84-c4ee-73c2-a87b-ff46a7d3dde5","2025-09-02_09h24.23.984",NA,NA,562.2172,562.2172,562.2172,562.5426,NA,NA,NA,NA,NA,NA,NA,TRUE,1,1.4183,559.0785,562.217,0,104,104,80,1,95,35,NA,NA,NA,NA,NA,1,105,"likert"
"8975664DAC7B4D7D926F3667FFF9A602",1,"01990a98-3114-78cc-8a4d-80abc0a3c0eb","01990a84-c4ee-73c2-a87b-ff46a7d3dde5","2025-09-02_09h24.23.984",NA,NA,565.3574,565.3574,565.3574,565.8505,NA,NA,NA,NA,NA,NA,NA,TRUE,1,1.4108,562.5434,565.3572,0,105,105,104,1,200,35,NA,NA,NA,NA,NA,1,106,"likert"
"8975664DAC7B4D7D926F3667FFF9A602",1,"01990a98-3114-78cc-8a4d-80abc0a3c0eb","01990a84-c4ee-73c2-a87b-ff46a7d3dde5","2025-09-02_09h24.23.984",NA,NA,568.6261,568.6261,568.6261,569.2834,NA,NA,NA,NA,NA,NA,NA,TRUE,5,1.9161,565.8513,568.6259,0,106,106,64,1,50,46,NA,NA,NA,NA,NA,1,107,"likert"
"8975664DAC7B4D7D926F3667FFF9A602",1,"01990a98-3114-78cc-8a4d-80abc0a3c0eb","01990a84-c4ee-73c2-a87b-ff46a7d3dde5","2025-09-02_09h24.23.984",NA,NA,572.2408,572.2409,572.2409,572.5719,NA,NA,NA,NA,NA,NA,NA,TRUE,1,1.7581,569.2841,572.2406,0,107,107,11,1,10,32,NA,NA,NA,NA,NA,1,108,"likert"
"8975664DAC7B4D7D926F3667FFF9A602",1,"01990a98-3114-78cc-8a4d-80abc0a3c0eb","01990a84-c4ee-73c2-a87b-ff46a7d3dde5","2025-09-02_09h24.23.984",NA,NA,582.7861,582.7861,582.7861,583.1093,NA,NA,NA,NA,NA,NA,NA,TRUE,1,2.1067,579.8163,582.7859,NA,NA,NA,NA,NA,150,31,0,0,0,90,1,2,1,"likert"
"8975664DAC7B4D7D926F3667FFF9A602",1,"01990a98-3114-78cc-8a4d-80abc0a3c0eb","01990a84-c4ee-73c2-a87b-ff46a7d3dde5","2025-09-02_09h24.23.984",NA,NA,586.1521,586.1522,586.1522,586.4877,NA,NA,NA,NA,NA,NA,NA,TRUE,1,1.0989,583.1102,586.152,NA,NA,NA,NA,NA,10,26,0,1,1,7,1,2,2,"likert"
"8975664DAC7B4D7D926F3667FFF9A602",1,"01990a98-3114-78cc-8a4d-80abc0a3c0eb","01990a84-c4ee-73c2-a87b-ff46a7d3dde5","2025-09-02_09h24.23.984",NA,NA,589.2739,589.2739,589.274,589.7618,NA,NA,NA,NA,NA,NA,NA,TRUE,1,1.0537,586.4883,589.2736,NA,NA,NA,NA,NA,60,40,0,2,2,69,1,2,3,"likert"
"8975664DAC7B4D7D926F3667FFF9A602",1,"01990a98-3114-78cc-8a4d-80abc0a3c0eb","01990a84-c4ee-73c2-a87b-ff46a7d3dde5","2025-09-02_09h24.23.984",NA,NA,592.6894,592.6894,592.6894,593.1865,NA,NA,NA,NA,NA,NA,NA,TRUE,1,1.0619,589.7625,592.6892,NA,NA,NA,NA,NA,100,46,0,3,3,88,1,2,4,"likert"
"8975664DAC7B4D7D926F3667FFF9A602",1,"01990a98-3114-78cc-8a4d-80abc0a3c0eb","01990a84-c4ee-73c2-a87b-ff46a7d3dde5","2025-09-02_09h24.23.984",NA,NA,596.2092,596.2093,596.2093,596.5433,NA,NA,NA,NA,NA,NA,NA,TRUE,1,1.2541,593.1877,596.2091,NA,NA,NA,NA,NA,45,26,0,4,4,54,1,2,5,"likert"
"8975664DAC7B4D7D926F3667FFF9A602",1,"01990a98-3114-78cc-8a4d-80abc0a3c0eb","01990a84-c4ee-73c2-a87b-ff46a7d3dde5","2025-09-02_09h24.23.984",NA,NA,599.3945,599.3945,599.3945,599.8885,NA,NA,NA,NA,NA,NA,NA,TRUE,1,0.8992,596.544,599.3943,NA,NA,NA,NA,NA,60,29,0,5,5,66,1,2,6,"likert"
"8975664DAC7B4D7D926F3667FFF9A602",1,"01990a98-3114-78cc-8a4d-80abc0a3c0eb","01990a84-c4ee-73c2-a87b-ff46a7d3dde5","2025-09-02_09h24.23.984",NA,NA,602.8393,602.8393,602.8393,603.1651,NA,NA,NA,NA,NA,NA,NA,TRUE,1,0.8971,599.8891,602.8392,NA,NA,NA,NA,NA,200,26,0,6,6,102,1,2,7,"likert"
"8975664DAC7B4D7D926F3667FFF9A602",1,"01990a98-3114-78cc-8a4d-80abc0a3c0eb","01990a84-c4ee-73c2-a87b-ff46a7d3dde5","2025-09-02_09h24.23.984",NA,NA,606.0667,606.0667,606.0667,606.5663,NA,NA,NA,NA,NA,NA,NA,TRUE,1,0.4661,603.1659,606.0664,NA,NA,NA,NA,NA,100,31,0,7,7,85,1,2,8,"likert"
"8975664DAC7B4D7D926F3667FFF9A602",1,"01990a98-3114-78cc-8a4d-80abc0a3c0eb","01990a84-c4ee-73c2-a87b-ff46a7d3dde5","2025-09-02_09h24.23.984",NA,NA,609.3847,609.3847,609.3847,610.0495,NA,NA,NA,NA,NA,NA,NA,TRUE,1,0.8947,606.5675,609.3844,NA,NA,NA,NA,NA,50,54,0,8,8,65,1,2,9,"likert"
"8975664DAC7B4D7D926F3667FFF9A602",1,"01990a98-3114-78cc-8a4d-80abc0a3c0eb","01990a84-c4ee-73c2-a87b-ff46a7d3dde5","2025-09-02_09h24.23.984",NA,NA,612.9939,612.9939,612.9939,613.3204,NA,NA,NA,NA,NA,NA,NA,TRUE,1,0.8935,610.0501,612.9937,NA,NA,NA,NA,NA,90,26,0,9,9,72,1,2,10,"likert"
"8975664DAC7B4D7D926F3667FFF9A602",1,"01990a98-3114-78cc-8a4d-80abc0a3c0eb","01990a84-c4ee-73c2-a87b-ff46a7d3dde5","2025-09-02_09h24.23.984",NA,NA,616.1016,616.1016,616.1016,616.5919,NA,NA,NA,NA,NA,NA,NA,TRUE,1,0.8857,613.3212,616.1014,NA,NA,NA,NA,NA,180,35,0,10,10,98,1,2,11,"likert"
"8975664DAC7B4D7D926F3667FFF9A602",1,"01990a98-3114-78cc-8a4d-80abc0a3c0eb","01990a84-c4ee-73c2-a87b-ff46a7d3dde5","2025-09-02_09h24.23.984",NA,NA,619.7302,619.7302,619.7302,620.0545,NA,NA,NA,NA,NA,NA,NA,TRUE,1,0.8808,616.5926,619.7299,NA,NA,NA,NA,NA,25,29,0,11,11,31,1,2,12,"likert"
"8975664DAC7B4D7D926F3667FFF9A602",1,"01990a98-3114-78cc-8a4d-80abc0a3c0eb","01990a84-c4ee-73c2-a87b-ff46a7d3dde5","2025-09-02_09h24.23.984",NA,NA,623.013,623.013,623.013,623.3431,NA,NA,NA,NA,NA,NA,NA,TRUE,1,0.1844,620.0551,623.0128,NA,NA,NA,NA,NA,180,54,0,12,12,101,1,2,13,"likert"
"8975664DAC7B4D7D926F3667FFF9A602",1,"01990a98-3114-78cc-8a4d-80abc0a3c0eb","01990a84-c4ee-73c2-a87b-ff46a7d3dde5","2025-09-02_09h24.23.984",NA,NA,626.0904,626.0904,626.0904,626.7591,NA,NA,NA,NA,NA,NA,NA,TRUE,1,1.0405,623.3438,626.0903,NA,NA,NA,NA,NA,7,30,0,13,13,3,1,2,14,"likert"
"8975664DAC7B4D7D926F3667FFF9A602",1,"01990a98-3114-78cc-8a4d-80abc0a3c0eb","01990a84-c4ee-73c2-a87b-ff46a7d3dde5","2025-09-02_09h24.23.984",NA,NA,629.6862,629.6862,629.6862,630.0246,NA,NA,NA,NA,NA,NA,NA,TRUE,1,0.6999,626.7598,629.6858,NA,NA,NA,NA,NA,14,26,0,14,14,19,1,2,15,"likert"
"8975664DAC7B4D7D926F3667FFF9A602",1,"01990a98-3114-78cc-8a4d-80abc0a3c0eb","01990a84-c4ee-73c2-a87b-ff46a7d3dde5","2025-09-02_09h24.23.984",NA,NA,632.8355,632.8355,632.8355,633.3254,NA,NA,NA,NA,NA,NA,NA,TRUE,1,1.7401,630.0254,632.8353,NA,NA,NA,NA,NA,30,32,0,15,15,46,1,2,16,"likert"
"8975664DAC7B4D7D926F3667FFF9A602",1,"01990a98-3114-78cc-8a4d-80abc0a3c0eb","01990a84-c4ee-73c2-a87b-ff46a7d3dde5","2025-09-02_09h24.23.984",NA,NA,636.2732,636.2734,636.2734,636.7681,NA,NA,NA,NA,NA,NA,NA,TRUE,1,1.738,633.3261,636.2729,NA,NA,NA,NA,NA,100,26,0,16,16,84,1,2,17,"likert"
"8975664DAC7B4D7D926F3667FFF9A602",1,"01990a98-3114-78cc-8a4d-80abc0a3c0eb","01990a84-c4ee-73c2-a87b-ff46a7d3dde5","2025-09-02_09h24.23.984",NA,NA,639.68,639.68,639.6801,640.1667,NA,NA,NA,NA,NA,NA,NA,TRUE,1,1.0413,636.7688,639.6797,NA,NA,NA,NA,NA,12,33,0,17,17,16,1,2,18,"likert"
"8975664DAC7B4D7D926F3667FFF9A602",1,"01990a98-3114-78cc-8a4d-80abc0a3c0eb","01990a84-c4ee-73c2-a87b-ff46a7d3dde5","2025-09-02_09h24.23.984",NA,NA,642.956,643.2902,643.2902,643.4558,NA,NA,NA,NA,NA,NA,NA,FALSE,NA,NA,640.1674,642.9558,NA,NA,NA,NA,NA,50,46,0,18,18,64,1,2,19,"likert"
"8975664DAC7B4D7D926F3667FFF9A602",1,"01990a98-3114-78cc-8a4d-80abc0a3c0eb","01990a84-c4ee-73c2-a87b-ff46a7d3dde5","2025-09-02_09h24.23.984",NA,NA,646.2471,646.2471,646.2471,646.7481,NA,NA,NA,NA,NA,NA,NA,TRUE,1,1.5908,643.4566,646.2468,NA,NA,NA,NA,NA,25,27,0,19,19,30,1,2,20,"likert"
"8975664DAC7B4D7D926F3667FFF9A602",1,"01990a98-3114-78cc-8a4d-80abc0a3c0eb","01990a84-c4ee-73c2-a87b-ff46a7d3dde5","2025-09-02_09h24.23.984",NA,NA,649.7275,649.7275,649.7275,650.0468,NA,NA,NA,NA,NA,NA,NA,TRUE,1,1.6133,646.7488,649.7273,NA,NA,NA,NA,NA,45,35,0,20,20,57,1,2,21,"likert"
"8975664DAC7B4D7D926F3667FFF9A602",1,"01990a98-3114-78cc-8a4d-80abc0a3c0eb","01990a84-c4ee-73c2-a87b-ff46a7d3dde5","2025-09-02_09h24.23.984",NA,NA,653.1508,653.1508,653.1508,653.4699,NA,NA,NA,NA,NA,NA,NA,TRUE,1,1.7553,650.0478,653.1506,NA,NA,NA,NA,NA,40,35,0,21,21,50,1,2,22,"likert"
"8975664DAC7B4D7D926F3667FFF9A602",1,"01990a98-3114-78cc-8a4d-80abc0a3c0eb","01990a84-c4ee-73c2-a87b-ff46a7d3dde5","2025-09-02_09h24.23.984",NA,NA,656.4029,656.4029,656.4029,656.8972,NA,NA,NA,NA,NA,NA,NA,TRUE,1,1.2306,653.4707,656.4027,NA,NA,NA,NA,NA,30,26,0,22,22,42,1,2,23,"likert"
"8975664DAC7B4D7D926F3667FFF9A602",1,"01990a98-3114-78cc-8a4d-80abc0a3c0eb","01990a84-c4ee-73c2-a87b-ff46a7d3dde5","2025-09-02_09h24.23.984",NA,NA,659.8442,659.8442,659.8442,660.168,NA,NA,NA,NA,NA,NA,NA,TRUE,1,1.2396,656.8979,659.844,NA,NA,NA,NA,NA,90,54,0,23,23,77,1,2,24,"likert"
"8975664DAC7B4D7D926F3667FFF9A602",1,"01990a98-3114-78cc-8a4d-80abc0a3c0eb","01990a84-c4ee-73c2-a87b-ff46a7d3dde5","2025-09-02_09h24.23.984",NA,NA,663.2686,663.2687,663.2687,663.5889,NA,NA,NA,NA,NA,NA,NA,TRUE,1,0.8713,660.1688,663.2684,NA,NA,NA,NA,NA,200,47,0,24,24,106,1,2,25,"likert"
"8975664DAC7B4D7D926F3667FFF9A602",1,"01990a98-3114-78cc-8a4d-80abc0a3c0eb","01990a84-c4ee-73c2-a87b-ff46a7d3dde5","2025-09-02_09h24.23.984",NA,NA,666.3885,666.3885,666.3885,666.8834,NA,NA,NA,NA,NA,NA,NA,TRUE,1,1.045,663.5896,666.3882,NA,NA,NA,NA,NA,40,33,0,25,25,49,1,2,26,"likert"
"8975664DAC7B4D7D926F3667FFF9A602",1,"01990a98-3114-78cc-8a4d-80abc0a3c0eb","01990a84-c4ee-73c2-a87b-ff46a7d3dde5","2025-09-02_09h24.23.984",NA,NA,669.6613,669.6614,669.6614,670.3221,NA,NA,NA,NA,NA,NA,NA,TRUE,1,1.0618,666.8847,669.6611,NA,NA,NA,NA,NA,95,54,0,26,26,83,1,2,27,"likert"
"8975664DAC7B4D7D926F3667FFF9A602",1,"01990a98-3114-78cc-8a4d-80abc0a3c0eb","01990a84-c4ee-73c2-a87b-ff46a7d3dde5","2025-09-02_09h24.23.984",NA,NA,673.0755,673.0756,673.0756,673.5654,NA,NA,NA,NA,NA,NA,NA,TRUE,1,1.0604,670.323,673.0753,NA,NA,NA,NA,NA,95,47,0,27,27,82,1,2,28,"likert"
"8975664DAC7B4D7D926F3667FFF9A602",1,"01990a98-3114-78cc-8a4d-80abc0a3c0eb","01990a84-c4ee-73c2-a87b-ff46a7d3dde5","2025-09-02_09h24.23.984",NA,NA,676.6297,676.6297,676.6297,676.953,NA,NA,NA,NA,NA,NA,NA,TRUE,1,0.712,673.5661,676.6294,NA,NA,NA,NA,NA,25,35,0,28,28,34,1,2,29,"likert"
"8975664DAC7B4D7D926F3667FFF9A602",1,"01990a98-3114-78cc-8a4d-80abc0a3c0eb","01990a84-c4ee-73c2-a87b-ff46a7d3dde5","2025-09-02_09h24.23.984",NA,NA,679.7144,679.7144,679.7144,680.3647,NA,NA,NA,NA,NA,NA,NA,TRUE,1,1.7367,676.9537,679.7142,NA,NA,NA,NA,NA,95,40,0,29,29,81,1,2,30,"likert"
"8975664DAC7B4D7D926F3667FFF9A602",1,"01990a98-3114-78cc-8a4d-80abc0a3c0eb","01990a84-c4ee-73c2-a87b-ff46a7d3dde5","2025-09-02_09h24.23.984",NA,NA,683.1141,683.1141,683.1141,683.6019,NA,NA,NA,NA,NA,NA,NA,TRUE,1,1.3939,680.3653,683.1139,NA,NA,NA,NA,NA,12,26,0,30,30,13,1,2,31,"likert"
"8975664DAC7B4D7D926F3667FFF9A602",1,"01990a98-3114-78cc-8a4d-80abc0a3c0eb","01990a84-c4ee-73c2-a87b-ff46a7d3dde5","2025-09-02_09h24.23.984",NA,NA,686.5199,686.5199,686.5199,687.0174,NA,NA,NA,NA,NA,NA,NA,TRUE,1,1.0547,683.6028,686.5198,NA,NA,NA,NA,NA,14,32,0,31,31,21,1,2,32,"likert"
"8975664DAC7B4D7D926F3667FFF9A602",1,"01990a98-3114-78cc-8a4d-80abc0a3c0eb","01990a84-c4ee-73c2-a87b-ff46a7d3dde5","2025-09-02_09h24.23.984",NA,NA,689.9137,689.9137,689.9137,690.2339,NA,NA,NA,NA,NA,NA,NA,TRUE,1,2.573,687.0182,689.9135,NA,NA,NA,NA,NA,60,47,0,32,32,70,1,2,33,"likert"
"8975664DAC7B4D7D926F3667FFF9A602",1,"01990a98-3114-78cc-8a4d-80abc0a3c0eb","01990a84-c4ee-73c2-a87b-ff46a7d3dde5","2025-09-02_09h24.23.984",NA,NA,693.368,693.368,693.368,693.6896,NA,NA,NA,NA,NA,NA,NA,TRUE,1,0.8853,690.2347,693.3678,NA,NA,NA,NA,NA,50,27,0,33,33,60,1,2,34,"likert"
"8975664DAC7B4D7D926F3667FFF9A602",1,"01990a98-3114-78cc-8a4d-80abc0a3c0eb","01990a84-c4ee-73c2-a87b-ff46a7d3dde5","2025-09-02_09h24.23.984",NA,NA,696.6508,696.6508,696.6508,696.9814,NA,NA,NA,NA,NA,NA,NA,TRUE,1,2.7912,693.6903,696.6506,NA,NA,NA,NA,NA,10,27,0,34,34,8,1,2,35,"likert"
"8975664DAC7B4D7D926F3667FFF9A602",1,"01990a98-3114-78cc-8a4d-80abc0a3c0eb","01990a84-c4ee-73c2-a87b-ff46a7d3dde5","2025-09-02_09h24.23.984",NA,NA,700.1415,700.1415,700.1415,700.3056,NA,NA,NA,NA,NA,NA,NA,TRUE,1,0.8957,696.9822,700.1412,NA,NA,NA,NA,NA,200,54,0,35,35,107,1,2,36,"likert"
"8975664DAC7B4D7D926F3667FFF9A602",1,"01990a98-3114-78cc-8a4d-80abc0a3c0eb","01990a84-c4ee-73c2-a87b-ff46a7d3dde5","2025-09-02_09h24.23.984",NA,NA,703.2775,703.2775,703.2775,703.7789,NA,NA,NA,NA,NA,NA,NA,TRUE,1,1.229,700.3066,703.2773,NA,NA,NA,NA,NA,45,31,0,36,36,56,1,2,37,"likert"
"8975664DAC7B4D7D926F3667FFF9A602",1,"01990a98-3114-78cc-8a4d-80abc0a3c0eb","01990a84-c4ee-73c2-a87b-ff46a7d3dde5","2025-09-02_09h24.23.984",NA,NA,706.5511,706.5511,706.5511,707.048,NA,NA,NA,NA,NA,NA,NA,TRUE,1,0.3527,703.7797,706.5509,NA,NA,NA,NA,NA,30,30,0,37,37,45,1,2,38,"likert"
"8975664DAC7B4D7D926F3667FFF9A602",1,"01990a98-3114-78cc-8a4d-80abc0a3c0eb","01990a84-c4ee-73c2-a87b-ff46a7d3dde5","2025-09-02_09h24.23.984",NA,NA,710.0138,710.0138,710.0139,710.5033,NA,NA,NA,NA,NA,NA,NA,TRUE,1,0.184,707.0487,710.0136,NA,NA,NA,NA,NA,12,28,0,38,38,14,1,2,39,"likert"
"8975664DAC7B4D7D926F3667FFF9A602",1,"01990a98-3114-78cc-8a4d-80abc0a3c0eb","01990a84-c4ee-73c2-a87b-ff46a7d3dde5","2025-09-02_09h24.23.984",NA,NA,713.4303,713.4303,713.4303,713.7567,NA,NA,NA,NA,NA,NA,NA,TRUE,1,1.0558,710.504,713.43,NA,NA,NA,NA,NA,30,27,0,39,39,43,1,2,40,"likert"
"8975664DAC7B4D7D926F3667FFF9A602",1,"01990a98-3114-78cc-8a4d-80abc0a3c0eb","01990a84-c4ee-73c2-a87b-ff46a7d3dde5","2025-09-02_09h24.23.984",NA,NA,716.8652,716.8653,716.8653,717.1819,NA,NA,NA,NA,NA,NA,NA,TRUE,1,1.0699,713.7574,716.8651,NA,NA,NA,NA,NA,28,32,0,40,40,38,1,2,41,"likert"
"8975664DAC7B4D7D926F3667FFF9A602",1,"01990a98-3114-78cc-8a4d-80abc0a3c0eb","01990a84-c4ee-73c2-a87b-ff46a7d3dde5","2025-09-02_09h24.23.984",NA,NA,719.9321,719.9321,719.9321,720.4213,NA,NA,NA,NA,NA,NA,NA,TRUE,1,0.0027,717.1827,719.9318,NA,NA,NA,NA,NA,150,35,0,41,41,92,1,2,42,"likert"
"8975664DAC7B4D7D926F3667FFF9A602",1,"01990a98-3114-78cc-8a4d-80abc0a3c0eb","01990a84-c4ee-73c2-a87b-ff46a7d3dde5","2025-09-02_09h24.23.984",NA,NA,723.3393,723.3393,723.3393,723.8278,NA,NA,NA,NA,NA,NA,NA,TRUE,1,1.3767,720.4221,723.3391,NA,NA,NA,NA,NA,180,39,0,42,42,99,1,2,43,"likert"
"8975664DAC7B4D7D926F3667FFF9A602",1,"01990a98-3114-78cc-8a4d-80abc0a3c0eb","01990a84-c4ee-73c2-a87b-ff46a7d3dde5","2025-09-02_09h24.23.984",NA,NA,726.795,726.795,726.795,727.1265,NA,NA,NA,NA,NA,NA,NA,TRUE,1,1.2277,723.8286,726.7947,NA,NA,NA,NA,NA,200,39,0,43,43,105,1,2,44,"likert"
"8975664DAC7B4D7D926F3667FFF9A602",1,"01990a98-3114-78cc-8a4d-80abc0a3c0eb","01990a84-c4ee-73c2-a87b-ff46a7d3dde5","2025-09-02_09h24.23.984",NA,NA,730.0656,730.0656,730.0656,730.5459,NA,NA,NA,NA,NA,NA,NA,TRUE,1,1.7622,727.1271,730.0654,NA,NA,NA,NA,NA,10,25,0,44,44,6,1,2,45,"likert"
"8975664DAC7B4D7D926F3667FFF9A602",1,"01990a98-3114-78cc-8a4d-80abc0a3c0eb","01990a84-c4ee-73c2-a87b-ff46a7d3dde5","2025-09-02_09h24.23.984",NA,NA,733.3113,733.3113,733.3113,733.9639,NA,NA,NA,NA,NA,NA,NA,TRUE,1,1.0448,730.5467,733.3111,NA,NA,NA,NA,NA,50,30,0,45,45,61,1,2,46,"likert"
"8975664DAC7B4D7D926F3667FFF9A602",1,"01990a98-3114-78cc-8a4d-80abc0a3c0eb","01990a84-c4ee-73c2-a87b-ff46a7d3dde5","2025-09-02_09h24.23.984",NA,NA,736.8607,736.8607,736.8607,737.1873,NA,NA,NA,NA,NA,NA,NA,TRUE,1,0.5197,733.9646,736.8605,NA,NA,NA,NA,NA,95,33,0,46,46,79,1,2,47,"likert"
"8975664DAC7B4D7D926F3667FFF9A602",1,"01990a98-3114-78cc-8a4d-80abc0a3c0eb","01990a84-c4ee-73c2-a87b-ff46a7d3dde5","2025-09-02_09h24.23.984",NA,NA,740.1352,740.1352,740.1352,740.6214,NA,NA,NA,NA,NA,NA,NA,TRUE,1,1.0663,737.188,740.135,NA,NA,NA,NA,NA,28,35,0,47,47,39,1,2,48,"likert"
"8975664DAC7B4D7D926F3667FFF9A602",1,"01990a98-3114-78cc-8a4d-80abc0a3c0eb","01990a84-c4ee-73c2-a87b-ff46a7d3dde5","2025-09-02_09h24.23.984",NA,NA,743.3534,743.3534,743.3535,743.9609,NA,NA,NA,NA,NA,NA,NA,TRUE,1,1.0439,740.6221,743.3533,NA,NA,NA,NA,NA,40,27,0,48,48,48,1,2,49,"likert"
"8975664DAC7B4D7D926F3667FFF9A602",1,"01990a98-3114-78cc-8a4d-80abc0a3c0eb","01990a84-c4ee-73c2-a87b-ff46a7d3dde5","2025-09-02_09h24.23.984",NA,NA,746.9291,746.9292,746.9292,747.2568,NA,NA,NA,NA,NA,NA,NA,TRUE,1,1.7579,743.9617,746.929,NA,NA,NA,NA,NA,180,31,0,49,49,97,1,2,50,"likert"
"8975664DAC7B4D7D926F3667FFF9A602",1,"01990a98-3114-78cc-8a4d-80abc0a3c0eb","01990a84-c4ee-73c2-a87b-ff46a7d3dde5","2025-09-02_09h24.23.984",NA,NA,750.237,750.237,750.237,750.5724,NA,NA,NA,NA,NA,NA,NA,TRUE,1,0.178,747.2576,750.2367,NA,NA,NA,NA,NA,90,30,0,50,50,73,1,2,51,"likert"
"8975664DAC7B4D7D926F3667FFF9A602",1,"01990a98-3114-78cc-8a4d-80abc0a3c0eb","01990a84-c4ee-73c2-a87b-ff46a7d3dde5","2025-09-02_09h24.23.984",NA,NA,753.6542,753.6542,753.6542,753.9747,NA,NA,NA,NA,NA,NA,NA,TRUE,1,0.0022,750.5732,753.6541,NA,NA,NA,NA,NA,28,26,0,51,51,36,1,2,52,"likert"
"8975664DAC7B4D7D926F3667FFF9A602",1,"01990a98-3114-78cc-8a4d-80abc0a3c0eb","01990a84-c4ee-73c2-a87b-ff46a7d3dde5","2025-09-02_09h24.23.984",NA,NA,756.763,756.763,756.763,757.2557,NA,NA,NA,NA,NA,NA,NA,TRUE,1,0.8702,753.9753,756.7627,NA,NA,NA,NA,NA,40,40,0,52,52,51,1,2,53,"likert"
"8975664DAC7B4D7D926F3667FFF9A602",1,"01990a98-3114-78cc-8a4d-80abc0a3c0eb","01990a84-c4ee-73c2-a87b-ff46a7d3dde5","2025-09-02_09h24.23.984",NA,NA,760.2294,760.2294,760.2294,760.7359,NA,NA,NA,NA,NA,NA,NA,TRUE,1,1.0692,757.2565,760.2291,NA,NA,NA,NA,NA,7,26,0,53,53,1,1,2,54,"likert"
"8975664DAC7B4D7D926F3667FFF9A602",1,"01990a98-3114-78cc-8a4d-80abc0a3c0eb","01990a84-c4ee-73c2-a87b-ff46a7d3dde5","2025-09-02_09h24.23.984",NA,NA,763.522,763.522,763.522,764.0242,NA,NA,NA,NA,NA,NA,NA,TRUE,1,0.8835,760.7366,763.5217,NA,NA,NA,NA,NA,40,54,0,54,54,53,1,2,55,"likert"
"8975664DAC7B4D7D926F3667FFF9A602",1,"01990a98-3114-78cc-8a4d-80abc0a3c0eb","01990a84-c4ee-73c2-a87b-ff46a7d3dde5","2025-09-02_09h24.23.984",NA,NA,767.0217,767.0217,767.0217,767.3536,NA,NA,NA,NA,NA,NA,NA,TRUE,1,1.253,764.0248,767.0214,NA,NA,NA,NA,NA,12,25,0,55,55,12,1,2,56,"likert"
"8975664DAC7B4D7D926F3667FFF9A602",1,"01990a98-3114-78cc-8a4d-80abc0a3c0eb","01990a84-c4ee-73c2-a87b-ff46a7d3dde5","2025-09-02_09h24.23.984",NA,NA,770.3182,770.3182,770.3182,770.6381,NA,NA,NA,NA,NA,NA,NA,TRUE,1,1.4147,767.3548,770.318,NA,NA,NA,NA,NA,95,31,0,56,56,78,1,2,57,"likert"
"8975664DAC7B4D7D926F3667FFF9A602",1,"01990a98-3114-78cc-8a4d-80abc0a3c0eb","01990a84-c4ee-73c2-a87b-ff46a7d3dde5","2025-09-02_09h24.23.984",NA,NA,773.753,773.7531,773.7531,774.0838,NA,NA,NA,NA,NA,NA,NA,TRUE,1,1.5745,770.6389,773.7527,NA,NA,NA,NA,NA,7,28,0,57,57,2,1,2,58,"likert"
"8975664DAC7B4D7D926F3667FFF9A602",1,"01990a98-3114-78cc-8a4d-80abc0a3c0eb","01990a84-c4ee-73c2-a87b-ff46a7d3dde5","2025-09-02_09h24.23.984",NA,NA,777.053,777.053,777.053,777.3867,NA,NA,NA,NA,NA,NA,NA,TRUE,1,1.752,774.0844,777.0528,NA,NA,NA,NA,NA,14,28,0,58,58,20,1,2,59,"likert"
"8975664DAC7B4D7D926F3667FFF9A602",1,"01990a98-3114-78cc-8a4d-80abc0a3c0eb","01990a84-c4ee-73c2-a87b-ff46a7d3dde5","2025-09-02_09h24.23.984",NA,NA,780.362,780.362,780.362,780.691,NA,NA,NA,NA,NA,NA,NA,TRUE,1,0.882,777.3873,780.3618,NA,NA,NA,NA,NA,200,35,0,59,59,104,1,2,60,"likert"
"8975664DAC7B4D7D926F3667FFF9A602",1,"01990a98-3114-78cc-8a4d-80abc0a3c0eb","01990a84-c4ee-73c2-a87b-ff46a7d3dde5","2025-09-02_09h24.23.984",NA,NA,783.7948,783.7948,783.7948,784.1155,NA,NA,NA,NA,NA,NA,NA,TRUE,1,0.8731,780.6919,783.7946,NA,NA,NA,NA,NA,14,39,0,60,60,23,1,2,61,"likert"
"8975664DAC7B4D7D926F3667FFF9A602",1,"01990a98-3114-78cc-8a4d-80abc0a3c0eb","01990a84-c4ee-73c2-a87b-ff46a7d3dde5","2025-09-02_09h24.23.984",NA,NA,787.0709,787.0709,787.0709,787.3922,NA,NA,NA,NA,NA,NA,NA,TRUE,1,0.706,784.1162,787.0707,NA,NA,NA,NA,NA,30,29,0,61,61,44,1,2,62,"likert"
"8975664DAC7B4D7D926F3667FFF9A602",1,"01990a98-3114-78cc-8a4d-80abc0a3c0eb","01990a84-c4ee-73c2-a87b-ff46a7d3dde5","2025-09-02_09h24.23.984",NA,NA,790.3521,790.3521,790.3521,790.8506,NA,NA,NA,NA,NA,NA,NA,TRUE,1,1.0533,787.3929,790.3519,NA,NA,NA,NA,NA,150,33,0,62,62,91,1,2,63,"likert"
"8975664DAC7B4D7D926F3667FFF9A602",1,"01990a98-3114-78cc-8a4d-80abc0a3c0eb","01990a84-c4ee-73c2-a87b-ff46a7d3dde5","2025-09-02_09h24.23.984",NA,NA,793.6398,793.6398,793.6398,794.3001,NA,NA,NA,NA,NA,NA,NA,TRUE,1,1.0794,790.8512,793.6396,NA,NA,NA,NA,NA,25,31,0,63,63,32,1,2,64,"likert"
"8975664DAC7B4D7D926F3667FFF9A602",1,"01990a98-3114-78cc-8a4d-80abc0a3c0eb","01990a84-c4ee-73c2-a87b-ff46a7d3dde5","2025-09-02_09h24.23.984",NA,NA,797.2386,797.2386,797.2386,797.5631,NA,NA,NA,NA,NA,NA,NA,TRUE,5,2.4192,794.3008,797.2383,NA,NA,NA,NA,NA,7,35,0,64,64,5,1,2,65,"likert"
"8975664DAC7B4D7D926F3667FFF9A602",1,"01990a98-3114-78cc-8a4d-80abc0a3c0eb","01990a84-c4ee-73c2-a87b-ff46a7d3dde5","2025-09-02_09h24.23.984",NA,NA,800.5727,800.5728,800.5728,800.9009,NA,NA,NA,NA,NA,NA,NA,TRUE,1,1.6017,797.5638,800.5726,NA,NA,NA,NA,NA,150,47,0,65,65,94,1,2,66,"likert"
"8975664DAC7B4D7D926F3667FFF9A602",1,"01990a98-3114-78cc-8a4d-80abc0a3c0eb","01990a84-c4ee-73c2-a87b-ff46a7d3dde5","2025-09-02_09h24.23.984",NA,NA,803.6723,803.6724,803.6724,804.1658,NA,NA,NA,NA,NA,NA,NA,TRUE,1,1.0508,800.9016,803.6722,NA,NA,NA,NA,NA,21,30,0,66,66,27,1,2,67,"likert"
"8975664DAC7B4D7D926F3667FFF9A602",1,"01990a98-3114-78cc-8a4d-80abc0a3c0eb","01990a84-c4ee-73c2-a87b-ff46a7d3dde5","2025-09-02_09h24.23.984",NA,NA,807.2215,807.2215,807.2215,807.549,NA,NA,NA,NA,NA,NA,NA,TRUE,1,0.5235,804.1666,807.2214,NA,NA,NA,NA,NA,60,54,0,67,67,71,1,2,68,"likert"
"8975664DAC7B4D7D926F3667FFF9A602",1,"01990a98-3114-78cc-8a4d-80abc0a3c0eb","01990a84-c4ee-73c2-a87b-ff46a7d3dde5","2025-09-02_09h24.23.984",NA,NA,810.513,810.513,810.513,811.0107,NA,NA,NA,NA,NA,NA,NA,TRUE,1,1.2329,807.5497,810.5128,NA,NA,NA,NA,NA,60,33,0,68,68,67,1,2,69,"likert"
"8975664DAC7B4D7D926F3667FFF9A602",1,"01990a98-3114-78cc-8a4d-80abc0a3c0eb","01990a84-c4ee-73c2-a87b-ff46a7d3dde5","2025-09-02_09h24.23.984",NA,NA,813.8291,813.8291,813.8291,814.3265,NA,NA,NA,NA,NA,NA,NA,TRUE,1,1.0626,811.0114,813.8289,NA,NA,NA,NA,NA,28,39,0,69,69,40,1,2,70,"likert"
"8975664DAC7B4D7D926F3667FFF9A602",1,"01990a98-3114-78cc-8a4d-80abc0a3c0eb","01990a84-c4ee-73c2-a87b-ff46a7d3dde5","2025-09-02_09h24.23.984",NA,NA,817.1331,817.1331,817.1331,817.6281,NA,NA,NA,NA,NA,NA,NA,TRUE,1,1.2323,814.3273,817.1329,NA,NA,NA,NA,NA,100,39,0,70,70,87,1,2,71,"likert"
"8975664DAC7B4D7D926F3667FFF9A602",1,"01990a98-3114-78cc-8a4d-80abc0a3c0eb","01990a84-c4ee-73c2-a87b-ff46a7d3dde5","2025-09-02_09h24.23.984",NA,NA,820.4497,820.4497,820.4498,820.9398,NA,NA,NA,NA,NA,NA,NA,TRUE,1,1.7807,817.6288,820.4495,NA,NA,NA,NA,NA,10,32,0,71,71,11,1,2,72,"likert"
"8975664DAC7B4D7D926F3667FFF9A602",1,"01990a98-3114-78cc-8a4d-80abc0a3c0eb","01990a84-c4ee-73c2-a87b-ff46a7d3dde5","2025-09-02_09h24.23.984",NA,NA,823.8777,823.8777,823.8777,824.3733,NA,NA,NA,NA,NA,NA,NA,TRUE,1,1.2289,820.9405,823.8776,NA,NA,NA,NA,NA,90,46,0,72,72,76,1,2,73,"likert"
"8975664DAC7B4D7D926F3667FFF9A602",1,"01990a98-3114-78cc-8a4d-80abc0a3c0eb","01990a84-c4ee-73c2-a87b-ff46a7d3dde5","2025-09-02_09h24.23.984",NA,NA,827.1401,827.1401,827.1401,827.7941,NA,NA,NA,NA,NA,NA,NA,TRUE,1,0.536,824.3741,827.14,NA,NA,NA,NA,NA,40,47,0,73,73,52,1,2,74,"likert"
"8975664DAC7B4D7D926F3667FFF9A602",1,"01990a98-3114-78cc-8a4d-80abc0a3c0eb","01990a84-c4ee-73c2-a87b-ff46a7d3dde5","2025-09-02_09h24.23.984",NA,NA,830.7165,830.7165,830.7165,831.0415,NA,NA,NA,NA,NA,NA,NA,TRUE,1,1.2151,827.7948,830.7162,NA,NA,NA,NA,NA,14,35,0,74,74,22,1,2,75,"likert"
"8975664DAC7B4D7D926F3667FFF9A602",1,"01990a98-3114-78cc-8a4d-80abc0a3c0eb","01990a84-c4ee-73c2-a87b-ff46a7d3dde5","2025-09-02_09h24.23.984",NA,NA,834.0251,834.0251,834.0252,834.3509,NA,NA,NA,NA,NA,NA,NA,TRUE,1,1.4382,831.0422,834.0249,NA,NA,NA,NA,NA,45,46,0,75,75,59,1,2,76,"likert"
"8975664DAC7B4D7D926F3667FFF9A602",1,"01990a98-3114-78cc-8a4d-80abc0a3c0eb","01990a84-c4ee-73c2-a87b-ff46a7d3dde5","2025-09-02_09h24.23.984",NA,NA,837.4496,837.4497,837.4497,837.7813,NA,NA,NA,NA,NA,NA,NA,TRUE,1,1.401,834.3515,837.4495,NA,NA,NA,NA,NA,28,28,0,76,76,37,1,2,77,"likert"
"8975664DAC7B4D7D926F3667FFF9A602",1,"01990a98-3114-78cc-8a4d-80abc0a3c0eb","01990a84-c4ee-73c2-a87b-ff46a7d3dde5","2025-09-02_09h24.23.984",NA,NA,840.722,840.722,840.7221,841.053,NA,NA,NA,NA,NA,NA,NA,TRUE,1,0.8848,837.782,840.7218,NA,NA,NA,NA,NA,50,35,0,77,77,62,1,2,78,"likert"
"8975664DAC7B4D7D926F3667FFF9A602",1,"01990a98-3114-78cc-8a4d-80abc0a3c0eb","01990a84-c4ee-73c2-a87b-ff46a7d3dde5","2025-09-02_09h24.23.984",NA,NA,844.0012,844.0012,844.0012,844.4829,NA,NA,NA,NA,NA,NA,NA,TRUE,1,0.7022,841.0536,844.0009,NA,NA,NA,NA,NA,14,25,0,78,78,18,1,2,79,"likert"
"8975664DAC7B4D7D926F3667FFF9A602",1,"01990a98-3114-78cc-8a4d-80abc0a3c0eb","01990a84-c4ee-73c2-a87b-ff46a7d3dde5","2025-09-02_09h24.23.984",NA,NA,847.2459,847.2459,847.2459,847.8953,NA,NA,NA,NA,NA,NA,NA,TRUE,1,0.0027,844.4842,847.2456,NA,NA,NA,NA,NA,21,38,0,79,79,29,1,2,80,"likert"
"8975664DAC7B4D7D926F3667FFF9A602",1,"01990a98-3114-78cc-8a4d-80abc0a3c0eb","01990a84-c4ee-73c2-a87b-ff46a7d3dde5","2025-09-02_09h24.23.984",NA,NA,850.8374,850.8375,850.8375,851.1596,NA,NA,NA,NA,NA,NA,NA,TRUE,1,0.0031,847.896,850.8372,NA,NA,NA,NA,NA,150,54,0,80,80,95,1,2,81,"likert"
"8975664DAC7B4D7D926F3667FFF9A602",1,"01990a98-3114-78cc-8a4d-80abc0a3c0eb","01990a84-c4ee-73c2-a87b-ff46a7d3dde5","2025-09-02_09h24.23.984",NA,NA,853.9417,853.9417,853.9417,854.6046,NA,NA,NA,NA,NA,NA,NA,TRUE,1,0.8905,851.1604,853.9414,NA,NA,NA,NA,NA,30,38,0,81,81,47,1,2,82,"likert"
"8975664DAC7B4D7D926F3667FFF9A602",1,"01990a98-3114-78cc-8a4d-80abc0a3c0eb","01990a84-c4ee-73c2-a87b-ff46a7d3dde5","2025-09-02_09h24.23.984",NA,NA,857.4665,857.4665,857.4665,857.7933,NA,NA,NA,NA,NA,NA,NA,TRUE,1,0.9742,854.6051,857.4664,NA,NA,NA,NA,NA,100,54,0,82,82,89,1,2,83,"likert"
"8975664DAC7B4D7D926F3667FFF9A602",1,"01990a98-3114-78cc-8a4d-80abc0a3c0eb","01990a84-c4ee-73c2-a87b-ff46a7d3dde5","2025-09-02_09h24.23.984",NA,NA,860.8918,860.892,860.892,861.2166,NA,NA,NA,NA,NA,NA,NA,TRUE,1,1.0432,857.7941,860.8917,NA,NA,NA,NA,NA,21,26,0,83,83,24,1,2,84,"likert"
"8975664DAC7B4D7D926F3667FFF9A602",1,"01990a98-3114-78cc-8a4d-80abc0a3c0eb","01990a84-c4ee-73c2-a87b-ff46a7d3dde5","2025-09-02_09h24.23.984",NA,NA,864.1329,864.1329,864.1329,864.6272,NA,NA,NA,NA,NA,NA,NA,TRUE,1,0.0029,861.2173,864.1326,NA,NA,NA,NA,NA,50,40,0,84,84,63,1,2,85,"likert"
"8975664DAC7B4D7D926F3667FFF9A602",1,"01990a98-3114-78cc-8a4d-80abc0a3c0eb","01990a84-c4ee-73c2-a87b-ff46a7d3dde5","2025-09-02_09h24.23.984",NA,NA,867.3797,867.3798,867.3798,868.0268,NA,NA,NA,NA,NA,NA,NA,TRUE,1,1.0324,864.6278,867.3795,NA,NA,NA,NA,NA,21,32,0,85,85,28,1,2,86,"likert"
"8975664DAC7B4D7D926F3667FFF9A602",1,"01990a98-3114-78cc-8a4d-80abc0a3c0eb","01990a84-c4ee-73c2-a87b-ff46a7d3dde5","2025-09-02_09h24.23.984",NA,NA,870.6431,870.6431,870.6431,871.1457,NA,NA,NA,NA,NA,NA,NA,TRUE,1,1.2358,868.0275,870.643,NA,NA,NA,NA,NA,12,31,0,86,86,15,1,2,87,"likert"
"8975664DAC7B4D7D926F3667FFF9A602",1,"01990a98-3114-78cc-8a4d-80abc0a3c0eb","01990a84-c4ee-73c2-a87b-ff46a7d3dde5","2025-09-02_09h24.23.984",NA,NA,874.1862,874.1863,874.1863,874.5071,NA,NA,NA,NA,NA,NA,NA,TRUE,1,0.87,871.1464,874.1861,NA,NA,NA,NA,NA,25,33,0,87,87,33,1,2,88,"likert"
"8975664DAC7B4D7D926F3667FFF9A602",1,"01990a98-3114-78cc-8a4d-80abc0a3c0eb","01990a84-c4ee-73c2-a87b-ff46a7d3dde5","2025-09-02_09h24.23.984",NA,NA,877.6168,877.6168,877.6168,877.9368,NA,NA,NA,NA,NA,NA,NA,TRUE,1,0.0023,874.5078,877.6165,NA,NA,NA,NA,NA,12,35,0,88,88,17,1,2,89,"likert"
"8975664DAC7B4D7D926F3667FFF9A602",1,"01990a98-3114-78cc-8a4d-80abc0a3c0eb","01990a84-c4ee-73c2-a87b-ff46a7d3dde5","2025-09-02_09h24.23.984",NA,NA,880.8868,880.8868,880.8869,881.2165,NA,NA,NA,NA,NA,NA,NA,TRUE,1,0.7114,877.9376,880.8865,NA,NA,NA,NA,NA,7,25,0,89,89,0,1,2,90,"likert"
"8975664DAC7B4D7D926F3667FFF9A602",1,"01990a98-3114-78cc-8a4d-80abc0a3c0eb","01990a84-c4ee-73c2-a87b-ff46a7d3dde5","2025-09-02_09h24.23.984",NA,NA,884.1783,884.1783,884.1783,884.6768,NA,NA,NA,NA,NA,NA,NA,TRUE,1,0.3522,881.2174,884.1781,NA,NA,NA,NA,NA,95,35,0,90,90,80,1,2,91,"likert"
"8975664DAC7B4D7D926F3667FFF9A602",1,"01990a98-3114-78cc-8a4d-80abc0a3c0eb","01990a84-c4ee-73c2-a87b-ff46a7d3dde5","2025-09-02_09h24.23.984",NA,NA,887.4488,887.4488,887.4488,887.9508,NA,NA,NA,NA,NA,NA,NA,TRUE,1,0.8946,884.6776,887.4486,NA,NA,NA,NA,NA,200,28,0,91,91,103,1,2,92,"likert"
"8975664DAC7B4D7D926F3667FFF9A602",1,"01990a98-3114-78cc-8a4d-80abc0a3c0eb","01990a84-c4ee-73c2-a87b-ff46a7d3dde5","2025-09-02_09h24.23.984",NA,NA,890.738,890.738,890.738,891.407,NA,NA,NA,NA,NA,NA,NA,TRUE,1,1.05,887.9516,890.7378,NA,NA,NA,NA,NA,25,46,0,92,92,35,1,2,93,"likert"
"8975664DAC7B4D7D926F3667FFF9A602",1,"01990a98-3114-78cc-8a4d-80abc0a3c0eb","01990a84-c4ee-73c2-a87b-ff46a7d3dde5","2025-09-02_09h24.23.984",NA,NA,894.2277,894.2277,894.2277,894.7155,NA,NA,NA,NA,NA,NA,NA,TRUE,1,1.6015,891.4077,894.2275,NA,NA,NA,NA,NA,180,46,0,93,93,100,1,2,94,"likert"
"8975664DAC7B4D7D926F3667FFF9A602",1,"01990a98-3114-78cc-8a4d-80abc0a3c0eb","01990a84-c4ee-73c2-a87b-ff46a7d3dde5","2025-09-02_09h24.23.984",NA,NA,897.7959,897.796,897.796,897.9562,NA,NA,NA,NA,NA,NA,NA,TRUE,1,0.173,894.7165,897.7958,NA,NA,NA,NA,NA,45,40,0,94,94,58,1,2,95,"likert"
"8975664DAC7B4D7D926F3667FFF9A602",1,"01990a98-3114-78cc-8a4d-80abc0a3c0eb","01990a84-c4ee-73c2-a87b-ff46a7d3dde5","2025-09-02_09h24.23.984",NA,NA,901.0396,901.0396,901.0396,901.3651,NA,NA,NA,NA,NA,NA,NA,TRUE,1,2.2467,897.9569,901.0395,NA,NA,NA,NA,NA,10,30,0,95,95,10,1,2,96,"likert"
"8975664DAC7B4D7D926F3667FFF9A602",1,"01990a98-3114-78cc-8a4d-80abc0a3c0eb","01990a84-c4ee-73c2-a87b-ff46a7d3dde5","2025-09-02_09h24.23.984",NA,NA,904.3482,904.3482,904.3482,904.685,NA,NA,NA,NA,NA,NA,NA,TRUE,1,1.2302,901.3661,904.348,NA,NA,NA,NA,NA,100,38,0,96,96,86,1,2,97,"likert"
"8975664DAC7B4D7D926F3667FFF9A602",1,"01990a98-3114-78cc-8a4d-80abc0a3c0eb","01990a84-c4ee-73c2-a87b-ff46a7d3dde5","2025-09-02_09h24.23.984",NA,NA,907.6609,907.661,907.661,907.9945,NA,NA,NA,NA,NA,NA,NA,TRUE,1,1.5956,904.6857,907.6607,NA,NA,NA,NA,NA,7,32,0,97,97,4,1,2,98,"likert"
"8975664DAC7B4D7D926F3667FFF9A602",1,"01990a98-3114-78cc-8a4d-80abc0a3c0eb","01990a84-c4ee-73c2-a87b-ff46a7d3dde5","2025-09-02_09h24.23.984",NA,NA,911.0999,911.0999,911.0999,911.4398,NA,NA,NA,NA,NA,NA,NA,TRUE,1,1.7451,907.9954,911.0997,NA,NA,NA,NA,NA,90,33,0,98,98,74,1,2,99,"likert"
"8975664DAC7B4D7D926F3667FFF9A602",1,"01990a98-3114-78cc-8a4d-80abc0a3c0eb","01990a84-c4ee-73c2-a87b-ff46a7d3dde5","2025-09-02_09h24.23.984",NA,NA,914.2219,914.222,914.222,914.7141,NA,NA,NA,NA,NA,NA,NA,TRUE,1,1.4075,911.4404,914.2218,NA,NA,NA,NA,NA,180,27,0,99,99,96,1,2,100,"likert"
"8975664DAC7B4D7D926F3667FFF9A602",1,"01990a98-3114-78cc-8a4d-80abc0a3c0eb","01990a84-c4ee-73c2-a87b-ff46a7d3dde5","2025-09-02_09h24.23.984",NA,NA,917.834,917.8341,917.8341,918.1548,NA,NA,NA,NA,NA,NA,NA,TRUE,1,1.0751,914.7152,917.8338,NA,NA,NA,NA,NA,45,29,0,100,100,55,1,2,101,"likert"
"8975664DAC7B4D7D926F3667FFF9A602",1,"01990a98-3114-78cc-8a4d-80abc0a3c0eb","01990a84-c4ee-73c2-a87b-ff46a7d3dde5","2025-09-02_09h24.23.984",NA,NA,921.1069,921.1069,921.1069,921.4379,NA,NA,NA,NA,NA,NA,NA,TRUE,1,0.5341,918.1556,921.1066,NA,NA,NA,NA,NA,21,27,0,101,101,25,1,2,102,"likert"
"8975664DAC7B4D7D926F3667FFF9A602",1,"01990a98-3114-78cc-8a4d-80abc0a3c0eb","01990a84-c4ee-73c2-a87b-ff46a7d3dde5","2025-09-02_09h24.23.984",NA,NA,924.3744,924.3744,924.3744,924.8649,NA,NA,NA,NA,NA,NA,NA,TRUE,1,1.5726,921.4385,924.3742,NA,NA,NA,NA,NA,150,40,0,102,102,93,1,2,103,"likert"
"8975664DAC7B4D7D926F3667FFF9A602",1,"01990a98-3114-78cc-8a4d-80abc0a3c0eb","01990a84-c4ee-73c2-a87b-ff46a7d3dde5","2025-09-02_09h24.23.984",NA,NA,927.7449,927.7449,927.7449,928.234,NA,NA,NA,NA,NA,NA,NA,TRUE,1,1.2068,924.8656,927.7447,NA,NA,NA,NA,NA,21,29,0,103,103,26,1,2,104,"likert"
"8975664DAC7B4D7D926F3667FFF9A602",1,"01990a98-3114-78cc-8a4d-80abc0a3c0eb","01990a84-c4ee-73c2-a87b-ff46a7d3dde5","2025-09-02_09h24.23.984",NA,NA,931.1376,931.1376,931.1376,931.6492,NA,NA,NA,NA,NA,NA,NA,TRUE,1,1.0475,928.2347,931.1373,NA,NA,NA,NA,NA,60,35,0,104,104,68,1,2,105,"likert"
"8975664DAC7B4D7D926F3667FFF9A602",1,"01990a98-3114-78cc-8a4d-80abc0a3c0eb","01990a84-c4ee-73c2-a87b-ff46a7d3dde5","2025-09-02_09h24.23.984",NA,NA,934.602,934.6021,934.6021,934.9406,NA,NA,NA,NA,NA,NA,NA,TRUE,1,0.8704,931.6499,934.6018,NA,NA,NA,NA,NA,10,29,0,105,105,9,1,2,106,"likert"
"8975664DAC7B4D7D926F3667FFF9A602",1,"01990a98-3114-78cc-8a4d-80abc0a3c0eb","01990a84-c4ee-73c2-a87b-ff46a7d3dde5","2025-09-02_09h24.23.984",NA,NA,937.708,937.7081,937.7081,938.3679,NA,NA,NA,NA,NA,NA,NA,TRUE,1,0.8963,934.9414,937.7079,NA,NA,NA,NA,NA,28,46,0,106,106,41,1,2,107,"likert"
"8975664DAC7B4D7D926F3667FFF9A602",1,"01990a98-3114-78cc-8a4d-80abc0a3c0eb","01990a84-c4ee-73c2-a87b-ff46a7d3dde5","2025-09-02_09h24.23.984",NA,NA,941.3086,941.3087,941.3087,941.631,NA,NA,NA,NA,NA,NA,NA,TRUE,1,0.3554,938.3687,941.3085,NA,NA,NA,NA,NA,90,40,0,107,107,75,1,2,108,"likert"
