"participant","session","assignmentId","projectId","date","practiceTrial.started","practiceTrial.stopped","tooLate.started","tooLate.stopped","blank.started","blank.stopped","trials_pract.thisRepN","trials_pract.thisTrialN","trials_pract.thisN","trials_pract.thisIndex","trials_pract.ran","delay_pract","amount_pract","responseMade","key","rt","trial.started","trial.stopped","trials.thisRepN","trials.thisTrialN","trials.thisN","trials.thisIndex","trials.ran","delay","amount","trials_2.thisRepN","trials_2.thisTrialN","trials_2.thisN","trials_2.thisIndex","trials_2.ran","block","trial","taskType"
"89E0BF9E8EB145F88577FBED3C82A839",1,"0198f77d-0de6-7b6e-8357-f7bba9ec3361","0198f768-e4d2-711c-944b-6f03c09216de","2025-08-29_15h22.26.048",19.5452,22.5014,22.5024,22.7505,22.7506,22.8508,0,0,0,0,1,7,30,FALSE,NA,NA,NA,NA,NA,NA,NA,NA,NA,NA,NA,NA,NA,NA,NA,NA,0,1,"likert"
"89E0BF9E8EB145F88577FBED3C82A839",1,"0198f77d-0de6-7b6e-8357-f7bba9ec3361","0198f768-e4d2-711c-944b-6f03c09216de","2025-08-29_15h22.26.048",22.8521,25.8477,25.8479,25.8479,25.848,26.1971,0,1,1,3,1,3,27,TRUE,4,1.5347,NA,NA,NA,NA,NA,NA,NA,NA,NA,NA,NA,NA,NA,NA,0,2,"likert"
"89E0BF9E8EB145F88577FBED3C82A839",1,"0198f77d-0de6-7b6e-8357-f7bba9ec3361","0198f768-e4d2-711c-944b-6f03c09216de","2025-08-29_15h22.26.048",26.1987,29.1942,29.1943,29.1944,29.1945,29.5439,0,2,2,2,1,14,45,TRUE,5,1.7166,NA,NA,NA,NA,NA,NA,NA,NA,NA,NA,NA,NA,NA,NA,0,3,"likert"
"89E0BF9E8EB145F88577FBED3C82A839",1,"0198f77d-0de6-7b6e-8357-f7bba9ec3361","0198f768-e4d2-711c-944b-6f03c09216de","2025-08-29_15h22.26.048",29.545,32.558,32.5583,32.5585,32.5586,32.9075,0,3,3,4,1,30,40,TRUE,2,1.5975,NA,NA,NA,NA,NA,NA,NA,NA,NA,NA,NA,NA,NA,NA,0,4,"likert"
"89E0BF9E8EB145F88577FBED3C82A839",1,"0198f77d-0de6-7b6e-8357-f7bba9ec3361","0198f768-e4d2-711c-944b-6f03c09216de","2025-08-29_15h22.26.048",32.9092,35.9044,35.905,35.9051,35.9052,36.2539,0,4,4,1,1,100,50,TRUE,2,2.4906,NA,NA,NA,NA,NA,NA,NA,NA,NA,NA,NA,NA,NA,NA,0,5,"likert"
"89E0BF9E8EB145F88577FBED3C82A839",1,"0198f77d-0de6-7b6e-8357-f7bba9ec3361","0198f768-e4d2-711c-944b-6f03c09216de","2025-08-29_15h22.26.048",NA,NA,59.8374,59.8376,59.8378,60.1813,NA,NA,NA,NA,NA,NA,NA,TRUE,2,1.2311,56.8676,59.8369,0,0,0,42,1,30,26,NA,NA,NA,NA,NA,1,1,"likert"
"89E0BF9E8EB145F88577FBED3C82A839",1,"0198f77d-0de6-7b6e-8357-f7bba9ec3361","0198f768-e4d2-711c-944b-6f03c09216de","2025-08-29_15h22.26.048",NA,NA,63.1841,63.1841,63.1841,63.5331,NA,NA,NA,NA,NA,NA,NA,TRUE,1,1.4713,60.1829,63.1836,0,1,1,12,1,12,25,NA,NA,NA,NA,NA,1,2,"likert"
"89E0BF9E8EB145F88577FBED3C82A839",1,"0198f77d-0de6-7b6e-8357-f7bba9ec3361","0198f768-e4d2-711c-944b-6f03c09216de","2025-08-29_15h22.26.048",NA,NA,66.5301,66.5302,66.5302,66.8744,NA,NA,NA,NA,NA,NA,NA,TRUE,1,1.9326,63.5343,66.53,0,2,2,45,1,30,30,NA,NA,NA,NA,NA,1,3,"likert"
"89E0BF9E8EB145F88577FBED3C82A839",1,"0198f77d-0de6-7b6e-8357-f7bba9ec3361","0198f768-e4d2-711c-944b-6f03c09216de","2025-08-29_15h22.26.048",NA,NA,69.8885,69.8885,69.8886,70.242,NA,NA,NA,NA,NA,NA,NA,TRUE,1,2.4114,66.8762,69.8883,0,3,3,59,1,45,46,NA,NA,NA,NA,NA,1,4,"likert"
"89E0BF9E8EB145F88577FBED3C82A839",1,"0198f77d-0de6-7b6e-8357-f7bba9ec3361","0198f768-e4d2-711c-944b-6f03c09216de","2025-08-29_15h22.26.048",NA,NA,73.2352,73.2354,73.2354,73.5724,NA,NA,NA,NA,NA,NA,NA,TRUE,1,1.5679,70.2441,73.235,0,4,4,103,1,200,28,NA,NA,NA,NA,NA,1,5,"likert"
"89E0BF9E8EB145F88577FBED3C82A839",1,"0198f77d-0de6-7b6e-8357-f7bba9ec3361","0198f768-e4d2-711c-944b-6f03c09216de","2025-08-29_15h22.26.048",NA,NA,76.5825,76.5825,76.5825,76.9311,NA,NA,NA,NA,NA,NA,NA,TRUE,1,1.1175,73.574,76.5821,0,5,5,29,1,21,38,NA,NA,NA,NA,NA,1,6,"likert"
"89E0BF9E8EB145F88577FBED3C82A839",1,"0198f77d-0de6-7b6e-8357-f7bba9ec3361","0198f768-e4d2-711c-944b-6f03c09216de","2025-08-29_15h22.26.048",NA,NA,79.9285,79.9285,79.9287,80.2782,NA,NA,NA,NA,NA,NA,NA,TRUE,1,1.0319,76.9341,79.9283,0,6,6,78,1,95,31,NA,NA,NA,NA,NA,1,7,"likert"
"89E0BF9E8EB145F88577FBED3C82A839",1,"0198f77d-0de6-7b6e-8357-f7bba9ec3361","0198f768-e4d2-711c-944b-6f03c09216de","2025-08-29_15h22.26.048",NA,NA,83.2749,83.2752,83.2753,83.6247,NA,NA,NA,NA,NA,NA,NA,TRUE,1,0.9443,80.2797,83.2747,0,7,7,13,1,12,26,NA,NA,NA,NA,NA,1,8,"likert"
"89E0BF9E8EB145F88577FBED3C82A839",1,"0198f77d-0de6-7b6e-8357-f7bba9ec3361","0198f768-e4d2-711c-944b-6f03c09216de","2025-08-29_15h22.26.048",NA,NA,86.6388,86.6389,86.639,86.9878,NA,NA,NA,NA,NA,NA,NA,TRUE,1,1.0342,83.6264,86.6386,0,8,8,81,1,95,40,NA,NA,NA,NA,NA,1,9,"likert"
"89E0BF9E8EB145F88577FBED3C82A839",1,"0198f77d-0de6-7b6e-8357-f7bba9ec3361","0198f768-e4d2-711c-944b-6f03c09216de","2025-08-29_15h22.26.048",NA,NA,89.9855,89.9857,89.9857,90.3228,NA,NA,NA,NA,NA,NA,NA,TRUE,1,0.6837,86.9893,89.9853,0,9,9,17,1,12,35,NA,NA,NA,NA,NA,1,10,"likert"
"89E0BF9E8EB145F88577FBED3C82A839",1,"0198f77d-0de6-7b6e-8357-f7bba9ec3361","0198f768-e4d2-711c-944b-6f03c09216de","2025-08-29_15h22.26.048",NA,NA,93.3324,93.3326,93.3326,93.6816,NA,NA,NA,NA,NA,NA,NA,TRUE,1,1.5831,90.3239,93.3318,0,10,10,95,1,150,54,NA,NA,NA,NA,NA,1,11,"likert"
"89E0BF9E8EB145F88577FBED3C82A839",1,"0198f77d-0de6-7b6e-8357-f7bba9ec3361","0198f768-e4d2-711c-944b-6f03c09216de","2025-08-29_15h22.26.048",NA,NA,96.6791,96.6793,96.6793,97.0283,NA,NA,NA,NA,NA,NA,NA,TRUE,1,1.308,93.6832,96.6788,0,11,11,14,1,12,28,NA,NA,NA,NA,NA,1,12,"likert"
"89E0BF9E8EB145F88577FBED3C82A839",1,"0198f77d-0de6-7b6e-8357-f7bba9ec3361","0198f768-e4d2-711c-944b-6f03c09216de","2025-08-29_15h22.26.048",NA,NA,100.026,100.0262,100.0262,100.3751,NA,NA,NA,NA,NA,NA,NA,TRUE,1,0.8837,97.0301,100.0257,0,12,12,62,1,50,35,NA,NA,NA,NA,NA,1,13,"likert"
"89E0BF9E8EB145F88577FBED3C82A839",1,"0198f77d-0de6-7b6e-8357-f7bba9ec3361","0198f768-e4d2-711c-944b-6f03c09216de","2025-08-29_15h22.26.048",NA,NA,103.3731,103.3731,103.3732,103.7255,NA,NA,NA,NA,NA,NA,NA,TRUE,1,0.8507,100.377,103.3728,0,13,13,74,1,90,33,NA,NA,NA,NA,NA,1,14,"likert"
"89E0BF9E8EB145F88577FBED3C82A839",1,"0198f77d-0de6-7b6e-8357-f7bba9ec3361","0198f768-e4d2-711c-944b-6f03c09216de","2025-08-29_15h22.26.048",NA,NA,106.7361,106.7361,106.7362,107.0854,NA,NA,NA,NA,NA,NA,NA,TRUE,1,1.3738,103.7285,106.7358,0,14,14,18,1,14,25,NA,NA,NA,NA,NA,1,15,"likert"
"89E0BF9E8EB145F88577FBED3C82A839",1,"0198f77d-0de6-7b6e-8357-f7bba9ec3361","0198f768-e4d2-711c-944b-6f03c09216de","2025-08-29_15h22.26.048",NA,NA,110.0881,110.0882,110.0882,110.4316,NA,NA,NA,NA,NA,NA,NA,TRUE,1,1.036,107.0868,110.0879,0,15,15,38,1,28,32,NA,NA,NA,NA,NA,1,16,"likert"
"89E0BF9E8EB145F88577FBED3C82A839",1,"0198f77d-0de6-7b6e-8357-f7bba9ec3361","0198f768-e4d2-711c-944b-6f03c09216de","2025-08-29_15h22.26.048",NA,NA,113.4293,113.4293,113.4293,113.7789,NA,NA,NA,NA,NA,NA,NA,TRUE,1,0.8334,110.4336,113.4289,0,16,16,96,1,180,27,NA,NA,NA,NA,NA,1,17,"likert"
"89E0BF9E8EB145F88577FBED3C82A839",1,"0198f77d-0de6-7b6e-8357-f7bba9ec3361","0198f768-e4d2-711c-944b-6f03c09216de","2025-08-29_15h22.26.048",NA,NA,116.7757,116.7757,116.7757,117.1253,NA,NA,NA,NA,NA,NA,NA,TRUE,1,0.9722,113.7806,116.7755,0,17,17,31,1,25,29,NA,NA,NA,NA,NA,1,18,"likert"
"89E0BF9E8EB145F88577FBED3C82A839",1,"0198f77d-0de6-7b6e-8357-f7bba9ec3361","0198f768-e4d2-711c-944b-6f03c09216de","2025-08-29_15h22.26.048",NA,NA,120.1229,120.123,120.123,120.4724,NA,NA,NA,NA,NA,NA,NA,TRUE,1,0.8262,117.1273,120.1226,0,18,18,30,1,25,27,NA,NA,NA,NA,NA,1,19,"likert"
"89E0BF9E8EB145F88577FBED3C82A839",1,"0198f77d-0de6-7b6e-8357-f7bba9ec3361","0198f768-e4d2-711c-944b-6f03c09216de","2025-08-29_15h22.26.048",NA,NA,123.4902,123.4904,123.4904,123.8356,NA,NA,NA,NA,NA,NA,NA,TRUE,1,0.6999,120.4743,123.4899,0,19,19,71,1,60,54,NA,NA,NA,NA,NA,1,20,"likert"
"89E0BF9E8EB145F88577FBED3C82A839",1,"0198f77d-0de6-7b6e-8357-f7bba9ec3361","0198f768-e4d2-711c-944b-6f03c09216de","2025-08-29_15h22.26.048",NA,NA,126.8334,126.8336,126.8337,127.1876,NA,NA,NA,NA,NA,NA,NA,TRUE,1,0.604,123.8375,126.833,0,20,20,90,1,150,31,NA,NA,NA,NA,NA,1,21,"likert"
"89E0BF9E8EB145F88577FBED3C82A839",1,"0198f77d-0de6-7b6e-8357-f7bba9ec3361","0198f768-e4d2-711c-944b-6f03c09216de","2025-08-29_15h22.26.048",NA,NA,130.1792,130.1792,130.1792,130.5291,NA,NA,NA,NA,NA,NA,NA,TRUE,1,0.6541,127.1893,130.1789,0,21,21,20,1,14,28,NA,NA,NA,NA,NA,1,22,"likert"
"89E0BF9E8EB145F88577FBED3C82A839",1,"0198f77d-0de6-7b6e-8357-f7bba9ec3361","0198f768-e4d2-711c-944b-6f03c09216de","2025-08-29_15h22.26.048",NA,NA,133.5268,133.5268,133.527,133.8753,NA,NA,NA,NA,NA,NA,NA,TRUE,1,2.3192,130.5308,133.5263,0,22,22,94,1,150,47,NA,NA,NA,NA,NA,1,23,"likert"
"89E0BF9E8EB145F88577FBED3C82A839",1,"0198f77d-0de6-7b6e-8357-f7bba9ec3361","0198f768-e4d2-711c-944b-6f03c09216de","2025-08-29_15h22.26.048",NA,NA,136.8731,136.8732,136.8732,137.2387,NA,NA,NA,NA,NA,NA,NA,TRUE,1,1.5505,133.8769,136.8728,0,23,23,100,1,180,46,NA,NA,NA,NA,NA,1,24,"likert"
"89E0BF9E8EB145F88577FBED3C82A839",1,"0198f77d-0de6-7b6e-8357-f7bba9ec3361","0198f768-e4d2-711c-944b-6f03c09216de","2025-08-29_15h22.26.048",NA,NA,140.2362,140.2364,140.2364,140.5854,NA,NA,NA,NA,NA,NA,NA,TRUE,3,1.8482,137.2404,140.2359,0,24,24,15,1,12,31,NA,NA,NA,NA,NA,1,25,"likert"
"89E0BF9E8EB145F88577FBED3C82A839",1,"0198f77d-0de6-7b6e-8357-f7bba9ec3361","0198f768-e4d2-711c-944b-6f03c09216de","2025-08-29_15h22.26.048",NA,NA,143.5833,143.5833,143.5834,143.9324,NA,NA,NA,NA,NA,NA,NA,TRUE,4,1.7686,140.5876,143.583,0,25,25,5,1,7,35,NA,NA,NA,NA,NA,1,26,"likert"
"89E0BF9E8EB145F88577FBED3C82A839",1,"0198f77d-0de6-7b6e-8357-f7bba9ec3361","0198f768-e4d2-711c-944b-6f03c09216de","2025-08-29_15h22.26.048",NA,NA,146.9298,146.9299,146.93,147.2789,NA,NA,NA,NA,NA,NA,NA,TRUE,1,0.8864,143.9341,146.9294,0,26,26,106,1,200,47,NA,NA,NA,NA,NA,1,27,"likert"
"89E0BF9E8EB145F88577FBED3C82A839",1,"0198f77d-0de6-7b6e-8357-f7bba9ec3361","0198f768-e4d2-711c-944b-6f03c09216de","2025-08-29_15h22.26.048",NA,NA,150.2768,150.277,150.277,150.6261,NA,NA,NA,NA,NA,NA,NA,TRUE,1,0.5191,147.281,150.2765,0,27,27,63,1,50,40,NA,NA,NA,NA,NA,1,28,"likert"
"89E0BF9E8EB145F88577FBED3C82A839",1,"0198f77d-0de6-7b6e-8357-f7bba9ec3361","0198f768-e4d2-711c-944b-6f03c09216de","2025-08-29_15h22.26.048",NA,NA,153.6239,153.6239,153.624,153.9728,NA,NA,NA,NA,NA,NA,NA,TRUE,1,1.5649,150.6283,153.6235,0,28,28,23,1,14,39,NA,NA,NA,NA,NA,1,29,"likert"
"89E0BF9E8EB145F88577FBED3C82A839",1,"0198f77d-0de6-7b6e-8357-f7bba9ec3361","0198f768-e4d2-711c-944b-6f03c09216de","2025-08-29_15h22.26.048",NA,NA,156.9887,156.9887,156.9887,157.3359,NA,NA,NA,NA,NA,NA,NA,TRUE,3,2.0173,153.9741,156.9885,0,29,29,10,1,10,30,NA,NA,NA,NA,NA,1,30,"likert"
"89E0BF9E8EB145F88577FBED3C82A839",1,"0198f77d-0de6-7b6e-8357-f7bba9ec3361","0198f768-e4d2-711c-944b-6f03c09216de","2025-08-29_15h22.26.048",NA,NA,160.3337,160.3337,160.3337,160.6827,NA,NA,NA,NA,NA,NA,NA,TRUE,1,0.8483,157.3376,160.3335,0,30,30,97,1,180,31,NA,NA,NA,NA,NA,1,31,"likert"
"89E0BF9E8EB145F88577FBED3C82A839",1,"0198f77d-0de6-7b6e-8357-f7bba9ec3361","0198f768-e4d2-711c-944b-6f03c09216de","2025-08-29_15h22.26.048",NA,NA,163.6801,163.6803,163.6804,164.0293,NA,NA,NA,NA,NA,NA,NA,TRUE,1,0.9996,160.6848,163.6798,0,31,31,93,1,150,40,NA,NA,NA,NA,NA,1,32,"likert"
"89E0BF9E8EB145F88577FBED3C82A839",1,"0198f77d-0de6-7b6e-8357-f7bba9ec3361","0198f768-e4d2-711c-944b-6f03c09216de","2025-08-29_15h22.26.048",NA,NA,167.027,167.0271,167.0271,167.3762,NA,NA,NA,NA,NA,NA,NA,TRUE,1,0.7915,164.0309,167.0265,0,32,32,79,1,95,33,NA,NA,NA,NA,NA,1,33,"likert"
"89E0BF9E8EB145F88577FBED3C82A839",1,"0198f77d-0de6-7b6e-8357-f7bba9ec3361","0198f768-e4d2-711c-944b-6f03c09216de","2025-08-29_15h22.26.048",NA,NA,170.3739,170.3739,170.3739,170.7232,NA,NA,NA,NA,NA,NA,NA,TRUE,3,1.9545,167.3778,170.3736,0,33,33,34,1,25,35,NA,NA,NA,NA,NA,1,34,"likert"
"89E0BF9E8EB145F88577FBED3C82A839",1,"0198f77d-0de6-7b6e-8357-f7bba9ec3361","0198f768-e4d2-711c-944b-6f03c09216de","2025-08-29_15h22.26.048",NA,NA,173.7368,173.7369,173.7369,174.0864,NA,NA,NA,NA,NA,NA,NA,TRUE,1,0.8914,170.7256,173.7366,0,34,34,27,1,21,30,NA,NA,NA,NA,NA,1,35,"likert"
"89E0BF9E8EB145F88577FBED3C82A839",1,"0198f77d-0de6-7b6e-8357-f7bba9ec3361","0198f768-e4d2-711c-944b-6f03c09216de","2025-08-29_15h22.26.048",NA,NA,177.0835,177.0835,177.0835,177.4325,NA,NA,NA,NA,NA,NA,NA,TRUE,1,0.6652,174.088,177.0832,0,35,35,85,1,100,31,NA,NA,NA,NA,NA,1,36,"likert"
"89E0BF9E8EB145F88577FBED3C82A839",1,"0198f77d-0de6-7b6e-8357-f7bba9ec3361","0198f768-e4d2-711c-944b-6f03c09216de","2025-08-29_15h22.26.048",NA,NA,180.4308,180.4309,180.4309,180.7795,NA,NA,NA,NA,NA,NA,NA,TRUE,1,0.5865,177.4341,180.4303,0,36,36,89,1,100,54,NA,NA,NA,NA,NA,1,37,"likert"
"89E0BF9E8EB145F88577FBED3C82A839",1,"0198f77d-0de6-7b6e-8357-f7bba9ec3361","0198f768-e4d2-711c-944b-6f03c09216de","2025-08-29_15h22.26.048",NA,NA,183.7772,183.7773,183.7773,184.1267,NA,NA,NA,NA,NA,NA,NA,TRUE,1,0.3859,180.7812,183.777,0,37,37,39,1,28,35,NA,NA,NA,NA,NA,1,38,"likert"
"89E0BF9E8EB145F88577FBED3C82A839",1,"0198f77d-0de6-7b6e-8357-f7bba9ec3361","0198f768-e4d2-711c-944b-6f03c09216de","2025-08-29_15h22.26.048",NA,NA,187.1243,187.1243,187.1243,187.4732,NA,NA,NA,NA,NA,NA,NA,TRUE,1,0.5304,184.1291,187.1239,0,38,38,104,1,200,35,NA,NA,NA,NA,NA,1,39,"likert"
"89E0BF9E8EB145F88577FBED3C82A839",1,"0198f77d-0de6-7b6e-8357-f7bba9ec3361","0198f768-e4d2-711c-944b-6f03c09216de","2025-08-29_15h22.26.048",NA,NA,190.4866,190.4867,190.4867,190.8359,NA,NA,NA,NA,NA,NA,NA,TRUE,1,0.3677,187.4753,190.4864,0,39,39,2,1,7,28,NA,NA,NA,NA,NA,1,40,"likert"
"89E0BF9E8EB145F88577FBED3C82A839",1,"0198f77d-0de6-7b6e-8357-f7bba9ec3361","0198f768-e4d2-711c-944b-6f03c09216de","2025-08-29_15h22.26.048",NA,NA,193.834,193.834,193.834,194.1835,NA,NA,NA,NA,NA,NA,NA,TRUE,1,0.4226,190.8379,193.8337,0,40,40,50,1,40,35,NA,NA,NA,NA,NA,1,41,"likert"
"89E0BF9E8EB145F88577FBED3C82A839",1,"0198f77d-0de6-7b6e-8357-f7bba9ec3361","0198f768-e4d2-711c-944b-6f03c09216de","2025-08-29_15h22.26.048",NA,NA,197.1806,197.1806,197.1806,197.53,NA,NA,NA,NA,NA,NA,NA,TRUE,1,0.8651,194.1852,197.1804,0,41,41,86,1,100,38,NA,NA,NA,NA,NA,1,42,"likert"
"89E0BF9E8EB145F88577FBED3C82A839",1,"0198f77d-0de6-7b6e-8357-f7bba9ec3361","0198f768-e4d2-711c-944b-6f03c09216de","2025-08-29_15h22.26.048",NA,NA,200.5278,200.5278,200.5278,200.8804,NA,NA,NA,NA,NA,NA,NA,TRUE,1,0.6162,197.532,200.5273,0,42,42,70,1,60,47,NA,NA,NA,NA,NA,1,43,"likert"
"89E0BF9E8EB145F88577FBED3C82A839",1,"0198f77d-0de6-7b6e-8357-f7bba9ec3361","0198f768-e4d2-711c-944b-6f03c09216de","2025-08-29_15h22.26.048",NA,NA,203.8796,203.8796,203.8796,204.2287,NA,NA,NA,NA,NA,NA,NA,TRUE,1,0.5166,200.8814,203.8795,0,43,43,69,1,60,40,NA,NA,NA,NA,NA,1,44,"likert"
"89E0BF9E8EB145F88577FBED3C82A839",1,"0198f77d-0de6-7b6e-8357-f7bba9ec3361","0198f768-e4d2-711c-944b-6f03c09216de","2025-08-29_15h22.26.048",NA,NA,207.2266,207.2267,207.2267,207.5756,NA,NA,NA,NA,NA,NA,NA,TRUE,1,0.6326,204.2295,207.2265,0,44,44,25,1,21,27,NA,NA,NA,NA,NA,1,45,"likert"
"89E0BF9E8EB145F88577FBED3C82A839",1,"0198f77d-0de6-7b6e-8357-f7bba9ec3361","0198f768-e4d2-711c-944b-6f03c09216de","2025-08-29_15h22.26.048",NA,NA,210.5728,210.5728,210.5728,210.9228,NA,NA,NA,NA,NA,NA,NA,TRUE,1,0.8162,207.5764,210.5726,0,45,45,99,1,180,39,NA,NA,NA,NA,NA,1,46,"likert"
"89E0BF9E8EB145F88577FBED3C82A839",1,"0198f77d-0de6-7b6e-8357-f7bba9ec3361","0198f768-e4d2-711c-944b-6f03c09216de","2025-08-29_15h22.26.048",NA,NA,213.936,213.9361,213.9361,214.2859,NA,NA,NA,NA,NA,NA,NA,TRUE,1,0.8821,210.9238,213.9359,0,46,46,83,1,95,54,NA,NA,NA,NA,NA,1,47,"likert"
"89E0BF9E8EB145F88577FBED3C82A839",1,"0198f77d-0de6-7b6e-8357-f7bba9ec3361","0198f768-e4d2-711c-944b-6f03c09216de","2025-08-29_15h22.26.048",NA,NA,217.2831,217.2832,217.2832,217.6322,NA,NA,NA,NA,NA,NA,NA,TRUE,2,1.349,214.2874,217.2829,0,47,47,64,1,50,46,NA,NA,NA,NA,NA,1,48,"likert"
"89E0BF9E8EB145F88577FBED3C82A839",1,"0198f77d-0de6-7b6e-8357-f7bba9ec3361","0198f768-e4d2-711c-944b-6f03c09216de","2025-08-29_15h22.26.048",NA,NA,220.6299,220.6299,220.6299,220.9785,NA,NA,NA,NA,NA,NA,NA,TRUE,1,0.85,217.6339,220.6298,0,48,48,49,1,40,33,NA,NA,NA,NA,NA,1,49,"likert"
"89E0BF9E8EB145F88577FBED3C82A839",1,"0198f77d-0de6-7b6e-8357-f7bba9ec3361","0198f768-e4d2-711c-944b-6f03c09216de","2025-08-29_15h22.26.048",NA,NA,223.9773,223.9774,223.9774,224.3267,NA,NA,NA,NA,NA,NA,NA,TRUE,1,0.9163,220.9791,223.9771,0,49,49,46,1,30,32,NA,NA,NA,NA,NA,1,50,"likert"
"89E0BF9E8EB145F88577FBED3C82A839",1,"0198f77d-0de6-7b6e-8357-f7bba9ec3361","0198f768-e4d2-711c-944b-6f03c09216de","2025-08-29_15h22.26.048",NA,NA,227.3235,227.3235,227.3235,227.6727,NA,NA,NA,NA,NA,NA,NA,TRUE,1,1.2315,224.3289,227.3234,0,50,50,19,1,14,26,NA,NA,NA,NA,NA,1,51,"likert"
"89E0BF9E8EB145F88577FBED3C82A839",1,"0198f77d-0de6-7b6e-8357-f7bba9ec3361","0198f768-e4d2-711c-944b-6f03c09216de","2025-08-29_15h22.26.048",NA,NA,230.6866,230.6867,230.6867,231.0355,NA,NA,NA,NA,NA,NA,NA,TRUE,3,2.1147,227.6742,230.6863,0,51,51,77,1,90,54,NA,NA,NA,NA,NA,1,52,"likert"
"89E0BF9E8EB145F88577FBED3C82A839",1,"0198f77d-0de6-7b6e-8357-f7bba9ec3361","0198f768-e4d2-711c-944b-6f03c09216de","2025-08-29_15h22.26.048",NA,NA,234.0345,234.0355,234.0355,234.3836,NA,NA,NA,NA,NA,NA,NA,TRUE,1,0.8336,231.0366,234.0341,0,52,52,91,1,150,33,NA,NA,NA,NA,NA,1,53,"likert"
"89E0BF9E8EB145F88577FBED3C82A839",1,"0198f77d-0de6-7b6e-8357-f7bba9ec3361","0198f768-e4d2-711c-944b-6f03c09216de","2025-08-29_15h22.26.048",NA,NA,237.3798,237.3798,237.3798,237.7293,NA,NA,NA,NA,NA,NA,NA,TRUE,1,0.4326,234.3857,237.3796,0,53,53,101,1,180,54,NA,NA,NA,NA,NA,1,54,"likert"
"89E0BF9E8EB145F88577FBED3C82A839",1,"0198f77d-0de6-7b6e-8357-f7bba9ec3361","0198f768-e4d2-711c-944b-6f03c09216de","2025-08-29_15h22.26.048",NA,NA,240.7261,240.7261,240.7261,241.075,NA,NA,NA,NA,NA,NA,NA,TRUE,1,1.1336,237.7302,240.726,0,54,54,0,1,7,25,NA,NA,NA,NA,NA,1,55,"likert"
"89E0BF9E8EB145F88577FBED3C82A839",1,"0198f77d-0de6-7b6e-8357-f7bba9ec3361","0198f768-e4d2-711c-944b-6f03c09216de","2025-08-29_15h22.26.048",NA,NA,244.0735,244.0736,244.0736,244.4226,NA,NA,NA,NA,NA,NA,NA,TRUE,1,0.4839,241.0758,244.0734,0,55,55,24,1,21,26,NA,NA,NA,NA,NA,1,56,"likert"
"89E0BF9E8EB145F88577FBED3C82A839",1,"0198f77d-0de6-7b6e-8357-f7bba9ec3361","0198f768-e4d2-711c-944b-6f03c09216de","2025-08-29_15h22.26.048",NA,NA,247.4369,247.4371,247.4371,247.786,NA,NA,NA,NA,NA,NA,NA,TRUE,1,0.4332,244.4241,247.4366,0,56,56,40,1,28,39,NA,NA,NA,NA,NA,1,57,"likert"
"89E0BF9E8EB145F88577FBED3C82A839",1,"0198f77d-0de6-7b6e-8357-f7bba9ec3361","0198f768-e4d2-711c-944b-6f03c09216de","2025-08-29_15h22.26.048",NA,NA,250.7836,250.7836,250.7836,251.1327,NA,NA,NA,NA,NA,NA,NA,TRUE,1,1.4164,247.7876,250.7834,0,57,57,26,1,21,29,NA,NA,NA,NA,NA,1,58,"likert"
"89E0BF9E8EB145F88577FBED3C82A839",1,"0198f77d-0de6-7b6e-8357-f7bba9ec3361","0198f768-e4d2-711c-944b-6f03c09216de","2025-08-29_15h22.26.048",NA,NA,254.1316,254.1316,254.1316,254.4809,NA,NA,NA,NA,NA,NA,NA,TRUE,1,0.6003,251.1342,254.1314,0,58,58,48,1,40,27,NA,NA,NA,NA,NA,1,59,"likert"
"89E0BF9E8EB145F88577FBED3C82A839",1,"0198f77d-0de6-7b6e-8357-f7bba9ec3361","0198f768-e4d2-711c-944b-6f03c09216de","2025-08-29_15h22.26.048",NA,NA,257.4786,257.4786,257.4787,257.8274,NA,NA,NA,NA,NA,NA,NA,TRUE,1,0.9173,254.4836,257.4784,0,59,59,66,1,60,29,NA,NA,NA,NA,NA,1,60,"likert"
"89E0BF9E8EB145F88577FBED3C82A839",1,"0198f77d-0de6-7b6e-8357-f7bba9ec3361","0198f768-e4d2-711c-944b-6f03c09216de","2025-08-29_15h22.26.048",NA,NA,260.8248,260.8249,260.8249,261.1738,NA,NA,NA,NA,NA,NA,NA,TRUE,1,0.5998,257.8294,260.8246,0,60,60,35,1,25,46,NA,NA,NA,NA,NA,1,61,"likert"
"89E0BF9E8EB145F88577FBED3C82A839",1,"0198f77d-0de6-7b6e-8357-f7bba9ec3361","0198f768-e4d2-711c-944b-6f03c09216de","2025-08-29_15h22.26.048",NA,NA,264.1867,264.1868,264.1869,264.5362,NA,NA,NA,NA,NA,NA,NA,TRUE,1,0.4672,261.1756,264.1866,0,61,61,28,1,21,32,NA,NA,NA,NA,NA,1,62,"likert"
"89E0BF9E8EB145F88577FBED3C82A839",1,"0198f77d-0de6-7b6e-8357-f7bba9ec3361","0198f768-e4d2-711c-944b-6f03c09216de","2025-08-29_15h22.26.048",NA,NA,267.5343,267.5343,267.5344,267.8829,NA,NA,NA,NA,NA,NA,NA,TRUE,1,0.4332,264.538,267.5341,0,62,62,22,1,14,35,NA,NA,NA,NA,NA,1,63,"likert"
"89E0BF9E8EB145F88577FBED3C82A839",1,"0198f77d-0de6-7b6e-8357-f7bba9ec3361","0198f768-e4d2-711c-944b-6f03c09216de","2025-08-29_15h22.26.048",NA,NA,270.8807,270.8808,270.8808,271.2294,NA,NA,NA,NA,NA,NA,NA,TRUE,1,0.3664,267.8842,270.8805,0,63,63,36,1,28,26,NA,NA,NA,NA,NA,1,64,"likert"
"89E0BF9E8EB145F88577FBED3C82A839",1,"0198f77d-0de6-7b6e-8357-f7bba9ec3361","0198f768-e4d2-711c-944b-6f03c09216de","2025-08-29_15h22.26.048",NA,NA,274.2271,274.2272,274.2274,274.5763,NA,NA,NA,NA,NA,NA,NA,TRUE,1,0.4673,271.23,274.2269,0,64,64,6,1,10,25,NA,NA,NA,NA,NA,1,65,"likert"
"89E0BF9E8EB145F88577FBED3C82A839",1,"0198f77d-0de6-7b6e-8357-f7bba9ec3361","0198f768-e4d2-711c-944b-6f03c09216de","2025-08-29_15h22.26.048",NA,NA,277.5733,277.5734,277.5734,277.9228,NA,NA,NA,NA,NA,NA,NA,TRUE,1,0.3163,274.5778,277.5733,0,65,65,44,1,30,29,NA,NA,NA,NA,NA,1,66,"likert"
"89E0BF9E8EB145F88577FBED3C82A839",1,"0198f77d-0de6-7b6e-8357-f7bba9ec3361","0198f768-e4d2-711c-944b-6f03c09216de","2025-08-29_15h22.26.048",NA,NA,280.9372,280.9372,280.9372,281.287,NA,NA,NA,NA,NA,NA,NA,TRUE,1,0.2668,277.9242,280.937,0,66,66,3,1,7,30,NA,NA,NA,NA,NA,1,67,"likert"
"89E0BF9E8EB145F88577FBED3C82A839",1,"0198f77d-0de6-7b6e-8357-f7bba9ec3361","0198f768-e4d2-711c-944b-6f03c09216de","2025-08-29_15h22.26.048",NA,NA,284.2838,284.2839,284.2839,284.6331,NA,NA,NA,NA,NA,NA,NA,TRUE,1,1.2823,281.2882,284.2836,0,67,67,7,1,10,26,NA,NA,NA,NA,NA,1,68,"likert"
"89E0BF9E8EB145F88577FBED3C82A839",1,"0198f77d-0de6-7b6e-8357-f7bba9ec3361","0198f768-e4d2-711c-944b-6f03c09216de","2025-08-29_15h22.26.048",NA,NA,287.6316,287.6317,287.6317,287.9809,NA,NA,NA,NA,NA,NA,NA,TRUE,1,0.6328,284.6342,287.6314,0,68,68,92,1,150,35,NA,NA,NA,NA,NA,1,69,"likert"
"89E0BF9E8EB145F88577FBED3C82A839",1,"0198f77d-0de6-7b6e-8357-f7bba9ec3361","0198f768-e4d2-711c-944b-6f03c09216de","2025-08-29_15h22.26.048",NA,NA,290.9789,290.9789,290.9789,291.327,NA,NA,NA,NA,NA,NA,NA,TRUE,1,0.367,287.9825,290.9786,0,69,69,55,1,45,29,NA,NA,NA,NA,NA,1,70,"likert"
"89E0BF9E8EB145F88577FBED3C82A839",1,"0198f77d-0de6-7b6e-8357-f7bba9ec3361","0198f768-e4d2-711c-944b-6f03c09216de","2025-08-29_15h22.26.048",NA,NA,294.3253,294.3254,294.3255,294.6756,NA,NA,NA,NA,NA,NA,NA,TRUE,1,0.9332,291.3288,294.325,0,70,70,84,1,100,26,NA,NA,NA,NA,NA,1,71,"likert"
"89E0BF9E8EB145F88577FBED3C82A839",1,"0198f77d-0de6-7b6e-8357-f7bba9ec3361","0198f768-e4d2-711c-944b-6f03c09216de","2025-08-29_15h22.26.048",NA,NA,297.6886,297.6886,297.6887,298.0372,NA,NA,NA,NA,NA,NA,NA,TRUE,1,0.4839,294.6771,297.6885,0,71,71,82,1,95,47,NA,NA,NA,NA,NA,1,72,"likert"
"89E0BF9E8EB145F88577FBED3C82A839",1,"0198f77d-0de6-7b6e-8357-f7bba9ec3361","0198f768-e4d2-711c-944b-6f03c09216de","2025-08-29_15h22.26.048",NA,NA,301.0351,301.0352,301.0353,301.3838,NA,NA,NA,NA,NA,NA,NA,TRUE,1,0.3171,298.0389,301.0348,0,72,72,32,1,25,31,NA,NA,NA,NA,NA,1,73,"likert"
"89E0BF9E8EB145F88577FBED3C82A839",1,"0198f77d-0de6-7b6e-8357-f7bba9ec3361","0198f768-e4d2-711c-944b-6f03c09216de","2025-08-29_15h22.26.048",NA,NA,304.3809,304.381,304.381,304.7315,NA,NA,NA,NA,NA,NA,NA,TRUE,1,0.3833,301.3854,304.3808,0,73,73,61,1,50,30,NA,NA,NA,NA,NA,1,74,"likert"
"89E0BF9E8EB145F88577FBED3C82A839",1,"0198f77d-0de6-7b6e-8357-f7bba9ec3361","0198f768-e4d2-711c-944b-6f03c09216de","2025-08-29_15h22.26.048",NA,NA,307.7285,307.7287,307.7287,308.0778,NA,NA,NA,NA,NA,NA,NA,TRUE,1,0.267,304.7336,307.7284,0,74,74,9,1,10,29,NA,NA,NA,NA,NA,1,75,"likert"
"89E0BF9E8EB145F88577FBED3C82A839",1,"0198f77d-0de6-7b6e-8357-f7bba9ec3361","0198f768-e4d2-711c-944b-6f03c09216de","2025-08-29_15h22.26.048",NA,NA,311.0756,311.0756,311.0756,311.4247,NA,NA,NA,NA,NA,NA,NA,TRUE,1,0.5502,308.0797,311.0754,0,75,75,88,1,100,46,NA,NA,NA,NA,NA,1,76,"likert"
"89E0BF9E8EB145F88577FBED3C82A839",1,"0198f77d-0de6-7b6e-8357-f7bba9ec3361","0198f768-e4d2-711c-944b-6f03c09216de","2025-08-29_15h22.26.048",NA,NA,314.4386,314.4387,314.4389,314.7884,NA,NA,NA,NA,NA,NA,NA,TRUE,1,0.6832,311.4267,314.4384,0,76,76,52,1,40,47,NA,NA,NA,NA,NA,1,77,"likert"
"89E0BF9E8EB145F88577FBED3C82A839",1,"0198f77d-0de6-7b6e-8357-f7bba9ec3361","0198f768-e4d2-711c-944b-6f03c09216de","2025-08-29_15h22.26.048",NA,NA,317.7851,317.7852,317.7852,318.1343,NA,NA,NA,NA,NA,NA,NA,TRUE,1,0.5667,314.7902,317.7849,0,77,77,76,1,90,46,NA,NA,NA,NA,NA,1,78,"likert"
"89E0BF9E8EB145F88577FBED3C82A839",1,"0198f77d-0de6-7b6e-8357-f7bba9ec3361","0198f768-e4d2-711c-944b-6f03c09216de","2025-08-29_15h22.26.048",NA,NA,321.1318,321.1318,321.1319,321.4808,NA,NA,NA,NA,NA,NA,NA,TRUE,1,0.9494,318.136,321.1315,0,78,78,107,1,200,54,NA,NA,NA,NA,NA,1,79,"likert"
"89E0BF9E8EB145F88577FBED3C82A839",1,"0198f77d-0de6-7b6e-8357-f7bba9ec3361","0198f768-e4d2-711c-944b-6f03c09216de","2025-08-29_15h22.26.048",NA,NA,324.4782,324.4782,324.4782,324.8276,NA,NA,NA,NA,NA,NA,NA,TRUE,1,0.6498,321.4823,324.478,0,79,79,60,1,50,27,NA,NA,NA,NA,NA,1,80,"likert"
"89E0BF9E8EB145F88577FBED3C82A839",1,"0198f77d-0de6-7b6e-8357-f7bba9ec3361","0198f768-e4d2-711c-944b-6f03c09216de","2025-08-29_15h22.26.048",NA,NA,327.8252,327.8252,327.8253,328.1742,NA,NA,NA,NA,NA,NA,NA,TRUE,1,0.4328,324.8294,327.825,0,80,80,72,1,90,26,NA,NA,NA,NA,NA,1,81,"likert"
"89E0BF9E8EB145F88577FBED3C82A839",1,"0198f77d-0de6-7b6e-8357-f7bba9ec3361","0198f768-e4d2-711c-944b-6f03c09216de","2025-08-29_15h22.26.048",NA,NA,331.1899,331.1903,331.1903,331.5375,NA,NA,NA,NA,NA,NA,NA,TRUE,3,2.1149,328.1758,331.1897,0,81,81,33,1,25,33,NA,NA,NA,NA,NA,1,82,"likert"
"89E0BF9E8EB145F88577FBED3C82A839",1,"0198f77d-0de6-7b6e-8357-f7bba9ec3361","0198f768-e4d2-711c-944b-6f03c09216de","2025-08-29_15h22.26.048",NA,NA,334.535,334.5352,334.5353,334.884,NA,NA,NA,NA,NA,NA,NA,TRUE,1,0.849,331.5389,334.5348,0,82,82,37,1,28,28,NA,NA,NA,NA,NA,1,83,"likert"
"89E0BF9E8EB145F88577FBED3C82A839",1,"0198f77d-0de6-7b6e-8357-f7bba9ec3361","0198f768-e4d2-711c-944b-6f03c09216de","2025-08-29_15h22.26.048",NA,NA,337.8819,337.8819,337.8819,338.2307,NA,NA,NA,NA,NA,NA,NA,TRUE,1,0.5497,334.8855,337.8817,0,83,83,105,1,200,39,NA,NA,NA,NA,NA,1,84,"likert"
"89E0BF9E8EB145F88577FBED3C82A839",1,"0198f77d-0de6-7b6e-8357-f7bba9ec3361","0198f768-e4d2-711c-944b-6f03c09216de","2025-08-29_15h22.26.048",NA,NA,341.2282,341.2283,341.2283,341.5778,NA,NA,NA,NA,NA,NA,NA,TRUE,4,2.2313,338.2321,341.2281,0,84,84,47,1,30,38,NA,NA,NA,NA,NA,1,85,"likert"
"89E0BF9E8EB145F88577FBED3C82A839",1,"0198f77d-0de6-7b6e-8357-f7bba9ec3361","0198f768-e4d2-711c-944b-6f03c09216de","2025-08-29_15h22.26.048",NA,NA,344.5756,344.5757,344.5757,344.9244,NA,NA,NA,NA,NA,NA,NA,TRUE,1,0.8995,341.5792,344.5752,0,85,85,80,1,95,35,NA,NA,NA,NA,NA,1,86,"likert"
"89E0BF9E8EB145F88577FBED3C82A839",1,"0198f77d-0de6-7b6e-8357-f7bba9ec3361","0198f768-e4d2-711c-944b-6f03c09216de","2025-08-29_15h22.26.048",NA,NA,347.9378,347.9378,347.9378,348.2877,NA,NA,NA,NA,NA,NA,NA,TRUE,1,0.8326,344.926,347.9377,0,86,86,67,1,60,33,NA,NA,NA,NA,NA,1,87,"likert"
"89E0BF9E8EB145F88577FBED3C82A839",1,"0198f77d-0de6-7b6e-8357-f7bba9ec3361","0198f768-e4d2-711c-944b-6f03c09216de","2025-08-29_15h22.26.048",NA,NA,351.2851,351.2852,351.2853,351.6347,NA,NA,NA,NA,NA,NA,NA,TRUE,3,1.7647,348.2892,351.285,0,87,87,11,1,10,32,NA,NA,NA,NA,NA,1,88,"likert"
"89E0BF9E8EB145F88577FBED3C82A839",1,"0198f77d-0de6-7b6e-8357-f7bba9ec3361","0198f768-e4d2-711c-944b-6f03c09216de","2025-08-29_15h22.26.048",NA,NA,354.6334,354.6335,354.6335,354.9819,NA,NA,NA,NA,NA,NA,NA,TRUE,2,1.0835,351.636,354.6331,0,88,88,8,1,10,27,NA,NA,NA,NA,NA,1,89,"likert"
"89E0BF9E8EB145F88577FBED3C82A839",1,"0198f77d-0de6-7b6e-8357-f7bba9ec3361","0198f768-e4d2-711c-944b-6f03c09216de","2025-08-29_15h22.26.048",NA,NA,357.979,357.979,357.979,358.3277,NA,NA,NA,NA,NA,NA,NA,TRUE,1,1.3501,354.9842,357.9789,0,89,89,68,1,60,35,NA,NA,NA,NA,NA,1,90,"likert"
"89E0BF9E8EB145F88577FBED3C82A839",1,"0198f77d-0de6-7b6e-8357-f7bba9ec3361","0198f768-e4d2-711c-944b-6f03c09216de","2025-08-29_15h22.26.048",NA,NA,361.3257,361.3258,361.3258,361.6748,NA,NA,NA,NA,NA,NA,NA,TRUE,1,0.4844,358.3293,361.3256,0,90,90,4,1,7,32,NA,NA,NA,NA,NA,1,91,"likert"
"89E0BF9E8EB145F88577FBED3C82A839",1,"0198f77d-0de6-7b6e-8357-f7bba9ec3361","0198f768-e4d2-711c-944b-6f03c09216de","2025-08-29_15h22.26.048",NA,NA,364.6889,364.6892,364.6893,365.0381,NA,NA,NA,NA,NA,NA,NA,TRUE,1,0.9494,361.6766,364.6887,0,91,91,51,1,40,40,NA,NA,NA,NA,NA,1,92,"likert"
"89E0BF9E8EB145F88577FBED3C82A839",1,"0198f77d-0de6-7b6e-8357-f7bba9ec3361","0198f768-e4d2-711c-944b-6f03c09216de","2025-08-29_15h22.26.048",NA,NA,368.0355,368.0357,368.0358,368.3854,NA,NA,NA,NA,NA,NA,NA,TRUE,1,0.3667,365.0392,368.0352,0,92,92,43,1,30,27,NA,NA,NA,NA,NA,1,93,"likert"
"89E0BF9E8EB145F88577FBED3C82A839",1,"0198f77d-0de6-7b6e-8357-f7bba9ec3361","0198f768-e4d2-711c-944b-6f03c09216de","2025-08-29_15h22.26.048",NA,NA,371.3829,371.3829,371.3829,371.7319,NA,NA,NA,NA,NA,NA,NA,TRUE,1,0.9832,368.387,371.3827,0,93,93,21,1,14,32,NA,NA,NA,NA,NA,1,94,"likert"
"89E0BF9E8EB145F88577FBED3C82A839",1,"0198f77d-0de6-7b6e-8357-f7bba9ec3361","0198f768-e4d2-711c-944b-6f03c09216de","2025-08-29_15h22.26.048",NA,NA,374.729,374.729,374.729,375.0785,NA,NA,NA,NA,NA,NA,NA,TRUE,1,0.5006,371.7335,374.7289,0,94,94,65,1,50,54,NA,NA,NA,NA,NA,1,95,"likert"
"89E0BF9E8EB145F88577FBED3C82A839",1,"0198f77d-0de6-7b6e-8357-f7bba9ec3361","0198f768-e4d2-711c-944b-6f03c09216de","2025-08-29_15h22.26.048",NA,NA,378.076,378.076,378.076,378.4251,NA,NA,NA,NA,NA,NA,NA,TRUE,1,0.3497,375.0801,378.0758,0,95,95,56,1,45,31,NA,NA,NA,NA,NA,1,96,"likert"
"89E0BF9E8EB145F88577FBED3C82A839",1,"0198f77d-0de6-7b6e-8357-f7bba9ec3361","0198f768-e4d2-711c-944b-6f03c09216de","2025-08-29_15h22.26.048",NA,NA,381.4225,381.4226,381.4226,381.7884,NA,NA,NA,NA,NA,NA,NA,TRUE,1,0.4165,378.4266,381.4224,0,96,96,98,1,180,35,NA,NA,NA,NA,NA,1,97,"likert"
"89E0BF9E8EB145F88577FBED3C82A839",1,"0198f77d-0de6-7b6e-8357-f7bba9ec3361","0198f768-e4d2-711c-944b-6f03c09216de","2025-08-29_15h22.26.048",NA,NA,384.7874,384.7875,384.7875,385.1361,NA,NA,NA,NA,NA,NA,NA,TRUE,1,0.7496,381.7897,384.7871,0,97,97,53,1,40,54,NA,NA,NA,NA,NA,1,98,"likert"
"89E0BF9E8EB145F88577FBED3C82A839",1,"0198f77d-0de6-7b6e-8357-f7bba9ec3361","0198f768-e4d2-711c-944b-6f03c09216de","2025-08-29_15h22.26.048",NA,NA,388.1336,388.1337,388.1337,388.4821,NA,NA,NA,NA,NA,NA,NA,TRUE,1,0.3993,385.1383,388.1334,0,98,98,58,1,45,40,NA,NA,NA,NA,NA,1,99,"likert"
"89E0BF9E8EB145F88577FBED3C82A839",1,"0198f77d-0de6-7b6e-8357-f7bba9ec3361","0198f768-e4d2-711c-944b-6f03c09216de","2025-08-29_15h22.26.048",NA,NA,391.4795,391.4795,391.4795,391.8292,NA,NA,NA,NA,NA,NA,NA,TRUE,1,0.3171,388.484,391.4793,0,99,99,102,1,200,26,NA,NA,NA,NA,NA,1,100,"likert"
"89E0BF9E8EB145F88577FBED3C82A839",1,"0198f77d-0de6-7b6e-8357-f7bba9ec3361","0198f768-e4d2-711c-944b-6f03c09216de","2025-08-29_15h22.26.048",NA,NA,394.8264,394.8264,394.8266,395.1751,NA,NA,NA,NA,NA,NA,NA,TRUE,1,0.7485,391.8308,394.8261,0,100,100,16,1,12,33,NA,NA,NA,NA,NA,1,101,"likert"
"89E0BF9E8EB145F88577FBED3C82A839",1,"0198f77d-0de6-7b6e-8357-f7bba9ec3361","0198f768-e4d2-711c-944b-6f03c09216de","2025-08-29_15h22.26.048",NA,NA,398.1883,398.1883,398.1883,398.5379,NA,NA,NA,NA,NA,NA,NA,TRUE,1,1.3653,395.1759,398.1882,0,101,101,1,1,7,26,NA,NA,NA,NA,NA,1,102,"likert"
"89E0BF9E8EB145F88577FBED3C82A839",1,"0198f77d-0de6-7b6e-8357-f7bba9ec3361","0198f768-e4d2-711c-944b-6f03c09216de","2025-08-29_15h22.26.048",NA,NA,401.5362,401.5362,401.5362,401.8846,NA,NA,NA,NA,NA,NA,NA,TRUE,1,0.2832,398.5385,401.5361,0,102,102,41,1,28,46,NA,NA,NA,NA,NA,1,103,"likert"
"89E0BF9E8EB145F88577FBED3C82A839",1,"0198f77d-0de6-7b6e-8357-f7bba9ec3361","0198f768-e4d2-711c-944b-6f03c09216de","2025-08-29_15h22.26.048",NA,NA,404.8821,404.8821,404.8821,405.2313,NA,NA,NA,NA,NA,NA,NA,TRUE,1,0.3833,401.8856,404.882,0,103,103,57,1,45,35,NA,NA,NA,NA,NA,1,104,"likert"
"89E0BF9E8EB145F88577FBED3C82A839",1,"0198f77d-0de6-7b6e-8357-f7bba9ec3361","0198f768-e4d2-711c-944b-6f03c09216de","2025-08-29_15h22.26.048",NA,NA,408.2289,408.2289,408.2289,408.5784,NA,NA,NA,NA,NA,NA,NA,TRUE,1,1.0826,405.232,408.2288,0,104,104,87,1,100,39,NA,NA,NA,NA,NA,1,105,"likert"
"89E0BF9E8EB145F88577FBED3C82A839",1,"0198f77d-0de6-7b6e-8357-f7bba9ec3361","0198f768-e4d2-711c-944b-6f03c09216de","2025-08-29_15h22.26.048",NA,NA,411.5756,411.5757,411.5757,411.9249,NA,NA,NA,NA,NA,NA,NA,TRUE,1,0.9002,408.579,411.5755,0,105,105,54,1,45,26,NA,NA,NA,NA,NA,1,106,"likert"
"89E0BF9E8EB145F88577FBED3C82A839",1,"0198f77d-0de6-7b6e-8357-f7bba9ec3361","0198f768-e4d2-711c-944b-6f03c09216de","2025-08-29_15h22.26.048",NA,NA,414.9224,414.9224,414.9224,415.2883,NA,NA,NA,NA,NA,NA,NA,TRUE,1,1.4991,411.9257,414.9223,0,106,106,73,1,90,30,NA,NA,NA,NA,NA,1,107,"likert"
"89E0BF9E8EB145F88577FBED3C82A839",1,"0198f77d-0de6-7b6e-8357-f7bba9ec3361","0198f768-e4d2-711c-944b-6f03c09216de","2025-08-29_15h22.26.048",NA,NA,418.2861,418.2862,418.2862,418.6351,NA,NA,NA,NA,NA,NA,NA,TRUE,1,1.3491,415.289,418.286,0,107,107,75,1,90,40,NA,NA,NA,NA,NA,1,108,"likert"
"89E0BF9E8EB145F88577FBED3C82A839",1,"0198f77d-0de6-7b6e-8357-f7bba9ec3361","0198f768-e4d2-711c-944b-6f03c09216de","2025-08-29_15h22.26.048",NA,NA,456.0336,456.0336,456.0336,456.3832,NA,NA,NA,NA,NA,NA,NA,TRUE,1,1.781,453.0443,456.0333,NA,NA,NA,NA,NA,60,33,0,0,0,67,1,2,1,"likert"
"89E0BF9E8EB145F88577FBED3C82A839",1,"0198f77d-0de6-7b6e-8357-f7bba9ec3361","0198f768-e4d2-711c-944b-6f03c09216de","2025-08-29_15h22.26.048",NA,NA,459.3811,459.3812,459.3812,459.7304,NA,NA,NA,NA,NA,NA,NA,TRUE,1,1.2329,456.3861,459.3809,NA,NA,NA,NA,NA,150,35,0,1,1,92,1,2,2,"likert"
"89E0BF9E8EB145F88577FBED3C82A839",1,"0198f77d-0de6-7b6e-8357-f7bba9ec3361","0198f768-e4d2-711c-944b-6f03c09216de","2025-08-29_15h22.26.048",NA,NA,462.727,462.7271,462.7271,463.0765,NA,NA,NA,NA,NA,NA,NA,TRUE,1,0.6493,459.7323,462.7267,NA,NA,NA,NA,NA,45,29,0,2,2,55,1,2,3,"likert"
"89E0BF9E8EB145F88577FBED3C82A839",1,"0198f77d-0de6-7b6e-8357-f7bba9ec3361","0198f768-e4d2-711c-944b-6f03c09216de","2025-08-29_15h22.26.048",NA,NA,466.074,466.074,466.0741,466.4398,NA,NA,NA,NA,NA,NA,NA,TRUE,1,0.5505,463.0789,466.0738,NA,NA,NA,NA,NA,40,27,0,3,3,48,1,2,4,"likert"
"89E0BF9E8EB145F88577FBED3C82A839",1,"0198f77d-0de6-7b6e-8357-f7bba9ec3361","0198f768-e4d2-711c-944b-6f03c09216de","2025-08-29_15h22.26.048",NA,NA,469.4361,469.4362,469.4362,469.7857,NA,NA,NA,NA,NA,NA,NA,TRUE,1,1.5158,466.4413,469.4358,NA,NA,NA,NA,NA,28,28,0,4,4,37,1,2,5,"likert"
"89E0BF9E8EB145F88577FBED3C82A839",1,"0198f77d-0de6-7b6e-8357-f7bba9ec3361","0198f768-e4d2-711c-944b-6f03c09216de","2025-08-29_15h22.26.048",NA,NA,472.7829,472.7829,472.7829,473.1339,NA,NA,NA,NA,NA,NA,NA,TRUE,1,0.7169,469.787,472.7827,NA,NA,NA,NA,NA,50,27,0,5,5,60,1,2,6,"likert"
"89E0BF9E8EB145F88577FBED3C82A839",1,"0198f77d-0de6-7b6e-8357-f7bba9ec3361","0198f768-e4d2-711c-944b-6f03c09216de","2025-08-29_15h22.26.048",NA,NA,476.1316,476.1317,476.1317,476.4805,NA,NA,NA,NA,NA,NA,NA,TRUE,1,0.7337,473.1362,476.1312,NA,NA,NA,NA,NA,14,39,0,6,6,23,1,2,7,"likert"
"89E0BF9E8EB145F88577FBED3C82A839",1,"0198f77d-0de6-7b6e-8357-f7bba9ec3361","0198f768-e4d2-711c-944b-6f03c09216de","2025-08-29_15h22.26.048",NA,NA,479.4774,479.4775,479.4775,479.8277,NA,NA,NA,NA,NA,NA,NA,TRUE,3,2.7151,476.4828,479.4773,NA,NA,NA,NA,NA,25,46,0,7,7,35,1,2,8,"likert"
"89E0BF9E8EB145F88577FBED3C82A839",1,"0198f77d-0de6-7b6e-8357-f7bba9ec3361","0198f768-e4d2-711c-944b-6f03c09216de","2025-08-29_15h22.26.048",NA,NA,482.8403,482.8404,482.8404,483.1892,NA,NA,NA,NA,NA,NA,NA,TRUE,1,2.498,479.8296,482.84,NA,NA,NA,NA,NA,100,54,0,8,8,89,1,2,9,"likert"
"89E0BF9E8EB145F88577FBED3C82A839",1,"0198f77d-0de6-7b6e-8357-f7bba9ec3361","0198f768-e4d2-711c-944b-6f03c09216de","2025-08-29_15h22.26.048",NA,NA,486.1873,486.1876,486.1876,486.5364,NA,NA,NA,NA,NA,NA,NA,TRUE,1,0.9833,483.1909,486.1871,NA,NA,NA,NA,NA,100,26,0,9,9,84,1,2,10,"likert"
"89E0BF9E8EB145F88577FBED3C82A839",1,"0198f77d-0de6-7b6e-8357-f7bba9ec3361","0198f768-e4d2-711c-944b-6f03c09216de","2025-08-29_15h22.26.048",NA,NA,489.5331,489.5331,489.5331,489.8831,NA,NA,NA,NA,NA,NA,NA,TRUE,1,1.3325,486.538,489.5328,NA,NA,NA,NA,NA,7,25,0,10,10,0,1,2,11,"likert"
"89E0BF9E8EB145F88577FBED3C82A839",1,"0198f77d-0de6-7b6e-8357-f7bba9ec3361","0198f768-e4d2-711c-944b-6f03c09216de","2025-08-29_15h22.26.048",NA,NA,492.8809,492.881,492.8811,493.2289,NA,NA,NA,NA,NA,NA,NA,TRUE,3,1.9822,489.885,492.8808,NA,NA,NA,NA,NA,40,35,0,11,11,50,1,2,12,"likert"
"89E0BF9E8EB145F88577FBED3C82A839",1,"0198f77d-0de6-7b6e-8357-f7bba9ec3361","0198f768-e4d2-711c-944b-6f03c09216de","2025-08-29_15h22.26.048",NA,NA,496.2262,496.2262,496.2264,496.5759,NA,NA,NA,NA,NA,NA,NA,TRUE,1,1.3656,493.2301,496.2261,NA,NA,NA,NA,NA,180,46,0,12,12,100,1,2,13,"likert"
"89E0BF9E8EB145F88577FBED3C82A839",1,"0198f77d-0de6-7b6e-8357-f7bba9ec3361","0198f768-e4d2-711c-944b-6f03c09216de","2025-08-29_15h22.26.048",NA,NA,499.5738,499.574,499.574,499.9399,NA,NA,NA,NA,NA,NA,NA,TRUE,1,1.0172,496.5771,499.5737,NA,NA,NA,NA,NA,28,32,0,13,13,38,1,2,14,"likert"
"89E0BF9E8EB145F88577FBED3C82A839",1,"0198f77d-0de6-7b6e-8357-f7bba9ec3361","0198f768-e4d2-711c-944b-6f03c09216de","2025-08-29_15h22.26.048",NA,NA,502.9378,502.9379,502.938,503.2867,NA,NA,NA,NA,NA,NA,NA,TRUE,1,1.3996,499.9414,502.9375,NA,NA,NA,NA,NA,10,25,0,14,14,6,1,2,15,"likert"
"89E0BF9E8EB145F88577FBED3C82A839",1,"0198f77d-0de6-7b6e-8357-f7bba9ec3361","0198f768-e4d2-711c-944b-6f03c09216de","2025-08-29_15h22.26.048",NA,NA,506.2835,506.2835,506.2836,506.6338,NA,NA,NA,NA,NA,NA,NA,TRUE,1,0.9668,503.2885,506.2833,NA,NA,NA,NA,NA,28,46,0,15,15,41,1,2,16,"likert"
"89E0BF9E8EB145F88577FBED3C82A839",1,"0198f77d-0de6-7b6e-8357-f7bba9ec3361","0198f768-e4d2-711c-944b-6f03c09216de","2025-08-29_15h22.26.048",NA,NA,509.6307,509.6307,509.6308,509.9797,NA,NA,NA,NA,NA,NA,NA,TRUE,1,0.9495,506.6355,509.6306,NA,NA,NA,NA,NA,21,26,0,16,16,24,1,2,17,"likert"
"89E0BF9E8EB145F88577FBED3C82A839",1,"0198f77d-0de6-7b6e-8357-f7bba9ec3361","0198f768-e4d2-711c-944b-6f03c09216de","2025-08-29_15h22.26.048",NA,NA,512.9779,512.978,512.9781,513.3271,NA,NA,NA,NA,NA,NA,NA,TRUE,1,1.9976,509.981,512.9777,NA,NA,NA,NA,NA,50,35,0,17,17,62,1,2,18,"likert"
"89E0BF9E8EB145F88577FBED3C82A839",1,"0198f77d-0de6-7b6e-8357-f7bba9ec3361","0198f768-e4d2-711c-944b-6f03c09216de","2025-08-29_15h22.26.048",NA,NA,516.3245,516.3245,516.3246,516.6742,NA,NA,NA,NA,NA,NA,NA,TRUE,1,1.7481,513.3293,516.3242,NA,NA,NA,NA,NA,25,29,0,18,18,31,1,2,19,"likert"
"89E0BF9E8EB145F88577FBED3C82A839",1,"0198f77d-0de6-7b6e-8357-f7bba9ec3361","0198f768-e4d2-711c-944b-6f03c09216de","2025-08-29_15h22.26.048",NA,NA,519.6887,519.6888,519.6889,520.0377,NA,NA,NA,NA,NA,NA,NA,TRUE,1,0.9831,516.6763,519.6884,NA,NA,NA,NA,NA,7,28,0,19,19,2,1,2,20,"likert"
"89E0BF9E8EB145F88577FBED3C82A839",1,"0198f77d-0de6-7b6e-8357-f7bba9ec3361","0198f768-e4d2-711c-944b-6f03c09216de","2025-08-29_15h22.26.048",NA,NA,523.0339,523.0339,523.034,523.3835,NA,NA,NA,NA,NA,NA,NA,TRUE,1,1.0661,520.0398,523.0337,NA,NA,NA,NA,NA,40,33,0,20,20,49,1,2,21,"likert"
"89E0BF9E8EB145F88577FBED3C82A839",1,"0198f77d-0de6-7b6e-8357-f7bba9ec3361","0198f768-e4d2-711c-944b-6f03c09216de","2025-08-29_15h22.26.048",NA,NA,526.3804,526.3805,526.3805,526.731,NA,NA,NA,NA,NA,NA,NA,TRUE,1,0.649,523.385,526.3804,NA,NA,NA,NA,NA,200,28,0,21,21,103,1,2,22,"likert"
"89E0BF9E8EB145F88577FBED3C82A839",1,"0198f77d-0de6-7b6e-8357-f7bba9ec3361","0198f768-e4d2-711c-944b-6f03c09216de","2025-08-29_15h22.26.048",NA,NA,529.7284,529.7284,529.7284,530.0774,NA,NA,NA,NA,NA,NA,NA,TRUE,1,0.9662,526.7329,529.7282,NA,NA,NA,NA,NA,7,26,0,22,22,1,1,2,23,"likert"
"89E0BF9E8EB145F88577FBED3C82A839",1,"0198f77d-0de6-7b6e-8357-f7bba9ec3361","0198f768-e4d2-711c-944b-6f03c09216de","2025-08-29_15h22.26.048",NA,NA,533.0757,533.0757,533.0758,533.4241,NA,NA,NA,NA,NA,NA,NA,TRUE,3,2.0996,530.0792,533.0754,NA,NA,NA,NA,NA,12,31,0,23,23,15,1,2,24,"likert"
"89E0BF9E8EB145F88577FBED3C82A839",1,"0198f77d-0de6-7b6e-8357-f7bba9ec3361","0198f768-e4d2-711c-944b-6f03c09216de","2025-08-29_15h22.26.048",NA,NA,536.4373,536.4373,536.4374,536.7864,NA,NA,NA,NA,NA,NA,NA,TRUE,3,1.4991,533.4257,536.4371,NA,NA,NA,NA,NA,28,39,0,24,24,40,1,2,25,"likert"
"89E0BF9E8EB145F88577FBED3C82A839",1,"0198f77d-0de6-7b6e-8357-f7bba9ec3361","0198f768-e4d2-711c-944b-6f03c09216de","2025-08-29_15h22.26.048",NA,NA,539.7831,539.7831,539.7831,540.1327,NA,NA,NA,NA,NA,NA,NA,TRUE,1,1.2312,536.7879,539.783,NA,NA,NA,NA,NA,180,39,0,25,25,99,1,2,26,"likert"
"89E0BF9E8EB145F88577FBED3C82A839",1,"0198f77d-0de6-7b6e-8357-f7bba9ec3361","0198f768-e4d2-711c-944b-6f03c09216de","2025-08-29_15h22.26.048",NA,NA,543.1322,543.1324,543.1325,543.4815,NA,NA,NA,NA,NA,NA,NA,TRUE,1,0.7999,540.1336,543.132,NA,NA,NA,NA,NA,90,30,0,26,26,73,1,2,27,"likert"
"89E0BF9E8EB145F88577FBED3C82A839",1,"0198f77d-0de6-7b6e-8357-f7bba9ec3361","0198f768-e4d2-711c-944b-6f03c09216de","2025-08-29_15h22.26.048",NA,NA,546.4795,546.4796,546.4797,546.8279,NA,NA,NA,NA,NA,NA,NA,TRUE,1,1.0494,543.4838,546.4793,NA,NA,NA,NA,NA,45,26,0,27,27,54,1,2,28,"likert"
"89E0BF9E8EB145F88577FBED3C82A839",1,"0198f77d-0de6-7b6e-8357-f7bba9ec3361","0198f768-e4d2-711c-944b-6f03c09216de","2025-08-29_15h22.26.048",NA,NA,549.8258,549.8259,549.8259,550.1748,NA,NA,NA,NA,NA,NA,NA,TRUE,3,2.049,546.8307,549.8256,NA,NA,NA,NA,NA,14,32,0,28,28,21,1,2,29,"likert"
"89E0BF9E8EB145F88577FBED3C82A839",1,"0198f77d-0de6-7b6e-8357-f7bba9ec3361","0198f768-e4d2-711c-944b-6f03c09216de","2025-08-29_15h22.26.048",NA,NA,553.1878,553.1879,553.1879,553.5369,NA,NA,NA,NA,NA,NA,NA,TRUE,1,1.0658,550.177,553.1876,NA,NA,NA,NA,NA,200,54,0,29,29,107,1,2,30,"likert"
"89E0BF9E8EB145F88577FBED3C82A839",1,"0198f77d-0de6-7b6e-8357-f7bba9ec3361","0198f768-e4d2-711c-944b-6f03c09216de","2025-08-29_15h22.26.048",NA,NA,556.5346,556.5347,556.5348,556.8829,NA,NA,NA,NA,NA,NA,NA,TRUE,1,0.9325,553.5386,556.5344,NA,NA,NA,NA,NA,200,47,0,30,30,106,1,2,31,"likert"
"89E0BF9E8EB145F88577FBED3C82A839",1,"0198f77d-0de6-7b6e-8357-f7bba9ec3361","0198f768-e4d2-711c-944b-6f03c09216de","2025-08-29_15h22.26.048",NA,NA,559.8818,559.8819,559.8819,560.2312,NA,NA,NA,NA,NA,NA,NA,TRUE,1,1.6987,556.8836,559.8816,NA,NA,NA,NA,NA,25,33,0,31,31,33,1,2,32,"likert"
"89E0BF9E8EB145F88577FBED3C82A839",1,"0198f77d-0de6-7b6e-8357-f7bba9ec3361","0198f768-e4d2-711c-944b-6f03c09216de","2025-08-29_15h22.26.048",NA,NA,563.2288,563.2288,563.2288,563.5773,NA,NA,NA,NA,NA,NA,NA,TRUE,1,0.8665,560.233,563.2287,NA,NA,NA,NA,NA,95,35,0,32,32,80,1,2,33,"likert"
"89E0BF9E8EB145F88577FBED3C82A839",1,"0198f77d-0de6-7b6e-8357-f7bba9ec3361","0198f768-e4d2-711c-944b-6f03c09216de","2025-08-29_15h22.26.048",NA,NA,566.5747,566.5747,566.5747,566.9239,NA,NA,NA,NA,NA,NA,NA,TRUE,1,0.9828,563.5786,566.5746,NA,NA,NA,NA,NA,60,29,0,33,33,66,1,2,34,"likert"
"89E0BF9E8EB145F88577FBED3C82A839",1,"0198f77d-0de6-7b6e-8357-f7bba9ec3361","0198f768-e4d2-711c-944b-6f03c09216de","2025-08-29_15h22.26.048",NA,NA,569.9392,569.9393,569.9395,570.2886,NA,NA,NA,NA,NA,NA,NA,TRUE,1,0.9175,566.9253,569.9391,NA,NA,NA,NA,NA,180,27,0,34,34,96,1,2,35,"likert"
"89E0BF9E8EB145F88577FBED3C82A839",1,"0198f77d-0de6-7b6e-8357-f7bba9ec3361","0198f768-e4d2-711c-944b-6f03c09216de","2025-08-29_15h22.26.048",NA,NA,573.2867,573.2867,573.2867,573.6341,NA,NA,NA,NA,NA,NA,NA,TRUE,1,1.0496,570.2905,573.2867,NA,NA,NA,NA,NA,180,35,0,35,35,98,1,2,36,"likert"
"89E0BF9E8EB145F88577FBED3C82A839",1,"0198f77d-0de6-7b6e-8357-f7bba9ec3361","0198f768-e4d2-711c-944b-6f03c09216de","2025-08-29_15h22.26.048",NA,NA,576.6315,576.6317,576.6317,576.9811,NA,NA,NA,NA,NA,NA,NA,TRUE,1,1.0495,573.6356,576.6315,NA,NA,NA,NA,NA,14,28,0,36,36,20,1,2,37,"likert"
"89E0BF9E8EB145F88577FBED3C82A839",1,"0198f77d-0de6-7b6e-8357-f7bba9ec3361","0198f768-e4d2-711c-944b-6f03c09216de","2025-08-29_15h22.26.048",NA,NA,579.9782,579.9782,579.9782,580.328,NA,NA,NA,NA,NA,NA,NA,TRUE,1,1.9817,576.9824,579.978,NA,NA,NA,NA,NA,30,26,0,37,37,42,1,2,38,"likert"
"89E0BF9E8EB145F88577FBED3C82A839",1,"0198f77d-0de6-7b6e-8357-f7bba9ec3361","0198f768-e4d2-711c-944b-6f03c09216de","2025-08-29_15h22.26.048",NA,NA,583.3251,583.3252,583.3252,583.6741,NA,NA,NA,NA,NA,NA,NA,TRUE,1,1.7313,580.3293,583.3248,NA,NA,NA,NA,NA,150,40,0,38,38,93,1,2,39,"likert"
"89E0BF9E8EB145F88577FBED3C82A839",1,"0198f77d-0de6-7b6e-8357-f7bba9ec3361","0198f768-e4d2-711c-944b-6f03c09216de","2025-08-29_15h22.26.048",NA,NA,586.6883,586.6884,586.6885,587.0383,NA,NA,NA,NA,NA,NA,NA,TRUE,1,1.633,583.675,586.6882,NA,NA,NA,NA,NA,21,29,0,39,39,26,1,2,40,"likert"
"89E0BF9E8EB145F88577FBED3C82A839",1,"0198f77d-0de6-7b6e-8357-f7bba9ec3361","0198f768-e4d2-711c-944b-6f03c09216de","2025-08-29_15h22.26.048",NA,NA,590.0355,590.0356,590.0356,590.3844,NA,NA,NA,NA,NA,NA,NA,TRUE,1,0.5837,587.0398,590.0351,NA,NA,NA,NA,NA,90,33,0,40,40,74,1,2,41,"likert"
"89E0BF9E8EB145F88577FBED3C82A839",1,"0198f77d-0de6-7b6e-8357-f7bba9ec3361","0198f768-e4d2-711c-944b-6f03c09216de","2025-08-29_15h22.26.048",NA,NA,593.3826,593.3826,593.3828,593.7319,NA,NA,NA,NA,NA,NA,NA,TRUE,1,0.4994,590.3858,593.3823,NA,NA,NA,NA,NA,14,26,0,41,41,19,1,2,42,"likert"
"89E0BF9E8EB145F88577FBED3C82A839",1,"0198f77d-0de6-7b6e-8357-f7bba9ec3361","0198f768-e4d2-711c-944b-6f03c09216de","2025-08-29_15h22.26.048",NA,NA,596.7288,596.7288,596.7288,597.0783,NA,NA,NA,NA,NA,NA,NA,TRUE,3,2.9312,593.734,596.7285,NA,NA,NA,NA,NA,28,35,0,42,42,39,1,2,43,"likert"
"89E0BF9E8EB145F88577FBED3C82A839",1,"0198f77d-0de6-7b6e-8357-f7bba9ec3361","0198f768-e4d2-711c-944b-6f03c09216de","2025-08-29_15h22.26.048",NA,NA,600.0752,600.0753,600.0753,600.4244,NA,NA,NA,NA,NA,NA,NA,TRUE,1,0.8001,597.0801,600.0751,NA,NA,NA,NA,NA,25,27,0,43,43,30,1,2,44,"likert"
"89E0BF9E8EB145F88577FBED3C82A839",1,"0198f77d-0de6-7b6e-8357-f7bba9ec3361","0198f768-e4d2-711c-944b-6f03c09216de","2025-08-29_15h22.26.048",NA,NA,603.4386,603.4387,603.4387,603.7879,NA,NA,NA,NA,NA,NA,NA,TRUE,1,1.432,600.4258,603.4385,NA,NA,NA,NA,NA,10,29,0,44,44,9,1,2,45,"likert"
"89E0BF9E8EB145F88577FBED3C82A839",1,"0198f77d-0de6-7b6e-8357-f7bba9ec3361","0198f768-e4d2-711c-944b-6f03c09216de","2025-08-29_15h22.26.048",NA,NA,606.786,606.7861,606.7861,607.1357,NA,NA,NA,NA,NA,NA,NA,TRUE,1,0.6836,603.7892,606.7858,NA,NA,NA,NA,NA,90,40,0,45,45,75,1,2,46,"likert"
"89E0BF9E8EB145F88577FBED3C82A839",1,"0198f77d-0de6-7b6e-8357-f7bba9ec3361","0198f768-e4d2-711c-944b-6f03c09216de","2025-08-29_15h22.26.048",NA,NA,610.1333,610.1334,610.1336,610.4821,NA,NA,NA,NA,NA,NA,NA,TRUE,1,1.1503,607.1381,610.1331,NA,NA,NA,NA,NA,95,54,0,46,46,83,1,2,47,"likert"
"89E0BF9E8EB145F88577FBED3C82A839",1,"0198f77d-0de6-7b6e-8357-f7bba9ec3361","0198f768-e4d2-711c-944b-6f03c09216de","2025-08-29_15h22.26.048",NA,NA,613.4804,613.4804,613.4804,613.8301,NA,NA,NA,NA,NA,NA,NA,TRUE,1,0.6346,610.4842,613.4802,NA,NA,NA,NA,NA,12,25,0,47,47,12,1,2,48,"likert"
"89E0BF9E8EB145F88577FBED3C82A839",1,"0198f77d-0de6-7b6e-8357-f7bba9ec3361","0198f768-e4d2-711c-944b-6f03c09216de","2025-08-29_15h22.26.048",NA,NA,616.8254,616.8256,616.8256,617.1761,NA,NA,NA,NA,NA,NA,NA,TRUE,3,1.7488,613.8321,616.8251,NA,NA,NA,NA,NA,60,35,0,48,48,68,1,2,49,"likert"
"89E0BF9E8EB145F88577FBED3C82A839",1,"0198f77d-0de6-7b6e-8357-f7bba9ec3361","0198f768-e4d2-711c-944b-6f03c09216de","2025-08-29_15h22.26.048",NA,NA,620.1893,620.1897,620.1898,620.5382,NA,NA,NA,NA,NA,NA,NA,TRUE,1,1.6315,617.178,620.1891,NA,NA,NA,NA,NA,30,29,0,49,49,44,1,2,50,"likert"
"89E0BF9E8EB145F88577FBED3C82A839",1,"0198f77d-0de6-7b6e-8357-f7bba9ec3361","0198f768-e4d2-711c-944b-6f03c09216de","2025-08-29_15h22.26.048",NA,NA,623.5359,623.536,623.536,623.8849,NA,NA,NA,NA,NA,NA,NA,TRUE,1,1.3495,620.5397,623.5358,NA,NA,NA,NA,NA,100,38,0,50,50,86,1,2,51,"likert"
"89E0BF9E8EB145F88577FBED3C82A839",1,"0198f77d-0de6-7b6e-8357-f7bba9ec3361","0198f768-e4d2-711c-944b-6f03c09216de","2025-08-29_15h22.26.048",NA,NA,626.8822,626.8822,626.8823,627.232,NA,NA,NA,NA,NA,NA,NA,TRUE,1,0.7506,623.8867,626.8821,NA,NA,NA,NA,NA,200,26,0,51,51,102,1,2,52,"likert"
"89E0BF9E8EB145F88577FBED3C82A839",1,"0198f77d-0de6-7b6e-8357-f7bba9ec3361","0198f768-e4d2-711c-944b-6f03c09216de","2025-08-29_15h22.26.048",NA,NA,630.2294,630.2295,630.2296,630.5784,NA,NA,NA,NA,NA,NA,NA,TRUE,1,0.4003,627.2338,630.2291,NA,NA,NA,NA,NA,45,35,0,52,52,57,1,2,53,"likert"
"89E0BF9E8EB145F88577FBED3C82A839",1,"0198f77d-0de6-7b6e-8357-f7bba9ec3361","0198f768-e4d2-711c-944b-6f03c09216de","2025-08-29_15h22.26.048",NA,NA,633.5754,633.5754,633.5754,633.9245,NA,NA,NA,NA,NA,NA,NA,TRUE,1,1.3824,630.5799,633.5752,NA,NA,NA,NA,NA,50,40,0,53,53,63,1,2,54,"likert"
"89E0BF9E8EB145F88577FBED3C82A839",1,"0198f77d-0de6-7b6e-8357-f7bba9ec3361","0198f768-e4d2-711c-944b-6f03c09216de","2025-08-29_15h22.26.048",NA,NA,636.9395,636.9395,636.9396,637.2886,NA,NA,NA,NA,NA,NA,NA,TRUE,1,1.0166,633.9252,636.9393,NA,NA,NA,NA,NA,21,27,0,54,54,25,1,2,55,"likert"
"89E0BF9E8EB145F88577FBED3C82A839",1,"0198f77d-0de6-7b6e-8357-f7bba9ec3361","0198f768-e4d2-711c-944b-6f03c09216de","2025-08-29_15h22.26.048",NA,NA,640.2862,640.2864,640.2864,640.6356,NA,NA,NA,NA,NA,NA,NA,TRUE,1,0.5341,637.2901,640.286,NA,NA,NA,NA,NA,200,39,0,55,55,105,1,2,56,"likert"
"89E0BF9E8EB145F88577FBED3C82A839",1,"0198f77d-0de6-7b6e-8357-f7bba9ec3361","0198f768-e4d2-711c-944b-6f03c09216de","2025-08-29_15h22.26.048",NA,NA,643.6324,643.6324,643.6325,643.9817,NA,NA,NA,NA,NA,NA,NA,TRUE,1,0.6501,640.6376,643.6322,NA,NA,NA,NA,NA,180,31,0,56,56,97,1,2,57,"likert"
"89E0BF9E8EB145F88577FBED3C82A839",1,"0198f77d-0de6-7b6e-8357-f7bba9ec3361","0198f768-e4d2-711c-944b-6f03c09216de","2025-08-29_15h22.26.048",NA,NA,646.9798,646.9799,646.9799,647.3315,NA,NA,NA,NA,NA,NA,NA,TRUE,1,1.3155,643.9831,646.9795,NA,NA,NA,NA,NA,150,31,0,57,57,90,1,2,58,"likert"
"89E0BF9E8EB145F88577FBED3C82A839",1,"0198f77d-0de6-7b6e-8357-f7bba9ec3361","0198f768-e4d2-711c-944b-6f03c09216de","2025-08-29_15h22.26.048",NA,NA,650.3277,650.3277,650.3279,650.6762,NA,NA,NA,NA,NA,NA,NA,TRUE,3,2.0317,647.3331,650.3275,NA,NA,NA,NA,NA,60,40,0,58,58,69,1,2,59,"likert"
"89E0BF9E8EB145F88577FBED3C82A839",1,"0198f77d-0de6-7b6e-8357-f7bba9ec3361","0198f768-e4d2-711c-944b-6f03c09216de","2025-08-29_15h22.26.048",NA,NA,653.6897,653.6898,653.6898,654.0392,NA,NA,NA,NA,NA,NA,NA,TRUE,1,0.9824,650.678,653.6895,NA,NA,NA,NA,NA,100,39,0,59,59,87,1,2,60,"likert"
"89E0BF9E8EB145F88577FBED3C82A839",1,"0198f77d-0de6-7b6e-8357-f7bba9ec3361","0198f768-e4d2-711c-944b-6f03c09216de","2025-08-29_15h22.26.048",NA,NA,657.0364,657.0364,657.0364,657.3855,NA,NA,NA,NA,NA,NA,NA,TRUE,1,1.8652,654.0407,657.0362,NA,NA,NA,NA,NA,150,47,0,60,60,94,1,2,61,"likert"
"89E0BF9E8EB145F88577FBED3C82A839",1,"0198f77d-0de6-7b6e-8357-f7bba9ec3361","0198f768-e4d2-711c-944b-6f03c09216de","2025-08-29_15h22.26.048",NA,NA,660.3834,660.3834,660.3839,660.7325,NA,NA,NA,NA,NA,NA,NA,TRUE,1,1.4496,657.3873,660.3832,NA,NA,NA,NA,NA,180,54,0,61,61,101,1,2,62,"likert"
"89E0BF9E8EB145F88577FBED3C82A839",1,"0198f77d-0de6-7b6e-8357-f7bba9ec3361","0198f768-e4d2-711c-944b-6f03c09216de","2025-08-29_15h22.26.048",NA,NA,663.7299,663.7299,663.7299,664.0784,NA,NA,NA,NA,NA,NA,NA,TRUE,1,1.1322,660.7341,663.7297,NA,NA,NA,NA,NA,90,46,0,62,62,76,1,2,63,"likert"
"89E0BF9E8EB145F88577FBED3C82A839",1,"0198f77d-0de6-7b6e-8357-f7bba9ec3361","0198f768-e4d2-711c-944b-6f03c09216de","2025-08-29_15h22.26.048",NA,NA,667.0773,667.0774,667.0774,667.4263,NA,NA,NA,NA,NA,NA,NA,TRUE,1,1.0332,664.0791,667.0771,NA,NA,NA,NA,NA,40,54,0,63,63,53,1,2,64,"likert"
"89E0BF9E8EB145F88577FBED3C82A839",1,"0198f77d-0de6-7b6e-8357-f7bba9ec3361","0198f768-e4d2-711c-944b-6f03c09216de","2025-08-29_15h22.26.048",NA,NA,670.4401,670.4407,670.4407,670.7892,NA,NA,NA,NA,NA,NA,NA,TRUE,1,1.3498,667.4284,670.4399,NA,NA,NA,NA,NA,10,27,0,64,64,8,1,2,65,"likert"
"89E0BF9E8EB145F88577FBED3C82A839",1,"0198f77d-0de6-7b6e-8357-f7bba9ec3361","0198f768-e4d2-711c-944b-6f03c09216de","2025-08-29_15h22.26.048",NA,NA,673.7865,673.7869,673.7869,674.1357,NA,NA,NA,NA,NA,NA,NA,TRUE,1,0.8334,670.7907,673.7863,NA,NA,NA,NA,NA,28,26,0,65,65,36,1,2,66,"likert"
"89E0BF9E8EB145F88577FBED3C82A839",1,"0198f77d-0de6-7b6e-8357-f7bba9ec3361","0198f768-e4d2-711c-944b-6f03c09216de","2025-08-29_15h22.26.048",NA,NA,677.1335,677.1338,677.1338,677.4825,NA,NA,NA,NA,NA,NA,NA,TRUE,3,2.0817,674.1371,677.1334,NA,NA,NA,NA,NA,7,32,0,66,66,4,1,2,67,"likert"
"89E0BF9E8EB145F88577FBED3C82A839",1,"0198f77d-0de6-7b6e-8357-f7bba9ec3361","0198f768-e4d2-711c-944b-6f03c09216de","2025-08-29_15h22.26.048",NA,NA,680.4805,680.4806,680.4806,680.8296,NA,NA,NA,NA,NA,NA,NA,TRUE,1,0.6666,677.4842,680.4804,NA,NA,NA,NA,NA,50,54,0,67,67,65,1,2,68,"likert"
"89E0BF9E8EB145F88577FBED3C82A839",1,"0198f77d-0de6-7b6e-8357-f7bba9ec3361","0198f768-e4d2-711c-944b-6f03c09216de","2025-08-29_15h22.26.048",NA,NA,683.8266,683.8267,683.8268,684.1763,NA,NA,NA,NA,NA,NA,NA,TRUE,3,1.8148,680.8312,683.8265,NA,NA,NA,NA,NA,25,35,0,68,68,34,1,2,69,"likert"
"89E0BF9E8EB145F88577FBED3C82A839",1,"0198f77d-0de6-7b6e-8357-f7bba9ec3361","0198f768-e4d2-711c-944b-6f03c09216de","2025-08-29_15h22.26.048",NA,NA,687.1904,687.1905,687.1905,687.5394,NA,NA,NA,NA,NA,NA,NA,TRUE,1,0.6337,684.1777,687.1902,NA,NA,NA,NA,NA,60,54,0,69,69,71,1,2,70,"likert"
"89E0BF9E8EB145F88577FBED3C82A839",1,"0198f77d-0de6-7b6e-8357-f7bba9ec3361","0198f768-e4d2-711c-944b-6f03c09216de","2025-08-29_15h22.26.048",NA,NA,690.5375,690.5376,690.5377,690.8863,NA,NA,NA,NA,NA,NA,NA,TRUE,1,1.0494,687.5411,690.5372,NA,NA,NA,NA,NA,12,26,0,70,70,13,1,2,71,"likert"
"89E0BF9E8EB145F88577FBED3C82A839",1,"0198f77d-0de6-7b6e-8357-f7bba9ec3361","0198f768-e4d2-711c-944b-6f03c09216de","2025-08-29_15h22.26.048",NA,NA,693.8829,693.8829,693.8829,694.2328,NA,NA,NA,NA,NA,NA,NA,TRUE,3,1.8322,690.8882,693.8828,NA,NA,NA,NA,NA,40,47,0,71,71,52,1,2,72,"likert"
"89E0BF9E8EB145F88577FBED3C82A839",1,"0198f77d-0de6-7b6e-8357-f7bba9ec3361","0198f768-e4d2-711c-944b-6f03c09216de","2025-08-29_15h22.26.048",NA,NA,697.2308,697.2308,697.2308,697.5795,NA,NA,NA,NA,NA,NA,NA,TRUE,1,1.4318,694.2343,697.2306,NA,NA,NA,NA,NA,45,40,0,72,72,58,1,2,73,"likert"
"89E0BF9E8EB145F88577FBED3C82A839",1,"0198f77d-0de6-7b6e-8357-f7bba9ec3361","0198f768-e4d2-711c-944b-6f03c09216de","2025-08-29_15h22.26.048",NA,NA,700.5772,700.5772,700.5772,700.926,NA,NA,NA,NA,NA,NA,NA,TRUE,3,1.715,697.5811,700.577,NA,NA,NA,NA,NA,14,35,0,73,73,22,1,2,74,"likert"
"89E0BF9E8EB145F88577FBED3C82A839",1,"0198f77d-0de6-7b6e-8357-f7bba9ec3361","0198f768-e4d2-711c-944b-6f03c09216de","2025-08-29_15h22.26.048",NA,NA,703.9247,703.9249,703.925,704.2743,NA,NA,NA,NA,NA,NA,NA,TRUE,1,0.6326,700.9278,703.9245,NA,NA,NA,NA,NA,90,26,0,74,74,72,1,2,75,"likert"
"89E0BF9E8EB145F88577FBED3C82A839",1,"0198f77d-0de6-7b6e-8357-f7bba9ec3361","0198f768-e4d2-711c-944b-6f03c09216de","2025-08-29_15h22.26.048",NA,NA,707.2868,707.2868,707.2868,707.6359,NA,NA,NA,NA,NA,NA,NA,TRUE,1,0.8491,704.2764,707.2866,NA,NA,NA,NA,NA,150,33,0,75,75,91,1,2,76,"likert"
"89E0BF9E8EB145F88577FBED3C82A839",1,"0198f77d-0de6-7b6e-8357-f7bba9ec3361","0198f768-e4d2-711c-944b-6f03c09216de","2025-08-29_15h22.26.048",NA,NA,710.6339,710.6339,710.634,710.983,NA,NA,NA,NA,NA,NA,NA,TRUE,1,1.5322,707.637,710.6337,NA,NA,NA,NA,NA,12,28,0,76,76,14,1,2,77,"likert"
"89E0BF9E8EB145F88577FBED3C82A839",1,"0198f77d-0de6-7b6e-8357-f7bba9ec3361","0198f768-e4d2-711c-944b-6f03c09216de","2025-08-29_15h22.26.048",NA,NA,713.9804,713.9804,713.9804,714.3306,NA,NA,NA,NA,NA,NA,NA,TRUE,1,1.8318,710.9848,713.9802,NA,NA,NA,NA,NA,95,40,0,77,77,81,1,2,78,"likert"
"89E0BF9E8EB145F88577FBED3C82A839",1,"0198f77d-0de6-7b6e-8357-f7bba9ec3361","0198f768-e4d2-711c-944b-6f03c09216de","2025-08-29_15h22.26.048",NA,NA,717.3274,717.3274,717.3274,717.677,NA,NA,NA,NA,NA,NA,NA,TRUE,3,1.7157,714.3324,717.3272,NA,NA,NA,NA,NA,30,32,0,78,78,46,1,2,79,"likert"
"89E0BF9E8EB145F88577FBED3C82A839",1,"0198f77d-0de6-7b6e-8357-f7bba9ec3361","0198f768-e4d2-711c-944b-6f03c09216de","2025-08-29_15h22.26.048",NA,NA,720.6741,720.6742,720.6742,721.0399,NA,NA,NA,NA,NA,NA,NA,TRUE,1,2.282,717.6787,720.6739,NA,NA,NA,NA,NA,30,27,0,79,79,43,1,2,80,"likert"
"89E0BF9E8EB145F88577FBED3C82A839",1,"0198f77d-0de6-7b6e-8357-f7bba9ec3361","0198f768-e4d2-711c-944b-6f03c09216de","2025-08-29_15h22.26.048",NA,NA,724.0366,724.0366,724.0366,724.3861,NA,NA,NA,NA,NA,NA,NA,TRUE,3,1.9814,721.0414,724.0364,NA,NA,NA,NA,NA,25,31,0,80,80,32,1,2,81,"likert"
"89E0BF9E8EB145F88577FBED3C82A839",1,"0198f77d-0de6-7b6e-8357-f7bba9ec3361","0198f768-e4d2-711c-944b-6f03c09216de","2025-08-29_15h22.26.048",NA,NA,727.3858,727.3859,727.3859,727.7341,NA,NA,NA,NA,NA,NA,NA,TRUE,1,1.8991,724.3867,727.3856,NA,NA,NA,NA,NA,21,30,0,81,81,27,1,2,82,"likert"
"89E0BF9E8EB145F88577FBED3C82A839",1,"0198f77d-0de6-7b6e-8357-f7bba9ec3361","0198f768-e4d2-711c-944b-6f03c09216de","2025-08-29_15h22.26.048",NA,NA,730.7312,730.7312,730.7312,731.0805,NA,NA,NA,NA,NA,NA,NA,TRUE,5,1.9653,727.7362,730.731,NA,NA,NA,NA,NA,7,30,0,82,82,3,1,2,83,"likert"
"89E0BF9E8EB145F88577FBED3C82A839",1,"0198f77d-0de6-7b6e-8357-f7bba9ec3361","0198f768-e4d2-711c-944b-6f03c09216de","2025-08-29_15h22.26.048",NA,NA,734.0776,734.0777,734.0777,734.4265,NA,NA,NA,NA,NA,NA,NA,TRUE,1,1.7327,731.082,734.0774,NA,NA,NA,NA,NA,45,31,0,83,83,56,1,2,84,"likert"
"89E0BF9E8EB145F88577FBED3C82A839",1,"0198f77d-0de6-7b6e-8357-f7bba9ec3361","0198f768-e4d2-711c-944b-6f03c09216de","2025-08-29_15h22.26.048",NA,NA,737.424,737.4241,737.4241,737.7736,NA,NA,NA,NA,NA,NA,NA,TRUE,1,1.732,734.4279,737.4238,NA,NA,NA,NA,NA,50,30,0,84,84,61,1,2,85,"likert"
"89E0BF9E8EB145F88577FBED3C82A839",1,"0198f77d-0de6-7b6e-8357-f7bba9ec3361","0198f768-e4d2-711c-944b-6f03c09216de","2025-08-29_15h22.26.048",NA,NA,740.7879,740.7879,740.7879,741.1366,NA,NA,NA,NA,NA,NA,NA,TRUE,1,2.6478,737.7751,740.7877,NA,NA,NA,NA,NA,200,35,0,85,85,104,1,2,86,"likert"
"89E0BF9E8EB145F88577FBED3C82A839",1,"0198f77d-0de6-7b6e-8357-f7bba9ec3361","0198f768-e4d2-711c-944b-6f03c09216de","2025-08-29_15h22.26.048",NA,NA,744.1353,744.1353,744.1354,744.4834,NA,NA,NA,NA,NA,NA,NA,TRUE,3,1.7988,741.1384,744.1351,NA,NA,NA,NA,NA,12,35,0,86,86,17,1,2,87,"likert"
"89E0BF9E8EB145F88577FBED3C82A839",1,"0198f77d-0de6-7b6e-8357-f7bba9ec3361","0198f768-e4d2-711c-944b-6f03c09216de","2025-08-29_15h22.26.048",NA,NA,747.4811,747.4811,747.4811,747.8313,NA,NA,NA,NA,NA,NA,NA,TRUE,1,2.3812,744.485,747.4808,NA,NA,NA,NA,NA,100,31,0,87,87,85,1,2,88,"likert"
"89E0BF9E8EB145F88577FBED3C82A839",1,"0198f77d-0de6-7b6e-8357-f7bba9ec3361","0198f768-e4d2-711c-944b-6f03c09216de","2025-08-29_15h22.26.048",NA,NA,750.8275,750.8275,750.8275,751.1768,NA,NA,NA,NA,NA,NA,NA,TRUE,1,1.1489,747.8333,750.8273,NA,NA,NA,NA,NA,21,38,0,88,88,29,1,2,89,"likert"
"89E0BF9E8EB145F88577FBED3C82A839",1,"0198f77d-0de6-7b6e-8357-f7bba9ec3361","0198f768-e4d2-711c-944b-6f03c09216de","2025-08-29_15h22.26.048",NA,NA,754.1747,754.1747,754.1748,754.5238,NA,NA,NA,NA,NA,NA,NA,TRUE,1,1.3316,751.1781,754.1745,NA,NA,NA,NA,NA,21,32,0,89,89,28,1,2,90,"likert"
"89E0BF9E8EB145F88577FBED3C82A839",1,"0198f77d-0de6-7b6e-8357-f7bba9ec3361","0198f768-e4d2-711c-944b-6f03c09216de","2025-08-29_15h22.26.048",NA,NA,757.5373,757.5373,757.5373,757.8872,NA,NA,NA,NA,NA,NA,NA,TRUE,5,1.7155,754.5258,757.5372,NA,NA,NA,NA,NA,7,35,0,90,90,5,1,2,91,"likert"
"89E0BF9E8EB145F88577FBED3C82A839",1,"0198f77d-0de6-7b6e-8357-f7bba9ec3361","0198f768-e4d2-711c-944b-6f03c09216de","2025-08-29_15h22.26.048",NA,NA,760.8845,760.8845,760.8845,761.2332,NA,NA,NA,NA,NA,NA,NA,TRUE,1,1.283,757.8887,760.8844,NA,NA,NA,NA,NA,90,54,0,91,91,77,1,2,92,"likert"
"89E0BF9E8EB145F88577FBED3C82A839",1,"0198f77d-0de6-7b6e-8357-f7bba9ec3361","0198f768-e4d2-711c-944b-6f03c09216de","2025-08-29_15h22.26.048",NA,NA,764.2314,764.2315,764.2315,764.5808,NA,NA,NA,NA,NA,NA,NA,TRUE,1,1.1854,761.234,764.2313,NA,NA,NA,NA,NA,40,40,0,92,92,51,1,2,93,"likert"
"89E0BF9E8EB145F88577FBED3C82A839",1,"0198f77d-0de6-7b6e-8357-f7bba9ec3361","0198f768-e4d2-711c-944b-6f03c09216de","2025-08-29_15h22.26.048",NA,NA,767.5785,767.5785,767.5786,767.927,NA,NA,NA,NA,NA,NA,NA,TRUE,1,0.8331,764.5823,767.5782,NA,NA,NA,NA,NA,95,31,0,93,93,78,1,2,94,"likert"
"89E0BF9E8EB145F88577FBED3C82A839",1,"0198f77d-0de6-7b6e-8357-f7bba9ec3361","0198f768-e4d2-711c-944b-6f03c09216de","2025-08-29_15h22.26.048",NA,NA,770.9249,770.9249,770.9249,771.274,NA,NA,NA,NA,NA,NA,NA,TRUE,1,0.7493,767.9283,770.9248,NA,NA,NA,NA,NA,150,54,0,94,94,95,1,2,95,"likert"
"89E0BF9E8EB145F88577FBED3C82A839",1,"0198f77d-0de6-7b6e-8357-f7bba9ec3361","0198f768-e4d2-711c-944b-6f03c09216de","2025-08-29_15h22.26.048",NA,NA,774.2884,774.2884,774.2885,774.6376,NA,NA,NA,NA,NA,NA,NA,TRUE,1,0.5664,771.2754,774.2881,NA,NA,NA,NA,NA,12,33,0,95,95,16,1,2,96,"likert"
"89E0BF9E8EB145F88577FBED3C82A839",1,"0198f77d-0de6-7b6e-8357-f7bba9ec3361","0198f768-e4d2-711c-944b-6f03c09216de","2025-08-29_15h22.26.048",NA,NA,777.6359,777.636,777.636,777.984,NA,NA,NA,NA,NA,NA,NA,TRUE,1,1.867,774.6393,777.6357,NA,NA,NA,NA,NA,50,46,0,96,96,64,1,2,97,"likert"
"89E0BF9E8EB145F88577FBED3C82A839",1,"0198f77d-0de6-7b6e-8357-f7bba9ec3361","0198f768-e4d2-711c-944b-6f03c09216de","2025-08-29_15h22.26.048",NA,NA,780.9814,780.9814,780.9815,781.3307,NA,NA,NA,NA,NA,NA,NA,TRUE,1,1.016,777.9853,780.9812,NA,NA,NA,NA,NA,100,46,0,97,97,88,1,2,98,"likert"
"89E0BF9E8EB145F88577FBED3C82A839",1,"0198f77d-0de6-7b6e-8357-f7bba9ec3361","0198f768-e4d2-711c-944b-6f03c09216de","2025-08-29_15h22.26.048",NA,NA,784.3285,784.3286,784.3286,784.6774,NA,NA,NA,NA,NA,NA,NA,TRUE,3,1.5488,781.3321,784.3283,NA,NA,NA,NA,NA,10,32,0,98,98,11,1,2,99,"likert"
"89E0BF9E8EB145F88577FBED3C82A839",1,"0198f77d-0de6-7b6e-8357-f7bba9ec3361","0198f768-e4d2-711c-944b-6f03c09216de","2025-08-29_15h22.26.048",NA,NA,787.6752,787.6752,787.6753,788.0242,NA,NA,NA,NA,NA,NA,NA,TRUE,1,1.3327,784.6787,787.675,NA,NA,NA,NA,NA,60,47,0,99,99,70,1,2,100,"likert"
"89E0BF9E8EB145F88577FBED3C82A839",1,"0198f77d-0de6-7b6e-8357-f7bba9ec3361","0198f768-e4d2-711c-944b-6f03c09216de","2025-08-29_15h22.26.048",NA,NA,791.0385,791.0385,791.0385,791.3875,NA,NA,NA,NA,NA,NA,NA,TRUE,1,1.6984,788.0258,791.0384,NA,NA,NA,NA,NA,30,30,0,100,100,45,1,2,101,"likert"
"89E0BF9E8EB145F88577FBED3C82A839",1,"0198f77d-0de6-7b6e-8357-f7bba9ec3361","0198f768-e4d2-711c-944b-6f03c09216de","2025-08-29_15h22.26.048",NA,NA,794.3851,794.3851,794.3852,794.7343,NA,NA,NA,NA,NA,NA,NA,TRUE,4,1.8656,791.3887,794.385,NA,NA,NA,NA,NA,30,38,0,101,101,47,1,2,102,"likert"
"89E0BF9E8EB145F88577FBED3C82A839",1,"0198f77d-0de6-7b6e-8357-f7bba9ec3361","0198f768-e4d2-711c-944b-6f03c09216de","2025-08-29_15h22.26.048",NA,NA,797.7321,797.7322,797.7322,798.0822,NA,NA,NA,NA,NA,NA,NA,TRUE,3,1.4484,794.7359,797.732,NA,NA,NA,NA,NA,10,30,0,102,102,10,1,2,103,"likert"
"89E0BF9E8EB145F88577FBED3C82A839",1,"0198f77d-0de6-7b6e-8357-f7bba9ec3361","0198f768-e4d2-711c-944b-6f03c09216de","2025-08-29_15h22.26.048",NA,NA,801.0799,801.08,801.08,801.4277,NA,NA,NA,NA,NA,NA,NA,TRUE,1,1.2321,798.0839,801.0797,NA,NA,NA,NA,NA,14,25,0,103,103,18,1,2,104,"likert"
"89E0BF9E8EB145F88577FBED3C82A839",1,"0198f77d-0de6-7b6e-8357-f7bba9ec3361","0198f768-e4d2-711c-944b-6f03c09216de","2025-08-29_15h22.26.048",NA,NA,804.4267,804.4267,804.4268,804.7755,NA,NA,NA,NA,NA,NA,NA,TRUE,1,0.7657,801.429,804.4264,NA,NA,NA,NA,NA,95,33,0,104,104,79,1,2,105,"likert"
"89E0BF9E8EB145F88577FBED3C82A839",1,"0198f77d-0de6-7b6e-8357-f7bba9ec3361","0198f768-e4d2-711c-944b-6f03c09216de","2025-08-29_15h22.26.048",NA,NA,807.7893,807.7894,807.7895,808.1381,NA,NA,NA,NA,NA,NA,NA,TRUE,1,0.8331,804.7777,807.7891,NA,NA,NA,NA,NA,95,47,0,105,105,82,1,2,106,"likert"
"89E0BF9E8EB145F88577FBED3C82A839",1,"0198f77d-0de6-7b6e-8357-f7bba9ec3361","0198f768-e4d2-711c-944b-6f03c09216de","2025-08-29_15h22.26.048",NA,NA,811.1366,811.1366,811.1366,811.485,NA,NA,NA,NA,NA,NA,NA,TRUE,1,0.9664,808.1402,811.1364,NA,NA,NA,NA,NA,10,26,0,106,106,7,1,2,107,"likert"
"89E0BF9E8EB145F88577FBED3C82A839",1,"0198f77d-0de6-7b6e-8357-f7bba9ec3361","0198f768-e4d2-711c-944b-6f03c09216de","2025-08-29_15h22.26.048",NA,NA,814.4821,814.4823,814.4824,814.8317,NA,NA,NA,NA,NA,NA,NA,TRUE,1,0.7172,811.4861,814.482,NA,NA,NA,NA,NA,45,46,0,107,107,59,1,2,108,"likert"
