"participant","session","assignmentId","projectId","date","practiceTrial.started","practiceTrial.stopped","tooLate.started","tooLate.stopped","blank.started","blank.stopped","trials_pract.thisRepN","trials_pract.thisTrialN","trials_pract.thisN","trials_pract.thisIndex","trials_pract.ran","delay_pract","amount_pract","responseMade","key","rt","trial.started","trial.stopped","trials.thisRepN","trials.thisTrialN","trials.thisN","trials.thisIndex","trials.ran","delay","amount","trials_2.thisRepN","trials_2.thisTrialN","trials_2.thisN","trials_2.thisIndex","trials_2.ran","block","trial","taskType"
"8ACA60070AC94E9AA3C66F555D375A0F",1,"0198f781-4c7a-7753-a49d-230694c7a4b2","0198f768-e4d2-711c-944b-6f03c09216de","2025-08-29_15h26.46.458",501.0573,504.0419,504.043,504.2915,504.2916,504.3912,0,0,0,0,1,7,30,FALSE,NA,NA,NA,NA,NA,NA,NA,NA,NA,NA,NA,NA,NA,NA,NA,NA,0,1,"likert"
"8ACA60070AC94E9AA3C66F555D375A0F",1,"0198f781-4c7a-7753-a49d-230694c7a4b2","0198f768-e4d2-711c-944b-6f03c09216de","2025-08-29_15h26.46.458",504.3935,507.3889,507.3891,507.6386,507.6388,507.7385,0,1,1,1,1,100,50,FALSE,NA,NA,NA,NA,NA,NA,NA,NA,NA,NA,NA,NA,NA,NA,NA,NA,0,2,"likert"
"8ACA60070AC94E9AA3C66F555D375A0F",1,"0198f781-4c7a-7753-a49d-230694c7a4b2","0198f768-e4d2-711c-944b-6f03c09216de","2025-08-29_15h26.46.458",507.7397,510.736,510.7362,510.9858,510.9858,511.0855,0,2,2,3,1,3,27,FALSE,NA,NA,NA,NA,NA,NA,NA,NA,NA,NA,NA,NA,NA,NA,NA,NA,0,3,"likert"
"8ACA60070AC94E9AA3C66F555D375A0F",1,"0198f781-4c7a-7753-a49d-230694c7a4b2","0198f768-e4d2-711c-944b-6f03c09216de","2025-08-29_15h26.46.458",511.0873,514.0829,514.083,514.3327,514.3327,514.4325,0,3,3,4,1,30,40,FALSE,NA,NA,NA,NA,NA,NA,NA,NA,NA,NA,NA,NA,NA,NA,NA,NA,0,4,"likert"
"8ACA60070AC94E9AA3C66F555D375A0F",1,"0198f781-4c7a-7753-a49d-230694c7a4b2","0198f768-e4d2-711c-944b-6f03c09216de","2025-08-29_15h26.46.458",514.4339,517.4467,517.4469,517.4469,517.4469,517.7965,0,4,4,2,1,14,45,TRUE,5,1.3521,NA,NA,NA,NA,NA,NA,NA,NA,NA,NA,NA,NA,NA,NA,0,5,"likert"
"8ACA60070AC94E9AA3C66F555D375A0F",1,"0198f781-4c7a-7753-a49d-230694c7a4b2","0198f768-e4d2-711c-944b-6f03c09216de","2025-08-29_15h26.46.458",NA,NA,575.7812,576.0305,576.0307,576.1301,NA,NA,NA,NA,NA,NA,NA,FALSE,NA,NA,572.7969,575.7808,0,0,0,0,1,7,25,NA,NA,NA,NA,NA,1,1,"likert"
"8ACA60070AC94E9AA3C66F555D375A0F",1,"0198f781-4c7a-7753-a49d-230694c7a4b2","0198f768-e4d2-711c-944b-6f03c09216de","2025-08-29_15h26.46.458",NA,NA,579.1276,579.1276,579.1276,579.4773,NA,NA,NA,NA,NA,NA,NA,TRUE,5,1.7729,576.131,579.1274,0,1,1,73,1,90,30,NA,NA,NA,NA,NA,1,2,"likert"
"8ACA60070AC94E9AA3C66F555D375A0F",1,"0198f781-4c7a-7753-a49d-230694c7a4b2","0198f768-e4d2-711c-944b-6f03c09216de","2025-08-29_15h26.46.458",NA,NA,582.4752,582.4753,582.4754,582.8244,NA,NA,NA,NA,NA,NA,NA,TRUE,3,1.9355,579.4782,582.4751,0,2,2,53,1,40,54,NA,NA,NA,NA,NA,1,3,"likert"
"8ACA60070AC94E9AA3C66F555D375A0F",1,"0198f781-4c7a-7753-a49d-230694c7a4b2","0198f768-e4d2-711c-944b-6f03c09216de","2025-08-29_15h26.46.458",NA,NA,585.8222,585.8222,585.8223,586.1717,NA,NA,NA,NA,NA,NA,NA,TRUE,5,2.3781,582.8257,585.822,0,3,3,89,1,100,54,NA,NA,NA,NA,NA,1,4,"likert"
"8ACA60070AC94E9AA3C66F555D375A0F",1,"0198f781-4c7a-7753-a49d-230694c7a4b2","0198f768-e4d2-711c-944b-6f03c09216de","2025-08-29_15h26.46.458",NA,NA,589.1861,589.4357,589.4357,589.5356,NA,NA,NA,NA,NA,NA,NA,FALSE,NA,NA,586.1735,589.186,0,4,4,99,1,180,39,NA,NA,NA,NA,NA,1,5,"likert"
"8ACA60070AC94E9AA3C66F555D375A0F",1,"0198f781-4c7a-7753-a49d-230694c7a4b2","0198f768-e4d2-711c-944b-6f03c09216de","2025-08-29_15h26.46.458",NA,NA,592.5333,592.7828,592.7829,592.8826,NA,NA,NA,NA,NA,NA,NA,FALSE,NA,NA,589.5367,592.5331,0,5,5,81,1,95,40,NA,NA,NA,NA,NA,1,6,"likert"
"8ACA60070AC94E9AA3C66F555D375A0F",1,"0198f781-4c7a-7753-a49d-230694c7a4b2","0198f768-e4d2-711c-944b-6f03c09216de","2025-08-29_15h26.46.458",NA,NA,595.8804,596.1301,596.1302,596.2299,NA,NA,NA,NA,NA,NA,NA,FALSE,NA,NA,592.8842,595.8802,0,6,6,100,1,180,46,NA,NA,NA,NA,NA,1,7,"likert"
"8ACA60070AC94E9AA3C66F555D375A0F",1,"0198f781-4c7a-7753-a49d-230694c7a4b2","0198f768-e4d2-711c-944b-6f03c09216de","2025-08-29_15h26.46.458",NA,NA,599.2272,599.2272,599.2272,599.577,NA,NA,NA,NA,NA,NA,NA,TRUE,1,1.9283,596.2309,599.227,0,7,7,17,1,12,35,NA,NA,NA,NA,NA,1,8,"likert"
"8ACA60070AC94E9AA3C66F555D375A0F",1,"0198f781-4c7a-7753-a49d-230694c7a4b2","0198f768-e4d2-711c-944b-6f03c09216de","2025-08-29_15h26.46.458",NA,NA,602.5747,602.8243,602.8244,602.9243,NA,NA,NA,NA,NA,NA,NA,FALSE,NA,NA,599.5779,602.5745,0,8,8,1,1,7,26,NA,NA,NA,NA,NA,1,9,"likert"
"8ACA60070AC94E9AA3C66F555D375A0F",1,"0198f781-4c7a-7753-a49d-230694c7a4b2","0198f768-e4d2-711c-944b-6f03c09216de","2025-08-29_15h26.46.458",NA,NA,605.9213,606.1712,606.1712,606.271,NA,NA,NA,NA,NA,NA,NA,FALSE,NA,NA,602.9256,605.9212,0,9,9,45,1,30,30,NA,NA,NA,NA,NA,1,10,"likert"
"8ACA60070AC94E9AA3C66F555D375A0F",1,"0198f781-4c7a-7753-a49d-230694c7a4b2","0198f768-e4d2-711c-944b-6f03c09216de","2025-08-29_15h26.46.458",NA,NA,609.2857,609.2858,609.2858,609.6349,NA,NA,NA,NA,NA,NA,NA,TRUE,5,2.3302,606.2715,609.2855,0,10,10,57,1,45,35,NA,NA,NA,NA,NA,1,11,"likert"
"8ACA60070AC94E9AA3C66F555D375A0F",1,"0198f781-4c7a-7753-a49d-230694c7a4b2","0198f768-e4d2-711c-944b-6f03c09216de","2025-08-29_15h26.46.458",NA,NA,612.6329,612.6329,612.633,612.9821,NA,NA,NA,NA,NA,NA,NA,TRUE,5,1.3853,609.6361,612.6328,0,11,11,80,1,95,35,NA,NA,NA,NA,NA,1,12,"likert"
"8ACA60070AC94E9AA3C66F555D375A0F",1,"0198f781-4c7a-7753-a49d-230694c7a4b2","0198f768-e4d2-711c-944b-6f03c09216de","2025-08-29_15h26.46.458",NA,NA,615.9799,615.9799,615.9799,616.3294,NA,NA,NA,NA,NA,NA,NA,TRUE,5,1.4465,612.9833,615.9798,0,12,12,11,1,10,32,NA,NA,NA,NA,NA,1,13,"likert"
"8ACA60070AC94E9AA3C66F555D375A0F",1,"0198f781-4c7a-7753-a49d-230694c7a4b2","0198f768-e4d2-711c-944b-6f03c09216de","2025-08-29_15h26.46.458",NA,NA,619.3269,619.3269,619.327,619.6768,NA,NA,NA,NA,NA,NA,NA,TRUE,5,0.954,616.3303,619.3268,0,13,13,43,1,30,27,NA,NA,NA,NA,NA,1,14,"likert"
"8ACA60070AC94E9AA3C66F555D375A0F",1,"0198f781-4c7a-7753-a49d-230694c7a4b2","0198f768-e4d2-711c-944b-6f03c09216de","2025-08-29_15h26.46.458",NA,NA,622.6743,622.6743,622.6743,623.0237,NA,NA,NA,NA,NA,NA,NA,TRUE,5,1.8951,619.678,622.6742,0,14,14,105,1,200,39,NA,NA,NA,NA,NA,1,15,"likert"
"8ACA60070AC94E9AA3C66F555D375A0F",1,"0198f781-4c7a-7753-a49d-230694c7a4b2","0198f768-e4d2-711c-944b-6f03c09216de","2025-08-29_15h26.46.458",NA,NA,626.0213,626.0213,626.0213,626.3875,NA,NA,NA,NA,NA,NA,NA,TRUE,5,1.3185,623.0247,626.0212,0,15,15,16,1,12,33,NA,NA,NA,NA,NA,1,16,"likert"
"8ACA60070AC94E9AA3C66F555D375A0F",1,"0198f781-4c7a-7753-a49d-230694c7a4b2","0198f768-e4d2-711c-944b-6f03c09216de","2025-08-29_15h26.46.458",NA,NA,629.3853,629.3853,629.3854,629.7349,NA,NA,NA,NA,NA,NA,NA,TRUE,5,1.0456,626.3887,629.3852,0,16,16,77,1,90,54,NA,NA,NA,NA,NA,1,17,"likert"
"8ACA60070AC94E9AA3C66F555D375A0F",1,"0198f781-4c7a-7753-a49d-230694c7a4b2","0198f768-e4d2-711c-944b-6f03c09216de","2025-08-29_15h26.46.458",NA,NA,632.7325,632.7325,632.7325,633.0818,NA,NA,NA,NA,NA,NA,NA,TRUE,5,1.971,629.7361,632.7324,0,17,17,69,1,60,40,NA,NA,NA,NA,NA,1,18,"likert"
"8ACA60070AC94E9AA3C66F555D375A0F",1,"0198f781-4c7a-7753-a49d-230694c7a4b2","0198f768-e4d2-711c-944b-6f03c09216de","2025-08-29_15h26.46.458",NA,NA,636.0793,636.0793,636.0793,636.4291,NA,NA,NA,NA,NA,NA,NA,TRUE,5,1.2674,633.0828,636.0792,0,18,18,75,1,90,40,NA,NA,NA,NA,NA,1,19,"likert"
"8ACA60070AC94E9AA3C66F555D375A0F",1,"0198f781-4c7a-7753-a49d-230694c7a4b2","0198f768-e4d2-711c-944b-6f03c09216de","2025-08-29_15h26.46.458",NA,NA,639.4268,639.4268,639.4268,639.7763,NA,NA,NA,NA,NA,NA,NA,TRUE,5,1.1463,636.43,639.4266,0,19,19,46,1,30,32,NA,NA,NA,NA,NA,1,20,"likert"
"8ACA60070AC94E9AA3C66F555D375A0F",1,"0198f781-4c7a-7753-a49d-230694c7a4b2","0198f768-e4d2-711c-944b-6f03c09216de","2025-08-29_15h26.46.458",NA,NA,642.774,642.774,642.774,643.1234,NA,NA,NA,NA,NA,NA,NA,TRUE,5,0.6042,639.7774,642.7738,0,20,20,50,1,40,35,NA,NA,NA,NA,NA,1,21,"likert"
"8ACA60070AC94E9AA3C66F555D375A0F",1,"0198f781-4c7a-7753-a49d-230694c7a4b2","0198f768-e4d2-711c-944b-6f03c09216de","2025-08-29_15h26.46.458",NA,NA,646.1377,646.1378,646.1378,646.4871,NA,NA,NA,NA,NA,NA,NA,TRUE,5,0.9823,643.1245,646.1376,0,21,21,101,1,180,54,NA,NA,NA,NA,NA,1,22,"likert"
"8ACA60070AC94E9AA3C66F555D375A0F",1,"0198f781-4c7a-7753-a49d-230694c7a4b2","0198f768-e4d2-711c-944b-6f03c09216de","2025-08-29_15h26.46.458",NA,NA,649.4844,649.4844,649.4844,649.8345,NA,NA,NA,NA,NA,NA,NA,TRUE,5,0.863,646.488,649.4843,0,22,22,27,1,21,30,NA,NA,NA,NA,NA,1,23,"likert"
"8ACA60070AC94E9AA3C66F555D375A0F",1,"0198f781-4c7a-7753-a49d-230694c7a4b2","0198f768-e4d2-711c-944b-6f03c09216de","2025-08-29_15h26.46.458",NA,NA,652.832,652.832,652.8321,653.1813,NA,NA,NA,NA,NA,NA,NA,TRUE,5,1.0604,649.8356,652.8319,0,23,23,10,1,10,30,NA,NA,NA,NA,NA,1,24,"likert"
"8ACA60070AC94E9AA3C66F555D375A0F",1,"0198f781-4c7a-7753-a49d-230694c7a4b2","0198f768-e4d2-711c-944b-6f03c09216de","2025-08-29_15h26.46.458",NA,NA,656.1789,656.1789,656.1789,656.5288,NA,NA,NA,NA,NA,NA,NA,TRUE,5,1.8358,653.1824,656.1787,0,24,24,86,1,100,38,NA,NA,NA,NA,NA,1,25,"likert"
"8ACA60070AC94E9AA3C66F555D375A0F",1,"0198f781-4c7a-7753-a49d-230694c7a4b2","0198f768-e4d2-711c-944b-6f03c09216de","2025-08-29_15h26.46.458",NA,NA,659.5263,659.5263,659.5263,659.876,NA,NA,NA,NA,NA,NA,NA,TRUE,5,1.6291,656.5298,659.5262,0,25,25,71,1,60,54,NA,NA,NA,NA,NA,1,26,"likert"
"8ACA60070AC94E9AA3C66F555D375A0F",1,"0198f781-4c7a-7753-a49d-230694c7a4b2","0198f768-e4d2-711c-944b-6f03c09216de","2025-08-29_15h26.46.458",NA,NA,662.8732,662.8732,662.8732,663.2229,NA,NA,NA,NA,NA,NA,NA,TRUE,5,1.5956,659.8771,662.873,0,26,26,93,1,150,40,NA,NA,NA,NA,NA,1,27,"likert"
"8ACA60070AC94E9AA3C66F555D375A0F",1,"0198f781-4c7a-7753-a49d-230694c7a4b2","0198f768-e4d2-711c-944b-6f03c09216de","2025-08-29_15h26.46.458",NA,NA,666.237,666.237,666.2371,666.5866,NA,NA,NA,NA,NA,NA,NA,TRUE,5,1.75,663.2241,666.2368,0,27,27,82,1,95,47,NA,NA,NA,NA,NA,1,28,"likert"
"8ACA60070AC94E9AA3C66F555D375A0F",1,"0198f781-4c7a-7753-a49d-230694c7a4b2","0198f768-e4d2-711c-944b-6f03c09216de","2025-08-29_15h26.46.458",NA,NA,669.5844,669.5845,669.5845,669.9338,NA,NA,NA,NA,NA,NA,NA,TRUE,5,1.8366,666.5872,669.5843,0,28,28,30,1,25,27,NA,NA,NA,NA,NA,1,29,"likert"
"8ACA60070AC94E9AA3C66F555D375A0F",1,"0198f781-4c7a-7753-a49d-230694c7a4b2","0198f768-e4d2-711c-944b-6f03c09216de","2025-08-29_15h26.46.458",NA,NA,672.9313,672.9314,672.9314,673.2807,NA,NA,NA,NA,NA,NA,NA,TRUE,5,2.0109,669.9345,672.9313,0,29,29,98,1,180,35,NA,NA,NA,NA,NA,1,30,"likert"
"8ACA60070AC94E9AA3C66F555D375A0F",1,"0198f781-4c7a-7753-a49d-230694c7a4b2","0198f768-e4d2-711c-944b-6f03c09216de","2025-08-29_15h26.46.458",NA,NA,676.2788,676.2788,676.2788,676.6284,NA,NA,NA,NA,NA,NA,NA,TRUE,5,1.0038,673.282,676.2787,0,30,30,74,1,90,33,NA,NA,NA,NA,NA,1,31,"likert"
"8ACA60070AC94E9AA3C66F555D375A0F",1,"0198f781-4c7a-7753-a49d-230694c7a4b2","0198f768-e4d2-711c-944b-6f03c09216de","2025-08-29_15h26.46.458",NA,NA,679.626,679.6261,679.6261,679.9753,NA,NA,NA,NA,NA,NA,NA,TRUE,5,0.8626,676.6294,679.6259,0,31,31,91,1,150,33,NA,NA,NA,NA,NA,1,32,"likert"
"8ACA60070AC94E9AA3C66F555D375A0F",1,"0198f781-4c7a-7753-a49d-230694c7a4b2","0198f768-e4d2-711c-944b-6f03c09216de","2025-08-29_15h26.46.458",NA,NA,682.9731,682.9731,682.9731,683.3227,NA,NA,NA,NA,NA,NA,NA,TRUE,5,0.9325,679.9764,682.973,0,32,32,8,1,10,27,NA,NA,NA,NA,NA,1,33,"likert"
"8ACA60070AC94E9AA3C66F555D375A0F",1,"0198f781-4c7a-7753-a49d-230694c7a4b2","0198f768-e4d2-711c-944b-6f03c09216de","2025-08-29_15h26.46.458",NA,NA,686.3366,686.3367,686.3367,686.6865,NA,NA,NA,NA,NA,NA,NA,TRUE,5,0.9664,683.3239,686.3365,0,33,33,47,1,30,38,NA,NA,NA,NA,NA,1,34,"likert"
"8ACA60070AC94E9AA3C66F555D375A0F",1,"0198f781-4c7a-7753-a49d-230694c7a4b2","0198f768-e4d2-711c-944b-6f03c09216de","2025-08-29_15h26.46.458",NA,NA,689.6841,689.6841,689.6842,690.0334,NA,NA,NA,NA,NA,NA,NA,TRUE,5,1.0659,686.6875,689.6839,0,34,34,97,1,180,31,NA,NA,NA,NA,NA,1,35,"likert"
"8ACA60070AC94E9AA3C66F555D375A0F",1,"0198f781-4c7a-7753-a49d-230694c7a4b2","0198f768-e4d2-711c-944b-6f03c09216de","2025-08-29_15h26.46.458",NA,NA,693.0311,693.0311,693.0311,693.3804,NA,NA,NA,NA,NA,NA,NA,TRUE,5,0.7305,690.0345,693.031,0,35,35,61,1,50,30,NA,NA,NA,NA,NA,1,36,"likert"
"8ACA60070AC94E9AA3C66F555D375A0F",1,"0198f781-4c7a-7753-a49d-230694c7a4b2","0198f768-e4d2-711c-944b-6f03c09216de","2025-08-29_15h26.46.458",NA,NA,696.3783,696.3783,696.3784,696.7278,NA,NA,NA,NA,NA,NA,NA,TRUE,5,0.5119,693.3812,696.3782,0,36,36,70,1,60,47,NA,NA,NA,NA,NA,1,37,"likert"
"8ACA60070AC94E9AA3C66F555D375A0F",1,"0198f781-4c7a-7753-a49d-230694c7a4b2","0198f768-e4d2-711c-944b-6f03c09216de","2025-08-29_15h26.46.458",NA,NA,699.7251,699.7252,699.7252,700.0751,NA,NA,NA,NA,NA,NA,NA,TRUE,5,0.7298,696.729,699.725,0,37,37,66,1,60,29,NA,NA,NA,NA,NA,1,38,"likert"
"8ACA60070AC94E9AA3C66F555D375A0F",1,"0198f781-4c7a-7753-a49d-230694c7a4b2","0198f768-e4d2-711c-944b-6f03c09216de","2025-08-29_15h26.46.458",NA,NA,703.0726,703.0727,703.0727,703.4222,NA,NA,NA,NA,NA,NA,NA,TRUE,5,1.6347,700.0764,703.0726,0,38,38,38,1,28,32,NA,NA,NA,NA,NA,1,39,"likert"
"8ACA60070AC94E9AA3C66F555D375A0F",1,"0198f781-4c7a-7753-a49d-230694c7a4b2","0198f768-e4d2-711c-944b-6f03c09216de","2025-08-29_15h26.46.458",NA,NA,706.4364,706.4364,706.4364,706.786,NA,NA,NA,NA,NA,NA,NA,TRUE,5,1.9805,703.423,706.4363,0,39,39,63,1,50,40,NA,NA,NA,NA,NA,1,40,"likert"
"8ACA60070AC94E9AA3C66F555D375A0F",1,"0198f781-4c7a-7753-a49d-230694c7a4b2","0198f768-e4d2-711c-944b-6f03c09216de","2025-08-29_15h26.46.458",NA,NA,709.7837,709.7838,709.7838,710.133,NA,NA,NA,NA,NA,NA,NA,TRUE,5,1.0619,706.7871,709.7837,0,40,40,13,1,12,26,NA,NA,NA,NA,NA,1,41,"likert"
"8ACA60070AC94E9AA3C66F555D375A0F",1,"0198f781-4c7a-7753-a49d-230694c7a4b2","0198f768-e4d2-711c-944b-6f03c09216de","2025-08-29_15h26.46.458",NA,NA,713.1304,713.1305,713.1305,713.4802,NA,NA,NA,NA,NA,NA,NA,TRUE,5,1.5788,710.1343,713.1304,0,41,41,87,1,100,39,NA,NA,NA,NA,NA,1,42,"likert"
"8ACA60070AC94E9AA3C66F555D375A0F",1,"0198f781-4c7a-7753-a49d-230694c7a4b2","0198f768-e4d2-711c-944b-6f03c09216de","2025-08-29_15h26.46.458",NA,NA,716.4779,716.4779,716.4779,716.8276,NA,NA,NA,NA,NA,NA,NA,TRUE,5,0.9302,713.4812,716.4778,0,42,42,5,1,7,35,NA,NA,NA,NA,NA,1,43,"likert"
"8ACA60070AC94E9AA3C66F555D375A0F",1,"0198f781-4c7a-7753-a49d-230694c7a4b2","0198f768-e4d2-711c-944b-6f03c09216de","2025-08-29_15h26.46.458",NA,NA,719.8251,719.8251,719.8251,720.1745,NA,NA,NA,NA,NA,NA,NA,TRUE,5,0.7458,716.8289,719.825,0,43,43,23,1,14,39,NA,NA,NA,NA,NA,1,44,"likert"
"8ACA60070AC94E9AA3C66F555D375A0F",1,"0198f781-4c7a-7753-a49d-230694c7a4b2","0198f768-e4d2-711c-944b-6f03c09216de","2025-08-29_15h26.46.458",NA,NA,723.1723,723.1724,723.1724,723.5217,NA,NA,NA,NA,NA,NA,NA,TRUE,5,1.3365,720.1756,723.1722,0,44,44,104,1,200,35,NA,NA,NA,NA,NA,1,45,"likert"
"8ACA60070AC94E9AA3C66F555D375A0F",1,"0198f781-4c7a-7753-a49d-230694c7a4b2","0198f768-e4d2-711c-944b-6f03c09216de","2025-08-29_15h26.46.458",NA,NA,726.5358,726.5358,726.5358,726.8853,NA,NA,NA,NA,NA,NA,NA,TRUE,5,0.7378,723.5225,726.5358,0,45,45,64,1,50,46,NA,NA,NA,NA,NA,1,46,"likert"
"8ACA60070AC94E9AA3C66F555D375A0F",1,"0198f781-4c7a-7753-a49d-230694c7a4b2","0198f768-e4d2-711c-944b-6f03c09216de","2025-08-29_15h26.46.458",NA,NA,729.8832,729.8832,729.8832,730.2327,NA,NA,NA,NA,NA,NA,NA,TRUE,5,0.9044,726.8858,729.8829,0,46,46,62,1,50,35,NA,NA,NA,NA,NA,1,47,"likert"
"8ACA60070AC94E9AA3C66F555D375A0F",1,"0198f781-4c7a-7753-a49d-230694c7a4b2","0198f768-e4d2-711c-944b-6f03c09216de","2025-08-29_15h26.46.458",NA,NA,733.2304,733.2305,733.2305,733.5794,NA,NA,NA,NA,NA,NA,NA,TRUE,5,1.9014,730.2338,733.2302,0,47,47,106,1,200,47,NA,NA,NA,NA,NA,1,48,"likert"
"8ACA60070AC94E9AA3C66F555D375A0F",1,"0198f781-4c7a-7753-a49d-230694c7a4b2","0198f768-e4d2-711c-944b-6f03c09216de","2025-08-29_15h26.46.458",NA,NA,736.5776,736.5776,736.5777,736.9268,NA,NA,NA,NA,NA,NA,NA,TRUE,5,1.298,733.58,736.5775,0,48,48,32,1,25,31,NA,NA,NA,NA,NA,1,49,"likert"
"8ACA60070AC94E9AA3C66F555D375A0F",1,"0198f781-4c7a-7753-a49d-230694c7a4b2","0198f768-e4d2-711c-944b-6f03c09216de","2025-08-29_15h26.46.458",NA,NA,739.9243,739.9243,739.9243,740.2742,NA,NA,NA,NA,NA,NA,NA,TRUE,5,1.3373,736.9274,739.9242,0,49,49,41,1,28,46,NA,NA,NA,NA,NA,1,50,"likert"
"8ACA60070AC94E9AA3C66F555D375A0F",1,"0198f781-4c7a-7753-a49d-230694c7a4b2","0198f768-e4d2-711c-944b-6f03c09216de","2025-08-29_15h26.46.458",NA,NA,743.2717,743.2718,743.2718,743.6213,NA,NA,NA,NA,NA,NA,NA,TRUE,5,2.4614,740.2753,743.2717,0,50,50,65,1,50,54,NA,NA,NA,NA,NA,1,51,"likert"
"8ACA60070AC94E9AA3C66F555D375A0F",1,"0198f781-4c7a-7753-a49d-230694c7a4b2","0198f768-e4d2-711c-944b-6f03c09216de","2025-08-29_15h26.46.458",NA,NA,746.6357,746.6357,746.6358,746.9848,NA,NA,NA,NA,NA,NA,NA,TRUE,5,1.4529,743.6226,746.6355,0,51,51,37,1,28,28,NA,NA,NA,NA,NA,1,52,"likert"
"8ACA60070AC94E9AA3C66F555D375A0F",1,"0198f781-4c7a-7753-a49d-230694c7a4b2","0198f768-e4d2-711c-944b-6f03c09216de","2025-08-29_15h26.46.458",NA,NA,749.9827,749.9827,749.9828,750.3322,NA,NA,NA,NA,NA,NA,NA,TRUE,5,1.3717,746.9861,749.9826,0,52,52,19,1,14,26,NA,NA,NA,NA,NA,1,53,"likert"
"8ACA60070AC94E9AA3C66F555D375A0F",1,"0198f781-4c7a-7753-a49d-230694c7a4b2","0198f768-e4d2-711c-944b-6f03c09216de","2025-08-29_15h26.46.458",NA,NA,753.3297,753.3297,753.3298,753.6795,NA,NA,NA,NA,NA,NA,NA,TRUE,5,1.7626,750.3333,753.3296,0,53,53,15,1,12,31,NA,NA,NA,NA,NA,1,54,"likert"
"8ACA60070AC94E9AA3C66F555D375A0F",1,"0198f781-4c7a-7753-a49d-230694c7a4b2","0198f768-e4d2-711c-944b-6f03c09216de","2025-08-29_15h26.46.458",NA,NA,756.6769,756.6769,756.6769,757.0268,NA,NA,NA,NA,NA,NA,NA,TRUE,5,2.019,753.6805,756.6768,0,54,54,4,1,7,32,NA,NA,NA,NA,NA,1,55,"likert"
"8ACA60070AC94E9AA3C66F555D375A0F",1,"0198f781-4c7a-7753-a49d-230694c7a4b2","0198f768-e4d2-711c-944b-6f03c09216de","2025-08-29_15h26.46.458",NA,NA,760.0242,760.0242,760.0242,760.374,NA,NA,NA,NA,NA,NA,NA,TRUE,5,1.2485,757.028,760.024,0,55,55,52,1,40,47,NA,NA,NA,NA,NA,1,56,"likert"
"8ACA60070AC94E9AA3C66F555D375A0F",1,"0198f781-4c7a-7753-a49d-230694c7a4b2","0198f768-e4d2-711c-944b-6f03c09216de","2025-08-29_15h26.46.458",NA,NA,763.3711,763.3713,763.3713,763.7375,NA,NA,NA,NA,NA,NA,NA,TRUE,5,1.7973,760.3751,763.3711,0,56,56,78,1,95,31,NA,NA,NA,NA,NA,1,57,"likert"
"8ACA60070AC94E9AA3C66F555D375A0F",1,"0198f781-4c7a-7753-a49d-230694c7a4b2","0198f768-e4d2-711c-944b-6f03c09216de","2025-08-29_15h26.46.458",NA,NA,766.7352,766.7353,766.7353,767.0848,NA,NA,NA,NA,NA,NA,NA,TRUE,5,1.1191,763.7385,766.7351,0,57,57,85,1,100,31,NA,NA,NA,NA,NA,1,58,"likert"
"8ACA60070AC94E9AA3C66F555D375A0F",1,"0198f781-4c7a-7753-a49d-230694c7a4b2","0198f768-e4d2-711c-944b-6f03c09216de","2025-08-29_15h26.46.458",NA,NA,770.0822,770.0822,770.0823,770.4319,NA,NA,NA,NA,NA,NA,NA,TRUE,5,1.4826,767.086,770.0821,0,58,58,72,1,90,26,NA,NA,NA,NA,NA,1,59,"likert"
"8ACA60070AC94E9AA3C66F555D375A0F",1,"0198f781-4c7a-7753-a49d-230694c7a4b2","0198f768-e4d2-711c-944b-6f03c09216de","2025-08-29_15h26.46.458",NA,NA,773.4296,773.4296,773.4296,773.7789,NA,NA,NA,NA,NA,NA,NA,TRUE,5,1.1064,770.4333,773.4295,0,59,59,36,1,28,26,NA,NA,NA,NA,NA,1,60,"likert"
"8ACA60070AC94E9AA3C66F555D375A0F",1,"0198f781-4c7a-7753-a49d-230694c7a4b2","0198f768-e4d2-711c-944b-6f03c09216de","2025-08-29_15h26.46.458",NA,NA,776.7765,776.7765,776.7765,777.1263,NA,NA,NA,NA,NA,NA,NA,TRUE,5,0.7351,773.7798,776.7763,0,60,60,103,1,200,28,NA,NA,NA,NA,NA,1,61,"likert"
"8ACA60070AC94E9AA3C66F555D375A0F",1,"0198f781-4c7a-7753-a49d-230694c7a4b2","0198f768-e4d2-711c-944b-6f03c09216de","2025-08-29_15h26.46.458",NA,NA,780.124,780.124,780.124,780.4732,NA,NA,NA,NA,NA,NA,NA,TRUE,5,1.2626,777.1274,780.1239,0,61,61,33,1,25,33,NA,NA,NA,NA,NA,1,62,"likert"
"8ACA60070AC94E9AA3C66F555D375A0F",1,"0198f781-4c7a-7753-a49d-230694c7a4b2","0198f768-e4d2-711c-944b-6f03c09216de","2025-08-29_15h26.46.458",NA,NA,783.4874,783.4875,783.4875,783.8372,NA,NA,NA,NA,NA,NA,NA,TRUE,5,1.454,780.474,783.4873,0,62,62,95,1,150,54,NA,NA,NA,NA,NA,1,63,"likert"
"8ACA60070AC94E9AA3C66F555D375A0F",1,"0198f781-4c7a-7753-a49d-230694c7a4b2","0198f768-e4d2-711c-944b-6f03c09216de","2025-08-29_15h26.46.458",NA,NA,786.8344,786.8345,786.8346,787.1841,NA,NA,NA,NA,NA,NA,NA,TRUE,5,0.9946,783.8384,786.8343,0,63,63,22,1,14,35,NA,NA,NA,NA,NA,1,64,"likert"
"8ACA60070AC94E9AA3C66F555D375A0F",1,"0198f781-4c7a-7753-a49d-230694c7a4b2","0198f768-e4d2-711c-944b-6f03c09216de","2025-08-29_15h26.46.458",NA,NA,790.182,790.182,790.182,790.5315,NA,NA,NA,NA,NA,NA,NA,TRUE,5,1.5958,787.1851,790.1819,0,64,64,20,1,14,28,NA,NA,NA,NA,NA,1,65,"likert"
"8ACA60070AC94E9AA3C66F555D375A0F",1,"0198f781-4c7a-7753-a49d-230694c7a4b2","0198f768-e4d2-711c-944b-6f03c09216de","2025-08-29_15h26.46.458",NA,NA,793.5285,793.5285,793.5285,793.8786,NA,NA,NA,NA,NA,NA,NA,TRUE,5,1.1964,790.5325,793.5285,0,65,65,25,1,21,27,NA,NA,NA,NA,NA,1,66,"likert"
"8ACA60070AC94E9AA3C66F555D375A0F",1,"0198f781-4c7a-7753-a49d-230694c7a4b2","0198f768-e4d2-711c-944b-6f03c09216de","2025-08-29_15h26.46.458",NA,NA,796.8761,796.8762,796.8762,797.2259,NA,NA,NA,NA,NA,NA,NA,TRUE,5,1.501,793.8797,796.8761,0,66,66,96,1,180,27,NA,NA,NA,NA,NA,1,67,"likert"
"8ACA60070AC94E9AA3C66F555D375A0F",1,"0198f781-4c7a-7753-a49d-230694c7a4b2","0198f768-e4d2-711c-944b-6f03c09216de","2025-08-29_15h26.46.458",NA,NA,800.2235,800.2235,800.2235,800.5728,NA,NA,NA,NA,NA,NA,NA,TRUE,5,0.7815,797.2271,800.2233,0,67,67,39,1,28,35,NA,NA,NA,NA,NA,1,68,"likert"
"8ACA60070AC94E9AA3C66F555D375A0F",1,"0198f781-4c7a-7753-a49d-230694c7a4b2","0198f768-e4d2-711c-944b-6f03c09216de","2025-08-29_15h26.46.458",NA,NA,803.5871,803.5871,803.5871,803.9368,NA,NA,NA,NA,NA,NA,NA,TRUE,5,1.2341,800.5742,803.587,0,68,68,94,1,150,47,NA,NA,NA,NA,NA,1,69,"likert"
"8ACA60070AC94E9AA3C66F555D375A0F",1,"0198f781-4c7a-7753-a49d-230694c7a4b2","0198f768-e4d2-711c-944b-6f03c09216de","2025-08-29_15h26.46.458",NA,NA,806.9344,806.9345,806.9345,807.2837,NA,NA,NA,NA,NA,NA,NA,TRUE,5,1.0447,803.9378,806.9343,0,69,69,48,1,40,27,NA,NA,NA,NA,NA,1,70,"likert"
"8ACA60070AC94E9AA3C66F555D375A0F",1,"0198f781-4c7a-7753-a49d-230694c7a4b2","0198f768-e4d2-711c-944b-6f03c09216de","2025-08-29_15h26.46.458",NA,NA,810.2814,810.2814,810.2814,810.6309,NA,NA,NA,NA,NA,NA,NA,TRUE,5,0.9293,807.2846,810.2812,0,70,70,92,1,150,35,NA,NA,NA,NA,NA,1,71,"likert"
"8ACA60070AC94E9AA3C66F555D375A0F",1,"0198f781-4c7a-7753-a49d-230694c7a4b2","0198f768-e4d2-711c-944b-6f03c09216de","2025-08-29_15h26.46.458",NA,NA,813.6294,813.6294,813.6294,813.9779,NA,NA,NA,NA,NA,NA,NA,TRUE,5,0.4532,810.6321,813.6286,0,71,71,90,1,150,31,NA,NA,NA,NA,NA,1,72,"likert"
"8ACA60070AC94E9AA3C66F555D375A0F",1,"0198f781-4c7a-7753-a49d-230694c7a4b2","0198f768-e4d2-711c-944b-6f03c09216de","2025-08-29_15h26.46.458",NA,NA,816.9759,816.976,816.976,817.3253,NA,NA,NA,NA,NA,NA,NA,TRUE,5,0.6,813.9789,816.9759,0,72,72,2,1,7,28,NA,NA,NA,NA,NA,1,73,"likert"
"8ACA60070AC94E9AA3C66F555D375A0F",1,"0198f781-4c7a-7753-a49d-230694c7a4b2","0198f768-e4d2-711c-944b-6f03c09216de","2025-08-29_15h26.46.458",NA,NA,820.3231,820.3231,820.3231,820.6726,NA,NA,NA,NA,NA,NA,NA,TRUE,5,1.1126,817.3263,820.3228,0,73,73,102,1,200,26,NA,NA,NA,NA,NA,1,74,"likert"
"8ACA60070AC94E9AA3C66F555D375A0F",1,"0198f781-4c7a-7753-a49d-230694c7a4b2","0198f768-e4d2-711c-944b-6f03c09216de","2025-08-29_15h26.46.458",NA,NA,823.6869,823.6869,823.6869,824.0363,NA,NA,NA,NA,NA,NA,NA,TRUE,5,0.9518,820.6739,823.6867,0,74,74,79,1,95,33,NA,NA,NA,NA,NA,1,75,"likert"
"8ACA60070AC94E9AA3C66F555D375A0F",1,"0198f781-4c7a-7753-a49d-230694c7a4b2","0198f768-e4d2-711c-944b-6f03c09216de","2025-08-29_15h26.46.458",NA,NA,827.0336,827.0336,827.0336,827.3835,NA,NA,NA,NA,NA,NA,NA,TRUE,5,1.1617,824.0374,827.0335,0,75,75,55,1,45,29,NA,NA,NA,NA,NA,1,76,"likert"
"8ACA60070AC94E9AA3C66F555D375A0F",1,"0198f781-4c7a-7753-a49d-230694c7a4b2","0198f768-e4d2-711c-944b-6f03c09216de","2025-08-29_15h26.46.458",NA,NA,830.3808,830.3808,830.3808,830.7306,NA,NA,NA,NA,NA,NA,NA,TRUE,5,1.2697,827.3844,830.3807,0,76,76,21,1,14,32,NA,NA,NA,NA,NA,1,77,"likert"
"8ACA60070AC94E9AA3C66F555D375A0F",1,"0198f781-4c7a-7753-a49d-230694c7a4b2","0198f768-e4d2-711c-944b-6f03c09216de","2025-08-29_15h26.46.458",NA,NA,833.7283,833.7283,833.7283,834.0778,NA,NA,NA,NA,NA,NA,NA,TRUE,5,1.4646,830.7319,833.7283,0,77,77,18,1,14,25,NA,NA,NA,NA,NA,1,78,"likert"
"8ACA60070AC94E9AA3C66F555D375A0F",1,"0198f781-4c7a-7753-a49d-230694c7a4b2","0198f768-e4d2-711c-944b-6f03c09216de","2025-08-29_15h26.46.458",NA,NA,837.0755,837.0755,837.0755,837.425,NA,NA,NA,NA,NA,NA,NA,TRUE,5,0.8624,834.0792,837.0753,0,78,78,56,1,45,31,NA,NA,NA,NA,NA,1,79,"likert"
"8ACA60070AC94E9AA3C66F555D375A0F",1,"0198f781-4c7a-7753-a49d-230694c7a4b2","0198f768-e4d2-711c-944b-6f03c09216de","2025-08-29_15h26.46.458",NA,NA,840.4227,840.4228,840.4228,840.7721,NA,NA,NA,NA,NA,NA,NA,TRUE,5,1.0885,837.4261,840.4226,0,79,79,59,1,45,46,NA,NA,NA,NA,NA,1,80,"likert"
"8ACA60070AC94E9AA3C66F555D375A0F",1,"0198f781-4c7a-7753-a49d-230694c7a4b2","0198f768-e4d2-711c-944b-6f03c09216de","2025-08-29_15h26.46.458",NA,NA,843.7864,843.7864,843.7865,844.136,NA,NA,NA,NA,NA,NA,NA,TRUE,5,1.0324,840.7731,843.7863,0,80,80,9,1,10,29,NA,NA,NA,NA,NA,1,81,"likert"
"8ACA60070AC94E9AA3C66F555D375A0F",1,"0198f781-4c7a-7753-a49d-230694c7a4b2","0198f768-e4d2-711c-944b-6f03c09216de","2025-08-29_15h26.46.458",NA,NA,847.1336,847.1337,847.1337,847.4832,NA,NA,NA,NA,NA,NA,NA,TRUE,5,0.8679,844.1372,847.1336,0,81,81,67,1,60,33,NA,NA,NA,NA,NA,1,82,"likert"
"8ACA60070AC94E9AA3C66F555D375A0F",1,"0198f781-4c7a-7753-a49d-230694c7a4b2","0198f768-e4d2-711c-944b-6f03c09216de","2025-08-29_15h26.46.458",NA,NA,850.4807,850.4807,850.4807,850.8303,NA,NA,NA,NA,NA,NA,NA,TRUE,5,1.0449,847.4844,850.4805,0,82,82,88,1,100,46,NA,NA,NA,NA,NA,1,83,"likert"
"8ACA60070AC94E9AA3C66F555D375A0F",1,"0198f781-4c7a-7753-a49d-230694c7a4b2","0198f768-e4d2-711c-944b-6f03c09216de","2025-08-29_15h26.46.458",NA,NA,853.8277,853.8278,853.8278,854.1775,NA,NA,NA,NA,NA,NA,NA,TRUE,5,1.0341,850.8311,853.8276,0,83,83,107,1,200,54,NA,NA,NA,NA,NA,1,84,"likert"
"8ACA60070AC94E9AA3C66F555D375A0F",1,"0198f781-4c7a-7753-a49d-230694c7a4b2","0198f768-e4d2-711c-944b-6f03c09216de","2025-08-29_15h26.46.458",NA,NA,857.1752,857.1752,857.1752,857.5243,NA,NA,NA,NA,NA,NA,NA,TRUE,5,0.9979,854.1786,857.175,0,84,84,42,1,30,26,NA,NA,NA,NA,NA,1,85,"likert"
"8ACA60070AC94E9AA3C66F555D375A0F",1,"0198f781-4c7a-7753-a49d-230694c7a4b2","0198f768-e4d2-711c-944b-6f03c09216de","2025-08-29_15h26.46.458",NA,NA,860.5216,860.5216,860.5216,860.8716,NA,NA,NA,NA,NA,NA,NA,TRUE,5,0.8482,857.5253,860.5215,0,85,85,31,1,25,29,NA,NA,NA,NA,NA,1,86,"likert"
"8ACA60070AC94E9AA3C66F555D375A0F",1,"0198f781-4c7a-7753-a49d-230694c7a4b2","0198f768-e4d2-711c-944b-6f03c09216de","2025-08-29_15h26.46.458",NA,NA,863.8859,863.8859,863.8859,864.2355,NA,NA,NA,NA,NA,NA,NA,TRUE,5,1.5448,860.8727,863.8858,0,86,86,28,1,21,32,NA,NA,NA,NA,NA,1,87,"likert"
"8ACA60070AC94E9AA3C66F555D375A0F",1,"0198f781-4c7a-7753-a49d-230694c7a4b2","0198f768-e4d2-711c-944b-6f03c09216de","2025-08-29_15h26.46.458",NA,NA,867.2333,867.2333,867.2333,867.5826,NA,NA,NA,NA,NA,NA,NA,TRUE,5,1.0716,864.2367,867.2332,0,87,87,83,1,95,54,NA,NA,NA,NA,NA,1,88,"likert"
"8ACA60070AC94E9AA3C66F555D375A0F",1,"0198f781-4c7a-7753-a49d-230694c7a4b2","0198f768-e4d2-711c-944b-6f03c09216de","2025-08-29_15h26.46.458",NA,NA,870.5803,870.5803,870.5803,870.9297,NA,NA,NA,NA,NA,NA,NA,TRUE,5,0.9655,867.5839,870.5802,0,88,88,54,1,45,26,NA,NA,NA,NA,NA,1,89,"likert"
"8ACA60070AC94E9AA3C66F555D375A0F",1,"0198f781-4c7a-7753-a49d-230694c7a4b2","0198f768-e4d2-711c-944b-6f03c09216de","2025-08-29_15h26.46.458",NA,NA,873.9275,873.9275,873.9275,874.277,NA,NA,NA,NA,NA,NA,NA,TRUE,5,0.7382,870.931,873.9273,0,89,89,58,1,45,40,NA,NA,NA,NA,NA,1,90,"likert"
"8ACA60070AC94E9AA3C66F555D375A0F",1,"0198f781-4c7a-7753-a49d-230694c7a4b2","0198f768-e4d2-711c-944b-6f03c09216de","2025-08-29_15h26.46.458",NA,NA,877.2743,877.2743,877.2743,877.6241,NA,NA,NA,NA,NA,NA,NA,TRUE,5,0.7861,874.2782,877.2742,0,90,90,60,1,50,27,NA,NA,NA,NA,NA,1,91,"likert"
"8ACA60070AC94E9AA3C66F555D375A0F",1,"0198f781-4c7a-7753-a49d-230694c7a4b2","0198f768-e4d2-711c-944b-6f03c09216de","2025-08-29_15h26.46.458",NA,NA,880.6217,880.6218,880.6218,880.971,NA,NA,NA,NA,NA,NA,NA,TRUE,5,1.0999,877.6251,880.6216,0,91,91,40,1,28,39,NA,NA,NA,NA,NA,1,92,"likert"
"8ACA60070AC94E9AA3C66F555D375A0F",1,"0198f781-4c7a-7753-a49d-230694c7a4b2","0198f768-e4d2-711c-944b-6f03c09216de","2025-08-29_15h26.46.458",NA,NA,883.9857,883.9857,883.9857,884.335,NA,NA,NA,NA,NA,NA,NA,TRUE,5,0.9325,880.9723,883.9855,0,92,92,34,1,25,35,NA,NA,NA,NA,NA,1,93,"likert"
"8ACA60070AC94E9AA3C66F555D375A0F",1,"0198f781-4c7a-7753-a49d-230694c7a4b2","0198f768-e4d2-711c-944b-6f03c09216de","2025-08-29_15h26.46.458",NA,NA,887.3327,887.3327,887.3328,887.6823,NA,NA,NA,NA,NA,NA,NA,TRUE,5,0.9539,884.3361,887.3326,0,93,93,26,1,21,29,NA,NA,NA,NA,NA,1,94,"likert"
"8ACA60070AC94E9AA3C66F555D375A0F",1,"0198f781-4c7a-7753-a49d-230694c7a4b2","0198f768-e4d2-711c-944b-6f03c09216de","2025-08-29_15h26.46.458",NA,NA,890.6799,890.68,890.68,891.0295,NA,NA,NA,NA,NA,NA,NA,TRUE,5,1.2617,887.6835,890.6799,0,94,94,12,1,12,25,NA,NA,NA,NA,NA,1,95,"likert"
"8ACA60070AC94E9AA3C66F555D375A0F",1,"0198f781-4c7a-7753-a49d-230694c7a4b2","0198f768-e4d2-711c-944b-6f03c09216de","2025-08-29_15h26.46.458",NA,NA,894.027,894.027,894.027,894.3767,NA,NA,NA,NA,NA,NA,NA,TRUE,5,1.5192,891.0305,894.0269,0,95,95,51,1,40,40,NA,NA,NA,NA,NA,1,96,"likert"
"8ACA60070AC94E9AA3C66F555D375A0F",1,"0198f781-4c7a-7753-a49d-230694c7a4b2","0198f768-e4d2-711c-944b-6f03c09216de","2025-08-29_15h26.46.458",NA,NA,897.3742,897.3742,897.3742,897.7237,NA,NA,NA,NA,NA,NA,NA,TRUE,5,1.3131,894.378,897.374,0,96,96,14,1,12,28,NA,NA,NA,NA,NA,1,97,"likert"
"8ACA60070AC94E9AA3C66F555D375A0F",1,"0198f781-4c7a-7753-a49d-230694c7a4b2","0198f768-e4d2-711c-944b-6f03c09216de","2025-08-29_15h26.46.458",NA,NA,900.7213,900.7213,900.7213,901.0876,NA,NA,NA,NA,NA,NA,NA,TRUE,5,1.3805,897.7247,900.7211,0,97,97,49,1,40,33,NA,NA,NA,NA,NA,1,98,"likert"
"8ACA60070AC94E9AA3C66F555D375A0F",1,"0198f781-4c7a-7753-a49d-230694c7a4b2","0198f768-e4d2-711c-944b-6f03c09216de","2025-08-29_15h26.46.458",NA,NA,904.0854,904.0854,904.0854,904.4347,NA,NA,NA,NA,NA,NA,NA,TRUE,5,1.0715,901.0887,904.0852,0,98,98,35,1,25,46,NA,NA,NA,NA,NA,1,99,"likert"
"8ACA60070AC94E9AA3C66F555D375A0F",1,"0198f781-4c7a-7753-a49d-230694c7a4b2","0198f768-e4d2-711c-944b-6f03c09216de","2025-08-29_15h26.46.458",NA,NA,907.4324,907.4324,907.4324,907.7819,NA,NA,NA,NA,NA,NA,NA,TRUE,5,1.0334,904.4357,907.4323,0,99,99,76,1,90,46,NA,NA,NA,NA,NA,1,100,"likert"
"8ACA60070AC94E9AA3C66F555D375A0F",1,"0198f781-4c7a-7753-a49d-230694c7a4b2","0198f768-e4d2-711c-944b-6f03c09216de","2025-08-29_15h26.46.458",NA,NA,910.7796,910.7796,910.7797,911.1291,NA,NA,NA,NA,NA,NA,NA,TRUE,5,1.4173,907.7829,910.7794,0,100,100,3,1,7,30,NA,NA,NA,NA,NA,1,101,"likert"
"8ACA60070AC94E9AA3C66F555D375A0F",1,"0198f781-4c7a-7753-a49d-230694c7a4b2","0198f768-e4d2-711c-944b-6f03c09216de","2025-08-29_15h26.46.458",NA,NA,914.1268,914.1268,914.1268,914.4762,NA,NA,NA,NA,NA,NA,NA,TRUE,5,1.5545,911.1302,914.1266,0,101,101,84,1,100,26,NA,NA,NA,NA,NA,1,102,"likert"
"8ACA60070AC94E9AA3C66F555D375A0F",1,"0198f781-4c7a-7753-a49d-230694c7a4b2","0198f768-e4d2-711c-944b-6f03c09216de","2025-08-29_15h26.46.458",NA,NA,917.4739,917.4739,917.4739,917.8232,NA,NA,NA,NA,NA,NA,NA,TRUE,5,1.7137,914.4777,917.4738,0,102,102,68,1,60,35,NA,NA,NA,NA,NA,1,103,"likert"
"8ACA60070AC94E9AA3C66F555D375A0F",1,"0198f781-4c7a-7753-a49d-230694c7a4b2","0198f768-e4d2-711c-944b-6f03c09216de","2025-08-29_15h26.46.458",NA,NA,920.8374,920.8375,920.8375,921.1871,NA,NA,NA,NA,NA,NA,NA,TRUE,5,2.0061,917.8244,920.8373,0,103,103,44,1,30,29,NA,NA,NA,NA,NA,1,104,"likert"
"8ACA60070AC94E9AA3C66F555D375A0F",1,"0198f781-4c7a-7753-a49d-230694c7a4b2","0198f768-e4d2-711c-944b-6f03c09216de","2025-08-29_15h26.46.458",NA,NA,924.1848,924.1848,924.1848,924.5343,NA,NA,NA,NA,NA,NA,NA,TRUE,5,1.894,921.1884,924.1847,0,104,104,29,1,21,38,NA,NA,NA,NA,NA,1,105,"likert"
"8ACA60070AC94E9AA3C66F555D375A0F",1,"0198f781-4c7a-7753-a49d-230694c7a4b2","0198f768-e4d2-711c-944b-6f03c09216de","2025-08-29_15h26.46.458",NA,NA,927.5319,927.5319,927.5319,927.8813,NA,NA,NA,NA,NA,NA,NA,TRUE,5,1.1472,924.5354,927.5318,0,105,105,7,1,10,26,NA,NA,NA,NA,NA,1,106,"likert"
"8ACA60070AC94E9AA3C66F555D375A0F",1,"0198f781-4c7a-7753-a49d-230694c7a4b2","0198f768-e4d2-711c-944b-6f03c09216de","2025-08-29_15h26.46.458",NA,NA,930.8791,930.8791,930.8791,931.2285,NA,NA,NA,NA,NA,NA,NA,TRUE,5,1.1981,927.8824,930.8789,0,106,106,6,1,10,25,NA,NA,NA,NA,NA,1,107,"likert"
"8ACA60070AC94E9AA3C66F555D375A0F",1,"0198f781-4c7a-7753-a49d-230694c7a4b2","0198f768-e4d2-711c-944b-6f03c09216de","2025-08-29_15h26.46.458",NA,NA,934.2263,934.2263,934.2263,934.5759,NA,NA,NA,NA,NA,NA,NA,TRUE,5,0.8377,931.2295,934.2262,0,107,107,24,1,21,26,NA,NA,NA,NA,NA,1,108,"likert"
"8ACA60070AC94E9AA3C66F555D375A0F",1,"0198f781-4c7a-7753-a49d-230694c7a4b2","0198f768-e4d2-711c-944b-6f03c09216de","2025-08-29_15h26.46.458",NA,NA,942.0529,942.3025,942.3025,942.4023,NA,NA,NA,NA,NA,NA,NA,FALSE,NA,NA,939.0656,942.0528,NA,NA,NA,NA,NA,30,38,0,0,0,47,1,2,1,"likert"
"8ACA60070AC94E9AA3C66F555D375A0F",1,"0198f781-4c7a-7753-a49d-230694c7a4b2","0198f768-e4d2-711c-944b-6f03c09216de","2025-08-29_15h26.46.458",NA,NA,945.4002,945.4002,945.4003,945.7496,NA,NA,NA,NA,NA,NA,NA,TRUE,5,2.2612,942.4035,945.4001,NA,NA,NA,NA,NA,180,46,0,1,1,100,1,2,2,"likert"
"8ACA60070AC94E9AA3C66F555D375A0F",1,"0198f781-4c7a-7753-a49d-230694c7a4b2","0198f768-e4d2-711c-944b-6f03c09216de","2025-08-29_15h26.46.458",NA,NA,948.7472,948.7472,948.7473,949.0968,NA,NA,NA,NA,NA,NA,NA,TRUE,5,1.5973,945.7507,948.7471,NA,NA,NA,NA,NA,45,35,0,2,2,57,1,2,3,"likert"
"8ACA60070AC94E9AA3C66F555D375A0F",1,"0198f781-4c7a-7753-a49d-230694c7a4b2","0198f768-e4d2-711c-944b-6f03c09216de","2025-08-29_15h26.46.458",NA,NA,952.0941,952.0941,952.0941,952.4439,NA,NA,NA,NA,NA,NA,NA,TRUE,5,1.1894,949.0979,952.094,NA,NA,NA,NA,NA,12,35,0,3,3,17,1,2,4,"likert"
"8ACA60070AC94E9AA3C66F555D375A0F",1,"0198f781-4c7a-7753-a49d-230694c7a4b2","0198f768-e4d2-711c-944b-6f03c09216de","2025-08-29_15h26.46.458",NA,NA,955.4581,955.4581,955.4581,955.8078,NA,NA,NA,NA,NA,NA,NA,TRUE,5,1.5823,952.4451,955.4579,NA,NA,NA,NA,NA,12,33,0,4,4,16,1,2,5,"likert"
"8ACA60070AC94E9AA3C66F555D375A0F",1,"0198f781-4c7a-7753-a49d-230694c7a4b2","0198f768-e4d2-711c-944b-6f03c09216de","2025-08-29_15h26.46.458",NA,NA,958.8053,958.8053,958.8053,959.1548,NA,NA,NA,NA,NA,NA,NA,TRUE,5,1.2276,955.8092,958.8052,NA,NA,NA,NA,NA,30,32,0,5,5,46,1,2,6,"likert"
"8ACA60070AC94E9AA3C66F555D375A0F",1,"0198f781-4c7a-7753-a49d-230694c7a4b2","0198f768-e4d2-711c-944b-6f03c09216de","2025-08-29_15h26.46.458",NA,NA,962.1523,962.1523,962.1523,962.5018,NA,NA,NA,NA,NA,NA,NA,TRUE,5,1.4285,959.1559,962.1522,NA,NA,NA,NA,NA,40,40,0,6,6,51,1,2,7,"likert"
"8ACA60070AC94E9AA3C66F555D375A0F",1,"0198f781-4c7a-7753-a49d-230694c7a4b2","0198f768-e4d2-711c-944b-6f03c09216de","2025-08-29_15h26.46.458",NA,NA,965.4996,965.4996,965.4996,965.8491,NA,NA,NA,NA,NA,NA,NA,TRUE,5,1.2645,962.5025,965.4994,NA,NA,NA,NA,NA,150,31,0,7,7,90,1,2,8,"likert"
"8ACA60070AC94E9AA3C66F555D375A0F",1,"0198f781-4c7a-7753-a49d-230694c7a4b2","0198f768-e4d2-711c-944b-6f03c09216de","2025-08-29_15h26.46.458",NA,NA,968.8469,968.8469,968.8469,969.1963,NA,NA,NA,NA,NA,NA,NA,TRUE,5,1.3453,965.8503,968.8468,NA,NA,NA,NA,NA,7,35,0,8,8,5,1,2,9,"likert"
"8ACA60070AC94E9AA3C66F555D375A0F",1,"0198f781-4c7a-7753-a49d-230694c7a4b2","0198f768-e4d2-711c-944b-6f03c09216de","2025-08-29_15h26.46.458",NA,NA,972.194,972.194,972.1941,972.5432,NA,NA,NA,NA,NA,NA,NA,TRUE,5,1.2123,969.1973,972.1939,NA,NA,NA,NA,NA,30,30,0,9,9,45,1,2,10,"likert"
"8ACA60070AC94E9AA3C66F555D375A0F",1,"0198f781-4c7a-7753-a49d-230694c7a4b2","0198f768-e4d2-711c-944b-6f03c09216de","2025-08-29_15h26.46.458",NA,NA,975.5576,975.5577,975.5577,975.9072,NA,NA,NA,NA,NA,NA,NA,TRUE,5,1.2957,972.5442,975.5576,NA,NA,NA,NA,NA,50,35,0,10,10,62,1,2,11,"likert"
"8ACA60070AC94E9AA3C66F555D375A0F",1,"0198f781-4c7a-7753-a49d-230694c7a4b2","0198f768-e4d2-711c-944b-6f03c09216de","2025-08-29_15h26.46.458",NA,NA,978.9047,978.9047,978.9047,979.2546,NA,NA,NA,NA,NA,NA,NA,TRUE,5,1.0042,975.908,978.9046,NA,NA,NA,NA,NA,30,27,0,11,11,43,1,2,12,"likert"
"8ACA60070AC94E9AA3C66F555D375A0F",1,"0198f781-4c7a-7753-a49d-230694c7a4b2","0198f768-e4d2-711c-944b-6f03c09216de","2025-08-29_15h26.46.458",NA,NA,982.2521,982.2522,982.2522,982.6016,NA,NA,NA,NA,NA,NA,NA,TRUE,5,1.4287,979.2556,982.2521,NA,NA,NA,NA,NA,90,26,0,12,12,72,1,2,13,"likert"
"8ACA60070AC94E9AA3C66F555D375A0F",1,"0198f781-4c7a-7753-a49d-230694c7a4b2","0198f768-e4d2-711c-944b-6f03c09216de","2025-08-29_15h26.46.458",NA,NA,985.5993,985.5993,985.5993,985.9487,NA,NA,NA,NA,NA,NA,NA,TRUE,5,0.7192,982.6029,985.5991,NA,NA,NA,NA,NA,60,47,0,13,13,70,1,2,14,"likert"
"8ACA60070AC94E9AA3C66F555D375A0F",1,"0198f781-4c7a-7753-a49d-230694c7a4b2","0198f768-e4d2-711c-944b-6f03c09216de","2025-08-29_15h26.46.458",NA,NA,988.9465,988.9465,988.9465,989.2958,NA,NA,NA,NA,NA,NA,NA,TRUE,5,0.9448,985.9498,988.9464,NA,NA,NA,NA,NA,90,54,0,14,14,77,1,2,15,"likert"
"8ACA60070AC94E9AA3C66F555D375A0F",1,"0198f781-4c7a-7753-a49d-230694c7a4b2","0198f768-e4d2-711c-944b-6f03c09216de","2025-08-29_15h26.46.458",NA,NA,992.2934,992.2934,992.2934,992.6432,NA,NA,NA,NA,NA,NA,NA,TRUE,5,0.8882,989.2965,992.2933,NA,NA,NA,NA,NA,95,40,0,15,15,81,1,2,16,"likert"
"8ACA60070AC94E9AA3C66F555D375A0F",1,"0198f781-4c7a-7753-a49d-230694c7a4b2","0198f768-e4d2-711c-944b-6f03c09216de","2025-08-29_15h26.46.458",NA,NA,995.6573,995.6573,995.6573,996.0069,NA,NA,NA,NA,NA,NA,NA,TRUE,5,1.1135,992.6443,995.6572,NA,NA,NA,NA,NA,12,26,0,16,16,13,1,2,17,"likert"
"8ACA60070AC94E9AA3C66F555D375A0F",1,"0198f781-4c7a-7753-a49d-230694c7a4b2","0198f768-e4d2-711c-944b-6f03c09216de","2025-08-29_15h26.46.458",NA,NA,999.0045,999.0046,999.0046,999.3541,NA,NA,NA,NA,NA,NA,NA,TRUE,5,0.6276,996.0079,999.0044,NA,NA,NA,NA,NA,25,35,0,17,17,34,1,2,18,"likert"
"8ACA60070AC94E9AA3C66F555D375A0F",1,"0198f781-4c7a-7753-a49d-230694c7a4b2","0198f768-e4d2-711c-944b-6f03c09216de","2025-08-29_15h26.46.458",NA,NA,1002.3517,1002.3518,1002.3518,1002.7009,NA,NA,NA,NA,NA,NA,NA,TRUE,5,0.9366,999.3552,1002.3517,NA,NA,NA,NA,NA,21,30,0,18,18,27,1,2,19,"likert"
"8ACA60070AC94E9AA3C66F555D375A0F",1,"0198f781-4c7a-7753-a49d-230694c7a4b2","0198f768-e4d2-711c-944b-6f03c09216de","2025-08-29_15h26.46.458",NA,NA,1005.6987,1005.6988,1005.6988,1006.0484,NA,NA,NA,NA,NA,NA,NA,TRUE,5,1.2541,1002.7017,1005.6986,NA,NA,NA,NA,NA,21,26,0,19,19,24,1,2,20,"likert"
"8ACA60070AC94E9AA3C66F555D375A0F",1,"0198f781-4c7a-7753-a49d-230694c7a4b2","0198f768-e4d2-711c-944b-6f03c09216de","2025-08-29_15h26.46.458",NA,NA,1009.046,1009.0461,1009.0461,1009.3954,NA,NA,NA,NA,NA,NA,NA,TRUE,5,1.2284,1006.0495,1009.046,NA,NA,NA,NA,NA,100,39,0,20,20,87,1,2,21,"likert"
"8ACA60070AC94E9AA3C66F555D375A0F",1,"0198f781-4c7a-7753-a49d-230694c7a4b2","0198f768-e4d2-711c-944b-6f03c09216de","2025-08-29_15h26.46.458",NA,NA,1012.3933,1012.3933,1012.3933,1012.7594,NA,NA,NA,NA,NA,NA,NA,TRUE,5,1.2062,1009.3963,1012.3931,NA,NA,NA,NA,NA,150,47,0,21,21,94,1,2,22,"likert"
"8ACA60070AC94E9AA3C66F555D375A0F",1,"0198f781-4c7a-7753-a49d-230694c7a4b2","0198f768-e4d2-711c-944b-6f03c09216de","2025-08-29_15h26.46.458",NA,NA,1015.7571,1015.7572,1015.7572,1016.1065,NA,NA,NA,NA,NA,NA,NA,TRUE,5,0.7992,1012.7606,1015.757,NA,NA,NA,NA,NA,45,29,0,22,22,55,1,2,23,"likert"
"8ACA60070AC94E9AA3C66F555D375A0F",1,"0198f781-4c7a-7753-a49d-230694c7a4b2","0198f768-e4d2-711c-944b-6f03c09216de","2025-08-29_15h26.46.458",NA,NA,1019.1041,1019.1042,1019.1042,1019.4535,NA,NA,NA,NA,NA,NA,NA,TRUE,5,0.9611,1016.1075,1019.104,NA,NA,NA,NA,NA,10,26,0,23,23,7,1,2,24,"likert"
"8ACA60070AC94E9AA3C66F555D375A0F",1,"0198f781-4c7a-7753-a49d-230694c7a4b2","0198f768-e4d2-711c-944b-6f03c09216de","2025-08-29_15h26.46.458",NA,NA,1022.4512,1022.4512,1022.4512,1022.8006,NA,NA,NA,NA,NA,NA,NA,TRUE,5,1.568,1019.4544,1022.4511,NA,NA,NA,NA,NA,95,47,0,24,24,82,1,2,25,"likert"
"8ACA60070AC94E9AA3C66F555D375A0F",1,"0198f781-4c7a-7753-a49d-230694c7a4b2","0198f768-e4d2-711c-944b-6f03c09216de","2025-08-29_15h26.46.458",NA,NA,1025.7985,1025.7985,1025.7985,1026.1474,NA,NA,NA,NA,NA,NA,NA,TRUE,5,1.3465,1022.8014,1025.7983,NA,NA,NA,NA,NA,21,27,0,25,25,25,1,2,26,"likert"
"8ACA60070AC94E9AA3C66F555D375A0F",1,"0198f781-4c7a-7753-a49d-230694c7a4b2","0198f768-e4d2-711c-944b-6f03c09216de","2025-08-29_15h26.46.458",NA,NA,1029.1456,1029.1456,1029.1456,1029.4948,NA,NA,NA,NA,NA,NA,NA,TRUE,5,1.1853,1026.1481,1029.1455,NA,NA,NA,NA,NA,95,33,0,26,26,79,1,2,27,"likert"
"8ACA60070AC94E9AA3C66F555D375A0F",1,"0198f781-4c7a-7753-a49d-230694c7a4b2","0198f768-e4d2-711c-944b-6f03c09216de","2025-08-29_15h26.46.458",NA,NA,1032.5092,1032.5092,1032.5092,1032.859,NA,NA,NA,NA,NA,NA,NA,TRUE,5,0.963,1029.4957,1032.5091,NA,NA,NA,NA,NA,28,26,0,27,27,36,1,2,28,"likert"
"8ACA60070AC94E9AA3C66F555D375A0F",1,"0198f781-4c7a-7753-a49d-230694c7a4b2","0198f768-e4d2-711c-944b-6f03c09216de","2025-08-29_15h26.46.458",NA,NA,1035.8566,1035.8567,1035.8567,1036.2061,NA,NA,NA,NA,NA,NA,NA,TRUE,5,0.7947,1032.8603,1035.8565,NA,NA,NA,NA,NA,90,30,0,28,28,73,1,2,29,"likert"
"8ACA60070AC94E9AA3C66F555D375A0F",1,"0198f781-4c7a-7753-a49d-230694c7a4b2","0198f768-e4d2-711c-944b-6f03c09216de","2025-08-29_15h26.46.458",NA,NA,1039.2037,1039.2038,1039.2038,1039.5533,NA,NA,NA,NA,NA,NA,NA,TRUE,5,0.7273,1036.2073,1039.2036,NA,NA,NA,NA,NA,40,27,0,29,29,48,1,2,30,"likert"
"8ACA60070AC94E9AA3C66F555D375A0F",1,"0198f781-4c7a-7753-a49d-230694c7a4b2","0198f768-e4d2-711c-944b-6f03c09216de","2025-08-29_15h26.46.458",NA,NA,1042.5507,1042.5507,1042.5507,1042.8999,NA,NA,NA,NA,NA,NA,NA,TRUE,5,1.3501,1039.5544,1042.5505,NA,NA,NA,NA,NA,150,40,0,30,30,93,1,2,31,"likert"
"8ACA60070AC94E9AA3C66F555D375A0F",1,"0198f781-4c7a-7753-a49d-230694c7a4b2","0198f768-e4d2-711c-944b-6f03c09216de","2025-08-29_15h26.46.458",NA,NA,1045.8981,1045.8981,1045.8981,1046.2475,NA,NA,NA,NA,NA,NA,NA,TRUE,5,1.1642,1042.9003,1045.898,NA,NA,NA,NA,NA,50,27,0,31,31,60,1,2,32,"likert"
"8ACA60070AC94E9AA3C66F555D375A0F",1,"0198f781-4c7a-7753-a49d-230694c7a4b2","0198f768-e4d2-711c-944b-6f03c09216de","2025-08-29_15h26.46.458",NA,NA,1049.2452,1049.2452,1049.2452,1049.5946,NA,NA,NA,NA,NA,NA,NA,TRUE,5,0.9957,1046.2486,1049.245,NA,NA,NA,NA,NA,60,33,0,32,32,67,1,2,33,"likert"
"8ACA60070AC94E9AA3C66F555D375A0F",1,"0198f781-4c7a-7753-a49d-230694c7a4b2","0198f768-e4d2-711c-944b-6f03c09216de","2025-08-29_15h26.46.458",NA,NA,1052.609,1052.6091,1052.6091,1052.9587,NA,NA,NA,NA,NA,NA,NA,TRUE,5,0.8135,1049.5957,1052.6088,NA,NA,NA,NA,NA,12,28,0,33,33,14,1,2,34,"likert"
"8ACA60070AC94E9AA3C66F555D375A0F",1,"0198f781-4c7a-7753-a49d-230694c7a4b2","0198f768-e4d2-711c-944b-6f03c09216de","2025-08-29_15h26.46.458",NA,NA,1055.9563,1055.9563,1055.9563,1056.3057,NA,NA,NA,NA,NA,NA,NA,TRUE,5,0.9774,1052.9598,1055.9561,NA,NA,NA,NA,NA,21,38,0,34,34,29,1,2,35,"likert"
"8ACA60070AC94E9AA3C66F555D375A0F",1,"0198f781-4c7a-7753-a49d-230694c7a4b2","0198f768-e4d2-711c-944b-6f03c09216de","2025-08-29_15h26.46.458",NA,NA,1059.3033,1059.3034,1059.3034,1059.653,NA,NA,NA,NA,NA,NA,NA,TRUE,5,1.2496,1056.307,1059.3032,NA,NA,NA,NA,NA,25,29,0,35,35,31,1,2,36,"likert"
"8ACA60070AC94E9AA3C66F555D375A0F",1,"0198f781-4c7a-7753-a49d-230694c7a4b2","0198f768-e4d2-711c-944b-6f03c09216de","2025-08-29_15h26.46.458",NA,NA,1062.6504,1062.6504,1062.6504,1063,NA,NA,NA,NA,NA,NA,NA,TRUE,5,1.2872,1059.6542,1062.6503,NA,NA,NA,NA,NA,28,32,0,36,36,38,1,2,37,"likert"
"8ACA60070AC94E9AA3C66F555D375A0F",1,"0198f781-4c7a-7753-a49d-230694c7a4b2","0198f768-e4d2-711c-944b-6f03c09216de","2025-08-29_15h26.46.458",NA,NA,1065.9975,1065.9975,1065.9975,1066.3471,NA,NA,NA,NA,NA,NA,NA,TRUE,5,1.3117,1063.001,1065.9974,NA,NA,NA,NA,NA,200,39,0,37,37,105,1,2,38,"likert"
"8ACA60070AC94E9AA3C66F555D375A0F",1,"0198f781-4c7a-7753-a49d-230694c7a4b2","0198f768-e4d2-711c-944b-6f03c09216de","2025-08-29_15h26.46.458",NA,NA,1069.3448,1069.3448,1069.3448,1069.6943,NA,NA,NA,NA,NA,NA,NA,TRUE,5,0.8636,1066.3481,1069.3447,NA,NA,NA,NA,NA,40,33,0,38,38,49,1,2,39,"likert"
"8ACA60070AC94E9AA3C66F555D375A0F",1,"0198f781-4c7a-7753-a49d-230694c7a4b2","0198f768-e4d2-711c-944b-6f03c09216de","2025-08-29_15h26.46.458",NA,NA,1072.7085,1072.7085,1072.7085,1073.0582,NA,NA,NA,NA,NA,NA,NA,TRUE,5,0.9142,1069.6954,1072.7084,NA,NA,NA,NA,NA,40,47,0,39,39,52,1,2,40,"likert"
"8ACA60070AC94E9AA3C66F555D375A0F",1,"0198f781-4c7a-7753-a49d-230694c7a4b2","0198f768-e4d2-711c-944b-6f03c09216de","2025-08-29_15h26.46.458",NA,NA,1076.0565,1076.0566,1076.0566,1076.4054,NA,NA,NA,NA,NA,NA,NA,TRUE,5,0.8774,1073.0595,1076.0564,NA,NA,NA,NA,NA,45,46,0,40,40,59,1,2,41,"likert"
"8ACA60070AC94E9AA3C66F555D375A0F",1,"0198f781-4c7a-7753-a49d-230694c7a4b2","0198f768-e4d2-711c-944b-6f03c09216de","2025-08-29_15h26.46.458",NA,NA,1079.403,1079.403,1079.403,1079.7525,NA,NA,NA,NA,NA,NA,NA,TRUE,5,2.516,1076.4067,1079.4028,NA,NA,NA,NA,NA,50,30,0,41,41,61,1,2,42,"likert"
"8ACA60070AC94E9AA3C66F555D375A0F",1,"0198f781-4c7a-7753-a49d-230694c7a4b2","0198f768-e4d2-711c-944b-6f03c09216de","2025-08-29_15h26.46.458",NA,NA,1082.7501,1082.7502,1082.7502,1083.0995,NA,NA,NA,NA,NA,NA,NA,TRUE,5,1.9804,1079.7536,1082.7499,NA,NA,NA,NA,NA,12,25,0,42,42,12,1,2,43,"likert"
"8ACA60070AC94E9AA3C66F555D375A0F",1,"0198f781-4c7a-7753-a49d-230694c7a4b2","0198f768-e4d2-711c-944b-6f03c09216de","2025-08-29_15h26.46.458",NA,NA,1086.0965,1086.0965,1086.0965,1086.4464,NA,NA,NA,NA,NA,NA,NA,TRUE,5,2.1137,1083.1005,1086.0965,NA,NA,NA,NA,NA,14,28,0,43,43,20,1,2,44,"likert"
"8ACA60070AC94E9AA3C66F555D375A0F",1,"0198f781-4c7a-7753-a49d-230694c7a4b2","0198f768-e4d2-711c-944b-6f03c09216de","2025-08-29_15h26.46.458",NA,NA,1089.4444,1089.4444,1089.4444,1089.7936,NA,NA,NA,NA,NA,NA,NA,TRUE,5,1.9629,1086.4472,1089.4442,NA,NA,NA,NA,NA,200,54,0,44,44,107,1,2,45,"likert"
"8ACA60070AC94E9AA3C66F555D375A0F",1,"0198f781-4c7a-7753-a49d-230694c7a4b2","0198f768-e4d2-711c-944b-6f03c09216de","2025-08-29_15h26.46.458",NA,NA,1092.8082,1092.8082,1092.8082,1093.1576,NA,NA,NA,NA,NA,NA,NA,TRUE,5,1.4963,1089.7946,1092.8081,NA,NA,NA,NA,NA,100,38,0,45,45,86,1,2,46,"likert"
"8ACA60070AC94E9AA3C66F555D375A0F",1,"0198f781-4c7a-7753-a49d-230694c7a4b2","0198f768-e4d2-711c-944b-6f03c09216de","2025-08-29_15h26.46.458",NA,NA,1096.1551,1096.1552,1096.1552,1096.5044,NA,NA,NA,NA,NA,NA,NA,TRUE,5,1.5144,1093.1583,1096.1551,NA,NA,NA,NA,NA,14,26,0,46,46,19,1,2,47,"likert"
"8ACA60070AC94E9AA3C66F555D375A0F",1,"0198f781-4c7a-7753-a49d-230694c7a4b2","0198f768-e4d2-711c-944b-6f03c09216de","2025-08-29_15h26.46.458",NA,NA,1099.5022,1099.5022,1099.5022,1099.8519,NA,NA,NA,NA,NA,NA,NA,TRUE,5,1.4964,1096.5051,1099.5021,NA,NA,NA,NA,NA,28,39,0,47,47,40,1,2,48,"likert"
"8ACA60070AC94E9AA3C66F555D375A0F",1,"0198f781-4c7a-7753-a49d-230694c7a4b2","0198f768-e4d2-711c-944b-6f03c09216de","2025-08-29_15h26.46.458",NA,NA,1102.8497,1102.8497,1102.8497,1103.1992,NA,NA,NA,NA,NA,NA,NA,TRUE,5,1.2619,1099.8529,1102.8495,NA,NA,NA,NA,NA,10,25,0,48,48,6,1,2,49,"likert"
"8ACA60070AC94E9AA3C66F555D375A0F",1,"0198f781-4c7a-7753-a49d-230694c7a4b2","0198f768-e4d2-711c-944b-6f03c09216de","2025-08-29_15h26.46.458",NA,NA,1106.1967,1106.1967,1106.1967,1106.5464,NA,NA,NA,NA,NA,NA,NA,TRUE,5,1.5129,1103.2005,1106.1966,NA,NA,NA,NA,NA,200,47,0,49,49,106,1,2,50,"likert"
"8ACA60070AC94E9AA3C66F555D375A0F",1,"0198f781-4c7a-7753-a49d-230694c7a4b2","0198f768-e4d2-711c-944b-6f03c09216de","2025-08-29_15h26.46.458",NA,NA,1109.544,1109.544,1109.544,1109.8932,NA,NA,NA,NA,NA,NA,NA,TRUE,5,0.7469,1106.5474,1109.5439,NA,NA,NA,NA,NA,90,46,0,50,50,76,1,2,51,"likert"
"8ACA60070AC94E9AA3C66F555D375A0F",1,"0198f781-4c7a-7753-a49d-230694c7a4b2","0198f768-e4d2-711c-944b-6f03c09216de","2025-08-29_15h26.46.458",NA,NA,1112.908,1113.1575,1113.1575,1113.2572,NA,NA,NA,NA,NA,NA,NA,FALSE,NA,NA,1109.8943,1112.9079,NA,NA,NA,NA,NA,60,54,0,51,51,71,1,2,52,"likert"
"8ACA60070AC94E9AA3C66F555D375A0F",1,"0198f781-4c7a-7753-a49d-230694c7a4b2","0198f768-e4d2-711c-944b-6f03c09216de","2025-08-29_15h26.46.458",NA,NA,1116.2549,1116.2549,1116.2549,1116.6044,NA,NA,NA,NA,NA,NA,NA,TRUE,5,2.3937,1113.2583,1116.2548,NA,NA,NA,NA,NA,50,54,0,52,52,65,1,2,53,"likert"
"8ACA60070AC94E9AA3C66F555D375A0F",1,"0198f781-4c7a-7753-a49d-230694c7a4b2","0198f768-e4d2-711c-944b-6f03c09216de","2025-08-29_15h26.46.458",NA,NA,1119.6021,1119.6021,1119.6021,1119.9516,NA,NA,NA,NA,NA,NA,NA,TRUE,5,1.0633,1116.6055,1119.602,NA,NA,NA,NA,NA,150,33,0,53,53,91,1,2,54,"likert"
"8ACA60070AC94E9AA3C66F555D375A0F",1,"0198f781-4c7a-7753-a49d-230694c7a4b2","0198f768-e4d2-711c-944b-6f03c09216de","2025-08-29_15h26.46.458",NA,NA,1122.9493,1122.9493,1122.9493,1123.2987,NA,NA,NA,NA,NA,NA,NA,TRUE,5,1.3306,1119.9526,1122.9492,NA,NA,NA,NA,NA,90,40,0,54,54,75,1,2,55,"likert"
"8ACA60070AC94E9AA3C66F555D375A0F",1,"0198f781-4c7a-7753-a49d-230694c7a4b2","0198f768-e4d2-711c-944b-6f03c09216de","2025-08-29_15h26.46.458",NA,NA,1126.2965,1126.2965,1126.2965,1126.646,NA,NA,NA,NA,NA,NA,NA,TRUE,5,1.0128,1123.2997,1126.2964,NA,NA,NA,NA,NA,30,26,0,55,55,42,1,2,56,"likert"
"8ACA60070AC94E9AA3C66F555D375A0F",1,"0198f781-4c7a-7753-a49d-230694c7a4b2","0198f768-e4d2-711c-944b-6f03c09216de","2025-08-29_15h26.46.458",NA,NA,1129.6434,1129.6435,1129.6435,1129.993,NA,NA,NA,NA,NA,NA,NA,TRUE,5,1.1634,1126.6474,1129.6433,NA,NA,NA,NA,NA,25,46,0,56,56,35,1,2,57,"likert"
"8ACA60070AC94E9AA3C66F555D375A0F",1,"0198f781-4c7a-7753-a49d-230694c7a4b2","0198f768-e4d2-711c-944b-6f03c09216de","2025-08-29_15h26.46.458",NA,NA,1133.0072,1133.0073,1133.0073,1133.3569,NA,NA,NA,NA,NA,NA,NA,TRUE,5,1.4688,1129.9943,1133.0071,NA,NA,NA,NA,NA,60,40,0,57,57,69,1,2,58,"likert"
"8ACA60070AC94E9AA3C66F555D375A0F",1,"0198f781-4c7a-7753-a49d-230694c7a4b2","0198f768-e4d2-711c-944b-6f03c09216de","2025-08-29_15h26.46.458",NA,NA,1136.3546,1136.3546,1136.3546,1136.704,NA,NA,NA,NA,NA,NA,NA,TRUE,5,0.5116,1133.3578,1136.3545,NA,NA,NA,NA,NA,40,54,0,58,58,53,1,2,59,"likert"
"8ACA60070AC94E9AA3C66F555D375A0F",1,"0198f781-4c7a-7753-a49d-230694c7a4b2","0198f768-e4d2-711c-944b-6f03c09216de","2025-08-29_15h26.46.458",NA,NA,1139.7017,1139.7018,1139.7018,1140.0512,NA,NA,NA,NA,NA,NA,NA,TRUE,5,1.3987,1136.705,1139.7016,NA,NA,NA,NA,NA,60,35,0,59,59,68,1,2,60,"likert"
"8ACA60070AC94E9AA3C66F555D375A0F",1,"0198f781-4c7a-7753-a49d-230694c7a4b2","0198f768-e4d2-711c-944b-6f03c09216de","2025-08-29_15h26.46.458",NA,NA,1143.0489,1143.0489,1143.0489,1143.3984,NA,NA,NA,NA,NA,NA,NA,TRUE,5,1.6287,1140.0522,1143.0488,NA,NA,NA,NA,NA,25,31,0,60,60,32,1,2,61,"likert"
"8ACA60070AC94E9AA3C66F555D375A0F",1,"0198f781-4c7a-7753-a49d-230694c7a4b2","0198f768-e4d2-711c-944b-6f03c09216de","2025-08-29_15h26.46.458",NA,NA,1146.3955,1146.3955,1146.3955,1146.7456,NA,NA,NA,NA,NA,NA,NA,TRUE,5,1.1864,1143.3996,1146.3954,NA,NA,NA,NA,NA,21,29,0,61,61,26,1,2,62,"likert"
"8ACA60070AC94E9AA3C66F555D375A0F",1,"0198f781-4c7a-7753-a49d-230694c7a4b2","0198f768-e4d2-711c-944b-6f03c09216de","2025-08-29_15h26.46.458",NA,NA,1149.7432,1149.7432,1149.7432,1150.1092,NA,NA,NA,NA,NA,NA,NA,TRUE,5,0.9469,1146.7466,1149.743,NA,NA,NA,NA,NA,14,32,0,62,62,21,1,2,63,"likert"
"8ACA60070AC94E9AA3C66F555D375A0F",1,"0198f781-4c7a-7753-a49d-230694c7a4b2","0198f768-e4d2-711c-944b-6f03c09216de","2025-08-29_15h26.46.458",NA,NA,1153.1067,1153.1067,1153.1067,1153.4564,NA,NA,NA,NA,NA,NA,NA,TRUE,5,0.8804,1150.1103,1153.1065,NA,NA,NA,NA,NA,25,27,0,63,63,30,1,2,64,"likert"
"8ACA60070AC94E9AA3C66F555D375A0F",1,"0198f781-4c7a-7753-a49d-230694c7a4b2","0198f768-e4d2-711c-944b-6f03c09216de","2025-08-29_15h26.46.458",NA,NA,1156.4542,1156.4542,1156.4542,1156.8032,NA,NA,NA,NA,NA,NA,NA,TRUE,5,0.7777,1153.4576,1156.454,NA,NA,NA,NA,NA,10,30,0,64,64,10,1,2,65,"likert"
"8ACA60070AC94E9AA3C66F555D375A0F",1,"0198f781-4c7a-7753-a49d-230694c7a4b2","0198f768-e4d2-711c-944b-6f03c09216de","2025-08-29_15h26.46.458",NA,NA,1159.8011,1159.8011,1159.8011,1160.1506,NA,NA,NA,NA,NA,NA,NA,TRUE,5,1.0796,1156.8043,1159.801,NA,NA,NA,NA,NA,100,54,0,65,65,89,1,2,66,"likert"
"8ACA60070AC94E9AA3C66F555D375A0F",1,"0198f781-4c7a-7753-a49d-230694c7a4b2","0198f768-e4d2-711c-944b-6f03c09216de","2025-08-29_15h26.46.458",NA,NA,1163.1483,1163.1483,1163.1483,1163.4977,NA,NA,NA,NA,NA,NA,NA,TRUE,5,1.3981,1160.1516,1163.1481,NA,NA,NA,NA,NA,50,46,0,66,66,64,1,2,67,"likert"
"8ACA60070AC94E9AA3C66F555D375A0F",1,"0198f781-4c7a-7753-a49d-230694c7a4b2","0198f768-e4d2-711c-944b-6f03c09216de","2025-08-29_15h26.46.458",NA,NA,1166.4953,1166.4953,1166.4953,1166.8451,NA,NA,NA,NA,NA,NA,NA,TRUE,3,2.7669,1163.4984,1166.4952,NA,NA,NA,NA,NA,14,39,0,67,67,23,1,2,68,"likert"
"8ACA60070AC94E9AA3C66F555D375A0F",1,"0198f781-4c7a-7753-a49d-230694c7a4b2","0198f768-e4d2-711c-944b-6f03c09216de","2025-08-29_15h26.46.458",NA,NA,1169.8589,1169.8589,1169.8589,1170.209,NA,NA,NA,NA,NA,NA,NA,TRUE,5,1.4912,1166.8462,1169.8588,NA,NA,NA,NA,NA,7,30,0,68,68,3,1,2,69,"likert"
"8ACA60070AC94E9AA3C66F555D375A0F",1,"0198f781-4c7a-7753-a49d-230694c7a4b2","0198f768-e4d2-711c-944b-6f03c09216de","2025-08-29_15h26.46.458",NA,NA,1173.2066,1173.2066,1173.2066,1173.5561,NA,NA,NA,NA,NA,NA,NA,TRUE,5,0.8683,1170.2101,1173.2065,NA,NA,NA,NA,NA,14,35,0,69,69,22,1,2,70,"likert"
"8ACA60070AC94E9AA3C66F555D375A0F",1,"0198f781-4c7a-7753-a49d-230694c7a4b2","0198f768-e4d2-711c-944b-6f03c09216de","2025-08-29_15h26.46.458",NA,NA,1176.5535,1176.5536,1176.5536,1176.9032,NA,NA,NA,NA,NA,NA,NA,TRUE,5,0.7954,1173.5572,1176.5534,NA,NA,NA,NA,NA,10,32,0,70,70,11,1,2,71,"likert"
"8ACA60070AC94E9AA3C66F555D375A0F",1,"0198f781-4c7a-7753-a49d-230694c7a4b2","0198f768-e4d2-711c-944b-6f03c09216de","2025-08-29_15h26.46.458",NA,NA,1179.9005,1179.9005,1179.9005,1180.25,NA,NA,NA,NA,NA,NA,NA,TRUE,5,0.9811,1176.9044,1179.9004,NA,NA,NA,NA,NA,45,31,0,71,71,56,1,2,72,"likert"
"8ACA60070AC94E9AA3C66F555D375A0F",1,"0198f781-4c7a-7753-a49d-230694c7a4b2","0198f768-e4d2-711c-944b-6f03c09216de","2025-08-29_15h26.46.458",NA,NA,1183.2481,1183.2481,1183.2481,1183.5976,NA,NA,NA,NA,NA,NA,NA,TRUE,5,0.6794,1180.2506,1183.2479,NA,NA,NA,NA,NA,150,35,0,72,72,92,1,2,73,"likert"
"8ACA60070AC94E9AA3C66F555D375A0F",1,"0198f781-4c7a-7753-a49d-230694c7a4b2","0198f768-e4d2-711c-944b-6f03c09216de","2025-08-29_15h26.46.458",NA,NA,1186.5951,1186.5951,1186.5952,1186.9447,NA,NA,NA,NA,NA,NA,NA,TRUE,5,1.3697,1183.5986,1186.595,NA,NA,NA,NA,NA,50,40,0,73,73,63,1,2,74,"likert"
"8ACA60070AC94E9AA3C66F555D375A0F",1,"0198f781-4c7a-7753-a49d-230694c7a4b2","0198f768-e4d2-711c-944b-6f03c09216de","2025-08-29_15h26.46.458",NA,NA,1189.9591,1189.9592,1189.9592,1190.3084,NA,NA,NA,NA,NA,NA,NA,TRUE,5,0.9027,1186.9458,1189.959,NA,NA,NA,NA,NA,100,26,0,74,74,84,1,2,75,"likert"
"8ACA60070AC94E9AA3C66F555D375A0F",1,"0198f781-4c7a-7753-a49d-230694c7a4b2","0198f768-e4d2-711c-944b-6f03c09216de","2025-08-29_15h26.46.458",NA,NA,1193.3061,1193.3061,1193.3061,1193.6558,NA,NA,NA,NA,NA,NA,NA,TRUE,5,0.9682,1190.3094,1193.3059,NA,NA,NA,NA,NA,21,32,0,75,75,28,1,2,76,"likert"
"8ACA60070AC94E9AA3C66F555D375A0F",1,"0198f781-4c7a-7753-a49d-230694c7a4b2","0198f768-e4d2-711c-944b-6f03c09216de","2025-08-29_15h26.46.458",NA,NA,1196.6533,1196.6533,1196.6533,1197.0028,NA,NA,NA,NA,NA,NA,NA,TRUE,5,1.0109,1193.6571,1196.6532,NA,NA,NA,NA,NA,180,27,0,76,76,96,1,2,77,"likert"
"8ACA60070AC94E9AA3C66F555D375A0F",1,"0198f781-4c7a-7753-a49d-230694c7a4b2","0198f768-e4d2-711c-944b-6f03c09216de","2025-08-29_15h26.46.458",NA,NA,1200.0003,1200.0003,1200.0003,1200.3498,NA,NA,NA,NA,NA,NA,NA,TRUE,5,0.6628,1197.0039,1200.0002,NA,NA,NA,NA,NA,28,46,0,77,77,41,1,2,78,"likert"
"8ACA60070AC94E9AA3C66F555D375A0F",1,"0198f781-4c7a-7753-a49d-230694c7a4b2","0198f768-e4d2-711c-944b-6f03c09216de","2025-08-29_15h26.46.458",NA,NA,1203.3475,1203.3475,1203.3475,1203.6968,NA,NA,NA,NA,NA,NA,NA,TRUE,5,1.0647,1200.3509,1203.3474,NA,NA,NA,NA,NA,200,35,0,78,78,104,1,2,79,"likert"
"8ACA60070AC94E9AA3C66F555D375A0F",1,"0198f781-4c7a-7753-a49d-230694c7a4b2","0198f768-e4d2-711c-944b-6f03c09216de","2025-08-29_15h26.46.458",NA,NA,1206.6948,1206.6948,1206.6948,1207.0441,NA,NA,NA,NA,NA,NA,NA,TRUE,5,1.3628,1203.6977,1206.6947,NA,NA,NA,NA,NA,95,54,0,79,79,83,1,2,80,"likert"
"8ACA60070AC94E9AA3C66F555D375A0F",1,"0198f781-4c7a-7753-a49d-230694c7a4b2","0198f768-e4d2-711c-944b-6f03c09216de","2025-08-29_15h26.46.458",NA,NA,1210.0585,1210.0586,1210.0586,1210.4079,NA,NA,NA,NA,NA,NA,NA,TRUE,5,1.3308,1207.045,1210.0585,NA,NA,NA,NA,NA,28,28,0,80,80,37,1,2,81,"likert"
"8ACA60070AC94E9AA3C66F555D375A0F",1,"0198f781-4c7a-7753-a49d-230694c7a4b2","0198f768-e4d2-711c-944b-6f03c09216de","2025-08-29_15h26.46.458",NA,NA,1213.4055,1213.4056,1213.4056,1213.7554,NA,NA,NA,NA,NA,NA,NA,TRUE,5,0.8398,1210.4083,1213.4054,NA,NA,NA,NA,NA,10,27,0,81,81,8,1,2,82,"likert"
"8ACA60070AC94E9AA3C66F555D375A0F",1,"0198f781-4c7a-7753-a49d-230694c7a4b2","0198f768-e4d2-711c-944b-6f03c09216de","2025-08-29_15h26.46.458",NA,NA,1216.7529,1216.753,1216.753,1217.1022,NA,NA,NA,NA,NA,NA,NA,TRUE,5,1.0979,1213.7564,1216.7528,NA,NA,NA,NA,NA,28,35,0,82,82,39,1,2,83,"likert"
"8ACA60070AC94E9AA3C66F555D375A0F",1,"0198f781-4c7a-7753-a49d-230694c7a4b2","0198f768-e4d2-711c-944b-6f03c09216de","2025-08-29_15h26.46.458",NA,NA,1220.1,1220.1,1220.1,1220.4496,NA,NA,NA,NA,NA,NA,NA,TRUE,5,1.0633,1217.1034,1220.0999,NA,NA,NA,NA,NA,45,40,0,83,83,58,1,2,84,"likert"
"8ACA60070AC94E9AA3C66F555D375A0F",1,"0198f781-4c7a-7753-a49d-230694c7a4b2","0198f768-e4d2-711c-944b-6f03c09216de","2025-08-29_15h26.46.458",NA,NA,1223.4472,1223.4472,1223.4472,1223.7967,NA,NA,NA,NA,NA,NA,NA,TRUE,5,0.7552,1220.4507,1223.447,NA,NA,NA,NA,NA,40,35,0,84,84,50,1,2,85,"likert"
"8ACA60070AC94E9AA3C66F555D375A0F",1,"0198f781-4c7a-7753-a49d-230694c7a4b2","0198f768-e4d2-711c-944b-6f03c09216de","2025-08-29_15h26.46.458",NA,NA,1226.7945,1226.7945,1226.7945,1227.1436,NA,NA,NA,NA,NA,NA,NA,TRUE,5,1.1791,1223.7977,1226.7944,NA,NA,NA,NA,NA,180,54,0,85,85,101,1,2,86,"likert"
"8ACA60070AC94E9AA3C66F555D375A0F",1,"0198f781-4c7a-7753-a49d-230694c7a4b2","0198f768-e4d2-711c-944b-6f03c09216de","2025-08-29_15h26.46.458",NA,NA,1230.1582,1230.1583,1230.1583,1230.5076,NA,NA,NA,NA,NA,NA,NA,TRUE,5,1.2692,1227.1446,1230.158,NA,NA,NA,NA,NA,100,31,0,86,86,85,1,2,87,"likert"
"8ACA60070AC94E9AA3C66F555D375A0F",1,"0198f781-4c7a-7753-a49d-230694c7a4b2","0198f768-e4d2-711c-944b-6f03c09216de","2025-08-29_15h26.46.458",NA,NA,1233.5056,1233.5056,1233.5057,1233.8544,NA,NA,NA,NA,NA,NA,NA,TRUE,5,1.315,1230.5087,1233.5055,NA,NA,NA,NA,NA,60,29,0,87,87,66,1,2,88,"likert"
"8ACA60070AC94E9AA3C66F555D375A0F",1,"0198f781-4c7a-7753-a49d-230694c7a4b2","0198f768-e4d2-711c-944b-6f03c09216de","2025-08-29_15h26.46.458",NA,NA,1236.8524,1236.8524,1236.8524,1237.2021,NA,NA,NA,NA,NA,NA,NA,TRUE,3,2.6962,1233.8553,1236.8523,NA,NA,NA,NA,NA,7,32,0,88,88,4,1,2,89,"likert"
"8ACA60070AC94E9AA3C66F555D375A0F",1,"0198f781-4c7a-7753-a49d-230694c7a4b2","0198f768-e4d2-711c-944b-6f03c09216de","2025-08-29_15h26.46.458",NA,NA,1240.1997,1240.1997,1240.1997,1240.5491,NA,NA,NA,NA,NA,NA,NA,TRUE,5,2.0103,1237.2033,1240.1995,NA,NA,NA,NA,NA,95,31,0,89,89,78,1,2,90,"likert"
"8ACA60070AC94E9AA3C66F555D375A0F",1,"0198f781-4c7a-7753-a49d-230694c7a4b2","0198f768-e4d2-711c-944b-6f03c09216de","2025-08-29_15h26.46.458",NA,NA,1243.5466,1243.5467,1243.5467,1243.8963,NA,NA,NA,NA,NA,NA,NA,TRUE,5,1.6656,1240.5501,1243.5465,NA,NA,NA,NA,NA,180,39,0,90,90,99,1,2,91,"likert"
"8ACA60070AC94E9AA3C66F555D375A0F",1,"0198f781-4c7a-7753-a49d-230694c7a4b2","0198f768-e4d2-711c-944b-6f03c09216de","2025-08-29_15h26.46.458",NA,NA,1246.8937,1246.8937,1246.8937,1247.2437,NA,NA,NA,NA,NA,NA,NA,TRUE,5,1.3151,1243.8976,1246.8936,NA,NA,NA,NA,NA,100,46,0,91,91,88,1,2,92,"likert"
"8ACA60070AC94E9AA3C66F555D375A0F",1,"0198f781-4c7a-7753-a49d-230694c7a4b2","0198f768-e4d2-711c-944b-6f03c09216de","2025-08-29_15h26.46.458",NA,NA,1250.2578,1250.2579,1250.2579,1250.6073,NA,NA,NA,NA,NA,NA,NA,TRUE,5,0.9728,1247.2449,1250.2577,NA,NA,NA,NA,NA,180,31,0,92,92,97,1,2,93,"likert"
"8ACA60070AC94E9AA3C66F555D375A0F",1,"0198f781-4c7a-7753-a49d-230694c7a4b2","0198f768-e4d2-711c-944b-6f03c09216de","2025-08-29_15h26.46.458",NA,NA,1253.6048,1253.6048,1253.6048,1253.9545,NA,NA,NA,NA,NA,NA,NA,TRUE,5,0.812,1250.6083,1253.6047,NA,NA,NA,NA,NA,25,33,0,93,93,33,1,2,94,"likert"
"8ACA60070AC94E9AA3C66F555D375A0F",1,"0198f781-4c7a-7753-a49d-230694c7a4b2","0198f768-e4d2-711c-944b-6f03c09216de","2025-08-29_15h26.46.458",NA,NA,1256.9522,1256.9522,1256.9522,1257.3014,NA,NA,NA,NA,NA,NA,NA,TRUE,5,0.8529,1253.9557,1256.952,NA,NA,NA,NA,NA,200,28,0,94,94,103,1,2,95,"likert"
"8ACA60070AC94E9AA3C66F555D375A0F",1,"0198f781-4c7a-7753-a49d-230694c7a4b2","0198f768-e4d2-711c-944b-6f03c09216de","2025-08-29_15h26.46.458",NA,NA,1260.2993,1260.2993,1260.2993,1260.6487,NA,NA,NA,NA,NA,NA,NA,TRUE,5,1.2139,1257.3025,1260.2991,NA,NA,NA,NA,NA,180,35,0,95,95,98,1,2,96,"likert"
"8ACA60070AC94E9AA3C66F555D375A0F",1,"0198f781-4c7a-7753-a49d-230694c7a4b2","0198f768-e4d2-711c-944b-6f03c09216de","2025-08-29_15h26.46.458",NA,NA,1263.6464,1263.6464,1263.6464,1263.9959,NA,NA,NA,NA,NA,NA,NA,TRUE,5,0.7997,1260.6498,1263.6463,NA,NA,NA,NA,NA,30,29,0,96,96,44,1,2,97,"likert"
"8ACA60070AC94E9AA3C66F555D375A0F",1,"0198f781-4c7a-7753-a49d-230694c7a4b2","0198f768-e4d2-711c-944b-6f03c09216de","2025-08-29_15h26.46.458",NA,NA,1266.9935,1266.9935,1266.9935,1267.343,NA,NA,NA,NA,NA,NA,NA,TRUE,5,1.0015,1263.9971,1266.9933,NA,NA,NA,NA,NA,10,29,0,97,97,9,1,2,98,"likert"
"8ACA60070AC94E9AA3C66F555D375A0F",1,"0198f781-4c7a-7753-a49d-230694c7a4b2","0198f768-e4d2-711c-944b-6f03c09216de","2025-08-29_15h26.46.458",NA,NA,1270.3572,1270.3573,1270.3573,1270.7066,NA,NA,NA,NA,NA,NA,NA,TRUE,5,1.6679,1267.3442,1270.3571,NA,NA,NA,NA,NA,12,31,0,98,98,15,1,2,99,"likert"
"8ACA60070AC94E9AA3C66F555D375A0F",1,"0198f781-4c7a-7753-a49d-230694c7a4b2","0198f768-e4d2-711c-944b-6f03c09216de","2025-08-29_15h26.46.458",NA,NA,1273.7045,1273.7045,1273.7045,1274.054,NA,NA,NA,NA,NA,NA,NA,TRUE,5,1.8784,1270.7078,1273.7044,NA,NA,NA,NA,NA,7,26,0,99,99,1,1,2,100,"likert"
"8ACA60070AC94E9AA3C66F555D375A0F",1,"0198f781-4c7a-7753-a49d-230694c7a4b2","0198f768-e4d2-711c-944b-6f03c09216de","2025-08-29_15h26.46.458",NA,NA,1277.0516,1277.0518,1277.0518,1277.4009,NA,NA,NA,NA,NA,NA,NA,TRUE,5,1.6126,1274.0549,1277.0516,NA,NA,NA,NA,NA,95,35,0,100,100,80,1,2,101,"likert"
"8ACA60070AC94E9AA3C66F555D375A0F",1,"0198f781-4c7a-7753-a49d-230694c7a4b2","0198f768-e4d2-711c-944b-6f03c09216de","2025-08-29_15h26.46.458",NA,NA,1280.3985,1280.3985,1280.3985,1280.7484,NA,NA,NA,NA,NA,NA,NA,TRUE,5,1.0035,1277.4016,1280.3985,NA,NA,NA,NA,NA,200,26,0,101,101,102,1,2,102,"likert"
"8ACA60070AC94E9AA3C66F555D375A0F",1,"0198f781-4c7a-7753-a49d-230694c7a4b2","0198f768-e4d2-711c-944b-6f03c09216de","2025-08-29_15h26.46.458",NA,NA,1283.7456,1283.7456,1283.7456,1284.0955,NA,NA,NA,NA,NA,NA,NA,TRUE,5,1.0526,1280.7496,1283.7455,NA,NA,NA,NA,NA,14,25,0,102,102,18,1,2,103,"likert"
"8ACA60070AC94E9AA3C66F555D375A0F",1,"0198f781-4c7a-7753-a49d-230694c7a4b2","0198f768-e4d2-711c-944b-6f03c09216de","2025-08-29_15h26.46.458",NA,NA,1287.0931,1287.0931,1287.0931,1287.4594,NA,NA,NA,NA,NA,NA,NA,TRUE,5,1.3958,1284.0966,1287.093,NA,NA,NA,NA,NA,90,33,0,103,103,74,1,2,104,"likert"
"8ACA60070AC94E9AA3C66F555D375A0F",1,"0198f781-4c7a-7753-a49d-230694c7a4b2","0198f768-e4d2-711c-944b-6f03c09216de","2025-08-29_15h26.46.458",NA,NA,1290.4571,1290.4571,1290.4572,1290.8064,NA,NA,NA,NA,NA,NA,NA,TRUE,5,1.495,1287.4602,1290.4569,NA,NA,NA,NA,NA,45,26,0,104,104,54,1,2,105,"likert"
"8ACA60070AC94E9AA3C66F555D375A0F",1,"0198f781-4c7a-7753-a49d-230694c7a4b2","0198f768-e4d2-711c-944b-6f03c09216de","2025-08-29_15h26.46.458",NA,NA,1293.8041,1293.8041,1293.8041,1294.1538,NA,NA,NA,NA,NA,NA,NA,TRUE,5,0.8446,1290.8076,1293.804,NA,NA,NA,NA,NA,7,25,0,105,105,0,1,2,106,"likert"
"8ACA60070AC94E9AA3C66F555D375A0F",1,"0198f781-4c7a-7753-a49d-230694c7a4b2","0198f768-e4d2-711c-944b-6f03c09216de","2025-08-29_15h26.46.458",NA,NA,1297.151,1297.151,1297.151,1297.5004,NA,NA,NA,NA,NA,NA,NA,TRUE,5,1.8797,1294.1548,1297.1509,NA,NA,NA,NA,NA,7,28,0,106,106,2,1,2,107,"likert"
"8ACA60070AC94E9AA3C66F555D375A0F",1,"0198f781-4c7a-7753-a49d-230694c7a4b2","0198f768-e4d2-711c-944b-6f03c09216de","2025-08-29_15h26.46.458",NA,NA,1300.4982,1300.4982,1300.4982,1300.8478,NA,NA,NA,NA,NA,NA,NA,TRUE,5,1.0829,1297.5009,1300.4981,NA,NA,NA,NA,NA,150,54,0,107,107,95,1,2,108,"likert"
