"participant","session","assignmentId","projectId","date","practiceTrial.started","practiceTrial.stopped","tooLate.started","tooLate.stopped","blank.started","blank.stopped","trials_pract.thisRepN","trials_pract.thisTrialN","trials_pract.thisN","trials_pract.thisIndex","trials_pract.ran","delay_pract","amount_pract","responseMade","key","rt","trial.started","trial.stopped","trials.thisRepN","trials.thisTrialN","trials.thisN","trials.thisIndex","trials.ran","delay","amount","trials_2.thisRepN","trials_2.thisTrialN","trials_2.thisN","trials_2.thisIndex","trials_2.ran","block","trial","taskType"
"8B0A7B870B0243B1A3B69EFF69BD06EC",1,"01990a98-282f-7613-87fc-abdde9d8780e","01990a84-c4ee-73c2-a87b-ff46a7d3dde5","2025-09-02_09h23.43.962",138.5072,141.4857,141.4869,141.7356,141.7359,141.8356,0,0,0,1,1,100,50,FALSE,NA,NA,NA,NA,NA,NA,NA,NA,NA,NA,NA,NA,NA,NA,NA,NA,0,1,"likert"
"8B0A7B870B0243B1A3B69EFF69BD06EC",1,"01990a98-282f-7613-87fc-abdde9d8780e","01990a84-c4ee-73c2-a87b-ff46a7d3dde5","2025-09-02_09h23.43.962",141.8395,144.8352,144.8354,144.8355,144.8355,145.1847,0,1,1,3,1,3,27,TRUE,1,1.7222,NA,NA,NA,NA,NA,NA,NA,NA,NA,NA,NA,NA,NA,NA,0,2,"likert"
"8B0A7B870B0243B1A3B69EFF69BD06EC",1,"01990a98-282f-7613-87fc-abdde9d8780e","01990a84-c4ee-73c2-a87b-ff46a7d3dde5","2025-09-02_09h23.43.962",145.1861,148.1847,148.1851,148.1851,148.1852,148.5343,0,2,2,0,1,7,30,TRUE,1,2.9721,NA,NA,NA,NA,NA,NA,NA,NA,NA,NA,NA,NA,NA,NA,0,3,"likert"
"8B0A7B870B0243B1A3B69EFF69BD06EC",1,"01990a98-282f-7613-87fc-abdde9d8780e","01990a84-c4ee-73c2-a87b-ff46a7d3dde5","2025-09-02_09h23.43.962",148.5368,151.5343,151.5346,151.7839,151.784,151.884,0,3,3,4,1,30,40,FALSE,NA,NA,NA,NA,NA,NA,NA,NA,NA,NA,NA,NA,NA,NA,NA,NA,0,4,"likert"
"8B0A7B870B0243B1A3B69EFF69BD06EC",1,"01990a98-282f-7613-87fc-abdde9d8780e","01990a84-c4ee-73c2-a87b-ff46a7d3dde5","2025-09-02_09h23.43.962",151.8857,154.8837,154.8841,154.8843,154.8843,155.2337,0,4,4,2,1,14,45,TRUE,5,2.8919,NA,NA,NA,NA,NA,NA,NA,NA,NA,NA,NA,NA,NA,NA,0,5,"likert"
"8B0A7B870B0243B1A3B69EFF69BD06EC",1,"01990a98-282f-7613-87fc-abdde9d8780e","01990a84-c4ee-73c2-a87b-ff46a7d3dde5","2025-09-02_09h23.43.962",NA,NA,338.0772,338.0773,338.0775,338.4269,NA,NA,NA,NA,NA,NA,NA,TRUE,5,0.821,335.1056,338.0766,0,0,0,34,1,25,35,NA,NA,NA,NA,NA,1,1,"likert"
"8B0A7B870B0243B1A3B69EFF69BD06EC",1,"01990a98-282f-7613-87fc-abdde9d8780e","01990a84-c4ee-73c2-a87b-ff46a7d3dde5","2025-09-02_09h23.43.962",NA,NA,341.4267,341.4268,341.4269,341.7762,NA,NA,NA,NA,NA,NA,NA,TRUE,5,1.1103,338.4286,341.4265,0,1,1,106,1,200,47,NA,NA,NA,NA,NA,1,2,"likert"
"8B0A7B870B0243B1A3B69EFF69BD06EC",1,"01990a98-282f-7613-87fc-abdde9d8780e","01990a84-c4ee-73c2-a87b-ff46a7d3dde5","2025-09-02_09h23.43.962",NA,NA,344.7763,344.7764,344.7764,345.1255,NA,NA,NA,NA,NA,NA,NA,TRUE,5,0.7315,341.7782,344.7762,0,2,2,48,1,40,27,NA,NA,NA,NA,NA,1,3,"likert"
"8B0A7B870B0243B1A3B69EFF69BD06EC",1,"01990a98-282f-7613-87fc-abdde9d8780e","01990a84-c4ee-73c2-a87b-ff46a7d3dde5","2025-09-02_09h23.43.962",NA,NA,348.1249,348.125,348.125,348.4751,NA,NA,NA,NA,NA,NA,NA,TRUE,5,0.9591,345.1282,348.1245,0,3,3,14,1,12,28,NA,NA,NA,NA,NA,1,4,"likert"
"8B0A7B870B0243B1A3B69EFF69BD06EC",1,"01990a98-282f-7613-87fc-abdde9d8780e","01990a84-c4ee-73c2-a87b-ff46a7d3dde5","2025-09-02_09h23.43.962",NA,NA,351.4751,351.4752,351.4752,351.825,NA,NA,NA,NA,NA,NA,NA,TRUE,5,0.4352,348.4766,351.4749,0,4,4,47,1,30,38,NA,NA,NA,NA,NA,1,5,"likert"
"8B0A7B870B0243B1A3B69EFF69BD06EC",1,"01990a98-282f-7613-87fc-abdde9d8780e","01990a84-c4ee-73c2-a87b-ff46a7d3dde5","2025-09-02_09h23.43.962",NA,NA,354.825,354.825,354.8251,355.1743,NA,NA,NA,NA,NA,NA,NA,TRUE,5,0.578,351.8269,354.8248,0,5,5,56,1,45,31,NA,NA,NA,NA,NA,1,6,"likert"
"8B0A7B870B0243B1A3B69EFF69BD06EC",1,"01990a98-282f-7613-87fc-abdde9d8780e","01990a84-c4ee-73c2-a87b-ff46a7d3dde5","2025-09-02_09h23.43.962",NA,NA,358.1741,358.1741,358.1741,358.5237,NA,NA,NA,NA,NA,NA,NA,TRUE,5,0.5177,355.1758,358.1739,0,6,6,5,1,7,35,NA,NA,NA,NA,NA,1,7,"likert"
"8B0A7B870B0243B1A3B69EFF69BD06EC",1,"01990a98-282f-7613-87fc-abdde9d8780e","01990a84-c4ee-73c2-a87b-ff46a7d3dde5","2025-09-02_09h23.43.962",NA,NA,361.524,361.5242,361.5242,361.8736,NA,NA,NA,NA,NA,NA,NA,TRUE,5,0.6652,358.526,361.5238,0,7,7,42,1,30,26,NA,NA,NA,NA,NA,1,8,"likert"
"8B0A7B870B0243B1A3B69EFF69BD06EC",1,"01990a98-282f-7613-87fc-abdde9d8780e","01990a84-c4ee-73c2-a87b-ff46a7d3dde5","2025-09-02_09h23.43.962",NA,NA,364.8726,364.8726,364.8727,365.2232,NA,NA,NA,NA,NA,NA,NA,TRUE,5,0.5281,361.8755,364.8725,0,8,8,3,1,7,30,NA,NA,NA,NA,NA,1,9,"likert"
"8B0A7B870B0243B1A3B69EFF69BD06EC",1,"01990a98-282f-7613-87fc-abdde9d8780e","01990a84-c4ee-73c2-a87b-ff46a7d3dde5","2025-09-02_09h23.43.962",NA,NA,368.2231,368.2232,368.2233,368.5729,NA,NA,NA,NA,NA,NA,NA,TRUE,5,0.4936,365.2248,368.2229,0,9,9,63,1,50,40,NA,NA,NA,NA,NA,1,10,"likert"
"8B0A7B870B0243B1A3B69EFF69BD06EC",1,"01990a98-282f-7613-87fc-abdde9d8780e","01990a84-c4ee-73c2-a87b-ff46a7d3dde5","2025-09-02_09h23.43.962",NA,NA,371.5727,371.5729,371.573,371.9224,NA,NA,NA,NA,NA,NA,NA,TRUE,5,0.4528,368.5745,371.5725,0,10,10,20,1,14,28,NA,NA,NA,NA,NA,1,11,"likert"
"8B0A7B870B0243B1A3B69EFF69BD06EC",1,"01990a98-282f-7613-87fc-abdde9d8780e","01990a84-c4ee-73c2-a87b-ff46a7d3dde5","2025-09-02_09h23.43.962",NA,NA,374.9222,374.9222,374.9223,375.2721,NA,NA,NA,NA,NA,NA,NA,TRUE,5,0.3021,371.924,374.922,0,11,11,21,1,14,32,NA,NA,NA,NA,NA,1,12,"likert"
"8B0A7B870B0243B1A3B69EFF69BD06EC",1,"01990a98-282f-7613-87fc-abdde9d8780e","01990a84-c4ee-73c2-a87b-ff46a7d3dde5","2025-09-02_09h23.43.962",NA,NA,378.2716,378.2716,378.2717,378.6214,NA,NA,NA,NA,NA,NA,NA,TRUE,5,0.2786,375.2744,378.2714,0,12,12,82,1,95,47,NA,NA,NA,NA,NA,1,13,"likert"
"8B0A7B870B0243B1A3B69EFF69BD06EC",1,"01990a98-282f-7613-87fc-abdde9d8780e","01990a84-c4ee-73c2-a87b-ff46a7d3dde5","2025-09-02_09h23.43.962",NA,NA,381.6213,381.6214,381.6214,381.9709,NA,NA,NA,NA,NA,NA,NA,TRUE,5,0.5645,378.6233,381.6211,0,13,13,49,1,40,33,NA,NA,NA,NA,NA,1,14,"likert"
"8B0A7B870B0243B1A3B69EFF69BD06EC",1,"01990a98-282f-7613-87fc-abdde9d8780e","01990a84-c4ee-73c2-a87b-ff46a7d3dde5","2025-09-02_09h23.43.962",NA,NA,384.9711,384.9712,384.9712,385.3205,NA,NA,NA,NA,NA,NA,NA,TRUE,5,0.3448,381.9724,384.9707,0,14,14,44,1,30,29,NA,NA,NA,NA,NA,1,15,"likert"
"8B0A7B870B0243B1A3B69EFF69BD06EC",1,"01990a98-282f-7613-87fc-abdde9d8780e","01990a84-c4ee-73c2-a87b-ff46a7d3dde5","2025-09-02_09h23.43.962",NA,NA,388.3202,388.3202,388.3202,388.6702,NA,NA,NA,NA,NA,NA,NA,TRUE,5,0.2316,385.3223,388.32,0,15,15,77,1,90,54,NA,NA,NA,NA,NA,1,16,"likert"
"8B0A7B870B0243B1A3B69EFF69BD06EC",1,"01990a98-282f-7613-87fc-abdde9d8780e","01990a84-c4ee-73c2-a87b-ff46a7d3dde5","2025-09-02_09h23.43.962",NA,NA,391.6697,391.6697,391.6697,392.0197,NA,NA,NA,NA,NA,NA,NA,TRUE,5,0.7538,388.6718,391.6694,0,16,16,25,1,21,27,NA,NA,NA,NA,NA,1,17,"likert"
"8B0A7B870B0243B1A3B69EFF69BD06EC",1,"01990a98-282f-7613-87fc-abdde9d8780e","01990a84-c4ee-73c2-a87b-ff46a7d3dde5","2025-09-02_09h23.43.962",NA,NA,395.0192,395.0192,395.0193,395.3692,NA,NA,NA,NA,NA,NA,NA,TRUE,5,0.9782,392.0212,395.019,0,17,17,67,1,60,33,NA,NA,NA,NA,NA,1,18,"likert"
"8B0A7B870B0243B1A3B69EFF69BD06EC",1,"01990a98-282f-7613-87fc-abdde9d8780e","01990a84-c4ee-73c2-a87b-ff46a7d3dde5","2025-09-02_09h23.43.962",NA,NA,398.3691,398.3692,398.3692,398.7187,NA,NA,NA,NA,NA,NA,NA,TRUE,5,0.6468,395.3709,398.3689,0,18,18,97,1,180,31,NA,NA,NA,NA,NA,1,19,"likert"
"8B0A7B870B0243B1A3B69EFF69BD06EC",1,"01990a98-282f-7613-87fc-abdde9d8780e","01990a84-c4ee-73c2-a87b-ff46a7d3dde5","2025-09-02_09h23.43.962",NA,NA,401.7181,401.7182,401.7182,402.0682,NA,NA,NA,NA,NA,NA,NA,TRUE,5,0.6156,398.7201,401.718,0,19,19,29,1,21,38,NA,NA,NA,NA,NA,1,20,"likert"
"8B0A7B870B0243B1A3B69EFF69BD06EC",1,"01990a98-282f-7613-87fc-abdde9d8780e","01990a84-c4ee-73c2-a87b-ff46a7d3dde5","2025-09-02_09h23.43.962",NA,NA,405.0685,405.0685,405.0685,405.4179,NA,NA,NA,NA,NA,NA,NA,TRUE,5,0.6141,402.0698,405.0682,0,20,20,93,1,150,40,NA,NA,NA,NA,NA,1,21,"likert"
"8B0A7B870B0243B1A3B69EFF69BD06EC",1,"01990a98-282f-7613-87fc-abdde9d8780e","01990a84-c4ee-73c2-a87b-ff46a7d3dde5","2025-09-02_09h23.43.962",NA,NA,408.4178,408.4179,408.4179,408.7677,NA,NA,NA,NA,NA,NA,NA,TRUE,5,0.4402,405.4194,408.4176,0,21,21,35,1,25,46,NA,NA,NA,NA,NA,1,22,"likert"
"8B0A7B870B0243B1A3B69EFF69BD06EC",1,"01990a98-282f-7613-87fc-abdde9d8780e","01990a84-c4ee-73c2-a87b-ff46a7d3dde5","2025-09-02_09h23.43.962",NA,NA,411.7669,411.7669,411.7669,412.1168,NA,NA,NA,NA,NA,NA,NA,TRUE,5,0.6019,408.7693,411.7668,0,22,22,19,1,14,26,NA,NA,NA,NA,NA,1,23,"likert"
"8B0A7B870B0243B1A3B69EFF69BD06EC",1,"01990a98-282f-7613-87fc-abdde9d8780e","01990a84-c4ee-73c2-a87b-ff46a7d3dde5","2025-09-02_09h23.43.962",NA,NA,415.1172,415.1172,415.1173,415.4668,NA,NA,NA,NA,NA,NA,NA,TRUE,5,0.5885,412.1183,415.1169,0,23,23,28,1,21,32,NA,NA,NA,NA,NA,1,24,"likert"
"8B0A7B870B0243B1A3B69EFF69BD06EC",1,"01990a98-282f-7613-87fc-abdde9d8780e","01990a84-c4ee-73c2-a87b-ff46a7d3dde5","2025-09-02_09h23.43.962",NA,NA,418.4664,418.4665,418.4665,418.8159,NA,NA,NA,NA,NA,NA,NA,TRUE,5,0.3483,415.4685,418.4661,0,24,24,79,1,95,33,NA,NA,NA,NA,NA,1,25,"likert"
"8B0A7B870B0243B1A3B69EFF69BD06EC",1,"01990a98-282f-7613-87fc-abdde9d8780e","01990a84-c4ee-73c2-a87b-ff46a7d3dde5","2025-09-02_09h23.43.962",NA,NA,421.8159,421.816,421.816,422.1661,NA,NA,NA,NA,NA,NA,NA,TRUE,5,0.3786,418.8176,421.8157,0,25,25,27,1,21,30,NA,NA,NA,NA,NA,1,26,"likert"
"8B0A7B870B0243B1A3B69EFF69BD06EC",1,"01990a98-282f-7613-87fc-abdde9d8780e","01990a84-c4ee-73c2-a87b-ff46a7d3dde5","2025-09-02_09h23.43.962",NA,NA,425.1658,425.1659,425.1659,425.5321,NA,NA,NA,NA,NA,NA,NA,TRUE,5,0.6276,422.1676,425.1655,0,26,26,98,1,180,35,NA,NA,NA,NA,NA,1,27,"likert"
"8B0A7B870B0243B1A3B69EFF69BD06EC",1,"01990a98-282f-7613-87fc-abdde9d8780e","01990a84-c4ee-73c2-a87b-ff46a7d3dde5","2025-09-02_09h23.43.962",NA,NA,428.5316,428.5316,428.5316,428.8814,NA,NA,NA,NA,NA,NA,NA,TRUE,5,0.6643,425.5336,428.5313,0,27,27,0,1,7,25,NA,NA,NA,NA,NA,1,28,"likert"
"8B0A7B870B0243B1A3B69EFF69BD06EC",1,"01990a98-282f-7613-87fc-abdde9d8780e","01990a84-c4ee-73c2-a87b-ff46a7d3dde5","2025-09-02_09h23.43.962",NA,NA,431.8813,431.8814,431.8814,432.2312,NA,NA,NA,NA,NA,NA,NA,TRUE,5,0.8268,428.8832,431.881,0,28,28,100,1,180,46,NA,NA,NA,NA,NA,1,29,"likert"
"8B0A7B870B0243B1A3B69EFF69BD06EC",1,"01990a98-282f-7613-87fc-abdde9d8780e","01990a84-c4ee-73c2-a87b-ff46a7d3dde5","2025-09-02_09h23.43.962",NA,NA,435.2308,435.2309,435.231,435.5807,NA,NA,NA,NA,NA,NA,NA,TRUE,5,0.7528,432.2327,435.2306,0,29,29,81,1,95,40,NA,NA,NA,NA,NA,1,30,"likert"
"8B0A7B870B0243B1A3B69EFF69BD06EC",1,"01990a98-282f-7613-87fc-abdde9d8780e","01990a84-c4ee-73c2-a87b-ff46a7d3dde5","2025-09-02_09h23.43.962",NA,NA,438.5808,438.5811,438.5811,438.9303,NA,NA,NA,NA,NA,NA,NA,TRUE,5,0.7957,435.5823,438.5807,0,30,30,11,1,10,32,NA,NA,NA,NA,NA,1,31,"likert"
"8B0A7B870B0243B1A3B69EFF69BD06EC",1,"01990a98-282f-7613-87fc-abdde9d8780e","01990a84-c4ee-73c2-a87b-ff46a7d3dde5","2025-09-02_09h23.43.962",NA,NA,441.9303,441.9304,441.9304,442.2801,NA,NA,NA,NA,NA,NA,NA,TRUE,5,0.9961,438.9318,441.9301,0,31,31,99,1,180,39,NA,NA,NA,NA,NA,1,32,"likert"
"8B0A7B870B0243B1A3B69EFF69BD06EC",1,"01990a98-282f-7613-87fc-abdde9d8780e","01990a84-c4ee-73c2-a87b-ff46a7d3dde5","2025-09-02_09h23.43.962",NA,NA,445.2797,445.2799,445.28,445.6295,NA,NA,NA,NA,NA,NA,NA,TRUE,5,0.7555,442.2817,445.2795,0,32,32,38,1,28,32,NA,NA,NA,NA,NA,1,33,"likert"
"8B0A7B870B0243B1A3B69EFF69BD06EC",1,"01990a98-282f-7613-87fc-abdde9d8780e","01990a84-c4ee-73c2-a87b-ff46a7d3dde5","2025-09-02_09h23.43.962",NA,NA,448.6291,448.6292,448.6293,448.9788,NA,NA,NA,NA,NA,NA,NA,TRUE,5,0.769,445.631,448.6289,0,33,33,13,1,12,26,NA,NA,NA,NA,NA,1,34,"likert"
"8B0A7B870B0243B1A3B69EFF69BD06EC",1,"01990a98-282f-7613-87fc-abdde9d8780e","01990a84-c4ee-73c2-a87b-ff46a7d3dde5","2025-09-02_09h23.43.962",NA,NA,451.9789,451.979,451.9791,452.3283,NA,NA,NA,NA,NA,NA,NA,TRUE,5,1.0207,448.9804,451.9787,0,34,34,39,1,28,35,NA,NA,NA,NA,NA,1,35,"likert"
"8B0A7B870B0243B1A3B69EFF69BD06EC",1,"01990a98-282f-7613-87fc-abdde9d8780e","01990a84-c4ee-73c2-a87b-ff46a7d3dde5","2025-09-02_09h23.43.962",NA,NA,455.3282,455.3283,455.3283,455.6784,NA,NA,NA,NA,NA,NA,NA,TRUE,5,0.7452,452.3299,455.328,0,35,35,41,1,28,46,NA,NA,NA,NA,NA,1,36,"likert"
"8B0A7B870B0243B1A3B69EFF69BD06EC",1,"01990a98-282f-7613-87fc-abdde9d8780e","01990a84-c4ee-73c2-a87b-ff46a7d3dde5","2025-09-02_09h23.43.962",NA,NA,458.6782,458.6783,458.6783,459.0277,NA,NA,NA,NA,NA,NA,NA,TRUE,5,0.6257,455.6801,458.678,0,36,36,74,1,90,33,NA,NA,NA,NA,NA,1,37,"likert"
"8B0A7B870B0243B1A3B69EFF69BD06EC",1,"01990a98-282f-7613-87fc-abdde9d8780e","01990a84-c4ee-73c2-a87b-ff46a7d3dde5","2025-09-02_09h23.43.962",NA,NA,462.0279,462.028,462.028,462.3774,NA,NA,NA,NA,NA,NA,NA,TRUE,5,0.9271,459.0297,462.0277,0,37,37,101,1,180,54,NA,NA,NA,NA,NA,1,38,"likert"
"8B0A7B870B0243B1A3B69EFF69BD06EC",1,"01990a98-282f-7613-87fc-abdde9d8780e","01990a84-c4ee-73c2-a87b-ff46a7d3dde5","2025-09-02_09h23.43.962",NA,NA,465.3773,465.3774,465.3774,465.7272,NA,NA,NA,NA,NA,NA,NA,TRUE,5,0.6672,462.3789,465.3771,0,38,38,80,1,95,35,NA,NA,NA,NA,NA,1,39,"likert"
"8B0A7B870B0243B1A3B69EFF69BD06EC",1,"01990a98-282f-7613-87fc-abdde9d8780e","01990a84-c4ee-73c2-a87b-ff46a7d3dde5","2025-09-02_09h23.43.962",NA,NA,468.7269,468.727,468.727,469.0766,NA,NA,NA,NA,NA,NA,NA,TRUE,5,0.6815,465.7289,468.7268,0,39,39,103,1,200,28,NA,NA,NA,NA,NA,1,40,"likert"
"8B0A7B870B0243B1A3B69EFF69BD06EC",1,"01990a98-282f-7613-87fc-abdde9d8780e","01990a84-c4ee-73c2-a87b-ff46a7d3dde5","2025-09-02_09h23.43.962",NA,NA,472.0766,472.0767,472.0767,472.4261,NA,NA,NA,NA,NA,NA,NA,TRUE,5,0.7297,469.0788,472.0764,0,40,40,1,1,7,26,NA,NA,NA,NA,NA,1,41,"likert"
"8B0A7B870B0243B1A3B69EFF69BD06EC",1,"01990a98-282f-7613-87fc-abdde9d8780e","01990a84-c4ee-73c2-a87b-ff46a7d3dde5","2025-09-02_09h23.43.962",NA,NA,475.4255,475.4256,475.4256,475.7756,NA,NA,NA,NA,NA,NA,NA,TRUE,5,0.7485,472.4276,475.4254,0,41,41,50,1,40,35,NA,NA,NA,NA,NA,1,42,"likert"
"8B0A7B870B0243B1A3B69EFF69BD06EC",1,"01990a98-282f-7613-87fc-abdde9d8780e","01990a84-c4ee-73c2-a87b-ff46a7d3dde5","2025-09-02_09h23.43.962",NA,NA,478.7754,478.7754,478.7754,479.1246,NA,NA,NA,NA,NA,NA,NA,TRUE,5,0.6443,475.7772,478.7752,0,42,42,76,1,90,46,NA,NA,NA,NA,NA,1,43,"likert"
"8B0A7B870B0243B1A3B69EFF69BD06EC",1,"01990a98-282f-7613-87fc-abdde9d8780e","01990a84-c4ee-73c2-a87b-ff46a7d3dde5","2025-09-02_09h23.43.962",NA,NA,482.1253,482.1254,482.1254,482.4742,NA,NA,NA,NA,NA,NA,NA,TRUE,5,0.7865,479.1255,482.1251,0,43,43,102,1,200,26,NA,NA,NA,NA,NA,1,44,"likert"
"8B0A7B870B0243B1A3B69EFF69BD06EC",1,"01990a98-282f-7613-87fc-abdde9d8780e","01990a84-c4ee-73c2-a87b-ff46a7d3dde5","2025-09-02_09h23.43.962",NA,NA,485.4748,485.4748,485.4749,485.8234,NA,NA,NA,NA,NA,NA,NA,TRUE,5,0.7475,482.4749,485.4746,0,44,44,22,1,14,35,NA,NA,NA,NA,NA,1,45,"likert"
"8B0A7B870B0243B1A3B69EFF69BD06EC",1,"01990a98-282f-7613-87fc-abdde9d8780e","01990a84-c4ee-73c2-a87b-ff46a7d3dde5","2025-09-02_09h23.43.962",NA,NA,488.8243,488.8244,488.8244,489.1733,NA,NA,NA,NA,NA,NA,NA,TRUE,5,1.363,485.8245,488.8241,0,45,45,91,1,150,33,NA,NA,NA,NA,NA,1,46,"likert"
"8B0A7B870B0243B1A3B69EFF69BD06EC",1,"01990a98-282f-7613-87fc-abdde9d8780e","01990a84-c4ee-73c2-a87b-ff46a7d3dde5","2025-09-02_09h23.43.962",NA,NA,492.1734,492.1736,492.1736,492.5234,NA,NA,NA,NA,NA,NA,NA,TRUE,5,1.1981,489.1742,492.1733,0,46,46,7,1,10,26,NA,NA,NA,NA,NA,1,47,"likert"
"8B0A7B870B0243B1A3B69EFF69BD06EC",1,"01990a98-282f-7613-87fc-abdde9d8780e","01990a84-c4ee-73c2-a87b-ff46a7d3dde5","2025-09-02_09h23.43.962",NA,NA,495.5235,495.5236,495.5237,495.873,NA,NA,NA,NA,NA,NA,NA,TRUE,5,1.3285,492.5251,495.5231,0,47,47,52,1,40,47,NA,NA,NA,NA,NA,1,48,"likert"
"8B0A7B870B0243B1A3B69EFF69BD06EC",1,"01990a98-282f-7613-87fc-abdde9d8780e","01990a84-c4ee-73c2-a87b-ff46a7d3dde5","2025-09-02_09h23.43.962",NA,NA,498.8729,498.873,498.8731,499.2226,NA,NA,NA,NA,NA,NA,NA,TRUE,5,1.0498,495.8746,498.8727,0,48,48,32,1,25,31,NA,NA,NA,NA,NA,1,49,"likert"
"8B0A7B870B0243B1A3B69EFF69BD06EC",1,"01990a98-282f-7613-87fc-abdde9d8780e","01990a84-c4ee-73c2-a87b-ff46a7d3dde5","2025-09-02_09h23.43.962",NA,NA,502.2226,502.2227,502.2227,502.5722,NA,NA,NA,NA,NA,NA,NA,TRUE,5,0.412,499.2241,502.2223,0,49,49,64,1,50,46,NA,NA,NA,NA,NA,1,50,"likert"
"8B0A7B870B0243B1A3B69EFF69BD06EC",1,"01990a98-282f-7613-87fc-abdde9d8780e","01990a84-c4ee-73c2-a87b-ff46a7d3dde5","2025-09-02_09h23.43.962",NA,NA,505.5721,505.5721,505.5722,505.9218,NA,NA,NA,NA,NA,NA,NA,TRUE,5,0.3859,502.5739,505.5718,0,50,50,71,1,60,54,NA,NA,NA,NA,NA,1,51,"likert"
"8B0A7B870B0243B1A3B69EFF69BD06EC",1,"01990a98-282f-7613-87fc-abdde9d8780e","01990a84-c4ee-73c2-a87b-ff46a7d3dde5","2025-09-02_09h23.43.962",NA,NA,508.9216,508.9217,508.9217,509.2714,NA,NA,NA,NA,NA,NA,NA,TRUE,5,0.5478,505.9234,508.9213,0,51,51,58,1,45,40,NA,NA,NA,NA,NA,1,52,"likert"
"8B0A7B870B0243B1A3B69EFF69BD06EC",1,"01990a98-282f-7613-87fc-abdde9d8780e","01990a84-c4ee-73c2-a87b-ff46a7d3dde5","2025-09-02_09h23.43.962",NA,NA,512.2715,512.2715,512.2715,512.6205,NA,NA,NA,NA,NA,NA,NA,TRUE,5,0.2867,509.2731,512.2711,0,52,52,8,1,10,27,NA,NA,NA,NA,NA,1,53,"likert"
"8B0A7B870B0243B1A3B69EFF69BD06EC",1,"01990a98-282f-7613-87fc-abdde9d8780e","01990a84-c4ee-73c2-a87b-ff46a7d3dde5","2025-09-02_09h23.43.962",NA,NA,515.6208,515.621,515.621,515.9695,NA,NA,NA,NA,NA,NA,NA,TRUE,5,0.3479,512.6221,515.6206,0,53,53,51,1,40,40,NA,NA,NA,NA,NA,1,54,"likert"
"8B0A7B870B0243B1A3B69EFF69BD06EC",1,"01990a98-282f-7613-87fc-abdde9d8780e","01990a84-c4ee-73c2-a87b-ff46a7d3dde5","2025-09-02_09h23.43.962",NA,NA,518.9701,518.9701,518.9703,519.3201,NA,NA,NA,NA,NA,NA,NA,TRUE,5,0.257,515.9707,518.9699,0,54,54,17,1,12,35,NA,NA,NA,NA,NA,1,55,"likert"
"8B0A7B870B0243B1A3B69EFF69BD06EC",1,"01990a98-282f-7613-87fc-abdde9d8780e","01990a84-c4ee-73c2-a87b-ff46a7d3dde5","2025-09-02_09h23.43.962",NA,NA,522.32,522.3201,522.3201,522.6692,NA,NA,NA,NA,NA,NA,NA,TRUE,5,0.2441,519.3217,522.3198,0,55,55,37,1,28,28,NA,NA,NA,NA,NA,1,56,"likert"
"8B0A7B870B0243B1A3B69EFF69BD06EC",1,"01990a98-282f-7613-87fc-abdde9d8780e","01990a84-c4ee-73c2-a87b-ff46a7d3dde5","2025-09-02_09h23.43.962",NA,NA,525.669,525.6691,525.6691,526.0191,NA,NA,NA,NA,NA,NA,NA,TRUE,5,0.7525,522.6711,525.6689,0,56,56,65,1,50,54,NA,NA,NA,NA,NA,1,57,"likert"
"8B0A7B870B0243B1A3B69EFF69BD06EC",1,"01990a98-282f-7613-87fc-abdde9d8780e","01990a84-c4ee-73c2-a87b-ff46a7d3dde5","2025-09-02_09h23.43.962",NA,NA,529.0188,529.0188,529.0188,529.3684,NA,NA,NA,NA,NA,NA,NA,TRUE,5,0.2386,526.0208,529.0186,0,57,57,69,1,60,40,NA,NA,NA,NA,NA,1,58,"likert"
"8B0A7B870B0243B1A3B69EFF69BD06EC",1,"01990a98-282f-7613-87fc-abdde9d8780e","01990a84-c4ee-73c2-a87b-ff46a7d3dde5","2025-09-02_09h23.43.962",NA,NA,532.3684,532.3684,532.3684,532.718,NA,NA,NA,NA,NA,NA,NA,TRUE,5,0.2782,529.3704,532.3681,0,58,58,78,1,95,31,NA,NA,NA,NA,NA,1,59,"likert"
"8B0A7B870B0243B1A3B69EFF69BD06EC",1,"01990a98-282f-7613-87fc-abdde9d8780e","01990a84-c4ee-73c2-a87b-ff46a7d3dde5","2025-09-02_09h23.43.962",NA,NA,535.7181,535.7182,535.7183,536.0681,NA,NA,NA,NA,NA,NA,NA,TRUE,5,0.2809,532.7191,535.7178,0,59,59,104,1,200,35,NA,NA,NA,NA,NA,1,60,"likert"
"8B0A7B870B0243B1A3B69EFF69BD06EC",1,"01990a98-282f-7613-87fc-abdde9d8780e","01990a84-c4ee-73c2-a87b-ff46a7d3dde5","2025-09-02_09h23.43.962",NA,NA,539.0679,539.068,539.068,539.4176,NA,NA,NA,NA,NA,NA,NA,TRUE,5,0.2541,536.0702,539.0677,0,60,60,33,1,25,33,NA,NA,NA,NA,NA,1,61,"likert"
"8B0A7B870B0243B1A3B69EFF69BD06EC",1,"01990a98-282f-7613-87fc-abdde9d8780e","01990a84-c4ee-73c2-a87b-ff46a7d3dde5","2025-09-02_09h23.43.962",NA,NA,542.4165,542.4165,542.4165,542.7666,NA,NA,NA,NA,NA,NA,NA,TRUE,5,0.7944,539.4191,542.4165,0,61,61,62,1,50,35,NA,NA,NA,NA,NA,1,62,"likert"
"8B0A7B870B0243B1A3B69EFF69BD06EC",1,"01990a98-282f-7613-87fc-abdde9d8780e","01990a84-c4ee-73c2-a87b-ff46a7d3dde5","2025-09-02_09h23.43.962",NA,NA,545.7662,545.7662,545.7662,546.1165,NA,NA,NA,NA,NA,NA,NA,TRUE,5,0.5659,542.7681,545.766,0,62,62,85,1,100,31,NA,NA,NA,NA,NA,1,63,"likert"
"8B0A7B870B0243B1A3B69EFF69BD06EC",1,"01990a98-282f-7613-87fc-abdde9d8780e","01990a84-c4ee-73c2-a87b-ff46a7d3dde5","2025-09-02_09h23.43.962",NA,NA,549.1167,549.1167,549.1167,549.4663,NA,NA,NA,NA,NA,NA,NA,TRUE,5,0.7981,546.1182,549.1164,0,63,63,45,1,30,30,NA,NA,NA,NA,NA,1,64,"likert"
"8B0A7B870B0243B1A3B69EFF69BD06EC",1,"01990a98-282f-7613-87fc-abdde9d8780e","01990a84-c4ee-73c2-a87b-ff46a7d3dde5","2025-09-02_09h23.43.962",NA,NA,552.4661,552.4662,552.4663,552.832,NA,NA,NA,NA,NA,NA,NA,TRUE,5,0.7308,549.468,552.466,0,64,64,16,1,12,33,NA,NA,NA,NA,NA,1,65,"likert"
"8B0A7B870B0243B1A3B69EFF69BD06EC",1,"01990a98-282f-7613-87fc-abdde9d8780e","01990a84-c4ee-73c2-a87b-ff46a7d3dde5","2025-09-02_09h23.43.962",NA,NA,555.8154,555.8154,555.8155,556.1813,NA,NA,NA,NA,NA,NA,NA,TRUE,5,0.5783,552.8335,555.8152,0,65,65,60,1,50,27,NA,NA,NA,NA,NA,1,66,"likert"
"8B0A7B870B0243B1A3B69EFF69BD06EC",1,"01990a98-282f-7613-87fc-abdde9d8780e","01990a84-c4ee-73c2-a87b-ff46a7d3dde5","2025-09-02_09h23.43.962",NA,NA,559.1817,559.1818,559.1818,559.5309,NA,NA,NA,NA,NA,NA,NA,TRUE,5,0.4971,556.1821,559.1815,0,66,66,31,1,25,29,NA,NA,NA,NA,NA,1,67,"likert"
"8B0A7B870B0243B1A3B69EFF69BD06EC",1,"01990a98-282f-7613-87fc-abdde9d8780e","01990a84-c4ee-73c2-a87b-ff46a7d3dde5","2025-09-02_09h23.43.962",NA,NA,562.5313,562.5315,562.5316,562.8807,NA,NA,NA,NA,NA,NA,NA,TRUE,5,0.9624,559.5325,562.5312,0,67,67,55,1,45,29,NA,NA,NA,NA,NA,1,68,"likert"
"8B0A7B870B0243B1A3B69EFF69BD06EC",1,"01990a98-282f-7613-87fc-abdde9d8780e","01990a84-c4ee-73c2-a87b-ff46a7d3dde5","2025-09-02_09h23.43.962",NA,NA,565.8812,565.8812,565.8812,566.2305,NA,NA,NA,NA,NA,NA,NA,TRUE,5,0.68,562.8823,565.8809,0,68,68,12,1,12,25,NA,NA,NA,NA,NA,1,69,"likert"
"8B0A7B870B0243B1A3B69EFF69BD06EC",1,"01990a98-282f-7613-87fc-abdde9d8780e","01990a84-c4ee-73c2-a87b-ff46a7d3dde5","2025-09-02_09h23.43.962",NA,NA,569.2305,569.2306,569.2307,569.5801,NA,NA,NA,NA,NA,NA,NA,TRUE,5,0.7459,566.2319,569.2303,0,69,69,54,1,45,26,NA,NA,NA,NA,NA,1,70,"likert"
"8B0A7B870B0243B1A3B69EFF69BD06EC",1,"01990a98-282f-7613-87fc-abdde9d8780e","01990a84-c4ee-73c2-a87b-ff46a7d3dde5","2025-09-02_09h23.43.962",NA,NA,572.58,572.58,572.5801,572.9296,NA,NA,NA,NA,NA,NA,NA,TRUE,5,0.8274,569.5816,572.5798,0,70,70,46,1,30,32,NA,NA,NA,NA,NA,1,71,"likert"
"8B0A7B870B0243B1A3B69EFF69BD06EC",1,"01990a98-282f-7613-87fc-abdde9d8780e","01990a84-c4ee-73c2-a87b-ff46a7d3dde5","2025-09-02_09h23.43.962",NA,NA,575.9285,575.9285,575.9286,576.2791,NA,NA,NA,NA,NA,NA,NA,TRUE,5,0.7157,572.9311,575.9284,0,71,71,10,1,10,30,NA,NA,NA,NA,NA,1,72,"likert"
"8B0A7B870B0243B1A3B69EFF69BD06EC",1,"01990a98-282f-7613-87fc-abdde9d8780e","01990a84-c4ee-73c2-a87b-ff46a7d3dde5","2025-09-02_09h23.43.962",NA,NA,579.279,579.2791,579.2792,579.6284,NA,NA,NA,NA,NA,NA,NA,TRUE,5,0.7117,576.2805,579.2787,0,72,72,6,1,10,25,NA,NA,NA,NA,NA,1,73,"likert"
"8B0A7B870B0243B1A3B69EFF69BD06EC",1,"01990a98-282f-7613-87fc-abdde9d8780e","01990a84-c4ee-73c2-a87b-ff46a7d3dde5","2025-09-02_09h23.43.962",NA,NA,582.6285,582.6285,582.6286,582.9783,NA,NA,NA,NA,NA,NA,NA,TRUE,5,1.0833,579.6299,582.6283,0,73,73,40,1,28,39,NA,NA,NA,NA,NA,1,74,"likert"
"8B0A7B870B0243B1A3B69EFF69BD06EC",1,"01990a98-282f-7613-87fc-abdde9d8780e","01990a84-c4ee-73c2-a87b-ff46a7d3dde5","2025-09-02_09h23.43.962",NA,NA,585.9781,585.9782,585.9782,586.3277,NA,NA,NA,NA,NA,NA,NA,TRUE,5,0.8856,582.9798,585.9778,0,74,74,94,1,150,47,NA,NA,NA,NA,NA,1,75,"likert"
"8B0A7B870B0243B1A3B69EFF69BD06EC",1,"01990a98-282f-7613-87fc-abdde9d8780e","01990a84-c4ee-73c2-a87b-ff46a7d3dde5","2025-09-02_09h23.43.962",NA,NA,589.3282,589.3284,589.3284,589.6778,NA,NA,NA,NA,NA,NA,NA,TRUE,5,0.5461,586.3294,589.3279,0,75,75,88,1,100,46,NA,NA,NA,NA,NA,1,76,"likert"
"8B0A7B870B0243B1A3B69EFF69BD06EC",1,"01990a98-282f-7613-87fc-abdde9d8780e","01990a84-c4ee-73c2-a87b-ff46a7d3dde5","2025-09-02_09h23.43.962",NA,NA,592.6774,592.6775,592.6775,593.027,NA,NA,NA,NA,NA,NA,NA,TRUE,5,1.0324,589.6794,592.6772,0,76,76,30,1,25,27,NA,NA,NA,NA,NA,1,77,"likert"
"8B0A7B870B0243B1A3B69EFF69BD06EC",1,"01990a98-282f-7613-87fc-abdde9d8780e","01990a84-c4ee-73c2-a87b-ff46a7d3dde5","2025-09-02_09h23.43.962",NA,NA,596.0268,596.0269,596.0269,596.3767,NA,NA,NA,NA,NA,NA,NA,TRUE,5,0.5044,593.0282,596.0267,0,77,77,89,1,100,54,NA,NA,NA,NA,NA,1,78,"likert"
"8B0A7B870B0243B1A3B69EFF69BD06EC",1,"01990a98-282f-7613-87fc-abdde9d8780e","01990a84-c4ee-73c2-a87b-ff46a7d3dde5","2025-09-02_09h23.43.962",NA,NA,599.3767,599.3767,599.3768,599.7264,NA,NA,NA,NA,NA,NA,NA,TRUE,5,0.477,596.3783,599.3765,0,78,78,83,1,95,54,NA,NA,NA,NA,NA,1,79,"likert"
"8B0A7B870B0243B1A3B69EFF69BD06EC",1,"01990a98-282f-7613-87fc-abdde9d8780e","01990a84-c4ee-73c2-a87b-ff46a7d3dde5","2025-09-02_09h23.43.962",NA,NA,602.7264,602.7265,602.7265,603.0758,NA,NA,NA,NA,NA,NA,NA,TRUE,5,0.5114,599.728,602.726,0,79,79,59,1,45,46,NA,NA,NA,NA,NA,1,80,"likert"
"8B0A7B870B0243B1A3B69EFF69BD06EC",1,"01990a98-282f-7613-87fc-abdde9d8780e","01990a84-c4ee-73c2-a87b-ff46a7d3dde5","2025-09-02_09h23.43.962",NA,NA,606.0749,606.0749,606.0749,606.4249,NA,NA,NA,NA,NA,NA,NA,TRUE,5,0.0285,603.0775,606.0748,0,80,80,66,1,60,29,NA,NA,NA,NA,NA,1,81,"likert"
"8B0A7B870B0243B1A3B69EFF69BD06EC",1,"01990a98-282f-7613-87fc-abdde9d8780e","01990a84-c4ee-73c2-a87b-ff46a7d3dde5","2025-09-02_09h23.43.962",NA,NA,609.4253,609.4254,609.4255,609.7746,NA,NA,NA,NA,NA,NA,NA,TRUE,5,0.6678,606.4258,609.4251,0,81,81,75,1,90,40,NA,NA,NA,NA,NA,1,82,"likert"
"8B0A7B870B0243B1A3B69EFF69BD06EC",1,"01990a98-282f-7613-87fc-abdde9d8780e","01990a84-c4ee-73c2-a87b-ff46a7d3dde5","2025-09-02_09h23.43.962",NA,NA,612.7746,612.7746,612.7746,613.1241,NA,NA,NA,NA,NA,NA,NA,TRUE,5,0.6351,609.7761,612.7744,0,82,82,2,1,7,28,NA,NA,NA,NA,NA,1,83,"likert"
"8B0A7B870B0243B1A3B69EFF69BD06EC",1,"01990a98-282f-7613-87fc-abdde9d8780e","01990a84-c4ee-73c2-a87b-ff46a7d3dde5","2025-09-02_09h23.43.962",NA,NA,616.1236,616.1237,616.1237,616.4734,NA,NA,NA,NA,NA,NA,NA,TRUE,5,0.5691,613.1256,616.1236,0,83,83,90,1,150,31,NA,NA,NA,NA,NA,1,84,"likert"
"8B0A7B870B0243B1A3B69EFF69BD06EC",1,"01990a98-282f-7613-87fc-abdde9d8780e","01990a84-c4ee-73c2-a87b-ff46a7d3dde5","2025-09-02_09h23.43.962",NA,NA,619.4738,619.4739,619.4739,619.8234,NA,NA,NA,NA,NA,NA,NA,TRUE,5,0.5069,616.4747,619.4736,0,84,84,18,1,14,25,NA,NA,NA,NA,NA,1,85,"likert"
"8B0A7B870B0243B1A3B69EFF69BD06EC",1,"01990a98-282f-7613-87fc-abdde9d8780e","01990a84-c4ee-73c2-a87b-ff46a7d3dde5","2025-09-02_09h23.43.962",NA,NA,622.8234,622.8234,622.8234,623.1728,NA,NA,NA,NA,NA,NA,NA,TRUE,5,0.5996,619.8249,622.8231,0,85,85,86,1,100,38,NA,NA,NA,NA,NA,1,86,"likert"
"8B0A7B870B0243B1A3B69EFF69BD06EC",1,"01990a98-282f-7613-87fc-abdde9d8780e","01990a84-c4ee-73c2-a87b-ff46a7d3dde5","2025-09-02_09h23.43.962",NA,NA,626.1733,626.1733,626.1733,626.5228,NA,NA,NA,NA,NA,NA,NA,TRUE,5,0.8084,623.1738,626.1731,0,86,86,57,1,45,35,NA,NA,NA,NA,NA,1,87,"likert"
"8B0A7B870B0243B1A3B69EFF69BD06EC",1,"01990a98-282f-7613-87fc-abdde9d8780e","01990a84-c4ee-73c2-a87b-ff46a7d3dde5","2025-09-02_09h23.43.962",NA,NA,629.5228,629.5228,629.5228,629.8722,NA,NA,NA,NA,NA,NA,NA,TRUE,5,0.729,626.5245,629.5226,0,87,87,96,1,180,27,NA,NA,NA,NA,NA,1,88,"likert"
"8B0A7B870B0243B1A3B69EFF69BD06EC",1,"01990a98-282f-7613-87fc-abdde9d8780e","01990a84-c4ee-73c2-a87b-ff46a7d3dde5","2025-09-02_09h23.43.962",NA,NA,632.8721,632.8721,632.8721,633.2219,NA,NA,NA,NA,NA,NA,NA,TRUE,5,0.663,629.8737,632.8719,0,88,88,15,1,12,31,NA,NA,NA,NA,NA,1,89,"likert"
"8B0A7B870B0243B1A3B69EFF69BD06EC",1,"01990a98-282f-7613-87fc-abdde9d8780e","01990a84-c4ee-73c2-a87b-ff46a7d3dde5","2025-09-02_09h23.43.962",NA,NA,636.221,636.221,636.221,636.5708,NA,NA,NA,NA,NA,NA,NA,TRUE,5,0.5118,633.2232,636.2209,0,89,89,70,1,60,47,NA,NA,NA,NA,NA,1,90,"likert"
"8B0A7B870B0243B1A3B69EFF69BD06EC",1,"01990a98-282f-7613-87fc-abdde9d8780e","01990a84-c4ee-73c2-a87b-ff46a7d3dde5","2025-09-02_09h23.43.962",NA,NA,639.5713,639.5715,639.5715,639.9209,NA,NA,NA,NA,NA,NA,NA,TRUE,5,1.5959,636.5718,639.5712,0,90,90,61,1,50,30,NA,NA,NA,NA,NA,1,91,"likert"
"8B0A7B870B0243B1A3B69EFF69BD06EC",1,"01990a98-282f-7613-87fc-abdde9d8780e","01990a84-c4ee-73c2-a87b-ff46a7d3dde5","2025-09-02_09h23.43.962",NA,NA,642.9213,642.9213,642.9213,643.2707,NA,NA,NA,NA,NA,NA,NA,TRUE,5,1.8849,639.9226,642.9211,0,91,91,87,1,100,39,NA,NA,NA,NA,NA,1,92,"likert"
"8B0A7B870B0243B1A3B69EFF69BD06EC",1,"01990a98-282f-7613-87fc-abdde9d8780e","01990a84-c4ee-73c2-a87b-ff46a7d3dde5","2025-09-02_09h23.43.962",NA,NA,646.2703,646.2703,646.2704,646.62,NA,NA,NA,NA,NA,NA,NA,TRUE,5,1.179,643.2722,646.2701,0,92,92,95,1,150,54,NA,NA,NA,NA,NA,1,93,"likert"
"8B0A7B870B0243B1A3B69EFF69BD06EC",1,"01990a98-282f-7613-87fc-abdde9d8780e","01990a84-c4ee-73c2-a87b-ff46a7d3dde5","2025-09-02_09h23.43.962",NA,NA,649.6198,649.6199,649.6199,649.9697,NA,NA,NA,NA,NA,NA,NA,TRUE,5,0.883,646.6211,649.6197,0,93,93,53,1,40,54,NA,NA,NA,NA,NA,1,94,"likert"
"8B0A7B870B0243B1A3B69EFF69BD06EC",1,"01990a98-282f-7613-87fc-abdde9d8780e","01990a84-c4ee-73c2-a87b-ff46a7d3dde5","2025-09-02_09h23.43.962",NA,NA,652.9697,652.9698,652.9698,653.3193,NA,NA,NA,NA,NA,NA,NA,TRUE,5,0.9278,649.9712,652.9695,0,94,94,72,1,90,26,NA,NA,NA,NA,NA,1,95,"likert"
"8B0A7B870B0243B1A3B69EFF69BD06EC",1,"01990a98-282f-7613-87fc-abdde9d8780e","01990a84-c4ee-73c2-a87b-ff46a7d3dde5","2025-09-02_09h23.43.962",NA,NA,656.319,656.3191,656.3191,656.6685,NA,NA,NA,NA,NA,NA,NA,TRUE,5,0.5784,653.3207,656.3189,0,95,95,23,1,14,39,NA,NA,NA,NA,NA,1,96,"likert"
"8B0A7B870B0243B1A3B69EFF69BD06EC",1,"01990a98-282f-7613-87fc-abdde9d8780e","01990a84-c4ee-73c2-a87b-ff46a7d3dde5","2025-09-02_09h23.43.962",NA,NA,659.6682,659.6683,659.6683,660.0188,NA,NA,NA,NA,NA,NA,NA,TRUE,5,1.8513,656.6697,659.6681,0,96,96,92,1,150,35,NA,NA,NA,NA,NA,1,97,"likert"
"8B0A7B870B0243B1A3B69EFF69BD06EC",1,"01990a98-282f-7613-87fc-abdde9d8780e","01990a84-c4ee-73c2-a87b-ff46a7d3dde5","2025-09-02_09h23.43.962",NA,NA,663.0182,663.0183,663.0183,663.3681,NA,NA,NA,NA,NA,NA,NA,TRUE,5,1.3631,660.0204,663.018,0,97,97,68,1,60,35,NA,NA,NA,NA,NA,1,98,"likert"
"8B0A7B870B0243B1A3B69EFF69BD06EC",1,"01990a98-282f-7613-87fc-abdde9d8780e","01990a84-c4ee-73c2-a87b-ff46a7d3dde5","2025-09-02_09h23.43.962",NA,NA,666.3679,666.3679,666.3679,666.7172,NA,NA,NA,NA,NA,NA,NA,TRUE,5,0.6702,663.3698,666.3676,0,98,98,107,1,200,54,NA,NA,NA,NA,NA,1,99,"likert"
"8B0A7B870B0243B1A3B69EFF69BD06EC",1,"01990a98-282f-7613-87fc-abdde9d8780e","01990a84-c4ee-73c2-a87b-ff46a7d3dde5","2025-09-02_09h23.43.962",NA,NA,669.7172,669.7173,669.7173,670.067,NA,NA,NA,NA,NA,NA,NA,TRUE,5,0.821,666.7181,669.717,0,99,99,84,1,100,26,NA,NA,NA,NA,NA,1,100,"likert"
"8B0A7B870B0243B1A3B69EFF69BD06EC",1,"01990a98-282f-7613-87fc-abdde9d8780e","01990a84-c4ee-73c2-a87b-ff46a7d3dde5","2025-09-02_09h23.43.962",NA,NA,673.0674,673.0675,673.0675,673.4166,NA,NA,NA,NA,NA,NA,NA,TRUE,5,1.1365,670.0688,673.0671,0,100,100,4,1,7,32,NA,NA,NA,NA,NA,1,101,"likert"
"8B0A7B870B0243B1A3B69EFF69BD06EC",1,"01990a98-282f-7613-87fc-abdde9d8780e","01990a84-c4ee-73c2-a87b-ff46a7d3dde5","2025-09-02_09h23.43.962",NA,NA,676.4159,676.4159,676.4159,676.7658,NA,NA,NA,NA,NA,NA,NA,TRUE,5,0.4117,673.4183,676.4158,0,101,101,73,1,90,30,NA,NA,NA,NA,NA,1,102,"likert"
"8B0A7B870B0243B1A3B69EFF69BD06EC",1,"01990a98-282f-7613-87fc-abdde9d8780e","01990a84-c4ee-73c2-a87b-ff46a7d3dde5","2025-09-02_09h23.43.962",NA,NA,679.7665,679.7665,679.7665,680.1155,NA,NA,NA,NA,NA,NA,NA,TRUE,5,0.7021,676.7665,679.7663,0,102,102,36,1,28,26,NA,NA,NA,NA,NA,1,103,"likert"
"8B0A7B870B0243B1A3B69EFF69BD06EC",1,"01990a98-282f-7613-87fc-abdde9d8780e","01990a84-c4ee-73c2-a87b-ff46a7d3dde5","2025-09-02_09h23.43.962",NA,NA,683.116,683.1161,683.1161,683.4654,NA,NA,NA,NA,NA,NA,NA,TRUE,5,1.1805,680.1171,683.1158,0,103,103,26,1,21,29,NA,NA,NA,NA,NA,1,104,"likert"
"8B0A7B870B0243B1A3B69EFF69BD06EC",1,"01990a98-282f-7613-87fc-abdde9d8780e","01990a84-c4ee-73c2-a87b-ff46a7d3dde5","2025-09-02_09h23.43.962",NA,NA,686.4825,686.4826,686.4826,686.8314,NA,NA,NA,NA,NA,NA,NA,TRUE,5,1.5472,683.4667,686.4822,0,104,104,24,1,21,26,NA,NA,NA,NA,NA,1,105,"likert"
"8B0A7B870B0243B1A3B69EFF69BD06EC",1,"01990a98-282f-7613-87fc-abdde9d8780e","01990a84-c4ee-73c2-a87b-ff46a7d3dde5","2025-09-02_09h23.43.962",NA,NA,689.8317,689.8319,689.8319,690.1809,NA,NA,NA,NA,NA,NA,NA,TRUE,5,0.5266,686.8334,689.8315,0,105,105,105,1,200,39,NA,NA,NA,NA,NA,1,106,"likert"
"8B0A7B870B0243B1A3B69EFF69BD06EC",1,"01990a98-282f-7613-87fc-abdde9d8780e","01990a84-c4ee-73c2-a87b-ff46a7d3dde5","2025-09-02_09h23.43.962",NA,NA,693.1811,693.1812,693.1813,693.5307,NA,NA,NA,NA,NA,NA,NA,TRUE,5,0.5819,690.182,693.1809,0,106,106,9,1,10,29,NA,NA,NA,NA,NA,1,107,"likert"
"8B0A7B870B0243B1A3B69EFF69BD06EC",1,"01990a98-282f-7613-87fc-abdde9d8780e","01990a84-c4ee-73c2-a87b-ff46a7d3dde5","2025-09-02_09h23.43.962",NA,NA,696.5299,696.5299,696.5299,696.8802,NA,NA,NA,NA,NA,NA,NA,TRUE,5,0.5774,693.5325,696.5298,0,107,107,43,1,30,27,NA,NA,NA,NA,NA,1,108,"likert"
"8B0A7B870B0243B1A3B69EFF69BD06EC",1,"01990a98-282f-7613-87fc-abdde9d8780e","01990a84-c4ee-73c2-a87b-ff46a7d3dde5","2025-09-02_09h23.43.962",NA,NA,706.3794,706.3795,706.3795,706.7289,NA,NA,NA,NA,NA,NA,NA,TRUE,5,2.0847,703.4095,706.3792,NA,NA,NA,NA,NA,10,27,0,0,0,8,1,2,1,"likert"
"8B0A7B870B0243B1A3B69EFF69BD06EC",1,"01990a98-282f-7613-87fc-abdde9d8780e","01990a84-c4ee-73c2-a87b-ff46a7d3dde5","2025-09-02_09h23.43.962",NA,NA,709.729,709.729,709.729,710.0784,NA,NA,NA,NA,NA,NA,NA,TRUE,5,1.0208,706.7306,709.7289,NA,NA,NA,NA,NA,100,46,0,1,1,88,1,2,2,"likert"
"8B0A7B870B0243B1A3B69EFF69BD06EC",1,"01990a98-282f-7613-87fc-abdde9d8780e","01990a84-c4ee-73c2-a87b-ff46a7d3dde5","2025-09-02_09h23.43.962",NA,NA,713.0787,713.0788,713.0789,713.4288,NA,NA,NA,NA,NA,NA,NA,TRUE,5,0.8465,710.0801,713.0783,NA,NA,NA,NA,NA,95,47,0,2,2,82,1,2,3,"likert"
"8B0A7B870B0243B1A3B69EFF69BD06EC",1,"01990a98-282f-7613-87fc-abdde9d8780e","01990a84-c4ee-73c2-a87b-ff46a7d3dde5","2025-09-02_09h23.43.962",NA,NA,716.4285,716.4286,716.4286,716.7774,NA,NA,NA,NA,NA,NA,NA,TRUE,5,1.5261,713.4305,716.4283,NA,NA,NA,NA,NA,40,47,0,3,3,52,1,2,4,"likert"
"8B0A7B870B0243B1A3B69EFF69BD06EC",1,"01990a98-282f-7613-87fc-abdde9d8780e","01990a84-c4ee-73c2-a87b-ff46a7d3dde5","2025-09-02_09h23.43.962",NA,NA,719.7776,719.7777,719.7777,720.1271,NA,NA,NA,NA,NA,NA,NA,TRUE,5,1.2026,716.7785,719.7774,NA,NA,NA,NA,NA,12,31,0,4,4,15,1,2,5,"likert"
"8B0A7B870B0243B1A3B69EFF69BD06EC",1,"01990a98-282f-7613-87fc-abdde9d8780e","01990a84-c4ee-73c2-a87b-ff46a7d3dde5","2025-09-02_09h23.43.962",NA,NA,723.1269,723.1269,723.127,723.4772,NA,NA,NA,NA,NA,NA,NA,TRUE,5,0.8176,720.1286,723.1266,NA,NA,NA,NA,NA,95,31,0,5,5,78,1,2,6,"likert"
"8B0A7B870B0243B1A3B69EFF69BD06EC",1,"01990a98-282f-7613-87fc-abdde9d8780e","01990a84-c4ee-73c2-a87b-ff46a7d3dde5","2025-09-02_09h23.43.962",NA,NA,726.4762,726.4763,726.4763,726.826,NA,NA,NA,NA,NA,NA,NA,TRUE,5,1.9115,723.4788,726.4761,NA,NA,NA,NA,NA,95,40,0,6,6,81,1,2,7,"likert"
"8B0A7B870B0243B1A3B69EFF69BD06EC",1,"01990a98-282f-7613-87fc-abdde9d8780e","01990a84-c4ee-73c2-a87b-ff46a7d3dde5","2025-09-02_09h23.43.962",NA,NA,729.8265,729.8265,729.8266,730.1758,NA,NA,NA,NA,NA,NA,NA,TRUE,5,0.9307,726.8271,729.8263,NA,NA,NA,NA,NA,60,33,0,7,7,67,1,2,8,"likert"
"8B0A7B870B0243B1A3B69EFF69BD06EC",1,"01990a98-282f-7613-87fc-abdde9d8780e","01990a84-c4ee-73c2-a87b-ff46a7d3dde5","2025-09-02_09h23.43.962",NA,NA,733.1755,733.1755,733.1755,733.5256,NA,NA,NA,NA,NA,NA,NA,TRUE,5,0.7884,730.1768,733.1753,NA,NA,NA,NA,NA,25,35,0,8,8,34,1,2,9,"likert"
"8B0A7B870B0243B1A3B69EFF69BD06EC",1,"01990a98-282f-7613-87fc-abdde9d8780e","01990a84-c4ee-73c2-a87b-ff46a7d3dde5","2025-09-02_09h23.43.962",NA,NA,736.5253,736.5254,736.5254,736.8755,NA,NA,NA,NA,NA,NA,NA,TRUE,5,0.6294,733.527,736.5251,NA,NA,NA,NA,NA,7,30,0,9,9,3,1,2,10,"likert"
"8B0A7B870B0243B1A3B69EFF69BD06EC",1,"01990a98-282f-7613-87fc-abdde9d8780e","01990a84-c4ee-73c2-a87b-ff46a7d3dde5","2025-09-02_09h23.43.962",NA,NA,739.875,739.875,739.875,740.2243,NA,NA,NA,NA,NA,NA,NA,TRUE,5,0.527,736.877,739.8748,NA,NA,NA,NA,NA,100,54,0,10,10,89,1,2,11,"likert"
"8B0A7B870B0243B1A3B69EFF69BD06EC",1,"01990a98-282f-7613-87fc-abdde9d8780e","01990a84-c4ee-73c2-a87b-ff46a7d3dde5","2025-09-02_09h23.43.962",NA,NA,743.2245,743.2246,743.2246,743.5743,NA,NA,NA,NA,NA,NA,NA,TRUE,5,0.698,740.2253,743.2244,NA,NA,NA,NA,NA,12,26,0,11,11,13,1,2,12,"likert"
"8B0A7B870B0243B1A3B69EFF69BD06EC",1,"01990a98-282f-7613-87fc-abdde9d8780e","01990a84-c4ee-73c2-a87b-ff46a7d3dde5","2025-09-02_09h23.43.962",NA,NA,746.5745,746.5746,746.5746,746.924,NA,NA,NA,NA,NA,NA,NA,TRUE,5,0.5855,743.5759,746.5742,NA,NA,NA,NA,NA,25,31,0,12,12,32,1,2,13,"likert"
"8B0A7B870B0243B1A3B69EFF69BD06EC",1,"01990a98-282f-7613-87fc-abdde9d8780e","01990a84-c4ee-73c2-a87b-ff46a7d3dde5","2025-09-02_09h23.43.962",NA,NA,749.9235,749.9236,749.9237,750.2731,NA,NA,NA,NA,NA,NA,NA,TRUE,5,0.4522,746.9256,749.9234,NA,NA,NA,NA,NA,40,35,0,13,13,50,1,2,14,"likert"
"8B0A7B870B0243B1A3B69EFF69BD06EC",1,"01990a98-282f-7613-87fc-abdde9d8780e","01990a84-c4ee-73c2-a87b-ff46a7d3dde5","2025-09-02_09h23.43.962",NA,NA,753.2741,753.2742,753.2742,753.6232,NA,NA,NA,NA,NA,NA,NA,TRUE,5,0.5807,750.2741,753.2739,NA,NA,NA,NA,NA,7,35,0,14,14,5,1,2,15,"likert"
"8B0A7B870B0243B1A3B69EFF69BD06EC",1,"01990a98-282f-7613-87fc-abdde9d8780e","01990a84-c4ee-73c2-a87b-ff46a7d3dde5","2025-09-02_09h23.43.962",NA,NA,756.6223,756.6223,756.6223,756.9721,NA,NA,NA,NA,NA,NA,NA,TRUE,5,0.3054,753.6249,756.6222,NA,NA,NA,NA,NA,95,33,0,15,15,79,1,2,16,"likert"
"8B0A7B870B0243B1A3B69EFF69BD06EC",1,"01990a98-282f-7613-87fc-abdde9d8780e","01990a84-c4ee-73c2-a87b-ff46a7d3dde5","2025-09-02_09h23.43.962",NA,NA,759.9723,760.2222,760.2222,760.322,NA,NA,NA,NA,NA,NA,NA,FALSE,NA,NA,756.9729,759.9721,NA,NA,NA,NA,NA,10,26,0,16,16,7,1,2,17,"likert"
"8B0A7B870B0243B1A3B69EFF69BD06EC",1,"01990a98-282f-7613-87fc-abdde9d8780e","01990a84-c4ee-73c2-a87b-ff46a7d3dde5","2025-09-02_09h23.43.962",NA,NA,763.3222,763.3222,763.3222,763.672,NA,NA,NA,NA,NA,NA,NA,TRUE,5,0.575,760.3238,763.3219,NA,NA,NA,NA,NA,21,27,0,17,17,25,1,2,18,"likert"
"8B0A7B870B0243B1A3B69EFF69BD06EC",1,"01990a98-282f-7613-87fc-abdde9d8780e","01990a84-c4ee-73c2-a87b-ff46a7d3dde5","2025-09-02_09h23.43.962",NA,NA,766.6715,766.6715,766.6716,767.0212,NA,NA,NA,NA,NA,NA,NA,TRUE,5,0.6817,763.6734,766.6714,NA,NA,NA,NA,NA,60,54,0,18,18,71,1,2,19,"likert"
"8B0A7B870B0243B1A3B69EFF69BD06EC",1,"01990a98-282f-7613-87fc-abdde9d8780e","01990a84-c4ee-73c2-a87b-ff46a7d3dde5","2025-09-02_09h23.43.962",NA,NA,770.0215,770.0215,770.0216,770.3712,NA,NA,NA,NA,NA,NA,NA,TRUE,5,0.6718,767.0232,770.0212,NA,NA,NA,NA,NA,180,46,0,19,19,100,1,2,20,"likert"
"8B0A7B870B0243B1A3B69EFF69BD06EC",1,"01990a98-282f-7613-87fc-abdde9d8780e","01990a84-c4ee-73c2-a87b-ff46a7d3dde5","2025-09-02_09h23.43.962",NA,NA,773.3707,773.3707,773.3708,773.7207,NA,NA,NA,NA,NA,NA,NA,TRUE,5,1.3119,770.3727,773.3705,NA,NA,NA,NA,NA,12,35,0,20,20,17,1,2,21,"likert"
"8B0A7B870B0243B1A3B69EFF69BD06EC",1,"01990a98-282f-7613-87fc-abdde9d8780e","01990a84-c4ee-73c2-a87b-ff46a7d3dde5","2025-09-02_09h23.43.962",NA,NA,776.7207,776.7207,776.7208,777.0701,NA,NA,NA,NA,NA,NA,NA,TRUE,5,0.712,773.7223,776.7205,NA,NA,NA,NA,NA,90,54,0,21,21,77,1,2,22,"likert"
"8B0A7B870B0243B1A3B69EFF69BD06EC",1,"01990a98-282f-7613-87fc-abdde9d8780e","01990a84-c4ee-73c2-a87b-ff46a7d3dde5","2025-09-02_09h23.43.962",NA,NA,780.0698,780.0698,780.0699,780.4199,NA,NA,NA,NA,NA,NA,NA,TRUE,5,1.6181,777.0717,780.0695,NA,NA,NA,NA,NA,14,39,0,22,22,23,1,2,23,"likert"
"8B0A7B870B0243B1A3B69EFF69BD06EC",1,"01990a98-282f-7613-87fc-abdde9d8780e","01990a84-c4ee-73c2-a87b-ff46a7d3dde5","2025-09-02_09h23.43.962",NA,NA,783.4194,783.4194,783.4194,783.769,NA,NA,NA,NA,NA,NA,NA,TRUE,5,1.9539,780.4216,783.4192,NA,NA,NA,NA,NA,45,31,0,23,23,56,1,2,24,"likert"
"8B0A7B870B0243B1A3B69EFF69BD06EC",1,"01990a98-282f-7613-87fc-abdde9d8780e","01990a84-c4ee-73c2-a87b-ff46a7d3dde5","2025-09-02_09h23.43.962",NA,NA,786.7685,787.0181,787.0181,787.1182,NA,NA,NA,NA,NA,NA,NA,FALSE,NA,NA,783.7706,786.7683,NA,NA,NA,NA,NA,10,29,0,24,24,9,1,2,25,"likert"
"8B0A7B870B0243B1A3B69EFF69BD06EC",1,"01990a98-282f-7613-87fc-abdde9d8780e","01990a84-c4ee-73c2-a87b-ff46a7d3dde5","2025-09-02_09h23.43.962",NA,NA,790.1184,790.1185,790.1185,790.4682,NA,NA,NA,NA,NA,NA,NA,TRUE,5,0.8491,787.119,790.1182,NA,NA,NA,NA,NA,150,54,0,25,25,95,1,2,26,"likert"
"8B0A7B870B0243B1A3B69EFF69BD06EC",1,"01990a98-282f-7613-87fc-abdde9d8780e","01990a84-c4ee-73c2-a87b-ff46a7d3dde5","2025-09-02_09h23.43.962",NA,NA,793.4683,793.4685,793.4685,793.8183,NA,NA,NA,NA,NA,NA,NA,TRUE,5,0.6643,790.47,793.4682,NA,NA,NA,NA,NA,150,47,0,26,26,94,1,2,27,"likert"
"8B0A7B870B0243B1A3B69EFF69BD06EC",1,"01990a98-282f-7613-87fc-abdde9d8780e","01990a84-c4ee-73c2-a87b-ff46a7d3dde5","2025-09-02_09h23.43.962",NA,NA,796.8179,796.818,796.818,797.1835,NA,NA,NA,NA,NA,NA,NA,TRUE,5,1.0678,793.8199,796.8177,NA,NA,NA,NA,NA,100,38,0,27,27,86,1,2,28,"likert"
"8B0A7B870B0243B1A3B69EFF69BD06EC",1,"01990a98-282f-7613-87fc-abdde9d8780e","01990a84-c4ee-73c2-a87b-ff46a7d3dde5","2025-09-02_09h23.43.962",NA,NA,800.1841,800.4336,800.4337,800.5335,NA,NA,NA,NA,NA,NA,NA,FALSE,NA,NA,797.1845,800.1838,NA,NA,NA,NA,NA,30,30,0,28,28,45,1,2,29,"likert"
"8B0A7B870B0243B1A3B69EFF69BD06EC",1,"01990a98-282f-7613-87fc-abdde9d8780e","01990a84-c4ee-73c2-a87b-ff46a7d3dde5","2025-09-02_09h23.43.962",NA,NA,803.534,803.534,803.534,803.8831,NA,NA,NA,NA,NA,NA,NA,TRUE,5,0.1045,800.5351,803.5338,NA,NA,NA,NA,NA,30,32,0,29,29,46,1,2,30,"likert"
"8B0A7B870B0243B1A3B69EFF69BD06EC",1,"01990a98-282f-7613-87fc-abdde9d8780e","01990a84-c4ee-73c2-a87b-ff46a7d3dde5","2025-09-02_09h23.43.962",NA,NA,806.8829,806.8831,806.8831,807.2325,NA,NA,NA,NA,NA,NA,NA,TRUE,5,0.5932,803.8848,806.8826,NA,NA,NA,NA,NA,180,27,0,30,30,96,1,2,31,"likert"
"8B0A7B870B0243B1A3B69EFF69BD06EC",1,"01990a98-282f-7613-87fc-abdde9d8780e","01990a84-c4ee-73c2-a87b-ff46a7d3dde5","2025-09-02_09h23.43.962",NA,NA,810.2325,810.2326,810.2326,810.5828,NA,NA,NA,NA,NA,NA,NA,TRUE,5,0.5951,807.2341,810.2323,NA,NA,NA,NA,NA,90,40,0,31,31,75,1,2,32,"likert"
"8B0A7B870B0243B1A3B69EFF69BD06EC",1,"01990a98-282f-7613-87fc-abdde9d8780e","01990a84-c4ee-73c2-a87b-ff46a7d3dde5","2025-09-02_09h23.43.962",NA,NA,813.582,813.5821,813.5821,813.9321,NA,NA,NA,NA,NA,NA,NA,TRUE,5,0.4327,810.5843,813.5819,NA,NA,NA,NA,NA,30,26,0,32,32,42,1,2,33,"likert"
"8B0A7B870B0243B1A3B69EFF69BD06EC",1,"01990a98-282f-7613-87fc-abdde9d8780e","01990a84-c4ee-73c2-a87b-ff46a7d3dde5","2025-09-02_09h23.43.962",NA,NA,816.9311,816.9311,816.9311,817.2814,NA,NA,NA,NA,NA,NA,NA,TRUE,5,0.5452,813.9341,816.931,NA,NA,NA,NA,NA,21,30,0,33,33,27,1,2,34,"likert"
"8B0A7B870B0243B1A3B69EFF69BD06EC",1,"01990a98-282f-7613-87fc-abdde9d8780e","01990a84-c4ee-73c2-a87b-ff46a7d3dde5","2025-09-02_09h23.43.962",NA,NA,820.2814,820.2815,820.2815,820.6308,NA,NA,NA,NA,NA,NA,NA,TRUE,5,0.5266,817.2828,820.2812,NA,NA,NA,NA,NA,21,29,0,34,34,26,1,2,35,"likert"
"8B0A7B870B0243B1A3B69EFF69BD06EC",1,"01990a98-282f-7613-87fc-abdde9d8780e","01990a84-c4ee-73c2-a87b-ff46a7d3dde5","2025-09-02_09h23.43.962",NA,NA,823.6309,823.631,823.6311,823.9806,NA,NA,NA,NA,NA,NA,NA,TRUE,5,0.5627,820.6323,823.6306,NA,NA,NA,NA,NA,100,26,0,35,35,84,1,2,36,"likert"
"8B0A7B870B0243B1A3B69EFF69BD06EC",1,"01990a98-282f-7613-87fc-abdde9d8780e","01990a84-c4ee-73c2-a87b-ff46a7d3dde5","2025-09-02_09h23.43.962",NA,NA,826.9807,826.9809,826.9809,827.3304,NA,NA,NA,NA,NA,NA,NA,TRUE,5,0.2139,823.9819,826.9805,NA,NA,NA,NA,NA,21,38,0,36,36,29,1,2,37,"likert"
"8B0A7B870B0243B1A3B69EFF69BD06EC",1,"01990a98-282f-7613-87fc-abdde9d8780e","01990a84-c4ee-73c2-a87b-ff46a7d3dde5","2025-09-02_09h23.43.962",NA,NA,830.3299,830.33,830.3301,830.6799,NA,NA,NA,NA,NA,NA,NA,TRUE,5,0.2124,827.3322,830.3296,NA,NA,NA,NA,NA,25,46,0,37,37,35,1,2,38,"likert"
"8B0A7B870B0243B1A3B69EFF69BD06EC",1,"01990a98-282f-7613-87fc-abdde9d8780e","01990a84-c4ee-73c2-a87b-ff46a7d3dde5","2025-09-02_09h23.43.962",NA,NA,833.6798,833.68,833.6801,834.03,NA,NA,NA,NA,NA,NA,NA,TRUE,5,0.3861,830.6815,833.6797,NA,NA,NA,NA,NA,28,46,0,38,38,41,1,2,39,"likert"
"8B0A7B870B0243B1A3B69EFF69BD06EC",1,"01990a98-282f-7613-87fc-abdde9d8780e","01990a84-c4ee-73c2-a87b-ff46a7d3dde5","2025-09-02_09h23.43.962",NA,NA,837.0291,837.0292,837.0292,837.3786,NA,NA,NA,NA,NA,NA,NA,TRUE,5,0.5625,834.0316,837.0289,NA,NA,NA,NA,NA,180,39,0,39,39,99,1,2,40,"likert"
"8B0A7B870B0243B1A3B69EFF69BD06EC",1,"01990a98-282f-7613-87fc-abdde9d8780e","01990a84-c4ee-73c2-a87b-ff46a7d3dde5","2025-09-02_09h23.43.962",NA,NA,840.3788,840.3788,840.3788,840.7283,NA,NA,NA,NA,NA,NA,NA,TRUE,5,0.3793,837.3798,840.3786,NA,NA,NA,NA,NA,7,32,0,40,40,4,1,2,41,"likert"
"8B0A7B870B0243B1A3B69EFF69BD06EC",1,"01990a98-282f-7613-87fc-abdde9d8780e","01990a84-c4ee-73c2-a87b-ff46a7d3dde5","2025-09-02_09h23.43.962",NA,NA,843.7287,843.7288,843.7288,844.078,NA,NA,NA,NA,NA,NA,NA,TRUE,5,0.5509,840.7297,843.7284,NA,NA,NA,NA,NA,45,26,0,41,41,54,1,2,42,"likert"
"8B0A7B870B0243B1A3B69EFF69BD06EC",1,"01990a98-282f-7613-87fc-abdde9d8780e","01990a84-c4ee-73c2-a87b-ff46a7d3dde5","2025-09-02_09h23.43.962",NA,NA,847.0772,847.0772,847.0772,847.4273,NA,NA,NA,NA,NA,NA,NA,TRUE,5,0.5153,844.0797,847.0771,NA,NA,NA,NA,NA,100,39,0,42,42,87,1,2,43,"likert"
"8B0A7B870B0243B1A3B69EFF69BD06EC",1,"01990a98-282f-7613-87fc-abdde9d8780e","01990a84-c4ee-73c2-a87b-ff46a7d3dde5","2025-09-02_09h23.43.962",NA,NA,850.4278,850.4278,850.4279,850.7771,NA,NA,NA,NA,NA,NA,NA,TRUE,5,0.5803,847.4283,850.4275,NA,NA,NA,NA,NA,90,46,0,43,43,76,1,2,44,"likert"
"8B0A7B870B0243B1A3B69EFF69BD06EC",1,"01990a98-282f-7613-87fc-abdde9d8780e","01990a84-c4ee-73c2-a87b-ff46a7d3dde5","2025-09-02_09h23.43.962",NA,NA,853.777,853.777,853.7771,854.1269,NA,NA,NA,NA,NA,NA,NA,TRUE,5,0.5183,850.7789,853.7768,NA,NA,NA,NA,NA,60,47,0,44,44,70,1,2,45,"likert"
"8B0A7B870B0243B1A3B69EFF69BD06EC",1,"01990a98-282f-7613-87fc-abdde9d8780e","01990a84-c4ee-73c2-a87b-ff46a7d3dde5","2025-09-02_09h23.43.962",NA,NA,857.1262,857.1262,857.1262,857.4762,NA,NA,NA,NA,NA,NA,NA,TRUE,5,0.5698,854.1288,857.1261,NA,NA,NA,NA,NA,40,27,0,45,45,48,1,2,46,"likert"
"8B0A7B870B0243B1A3B69EFF69BD06EC",1,"01990a98-282f-7613-87fc-abdde9d8780e","01990a84-c4ee-73c2-a87b-ff46a7d3dde5","2025-09-02_09h23.43.962",NA,NA,860.4762,860.4762,860.4762,860.8258,NA,NA,NA,NA,NA,NA,NA,TRUE,5,0.6787,857.4776,860.476,NA,NA,NA,NA,NA,90,26,0,46,46,72,1,2,47,"likert"
"8B0A7B870B0243B1A3B69EFF69BD06EC",1,"01990a98-282f-7613-87fc-abdde9d8780e","01990a84-c4ee-73c2-a87b-ff46a7d3dde5","2025-09-02_09h23.43.962",NA,NA,863.8262,863.8263,863.8263,864.1754,NA,NA,NA,NA,NA,NA,NA,TRUE,5,0.6363,860.8275,863.826,NA,NA,NA,NA,NA,200,47,0,47,47,106,1,2,48,"likert"
"8B0A7B870B0243B1A3B69EFF69BD06EC",1,"01990a98-282f-7613-87fc-abdde9d8780e","01990a84-c4ee-73c2-a87b-ff46a7d3dde5","2025-09-02_09h23.43.962",NA,NA,867.1752,867.1753,867.1753,867.5249,NA,NA,NA,NA,NA,NA,NA,TRUE,5,0.6858,864.1767,867.1751,NA,NA,NA,NA,NA,200,54,0,48,48,107,1,2,49,"likert"
"8B0A7B870B0243B1A3B69EFF69BD06EC",1,"01990a98-282f-7613-87fc-abdde9d8780e","01990a84-c4ee-73c2-a87b-ff46a7d3dde5","2025-09-02_09h23.43.962",NA,NA,870.5249,870.525,870.525,870.8749,NA,NA,NA,NA,NA,NA,NA,TRUE,5,0.6692,867.5265,870.5247,NA,NA,NA,NA,NA,180,54,0,49,49,101,1,2,50,"likert"
"8B0A7B870B0243B1A3B69EFF69BD06EC",1,"01990a98-282f-7613-87fc-abdde9d8780e","01990a84-c4ee-73c2-a87b-ff46a7d3dde5","2025-09-02_09h23.43.962",NA,NA,873.8742,873.8742,873.8743,874.2238,NA,NA,NA,NA,NA,NA,NA,TRUE,5,0.6899,870.8763,873.874,NA,NA,NA,NA,NA,12,25,0,50,50,12,1,2,51,"likert"
"8B0A7B870B0243B1A3B69EFF69BD06EC",1,"01990a98-282f-7613-87fc-abdde9d8780e","01990a84-c4ee-73c2-a87b-ff46a7d3dde5","2025-09-02_09h23.43.962",NA,NA,877.2238,877.2239,877.2239,877.5738,NA,NA,NA,NA,NA,NA,NA,TRUE,5,0.7743,874.2245,877.2238,NA,NA,NA,NA,NA,28,35,0,51,51,39,1,2,52,"likert"
"8B0A7B870B0243B1A3B69EFF69BD06EC",1,"01990a98-282f-7613-87fc-abdde9d8780e","01990a84-c4ee-73c2-a87b-ff46a7d3dde5","2025-09-02_09h23.43.962",NA,NA,880.5739,880.5739,880.5739,880.9235,NA,NA,NA,NA,NA,NA,NA,TRUE,5,0.5962,877.5753,880.5736,NA,NA,NA,NA,NA,50,27,0,52,52,60,1,2,53,"likert"
"8B0A7B870B0243B1A3B69EFF69BD06EC",1,"01990a98-282f-7613-87fc-abdde9d8780e","01990a84-c4ee-73c2-a87b-ff46a7d3dde5","2025-09-02_09h23.43.962",NA,NA,883.9234,883.9234,883.9234,884.2729,NA,NA,NA,NA,NA,NA,NA,TRUE,5,1.2273,880.9251,883.9232,NA,NA,NA,NA,NA,50,46,0,53,53,64,1,2,54,"likert"
"8B0A7B870B0243B1A3B69EFF69BD06EC",1,"01990a98-282f-7613-87fc-abdde9d8780e","01990a84-c4ee-73c2-a87b-ff46a7d3dde5","2025-09-02_09h23.43.962",NA,NA,887.2728,887.2728,887.2729,887.6225,NA,NA,NA,NA,NA,NA,NA,TRUE,5,0.9769,884.2747,887.2726,NA,NA,NA,NA,NA,28,32,0,54,54,38,1,2,55,"likert"
"8B0A7B870B0243B1A3B69EFF69BD06EC",1,"01990a98-282f-7613-87fc-abdde9d8780e","01990a84-c4ee-73c2-a87b-ff46a7d3dde5","2025-09-02_09h23.43.962",NA,NA,890.623,890.6231,890.6231,890.9718,NA,NA,NA,NA,NA,NA,NA,TRUE,5,0.6278,887.624,890.6227,NA,NA,NA,NA,NA,21,26,0,55,55,24,1,2,56,"likert"
"8B0A7B870B0243B1A3B69EFF69BD06EC",1,"01990a98-282f-7613-87fc-abdde9d8780e","01990a84-c4ee-73c2-a87b-ff46a7d3dde5","2025-09-02_09h23.43.962",NA,NA,893.9722,893.9722,893.9723,894.3219,NA,NA,NA,NA,NA,NA,NA,TRUE,5,0.4467,890.9733,893.9718,NA,NA,NA,NA,NA,28,28,0,56,56,37,1,2,57,"likert"
"8B0A7B870B0243B1A3B69EFF69BD06EC",1,"01990a98-282f-7613-87fc-abdde9d8780e","01990a84-c4ee-73c2-a87b-ff46a7d3dde5","2025-09-02_09h23.43.962",NA,NA,897.3219,897.3219,897.322,897.6712,NA,NA,NA,NA,NA,NA,NA,TRUE,5,0.8805,894.3233,897.3216,NA,NA,NA,NA,NA,14,32,0,57,57,21,1,2,58,"likert"
"8B0A7B870B0243B1A3B69EFF69BD06EC",1,"01990a98-282f-7613-87fc-abdde9d8780e","01990a84-c4ee-73c2-a87b-ff46a7d3dde5","2025-09-02_09h23.43.962",NA,NA,900.671,900.6711,900.6711,901.021,NA,NA,NA,NA,NA,NA,NA,TRUE,5,0.6284,897.6728,900.6709,NA,NA,NA,NA,NA,60,29,0,58,58,66,1,2,59,"likert"
"8B0A7B870B0243B1A3B69EFF69BD06EC",1,"01990a98-282f-7613-87fc-abdde9d8780e","01990a84-c4ee-73c2-a87b-ff46a7d3dde5","2025-09-02_09h23.43.962",NA,NA,904.0205,904.0205,904.0205,904.3702,NA,NA,NA,NA,NA,NA,NA,TRUE,5,0.312,901.0228,904.0203,NA,NA,NA,NA,NA,60,40,0,59,59,69,1,2,60,"likert"
"8B0A7B870B0243B1A3B69EFF69BD06EC",1,"01990a98-282f-7613-87fc-abdde9d8780e","01990a84-c4ee-73c2-a87b-ff46a7d3dde5","2025-09-02_09h23.43.962",NA,NA,907.3699,907.37,907.37,907.72,NA,NA,NA,NA,NA,NA,NA,TRUE,5,0.3173,904.3718,907.3698,NA,NA,NA,NA,NA,50,54,0,60,60,65,1,2,61,"likert"
"8B0A7B870B0243B1A3B69EFF69BD06EC",1,"01990a98-282f-7613-87fc-abdde9d8780e","01990a84-c4ee-73c2-a87b-ff46a7d3dde5","2025-09-02_09h23.43.962",NA,NA,910.7197,910.7197,910.7197,911.0696,NA,NA,NA,NA,NA,NA,NA,TRUE,5,0.1967,907.7217,910.7195,NA,NA,NA,NA,NA,14,26,0,61,61,19,1,2,62,"likert"
"8B0A7B870B0243B1A3B69EFF69BD06EC",1,"01990a98-282f-7613-87fc-abdde9d8780e","01990a84-c4ee-73c2-a87b-ff46a7d3dde5","2025-09-02_09h23.43.962",NA,NA,914.0692,914.0693,914.0695,914.4189,NA,NA,NA,NA,NA,NA,NA,TRUE,5,0.2945,911.0713,914.0691,NA,NA,NA,NA,NA,28,26,0,62,62,36,1,2,63,"likert"
"8B0A7B870B0243B1A3B69EFF69BD06EC",1,"01990a98-282f-7613-87fc-abdde9d8780e","01990a84-c4ee-73c2-a87b-ff46a7d3dde5","2025-09-02_09h23.43.962",NA,NA,917.4189,917.419,917.419,917.7685,NA,NA,NA,NA,NA,NA,NA,TRUE,5,0.3822,914.4205,917.4187,NA,NA,NA,NA,NA,200,35,0,63,63,104,1,2,64,"likert"
"8B0A7B870B0243B1A3B69EFF69BD06EC",1,"01990a98-282f-7613-87fc-abdde9d8780e","01990a84-c4ee-73c2-a87b-ff46a7d3dde5","2025-09-02_09h23.43.962",NA,NA,920.7686,920.7686,920.7686,921.118,NA,NA,NA,NA,NA,NA,NA,TRUE,5,0.4479,917.7699,920.7684,NA,NA,NA,NA,NA,25,27,0,64,64,30,1,2,65,"likert"
"8B0A7B870B0243B1A3B69EFF69BD06EC",1,"01990a98-282f-7613-87fc-abdde9d8780e","01990a84-c4ee-73c2-a87b-ff46a7d3dde5","2025-09-02_09h23.43.962",NA,NA,924.1181,924.1181,924.1181,924.4681,NA,NA,NA,NA,NA,NA,NA,TRUE,5,0.3222,921.1198,924.1179,NA,NA,NA,NA,NA,50,40,0,65,65,63,1,2,66,"likert"
"8B0A7B870B0243B1A3B69EFF69BD06EC",1,"01990a98-282f-7613-87fc-abdde9d8780e","01990a84-c4ee-73c2-a87b-ff46a7d3dde5","2025-09-02_09h23.43.962",NA,NA,927.4675,927.4675,927.4676,927.8175,NA,NA,NA,NA,NA,NA,NA,TRUE,5,0.2608,924.4695,927.4674,NA,NA,NA,NA,NA,150,40,0,66,66,93,1,2,67,"likert"
"8B0A7B870B0243B1A3B69EFF69BD06EC",1,"01990a98-282f-7613-87fc-abdde9d8780e","01990a84-c4ee-73c2-a87b-ff46a7d3dde5","2025-09-02_09h23.43.962",NA,NA,930.8338,930.834,930.834,931.1837,NA,NA,NA,NA,NA,NA,NA,TRUE,5,0.5171,927.819,930.8336,NA,NA,NA,NA,NA,30,27,0,67,67,43,1,2,68,"likert"
"8B0A7B870B0243B1A3B69EFF69BD06EC",1,"01990a98-282f-7613-87fc-abdde9d8780e","01990a84-c4ee-73c2-a87b-ff46a7d3dde5","2025-09-02_09h23.43.962",NA,NA,934.1829,934.183,934.183,934.5332,NA,NA,NA,NA,NA,NA,NA,TRUE,5,0.6494,931.1851,934.1827,NA,NA,NA,NA,NA,50,30,0,68,68,61,1,2,69,"likert"
"8B0A7B870B0243B1A3B69EFF69BD06EC",1,"01990a98-282f-7613-87fc-abdde9d8780e","01990a84-c4ee-73c2-a87b-ff46a7d3dde5","2025-09-02_09h23.43.962",NA,NA,937.5331,937.5331,937.5332,937.8826,NA,NA,NA,NA,NA,NA,NA,TRUE,5,0.9315,934.5349,937.5329,NA,NA,NA,NA,NA,25,33,0,69,69,33,1,2,70,"likert"
"8B0A7B870B0243B1A3B69EFF69BD06EC",1,"01990a98-282f-7613-87fc-abdde9d8780e","01990a84-c4ee-73c2-a87b-ff46a7d3dde5","2025-09-02_09h23.43.962",NA,NA,940.8826,940.8828,940.8829,941.2321,NA,NA,NA,NA,NA,NA,NA,TRUE,5,0.5189,937.8838,940.8822,NA,NA,NA,NA,NA,95,54,0,70,70,83,1,2,71,"likert"
"8B0A7B870B0243B1A3B69EFF69BD06EC",1,"01990a98-282f-7613-87fc-abdde9d8780e","01990a84-c4ee-73c2-a87b-ff46a7d3dde5","2025-09-02_09h23.43.962",NA,NA,944.2321,944.2322,944.2322,944.582,NA,NA,NA,NA,NA,NA,NA,TRUE,5,0.6709,941.2337,944.232,NA,NA,NA,NA,NA,40,33,0,71,71,49,1,2,72,"likert"
"8B0A7B870B0243B1A3B69EFF69BD06EC",1,"01990a98-282f-7613-87fc-abdde9d8780e","01990a84-c4ee-73c2-a87b-ff46a7d3dde5","2025-09-02_09h23.43.962",NA,NA,947.5816,947.5817,947.5818,947.9316,NA,NA,NA,NA,NA,NA,NA,TRUE,5,0.6447,944.5833,947.5814,NA,NA,NA,NA,NA,7,28,0,72,72,2,1,2,73,"likert"
"8B0A7B870B0243B1A3B69EFF69BD06EC",1,"01990a98-282f-7613-87fc-abdde9d8780e","01990a84-c4ee-73c2-a87b-ff46a7d3dde5","2025-09-02_09h23.43.962",NA,NA,950.9315,950.9316,950.9317,951.2808,NA,NA,NA,NA,NA,NA,NA,TRUE,5,0.8468,947.9336,950.9313,NA,NA,NA,NA,NA,50,35,0,73,73,62,1,2,74,"likert"
"8B0A7B870B0243B1A3B69EFF69BD06EC",1,"01990a98-282f-7613-87fc-abdde9d8780e","01990a84-c4ee-73c2-a87b-ff46a7d3dde5","2025-09-02_09h23.43.962",NA,NA,954.2813,954.2814,954.2814,954.6307,NA,NA,NA,NA,NA,NA,NA,TRUE,5,0.6788,951.2824,954.2811,NA,NA,NA,NA,NA,150,33,0,74,74,91,1,2,75,"likert"
"8B0A7B870B0243B1A3B69EFF69BD06EC",1,"01990a98-282f-7613-87fc-abdde9d8780e","01990a84-c4ee-73c2-a87b-ff46a7d3dde5","2025-09-02_09h23.43.962",NA,NA,957.6304,957.6305,957.6305,957.9801,NA,NA,NA,NA,NA,NA,NA,TRUE,5,0.6454,954.6326,957.6302,NA,NA,NA,NA,NA,10,30,0,75,75,10,1,2,76,"likert"
"8B0A7B870B0243B1A3B69EFF69BD06EC",1,"01990a98-282f-7613-87fc-abdde9d8780e","01990a84-c4ee-73c2-a87b-ff46a7d3dde5","2025-09-02_09h23.43.962",NA,NA,960.9803,960.9804,960.9804,961.3298,NA,NA,NA,NA,NA,NA,NA,TRUE,5,0.6499,957.9816,960.98,NA,NA,NA,NA,NA,28,39,0,76,76,40,1,2,77,"likert"
"8B0A7B870B0243B1A3B69EFF69BD06EC",1,"01990a98-282f-7613-87fc-abdde9d8780e","01990a84-c4ee-73c2-a87b-ff46a7d3dde5","2025-09-02_09h23.43.962",NA,NA,964.3296,964.3296,964.3296,964.6794,NA,NA,NA,NA,NA,NA,NA,TRUE,5,0.6609,961.331,964.3295,NA,NA,NA,NA,NA,7,25,0,77,77,0,1,2,78,"likert"
"8B0A7B870B0243B1A3B69EFF69BD06EC",1,"01990a98-282f-7613-87fc-abdde9d8780e","01990a84-c4ee-73c2-a87b-ff46a7d3dde5","2025-09-02_09h23.43.962",NA,NA,967.6789,967.6789,967.6789,968.0286,NA,NA,NA,NA,NA,NA,NA,TRUE,5,0.4538,964.6811,967.6787,NA,NA,NA,NA,NA,180,31,0,78,78,97,1,2,79,"likert"
"8B0A7B870B0243B1A3B69EFF69BD06EC",1,"01990a98-282f-7613-87fc-abdde9d8780e","01990a84-c4ee-73c2-a87b-ff46a7d3dde5","2025-09-02_09h23.43.962",NA,NA,971.0283,971.0283,971.0284,971.3784,NA,NA,NA,NA,NA,NA,NA,TRUE,5,0.527,968.0303,971.0281,NA,NA,NA,NA,NA,100,31,0,79,79,85,1,2,80,"likert"
"8B0A7B870B0243B1A3B69EFF69BD06EC",1,"01990a98-282f-7613-87fc-abdde9d8780e","01990a84-c4ee-73c2-a87b-ff46a7d3dde5","2025-09-02_09h23.43.962",NA,NA,974.378,974.378,974.3781,974.7281,NA,NA,NA,NA,NA,NA,NA,TRUE,5,0.6312,971.3799,974.3778,NA,NA,NA,NA,NA,14,25,0,80,80,18,1,2,81,"likert"
"8B0A7B870B0243B1A3B69EFF69BD06EC",1,"01990a98-282f-7613-87fc-abdde9d8780e","01990a84-c4ee-73c2-a87b-ff46a7d3dde5","2025-09-02_09h23.43.962",NA,NA,977.7279,977.7279,977.7279,978.0772,NA,NA,NA,NA,NA,NA,NA,TRUE,5,0.7948,974.7298,977.7277,NA,NA,NA,NA,NA,45,35,0,81,81,57,1,2,82,"likert"
"8B0A7B870B0243B1A3B69EFF69BD06EC",1,"01990a98-282f-7613-87fc-abdde9d8780e","01990a84-c4ee-73c2-a87b-ff46a7d3dde5","2025-09-02_09h23.43.962",NA,NA,981.0775,981.0776,981.0776,981.4274,NA,NA,NA,NA,NA,NA,NA,TRUE,5,0.9942,978.0786,981.0772,NA,NA,NA,NA,NA,95,35,0,82,82,80,1,2,83,"likert"
"8B0A7B870B0243B1A3B69EFF69BD06EC",1,"01990a98-282f-7613-87fc-abdde9d8780e","01990a84-c4ee-73c2-a87b-ff46a7d3dde5","2025-09-02_09h23.43.962",NA,NA,984.4273,984.4274,984.4274,984.7767,NA,NA,NA,NA,NA,NA,NA,TRUE,5,0.9267,981.4298,984.4271,NA,NA,NA,NA,NA,30,29,0,83,83,44,1,2,84,"likert"
"8B0A7B870B0243B1A3B69EFF69BD06EC",1,"01990a98-282f-7613-87fc-abdde9d8780e","01990a84-c4ee-73c2-a87b-ff46a7d3dde5","2025-09-02_09h23.43.962",NA,NA,987.7765,987.7766,987.7766,988.1262,NA,NA,NA,NA,NA,NA,NA,TRUE,5,0.7504,984.7788,987.7764,NA,NA,NA,NA,NA,90,30,0,84,84,73,1,2,85,"likert"
"8B0A7B870B0243B1A3B69EFF69BD06EC",1,"01990a98-282f-7613-87fc-abdde9d8780e","01990a84-c4ee-73c2-a87b-ff46a7d3dde5","2025-09-02_09h23.43.962",NA,NA,991.1259,991.126,991.126,991.4757,NA,NA,NA,NA,NA,NA,NA,TRUE,5,0.578,988.1286,991.1257,NA,NA,NA,NA,NA,21,32,0,85,85,28,1,2,86,"likert"
"8B0A7B870B0243B1A3B69EFF69BD06EC",1,"01990a98-282f-7613-87fc-abdde9d8780e","01990a84-c4ee-73c2-a87b-ff46a7d3dde5","2025-09-02_09h23.43.962",NA,NA,994.476,994.4761,994.4763,994.8256,NA,NA,NA,NA,NA,NA,NA,TRUE,5,0.5855,991.4777,994.4758,NA,NA,NA,NA,NA,200,26,0,86,86,102,1,2,87,"likert"
"8B0A7B870B0243B1A3B69EFF69BD06EC",1,"01990a98-282f-7613-87fc-abdde9d8780e","01990a84-c4ee-73c2-a87b-ff46a7d3dde5","2025-09-02_09h23.43.962",NA,NA,997.825,997.825,997.825,998.1749,NA,NA,NA,NA,NA,NA,NA,TRUE,5,0.7003,994.8277,997.8249,NA,NA,NA,NA,NA,12,28,0,87,87,14,1,2,88,"likert"
"8B0A7B870B0243B1A3B69EFF69BD06EC",1,"01990a98-282f-7613-87fc-abdde9d8780e","01990a84-c4ee-73c2-a87b-ff46a7d3dde5","2025-09-02_09h23.43.962",NA,NA,1001.1744,1001.1744,1001.1745,1001.5248,NA,NA,NA,NA,NA,NA,NA,TRUE,5,0.6606,998.1766,1001.1743,NA,NA,NA,NA,NA,45,29,0,88,88,55,1,2,89,"likert"
"8B0A7B870B0243B1A3B69EFF69BD06EC",1,"01990a98-282f-7613-87fc-abdde9d8780e","01990a84-c4ee-73c2-a87b-ff46a7d3dde5","2025-09-02_09h23.43.962",NA,NA,1004.5245,1004.5245,1004.5247,1004.8743,NA,NA,NA,NA,NA,NA,NA,TRUE,5,0.9433,1001.5268,1004.5242,NA,NA,NA,NA,NA,40,40,0,89,89,51,1,2,90,"likert"
"8B0A7B870B0243B1A3B69EFF69BD06EC",1,"01990a98-282f-7613-87fc-abdde9d8780e","01990a84-c4ee-73c2-a87b-ff46a7d3dde5","2025-09-02_09h23.43.962",NA,NA,1007.8743,1007.8743,1007.8743,1008.2234,NA,NA,NA,NA,NA,NA,NA,TRUE,5,0.7347,1004.8762,1007.874,NA,NA,NA,NA,NA,200,39,0,90,90,105,1,2,91,"likert"
"8B0A7B870B0243B1A3B69EFF69BD06EC",1,"01990a98-282f-7613-87fc-abdde9d8780e","01990a84-c4ee-73c2-a87b-ff46a7d3dde5","2025-09-02_09h23.43.962",NA,NA,1011.2236,1011.2237,1011.2237,1011.5731,NA,NA,NA,NA,NA,NA,NA,TRUE,5,0.6613,1008.2251,1011.2234,NA,NA,NA,NA,NA,7,26,0,91,91,1,1,2,92,"likert"
"8B0A7B870B0243B1A3B69EFF69BD06EC",1,"01990a98-282f-7613-87fc-abdde9d8780e","01990a84-c4ee-73c2-a87b-ff46a7d3dde5","2025-09-02_09h23.43.962",NA,NA,1014.5733,1014.5734,1014.5735,1014.9229,NA,NA,NA,NA,NA,NA,NA,TRUE,5,0.7784,1011.575,1014.5732,NA,NA,NA,NA,NA,10,32,0,92,92,11,1,2,93,"likert"
"8B0A7B870B0243B1A3B69EFF69BD06EC",1,"01990a98-282f-7613-87fc-abdde9d8780e","01990a84-c4ee-73c2-a87b-ff46a7d3dde5","2025-09-02_09h23.43.962",NA,NA,1017.9225,1017.9226,1017.9227,1018.2723,NA,NA,NA,NA,NA,NA,NA,TRUE,5,0.6029,1014.9252,1017.9224,NA,NA,NA,NA,NA,90,33,0,93,93,74,1,2,94,"likert"
"8B0A7B870B0243B1A3B69EFF69BD06EC",1,"01990a98-282f-7613-87fc-abdde9d8780e","01990a84-c4ee-73c2-a87b-ff46a7d3dde5","2025-09-02_09h23.43.962",NA,NA,1021.272,1021.272,1021.272,1021.6222,NA,NA,NA,NA,NA,NA,NA,TRUE,5,0.5529,1018.2742,1021.2718,NA,NA,NA,NA,NA,25,29,0,94,94,31,1,2,95,"likert"
"8B0A7B870B0243B1A3B69EFF69BD06EC",1,"01990a98-282f-7613-87fc-abdde9d8780e","01990a84-c4ee-73c2-a87b-ff46a7d3dde5","2025-09-02_09h23.43.962",NA,NA,1024.6219,1024.6219,1024.6219,1024.9718,NA,NA,NA,NA,NA,NA,NA,TRUE,5,1.1745,1021.6242,1024.6217,NA,NA,NA,NA,NA,45,46,0,95,95,59,1,2,96,"likert"
"8B0A7B870B0243B1A3B69EFF69BD06EC",1,"01990a98-282f-7613-87fc-abdde9d8780e","01990a84-c4ee-73c2-a87b-ff46a7d3dde5","2025-09-02_09h23.43.962",NA,NA,1027.9711,1027.9711,1027.9712,1028.3209,NA,NA,NA,NA,NA,NA,NA,TRUE,5,0.867,1024.9738,1027.9708,NA,NA,NA,NA,NA,60,35,0,96,96,68,1,2,97,"likert"
"8B0A7B870B0243B1A3B69EFF69BD06EC",1,"01990a98-282f-7613-87fc-abdde9d8780e","01990a84-c4ee-73c2-a87b-ff46a7d3dde5","2025-09-02_09h23.43.962",NA,NA,1031.321,1031.3211,1031.3211,1031.6706,NA,NA,NA,NA,NA,NA,NA,TRUE,5,0.7348,1028.3228,1031.3208,NA,NA,NA,NA,NA,14,35,0,97,97,22,1,2,98,"likert"
"8B0A7B870B0243B1A3B69EFF69BD06EC",1,"01990a98-282f-7613-87fc-abdde9d8780e","01990a84-c4ee-73c2-a87b-ff46a7d3dde5","2025-09-02_09h23.43.962",NA,NA,1034.6704,1034.6705,1034.6706,1035.02,NA,NA,NA,NA,NA,NA,NA,TRUE,5,1.06,1031.6724,1034.6702,NA,NA,NA,NA,NA,150,35,0,98,98,92,1,2,99,"likert"
"8B0A7B870B0243B1A3B69EFF69BD06EC",1,"01990a98-282f-7613-87fc-abdde9d8780e","01990a84-c4ee-73c2-a87b-ff46a7d3dde5","2025-09-02_09h23.43.962",NA,NA,1038.0202,1038.0202,1038.0203,1038.3698,NA,NA,NA,NA,NA,NA,NA,TRUE,5,0.4908,1035.0224,1038.02,NA,NA,NA,NA,NA,10,25,0,99,99,6,1,2,100,"likert"
"8B0A7B870B0243B1A3B69EFF69BD06EC",1,"01990a98-282f-7613-87fc-abdde9d8780e","01990a84-c4ee-73c2-a87b-ff46a7d3dde5","2025-09-02_09h23.43.962",NA,NA,1041.3692,1041.3693,1041.3693,1041.7189,NA,NA,NA,NA,NA,NA,NA,TRUE,5,1.5363,1038.3719,1041.3688,NA,NA,NA,NA,NA,200,28,0,100,100,103,1,2,101,"likert"
"8B0A7B870B0243B1A3B69EFF69BD06EC",1,"01990a98-282f-7613-87fc-abdde9d8780e","01990a84-c4ee-73c2-a87b-ff46a7d3dde5","2025-09-02_09h23.43.962",NA,NA,1044.7198,1044.7199,1044.7199,1045.0688,NA,NA,NA,NA,NA,NA,NA,TRUE,5,1.2519,1041.7211,1044.7193,NA,NA,NA,NA,NA,45,40,0,101,101,58,1,2,102,"likert"
"8B0A7B870B0243B1A3B69EFF69BD06EC",1,"01990a98-282f-7613-87fc-abdde9d8780e","01990a84-c4ee-73c2-a87b-ff46a7d3dde5","2025-09-02_09h23.43.962",NA,NA,1048.0687,1048.0688,1048.0688,1048.4183,NA,NA,NA,NA,NA,NA,NA,TRUE,5,0.8355,1045.0709,1048.0686,NA,NA,NA,NA,NA,40,54,0,102,102,53,1,2,103,"likert"
"8B0A7B870B0243B1A3B69EFF69BD06EC",1,"01990a98-282f-7613-87fc-abdde9d8780e","01990a84-c4ee-73c2-a87b-ff46a7d3dde5","2025-09-02_09h23.43.962",NA,NA,1051.4183,1051.4184,1051.4184,1051.768,NA,NA,NA,NA,NA,NA,NA,TRUE,5,1.1182,1048.4204,1051.4182,NA,NA,NA,NA,NA,150,31,0,103,103,90,1,2,104,"likert"
"8B0A7B870B0243B1A3B69EFF69BD06EC",1,"01990a98-282f-7613-87fc-abdde9d8780e","01990a84-c4ee-73c2-a87b-ff46a7d3dde5","2025-09-02_09h23.43.962",NA,NA,1054.768,1054.768,1054.768,1055.1179,NA,NA,NA,NA,NA,NA,NA,TRUE,5,0.9346,1051.7701,1054.7678,NA,NA,NA,NA,NA,12,33,0,104,104,16,1,2,105,"likert"
"8B0A7B870B0243B1A3B69EFF69BD06EC",1,"01990a98-282f-7613-87fc-abdde9d8780e","01990a84-c4ee-73c2-a87b-ff46a7d3dde5","2025-09-02_09h23.43.962",NA,NA,1058.1339,1058.1341,1058.1341,1058.4673,NA,NA,NA,NA,NA,NA,NA,TRUE,5,1.4674,1055.1201,1058.1337,NA,NA,NA,NA,NA,14,28,0,105,105,20,1,2,106,"likert"
"8B0A7B870B0243B1A3B69EFF69BD06EC",1,"01990a98-282f-7613-87fc-abdde9d8780e","01990a84-c4ee-73c2-a87b-ff46a7d3dde5","2025-09-02_09h23.43.962",NA,NA,1061.4837,1061.4838,1061.484,1061.8337,NA,NA,NA,NA,NA,NA,NA,TRUE,5,0.7262,1058.4693,1061.4836,NA,NA,NA,NA,NA,30,38,0,106,106,47,1,2,107,"likert"
"8B0A7B870B0243B1A3B69EFF69BD06EC",1,"01990a98-282f-7613-87fc-abdde9d8780e","01990a84-c4ee-73c2-a87b-ff46a7d3dde5","2025-09-02_09h23.43.962",NA,NA,1064.8336,1064.8338,1064.8338,1065.1829,NA,NA,NA,NA,NA,NA,NA,TRUE,5,0.5839,1061.8358,1064.8333,NA,NA,NA,NA,NA,180,35,0,107,107,98,1,2,108,"likert"
