"participant","session","assignmentId","projectId","date","practiceTrial.started","practiceTrial.stopped","tooLate.started","tooLate.stopped","blank.started","blank.stopped","trials_pract.thisRepN","trials_pract.thisTrialN","trials_pract.thisN","trials_pract.thisIndex","trials_pract.ran","delay_pract","amount_pract","responseMade","key","rt","trial.started","trial.stopped","trials.thisRepN","trials.thisTrialN","trials.thisN","trials.thisIndex","trials.ran","delay","amount","trials_2.thisRepN","trials_2.thisTrialN","trials_2.thisN","trials_2.thisIndex","trials_2.ran","block","trial","taskType"
"8F311538737641A0864C57B0E31CDDFC",1,"01990a98-a121-7716-b7b7-d63f1bd0a80e","01990a84-c4ee-73c2-a87b-ff46a7d3dde5","2025-09-02_09h23.31.927",42.0124,45.0029,45.0033,45.253,45.253,45.3529,0,0,0,3,1,3,27,FALSE,NA,NA,NA,NA,NA,NA,NA,NA,NA,NA,NA,NA,NA,NA,NA,NA,0,1,"likert"
"8F311538737641A0864C57B0E31CDDFC",1,"01990a98-a121-7716-b7b7-d63f1bd0a80e","01990a84-c4ee-73c2-a87b-ff46a7d3dde5","2025-09-02_09h23.31.927",45.3535,48.3529,48.3529,48.3529,48.353,48.7028,0,1,1,1,1,100,50,TRUE,5,1.5572,NA,NA,NA,NA,NA,NA,NA,NA,NA,NA,NA,NA,NA,NA,0,2,"likert"
"8F311538737641A0864C57B0E31CDDFC",1,"01990a98-a121-7716-b7b7-d63f1bd0a80e","01990a84-c4ee-73c2-a87b-ff46a7d3dde5","2025-09-02_09h23.31.927",48.7034,51.7029,51.7029,51.7029,51.7029,52.0528,0,2,2,4,1,30,40,TRUE,4,2.1857,NA,NA,NA,NA,NA,NA,NA,NA,NA,NA,NA,NA,NA,NA,0,3,"likert"
"8F311538737641A0864C57B0E31CDDFC",1,"01990a98-a121-7716-b7b7-d63f1bd0a80e","01990a84-c4ee-73c2-a87b-ff46a7d3dde5","2025-09-02_09h23.31.927",52.0532,55.0528,55.0529,55.0529,55.0529,55.403,0,3,3,2,1,14,45,TRUE,5,1.8361,NA,NA,NA,NA,NA,NA,NA,NA,NA,NA,NA,NA,NA,NA,0,4,"likert"
"8F311538737641A0864C57B0E31CDDFC",1,"01990a98-a121-7716-b7b7-d63f1bd0a80e","01990a84-c4ee-73c2-a87b-ff46a7d3dde5","2025-09-02_09h23.31.927",55.4035,58.4027,58.4028,58.4029,58.4029,58.7529,0,4,4,0,1,7,30,TRUE,5,1.7551,NA,NA,NA,NA,NA,NA,NA,NA,NA,NA,NA,NA,NA,NA,0,5,"likert"
"8F311538737641A0864C57B0E31CDDFC",1,"01990a98-a121-7716-b7b7-d63f1bd0a80e","01990a84-c4ee-73c2-a87b-ff46a7d3dde5","2025-09-02_09h23.31.927",NA,NA,87.3195,87.3195,87.3195,87.6692,NA,NA,NA,NA,NA,NA,NA,TRUE,4,2.2308,84.3274,87.3194,0,0,0,64,1,50,46,NA,NA,NA,NA,NA,1,1,"likert"
"8F311538737641A0864C57B0E31CDDFC",1,"01990a98-a121-7716-b7b7-d63f1bd0a80e","01990a84-c4ee-73c2-a87b-ff46a7d3dde5","2025-09-02_09h23.31.927",NA,NA,90.6693,90.6693,90.6693,91.0191,NA,NA,NA,NA,NA,NA,NA,TRUE,1,2.7509,87.6699,90.6692,0,1,1,72,1,90,26,NA,NA,NA,NA,NA,1,2,"likert"
"8F311538737641A0864C57B0E31CDDFC",1,"01990a98-a121-7716-b7b7-d63f1bd0a80e","01990a84-c4ee-73c2-a87b-ff46a7d3dde5","2025-09-02_09h23.31.927",NA,NA,94.0193,94.0193,94.0193,94.369,NA,NA,NA,NA,NA,NA,NA,TRUE,2,2.1103,91.0195,94.0192,0,2,2,27,1,21,30,NA,NA,NA,NA,NA,1,3,"likert"
"8F311538737641A0864C57B0E31CDDFC",1,"01990a98-a121-7716-b7b7-d63f1bd0a80e","01990a84-c4ee-73c2-a87b-ff46a7d3dde5","2025-09-02_09h23.31.927",NA,NA,97.3692,97.3692,97.3692,97.7191,NA,NA,NA,NA,NA,NA,NA,TRUE,1,2.2036,94.3698,97.3691,0,3,3,31,1,25,29,NA,NA,NA,NA,NA,1,4,"likert"
"8F311538737641A0864C57B0E31CDDFC",1,"01990a98-a121-7716-b7b7-d63f1bd0a80e","01990a84-c4ee-73c2-a87b-ff46a7d3dde5","2025-09-02_09h23.31.927",NA,NA,100.7191,100.7192,100.7192,101.0691,NA,NA,NA,NA,NA,NA,NA,TRUE,1,1.3197,97.7195,100.7191,0,4,4,104,1,200,35,NA,NA,NA,NA,NA,1,5,"likert"
"8F311538737641A0864C57B0E31CDDFC",1,"01990a98-a121-7716-b7b7-d63f1bd0a80e","01990a84-c4ee-73c2-a87b-ff46a7d3dde5","2025-09-02_09h23.31.927",NA,NA,104.069,104.0691,104.0691,104.4191,NA,NA,NA,NA,NA,NA,NA,TRUE,5,2.3606,101.0696,104.069,0,5,5,4,1,7,32,NA,NA,NA,NA,NA,1,6,"likert"
"8F311538737641A0864C57B0E31CDDFC",1,"01990a98-a121-7716-b7b7-d63f1bd0a80e","01990a84-c4ee-73c2-a87b-ff46a7d3dde5","2025-09-02_09h23.31.927",NA,NA,107.4194,107.4194,107.4194,107.7689,NA,NA,NA,NA,NA,NA,NA,TRUE,5,2.4592,104.4197,107.4193,0,6,6,29,1,21,38,NA,NA,NA,NA,NA,1,7,"likert"
"8F311538737641A0864C57B0E31CDDFC",1,"01990a98-a121-7716-b7b7-d63f1bd0a80e","01990a84-c4ee-73c2-a87b-ff46a7d3dde5","2025-09-02_09h23.31.927",NA,NA,110.7691,110.7691,110.7691,111.119,NA,NA,NA,NA,NA,NA,NA,TRUE,4,1.9416,107.7694,110.769,0,7,7,58,1,45,40,NA,NA,NA,NA,NA,1,8,"likert"
"8F311538737641A0864C57B0E31CDDFC",1,"01990a98-a121-7716-b7b7-d63f1bd0a80e","01990a84-c4ee-73c2-a87b-ff46a7d3dde5","2025-09-02_09h23.31.927",NA,NA,114.1191,114.1191,114.1191,114.4689,NA,NA,NA,NA,NA,NA,NA,TRUE,1,1.6003,111.1195,114.1189,0,8,8,102,1,200,26,NA,NA,NA,NA,NA,1,9,"likert"
"8F311538737641A0864C57B0E31CDDFC",1,"01990a98-a121-7716-b7b7-d63f1bd0a80e","01990a84-c4ee-73c2-a87b-ff46a7d3dde5","2025-09-02_09h23.31.927",NA,NA,117.4691,117.4691,117.4691,117.819,NA,NA,NA,NA,NA,NA,NA,TRUE,1,1.7829,114.4693,117.469,0,9,9,60,1,50,27,NA,NA,NA,NA,NA,1,10,"likert"
"8F311538737641A0864C57B0E31CDDFC",1,"01990a98-a121-7716-b7b7-d63f1bd0a80e","01990a84-c4ee-73c2-a87b-ff46a7d3dde5","2025-09-02_09h23.31.927",NA,NA,120.819,120.819,120.819,121.1688,NA,NA,NA,NA,NA,NA,NA,TRUE,1,1.6906,117.8193,120.8189,0,10,10,48,1,40,27,NA,NA,NA,NA,NA,1,11,"likert"
"8F311538737641A0864C57B0E31CDDFC",1,"01990a98-a121-7716-b7b7-d63f1bd0a80e","01990a84-c4ee-73c2-a87b-ff46a7d3dde5","2025-09-02_09h23.31.927",NA,NA,124.169,124.169,124.169,124.5188,NA,NA,NA,NA,NA,NA,NA,TRUE,2,1.9512,121.1692,124.1689,0,11,11,19,1,14,26,NA,NA,NA,NA,NA,1,12,"likert"
"8F311538737641A0864C57B0E31CDDFC",1,"01990a98-a121-7716-b7b7-d63f1bd0a80e","01990a84-c4ee-73c2-a87b-ff46a7d3dde5","2025-09-02_09h23.31.927",NA,NA,127.5188,127.5188,127.5188,127.8688,NA,NA,NA,NA,NA,NA,NA,TRUE,1,1.4322,124.5192,127.5187,0,12,12,37,1,28,28,NA,NA,NA,NA,NA,1,13,"likert"
"8F311538737641A0864C57B0E31CDDFC",1,"01990a98-a121-7716-b7b7-d63f1bd0a80e","01990a84-c4ee-73c2-a87b-ff46a7d3dde5","2025-09-02_09h23.31.927",NA,NA,130.8689,130.8689,130.8689,131.2188,NA,NA,NA,NA,NA,NA,NA,TRUE,2,1.8326,127.8693,130.8688,0,13,13,93,1,150,40,NA,NA,NA,NA,NA,1,14,"likert"
"8F311538737641A0864C57B0E31CDDFC",1,"01990a98-a121-7716-b7b7-d63f1bd0a80e","01990a84-c4ee-73c2-a87b-ff46a7d3dde5","2025-09-02_09h23.31.927",NA,NA,134.2188,134.2188,134.2188,134.5687,NA,NA,NA,NA,NA,NA,NA,TRUE,3,2.8499,131.2193,134.2188,0,14,14,68,1,60,35,NA,NA,NA,NA,NA,1,15,"likert"
"8F311538737641A0864C57B0E31CDDFC",1,"01990a98-a121-7716-b7b7-d63f1bd0a80e","01990a84-c4ee-73c2-a87b-ff46a7d3dde5","2025-09-02_09h23.31.927",NA,NA,137.5687,137.5687,137.5687,137.9188,NA,NA,NA,NA,NA,NA,NA,TRUE,3,2.5125,134.5691,137.5687,0,15,15,75,1,90,40,NA,NA,NA,NA,NA,1,16,"likert"
"8F311538737641A0864C57B0E31CDDFC",1,"01990a98-a121-7716-b7b7-d63f1bd0a80e","01990a84-c4ee-73c2-a87b-ff46a7d3dde5","2025-09-02_09h23.31.927",NA,NA,140.9187,140.9187,140.9188,141.2687,NA,NA,NA,NA,NA,NA,NA,TRUE,2,2.7331,137.9192,140.9187,0,16,16,1,1,7,26,NA,NA,NA,NA,NA,1,17,"likert"
"8F311538737641A0864C57B0E31CDDFC",1,"01990a98-a121-7716-b7b7-d63f1bd0a80e","01990a84-c4ee-73c2-a87b-ff46a7d3dde5","2025-09-02_09h23.31.927",NA,NA,144.2688,144.2688,144.2688,144.6188,NA,NA,NA,NA,NA,NA,NA,TRUE,1,2.4525,141.269,144.2688,0,17,17,79,1,95,33,NA,NA,NA,NA,NA,1,18,"likert"
"8F311538737641A0864C57B0E31CDDFC",1,"01990a98-a121-7716-b7b7-d63f1bd0a80e","01990a84-c4ee-73c2-a87b-ff46a7d3dde5","2025-09-02_09h23.31.927",NA,NA,147.6186,147.6186,147.6186,147.9687,NA,NA,NA,NA,NA,NA,NA,TRUE,5,2.3124,144.6191,147.6185,0,18,18,40,1,28,39,NA,NA,NA,NA,NA,1,19,"likert"
"8F311538737641A0864C57B0E31CDDFC",1,"01990a98-a121-7716-b7b7-d63f1bd0a80e","01990a84-c4ee-73c2-a87b-ff46a7d3dde5","2025-09-02_09h23.31.927",NA,NA,150.9686,150.9686,150.9686,151.3185,NA,NA,NA,NA,NA,NA,NA,TRUE,1,1.8226,147.969,150.9685,0,19,19,42,1,30,26,NA,NA,NA,NA,NA,1,20,"likert"
"8F311538737641A0864C57B0E31CDDFC",1,"01990a98-a121-7716-b7b7-d63f1bd0a80e","01990a84-c4ee-73c2-a87b-ff46a7d3dde5","2025-09-02_09h23.31.927",NA,NA,154.3185,154.3185,154.3185,154.6685,NA,NA,NA,NA,NA,NA,NA,TRUE,4,2.9424,151.3189,154.3185,0,20,20,15,1,12,31,NA,NA,NA,NA,NA,1,21,"likert"
"8F311538737641A0864C57B0E31CDDFC",1,"01990a98-a121-7716-b7b7-d63f1bd0a80e","01990a84-c4ee-73c2-a87b-ff46a7d3dde5","2025-09-02_09h23.31.927",NA,NA,157.6686,157.6686,157.6687,158.0186,NA,NA,NA,NA,NA,NA,NA,TRUE,1,2.2748,154.6689,157.6685,0,21,21,98,1,180,35,NA,NA,NA,NA,NA,1,22,"likert"
"8F311538737641A0864C57B0E31CDDFC",1,"01990a98-a121-7716-b7b7-d63f1bd0a80e","01990a84-c4ee-73c2-a87b-ff46a7d3dde5","2025-09-02_09h23.31.927",NA,NA,161.0185,161.0185,161.0185,161.3685,NA,NA,NA,NA,NA,NA,NA,TRUE,2,2.574,158.019,161.0185,0,22,22,99,1,180,39,NA,NA,NA,NA,NA,1,23,"likert"
"8F311538737641A0864C57B0E31CDDFC",1,"01990a98-a121-7716-b7b7-d63f1bd0a80e","01990a84-c4ee-73c2-a87b-ff46a7d3dde5","2025-09-02_09h23.31.927",NA,NA,164.3684,164.3684,164.3684,164.7185,NA,NA,NA,NA,NA,NA,NA,TRUE,3,2.2237,161.3691,164.3684,0,23,23,51,1,40,40,NA,NA,NA,NA,NA,1,24,"likert"
"8F311538737641A0864C57B0E31CDDFC",1,"01990a98-a121-7716-b7b7-d63f1bd0a80e","01990a84-c4ee-73c2-a87b-ff46a7d3dde5","2025-09-02_09h23.31.927",NA,NA,167.7185,167.7185,167.7185,168.0684,NA,NA,NA,NA,NA,NA,NA,TRUE,1,2.6841,164.7189,167.7184,0,24,24,25,1,21,27,NA,NA,NA,NA,NA,1,25,"likert"
"8F311538737641A0864C57B0E31CDDFC",1,"01990a98-a121-7716-b7b7-d63f1bd0a80e","01990a84-c4ee-73c2-a87b-ff46a7d3dde5","2025-09-02_09h23.31.927",NA,NA,171.0685,171.0685,171.0685,171.4185,NA,NA,NA,NA,NA,NA,NA,TRUE,5,1.872,168.0689,171.0684,0,25,25,8,1,10,27,NA,NA,NA,NA,NA,1,26,"likert"
"8F311538737641A0864C57B0E31CDDFC",1,"01990a98-a121-7716-b7b7-d63f1bd0a80e","01990a84-c4ee-73c2-a87b-ff46a7d3dde5","2025-09-02_09h23.31.927",NA,NA,174.4185,174.4185,174.4185,174.7684,NA,NA,NA,NA,NA,NA,NA,TRUE,4,2.4941,171.419,174.4184,0,26,26,83,1,95,54,NA,NA,NA,NA,NA,1,27,"likert"
"8F311538737641A0864C57B0E31CDDFC",1,"01990a98-a121-7716-b7b7-d63f1bd0a80e","01990a84-c4ee-73c2-a87b-ff46a7d3dde5","2025-09-02_09h23.31.927",NA,NA,177.7683,177.7683,177.7683,178.1184,NA,NA,NA,NA,NA,NA,NA,TRUE,5,2.4436,174.7689,177.7683,0,27,27,71,1,60,54,NA,NA,NA,NA,NA,1,28,"likert"
"8F311538737641A0864C57B0E31CDDFC",1,"01990a98-a121-7716-b7b7-d63f1bd0a80e","01990a84-c4ee-73c2-a87b-ff46a7d3dde5","2025-09-02_09h23.31.927",NA,NA,181.1184,181.1184,181.1184,181.4684,NA,NA,NA,NA,NA,NA,NA,TRUE,1,1.7835,178.1189,181.1183,0,28,28,14,1,12,28,NA,NA,NA,NA,NA,1,29,"likert"
"8F311538737641A0864C57B0E31CDDFC",1,"01990a98-a121-7716-b7b7-d63f1bd0a80e","01990a84-c4ee-73c2-a87b-ff46a7d3dde5","2025-09-02_09h23.31.927",NA,NA,184.4683,184.4684,184.4684,184.8183,NA,NA,NA,NA,NA,NA,NA,TRUE,1,2.302,181.4689,184.4683,0,29,29,12,1,12,25,NA,NA,NA,NA,NA,1,30,"likert"
"8F311538737641A0864C57B0E31CDDFC",1,"01990a98-a121-7716-b7b7-d63f1bd0a80e","01990a84-c4ee-73c2-a87b-ff46a7d3dde5","2025-09-02_09h23.31.927",NA,NA,187.8183,187.8184,187.8184,188.1683,NA,NA,NA,NA,NA,NA,NA,TRUE,3,2.6847,184.8186,187.8183,0,30,30,39,1,28,35,NA,NA,NA,NA,NA,1,31,"likert"
"8F311538737641A0864C57B0E31CDDFC",1,"01990a98-a121-7716-b7b7-d63f1bd0a80e","01990a84-c4ee-73c2-a87b-ff46a7d3dde5","2025-09-02_09h23.31.927",NA,NA,191.1683,191.1683,191.1683,191.5184,NA,NA,NA,NA,NA,NA,NA,TRUE,1,1.6242,188.1686,191.1682,0,31,31,7,1,10,26,NA,NA,NA,NA,NA,1,32,"likert"
"8F311538737641A0864C57B0E31CDDFC",1,"01990a98-a121-7716-b7b7-d63f1bd0a80e","01990a84-c4ee-73c2-a87b-ff46a7d3dde5","2025-09-02_09h23.31.927",NA,NA,194.5183,194.5183,194.5183,194.8682,NA,NA,NA,NA,NA,NA,NA,TRUE,3,2.4,191.5188,194.5182,0,32,32,47,1,30,38,NA,NA,NA,NA,NA,1,33,"likert"
"8F311538737641A0864C57B0E31CDDFC",1,"01990a98-a121-7716-b7b7-d63f1bd0a80e","01990a84-c4ee-73c2-a87b-ff46a7d3dde5","2025-09-02_09h23.31.927",NA,NA,197.8683,197.8683,197.8683,198.2182,NA,NA,NA,NA,NA,NA,NA,TRUE,2,2.0615,194.8688,197.8683,0,33,33,38,1,28,32,NA,NA,NA,NA,NA,1,34,"likert"
"8F311538737641A0864C57B0E31CDDFC",1,"01990a98-a121-7716-b7b7-d63f1bd0a80e","01990a84-c4ee-73c2-a87b-ff46a7d3dde5","2025-09-02_09h23.31.927",NA,NA,201.2183,201.2183,201.2183,201.5681,NA,NA,NA,NA,NA,NA,NA,TRUE,3,2.1933,198.2186,201.2182,0,34,34,34,1,25,35,NA,NA,NA,NA,NA,1,35,"likert"
"8F311538737641A0864C57B0E31CDDFC",1,"01990a98-a121-7716-b7b7-d63f1bd0a80e","01990a84-c4ee-73c2-a87b-ff46a7d3dde5","2025-09-02_09h23.31.927",NA,NA,204.5682,204.5682,204.5683,204.9181,NA,NA,NA,NA,NA,NA,NA,TRUE,5,1.7132,201.5686,204.5682,0,35,35,3,1,7,30,NA,NA,NA,NA,NA,1,36,"likert"
"8F311538737641A0864C57B0E31CDDFC",1,"01990a98-a121-7716-b7b7-d63f1bd0a80e","01990a84-c4ee-73c2-a87b-ff46a7d3dde5","2025-09-02_09h23.31.927",NA,NA,207.918,208.168,208.168,208.2681,NA,NA,NA,NA,NA,NA,NA,FALSE,NA,NA,204.9186,207.918,0,36,36,105,1,200,39,NA,NA,NA,NA,NA,1,37,"likert"
"8F311538737641A0864C57B0E31CDDFC",1,"01990a98-a121-7716-b7b7-d63f1bd0a80e","01990a84-c4ee-73c2-a87b-ff46a7d3dde5","2025-09-02_09h23.31.927",NA,NA,211.2681,211.2681,211.2681,211.6181,NA,NA,NA,NA,NA,NA,NA,TRUE,5,2.0056,208.2686,211.268,0,37,37,77,1,90,54,NA,NA,NA,NA,NA,1,38,"likert"
"8F311538737641A0864C57B0E31CDDFC",1,"01990a98-a121-7716-b7b7-d63f1bd0a80e","01990a84-c4ee-73c2-a87b-ff46a7d3dde5","2025-09-02_09h23.31.927",NA,NA,214.6182,214.6182,214.6182,214.968,NA,NA,NA,NA,NA,NA,NA,TRUE,1,1.6925,211.6185,214.6182,0,38,38,18,1,14,25,NA,NA,NA,NA,NA,1,39,"likert"
"8F311538737641A0864C57B0E31CDDFC",1,"01990a98-a121-7716-b7b7-d63f1bd0a80e","01990a84-c4ee-73c2-a87b-ff46a7d3dde5","2025-09-02_09h23.31.927",NA,NA,217.968,217.968,217.968,218.3181,NA,NA,NA,NA,NA,NA,NA,TRUE,1,1.8541,214.9687,217.9679,0,39,39,13,1,12,26,NA,NA,NA,NA,NA,1,40,"likert"
"8F311538737641A0864C57B0E31CDDFC",1,"01990a98-a121-7716-b7b7-d63f1bd0a80e","01990a84-c4ee-73c2-a87b-ff46a7d3dde5","2025-09-02_09h23.31.927",NA,NA,221.318,221.3181,221.3181,221.668,NA,NA,NA,NA,NA,NA,NA,TRUE,2,1.6834,218.3184,221.318,0,40,40,44,1,30,29,NA,NA,NA,NA,NA,1,41,"likert"
"8F311538737641A0864C57B0E31CDDFC",1,"01990a98-a121-7716-b7b7-d63f1bd0a80e","01990a84-c4ee-73c2-a87b-ff46a7d3dde5","2025-09-02_09h23.31.927",NA,NA,224.6681,224.6681,224.6681,225.018,NA,NA,NA,NA,NA,NA,NA,TRUE,4,1.9135,221.6684,224.668,0,41,41,76,1,90,46,NA,NA,NA,NA,NA,1,42,"likert"
"8F311538737641A0864C57B0E31CDDFC",1,"01990a98-a121-7716-b7b7-d63f1bd0a80e","01990a84-c4ee-73c2-a87b-ff46a7d3dde5","2025-09-02_09h23.31.927",NA,NA,228.0179,228.0179,228.0179,228.3678,NA,NA,NA,NA,NA,NA,NA,TRUE,3,1.8938,225.0183,228.0179,0,42,42,26,1,21,29,NA,NA,NA,NA,NA,1,43,"likert"
"8F311538737641A0864C57B0E31CDDFC",1,"01990a98-a121-7716-b7b7-d63f1bd0a80e","01990a84-c4ee-73c2-a87b-ff46a7d3dde5","2025-09-02_09h23.31.927",NA,NA,231.3679,231.368,231.368,231.7179,NA,NA,NA,NA,NA,NA,NA,TRUE,4,1.6631,228.3683,231.3679,0,43,43,55,1,45,29,NA,NA,NA,NA,NA,1,44,"likert"
"8F311538737641A0864C57B0E31CDDFC",1,"01990a98-a121-7716-b7b7-d63f1bd0a80e","01990a84-c4ee-73c2-a87b-ff46a7d3dde5","2025-09-02_09h23.31.927",NA,NA,234.7179,234.7179,234.7179,235.0679,NA,NA,NA,NA,NA,NA,NA,TRUE,2,2.754,231.7184,234.7178,0,44,44,28,1,21,32,NA,NA,NA,NA,NA,1,45,"likert"
"8F311538737641A0864C57B0E31CDDFC",1,"01990a98-a121-7716-b7b7-d63f1bd0a80e","01990a84-c4ee-73c2-a87b-ff46a7d3dde5","2025-09-02_09h23.31.927",NA,NA,238.0678,238.0678,238.0678,238.4179,NA,NA,NA,NA,NA,NA,NA,TRUE,5,1.5039,235.0682,238.0678,0,45,45,53,1,40,54,NA,NA,NA,NA,NA,1,46,"likert"
"8F311538737641A0864C57B0E31CDDFC",1,"01990a98-a121-7716-b7b7-d63f1bd0a80e","01990a84-c4ee-73c2-a87b-ff46a7d3dde5","2025-09-02_09h23.31.927",NA,NA,241.4178,241.4178,241.4178,241.7677,NA,NA,NA,NA,NA,NA,NA,TRUE,4,1.9037,238.4183,241.4177,0,46,46,63,1,50,40,NA,NA,NA,NA,NA,1,47,"likert"
"8F311538737641A0864C57B0E31CDDFC",1,"01990a98-a121-7716-b7b7-d63f1bd0a80e","01990a84-c4ee-73c2-a87b-ff46a7d3dde5","2025-09-02_09h23.31.927",NA,NA,244.7677,244.7677,244.7677,245.1176,NA,NA,NA,NA,NA,NA,NA,TRUE,4,1.8117,241.7681,244.7677,0,47,47,30,1,25,27,NA,NA,NA,NA,NA,1,48,"likert"
"8F311538737641A0864C57B0E31CDDFC",1,"01990a98-a121-7716-b7b7-d63f1bd0a80e","01990a84-c4ee-73c2-a87b-ff46a7d3dde5","2025-09-02_09h23.31.927",NA,NA,248.1178,248.1178,248.1178,248.4678,NA,NA,NA,NA,NA,NA,NA,TRUE,3,2.0936,245.118,248.1177,0,48,48,86,1,100,38,NA,NA,NA,NA,NA,1,49,"likert"
"8F311538737641A0864C57B0E31CDDFC",1,"01990a98-a121-7716-b7b7-d63f1bd0a80e","01990a84-c4ee-73c2-a87b-ff46a7d3dde5","2025-09-02_09h23.31.927",NA,NA,251.4679,251.7178,251.7179,251.8177,NA,NA,NA,NA,NA,NA,NA,FALSE,NA,NA,248.4682,251.4679,0,49,49,10,1,10,30,NA,NA,NA,NA,NA,1,50,"likert"
"8F311538737641A0864C57B0E31CDDFC",1,"01990a98-a121-7716-b7b7-d63f1bd0a80e","01990a84-c4ee-73c2-a87b-ff46a7d3dde5","2025-09-02_09h23.31.927",NA,NA,254.8178,255.0677,255.0677,255.1676,NA,NA,NA,NA,NA,NA,NA,FALSE,NA,NA,251.8181,254.8177,0,50,50,56,1,45,31,NA,NA,NA,NA,NA,1,51,"likert"
"8F311538737641A0864C57B0E31CDDFC",1,"01990a98-a121-7716-b7b7-d63f1bd0a80e","01990a84-c4ee-73c2-a87b-ff46a7d3dde5","2025-09-02_09h23.31.927",NA,NA,258.1676,258.1676,258.1676,258.5176,NA,NA,NA,NA,NA,NA,NA,TRUE,1,2.8251,255.168,258.1676,0,51,51,103,1,200,28,NA,NA,NA,NA,NA,1,52,"likert"
"8F311538737641A0864C57B0E31CDDFC",1,"01990a98-a121-7716-b7b7-d63f1bd0a80e","01990a84-c4ee-73c2-a87b-ff46a7d3dde5","2025-09-02_09h23.31.927",NA,NA,261.5178,261.5178,261.5178,261.8676,NA,NA,NA,NA,NA,NA,NA,TRUE,1,1.2535,258.518,261.5176,0,52,52,73,1,90,30,NA,NA,NA,NA,NA,1,53,"likert"
"8F311538737641A0864C57B0E31CDDFC",1,"01990a98-a121-7716-b7b7-d63f1bd0a80e","01990a84-c4ee-73c2-a87b-ff46a7d3dde5","2025-09-02_09h23.31.927",NA,NA,264.8677,264.8677,264.8677,265.2175,NA,NA,NA,NA,NA,NA,NA,TRUE,2,2.4338,261.8678,264.8676,0,53,53,67,1,60,33,NA,NA,NA,NA,NA,1,54,"likert"
"8F311538737641A0864C57B0E31CDDFC",1,"01990a98-a121-7716-b7b7-d63f1bd0a80e","01990a84-c4ee-73c2-a87b-ff46a7d3dde5","2025-09-02_09h23.31.927",NA,NA,268.2178,268.2178,268.2178,268.5674,NA,NA,NA,NA,NA,NA,NA,TRUE,2,1.714,265.2181,268.2176,0,54,54,11,1,10,32,NA,NA,NA,NA,NA,1,55,"likert"
"8F311538737641A0864C57B0E31CDDFC",1,"01990a98-a121-7716-b7b7-d63f1bd0a80e","01990a84-c4ee-73c2-a87b-ff46a7d3dde5","2025-09-02_09h23.31.927",NA,NA,271.5677,271.5677,271.5677,271.9176,NA,NA,NA,NA,NA,NA,NA,TRUE,1,2.4437,268.5679,271.5676,0,55,55,84,1,100,26,NA,NA,NA,NA,NA,1,56,"likert"
"8F311538737641A0864C57B0E31CDDFC",1,"01990a98-a121-7716-b7b7-d63f1bd0a80e","01990a84-c4ee-73c2-a87b-ff46a7d3dde5","2025-09-02_09h23.31.927",NA,NA,274.9176,274.9176,274.9176,275.2674,NA,NA,NA,NA,NA,NA,NA,TRUE,3,2.2533,271.918,274.9175,0,56,56,95,1,150,54,NA,NA,NA,NA,NA,1,57,"likert"
"8F311538737641A0864C57B0E31CDDFC",1,"01990a98-a121-7716-b7b7-d63f1bd0a80e","01990a84-c4ee-73c2-a87b-ff46a7d3dde5","2025-09-02_09h23.31.927",NA,NA,278.2675,278.2675,278.2675,278.6174,NA,NA,NA,NA,NA,NA,NA,TRUE,4,1.4937,275.2678,278.2675,0,57,57,49,1,40,33,NA,NA,NA,NA,NA,1,58,"likert"
"8F311538737641A0864C57B0E31CDDFC",1,"01990a98-a121-7716-b7b7-d63f1bd0a80e","01990a84-c4ee-73c2-a87b-ff46a7d3dde5","2025-09-02_09h23.31.927",NA,NA,281.6176,281.6176,281.6176,281.9677,NA,NA,NA,NA,NA,NA,NA,TRUE,1,2.663,278.6178,281.6175,0,58,58,16,1,12,33,NA,NA,NA,NA,NA,1,59,"likert"
"8F311538737641A0864C57B0E31CDDFC",1,"01990a98-a121-7716-b7b7-d63f1bd0a80e","01990a84-c4ee-73c2-a87b-ff46a7d3dde5","2025-09-02_09h23.31.927",NA,NA,284.9674,284.9674,284.9674,285.3173,NA,NA,NA,NA,NA,NA,NA,TRUE,3,1.1241,281.968,284.9673,0,59,59,65,1,50,54,NA,NA,NA,NA,NA,1,60,"likert"
"8F311538737641A0864C57B0E31CDDFC",1,"01990a98-a121-7716-b7b7-d63f1bd0a80e","01990a84-c4ee-73c2-a87b-ff46a7d3dde5","2025-09-02_09h23.31.927",NA,NA,288.3177,288.3177,288.3177,288.6674,NA,NA,NA,NA,NA,NA,NA,TRUE,4,1.2629,285.3177,288.3176,0,60,60,100,1,180,46,NA,NA,NA,NA,NA,1,61,"likert"
"8F311538737641A0864C57B0E31CDDFC",1,"01990a98-a121-7716-b7b7-d63f1bd0a80e","01990a84-c4ee-73c2-a87b-ff46a7d3dde5","2025-09-02_09h23.31.927",NA,NA,291.6674,291.6674,291.6674,292.0174,NA,NA,NA,NA,NA,NA,NA,TRUE,3,0.9249,288.6679,291.6673,0,61,61,45,1,30,30,NA,NA,NA,NA,NA,1,62,"likert"
"8F311538737641A0864C57B0E31CDDFC",1,"01990a98-a121-7716-b7b7-d63f1bd0a80e","01990a84-c4ee-73c2-a87b-ff46a7d3dde5","2025-09-02_09h23.31.927",NA,NA,295.0173,295.0173,295.0173,295.3674,NA,NA,NA,NA,NA,NA,NA,TRUE,3,2.1152,292.0178,295.0173,0,62,62,87,1,100,39,NA,NA,NA,NA,NA,1,63,"likert"
"8F311538737641A0864C57B0E31CDDFC",1,"01990a98-a121-7716-b7b7-d63f1bd0a80e","01990a84-c4ee-73c2-a87b-ff46a7d3dde5","2025-09-02_09h23.31.927",NA,NA,298.3673,298.3673,298.3673,298.7173,NA,NA,NA,NA,NA,NA,NA,TRUE,2,1.4754,295.3677,298.3673,0,63,63,50,1,40,35,NA,NA,NA,NA,NA,1,64,"likert"
"8F311538737641A0864C57B0E31CDDFC",1,"01990a98-a121-7716-b7b7-d63f1bd0a80e","01990a84-c4ee-73c2-a87b-ff46a7d3dde5","2025-09-02_09h23.31.927",NA,NA,301.7173,301.7173,301.7173,302.0673,NA,NA,NA,NA,NA,NA,NA,TRUE,1,1.1949,298.7178,301.7173,0,64,64,6,1,10,25,NA,NA,NA,NA,NA,1,65,"likert"
"8F311538737641A0864C57B0E31CDDFC",1,"01990a98-a121-7716-b7b7-d63f1bd0a80e","01990a84-c4ee-73c2-a87b-ff46a7d3dde5","2025-09-02_09h23.31.927",NA,NA,305.0673,305.0673,305.0673,305.4173,NA,NA,NA,NA,NA,NA,NA,TRUE,3,1.5241,302.0677,305.0672,0,65,65,52,1,40,47,NA,NA,NA,NA,NA,1,66,"likert"
"8F311538737641A0864C57B0E31CDDFC",1,"01990a98-a121-7716-b7b7-d63f1bd0a80e","01990a84-c4ee-73c2-a87b-ff46a7d3dde5","2025-09-02_09h23.31.927",NA,NA,308.4173,308.4173,308.4173,308.7672,NA,NA,NA,NA,NA,NA,NA,TRUE,2,2.083,305.4177,308.4172,0,66,66,107,1,200,54,NA,NA,NA,NA,NA,1,67,"likert"
"8F311538737641A0864C57B0E31CDDFC",1,"01990a98-a121-7716-b7b7-d63f1bd0a80e","01990a84-c4ee-73c2-a87b-ff46a7d3dde5","2025-09-02_09h23.31.927",NA,NA,311.7672,311.7672,311.7672,312.1171,NA,NA,NA,NA,NA,NA,NA,TRUE,1,1.1438,308.7678,311.7672,0,67,67,20,1,14,28,NA,NA,NA,NA,NA,1,68,"likert"
"8F311538737641A0864C57B0E31CDDFC",1,"01990a98-a121-7716-b7b7-d63f1bd0a80e","01990a84-c4ee-73c2-a87b-ff46a7d3dde5","2025-09-02_09h23.31.927",NA,NA,315.1172,315.1172,315.1172,315.4671,NA,NA,NA,NA,NA,NA,NA,TRUE,3,1.9352,312.1175,315.1172,0,68,68,22,1,14,35,NA,NA,NA,NA,NA,1,69,"likert"
"8F311538737641A0864C57B0E31CDDFC",1,"01990a98-a121-7716-b7b7-d63f1bd0a80e","01990a84-c4ee-73c2-a87b-ff46a7d3dde5","2025-09-02_09h23.31.927",NA,NA,318.4671,318.4671,318.4671,318.8171,NA,NA,NA,NA,NA,NA,NA,TRUE,3,2.4042,315.4675,318.4671,0,69,69,80,1,95,35,NA,NA,NA,NA,NA,1,70,"likert"
"8F311538737641A0864C57B0E31CDDFC",1,"01990a98-a121-7716-b7b7-d63f1bd0a80e","01990a84-c4ee-73c2-a87b-ff46a7d3dde5","2025-09-02_09h23.31.927",NA,NA,321.8171,321.8171,321.8172,322.1672,NA,NA,NA,NA,NA,NA,NA,TRUE,1,1.1849,318.8175,321.8171,0,70,70,54,1,45,26,NA,NA,NA,NA,NA,1,71,"likert"
"8F311538737641A0864C57B0E31CDDFC",1,"01990a98-a121-7716-b7b7-d63f1bd0a80e","01990a84-c4ee-73c2-a87b-ff46a7d3dde5","2025-09-02_09h23.31.927",NA,NA,325.167,325.1671,325.1671,325.517,NA,NA,NA,NA,NA,NA,NA,TRUE,2,1.4818,322.1679,325.167,0,71,71,78,1,95,31,NA,NA,NA,NA,NA,1,72,"likert"
"8F311538737641A0864C57B0E31CDDFC",1,"01990a98-a121-7716-b7b7-d63f1bd0a80e","01990a84-c4ee-73c2-a87b-ff46a7d3dde5","2025-09-02_09h23.31.927",NA,NA,328.517,328.5171,328.5171,328.867,NA,NA,NA,NA,NA,NA,NA,TRUE,1,1.3341,325.5174,328.517,0,72,72,32,1,25,31,NA,NA,NA,NA,NA,1,73,"likert"
"8F311538737641A0864C57B0E31CDDFC",1,"01990a98-a121-7716-b7b7-d63f1bd0a80e","01990a84-c4ee-73c2-a87b-ff46a7d3dde5","2025-09-02_09h23.31.927",NA,NA,331.867,331.867,331.867,332.217,NA,NA,NA,NA,NA,NA,NA,TRUE,1,2.2833,328.8675,331.8669,0,73,73,2,1,7,28,NA,NA,NA,NA,NA,1,74,"likert"
"8F311538737641A0864C57B0E31CDDFC",1,"01990a98-a121-7716-b7b7-d63f1bd0a80e","01990a84-c4ee-73c2-a87b-ff46a7d3dde5","2025-09-02_09h23.31.927",NA,NA,335.2171,335.2171,335.2171,335.567,NA,NA,NA,NA,NA,NA,NA,TRUE,5,2.1245,332.2174,335.217,0,74,74,17,1,12,35,NA,NA,NA,NA,NA,1,75,"likert"
"8F311538737641A0864C57B0E31CDDFC",1,"01990a98-a121-7716-b7b7-d63f1bd0a80e","01990a84-c4ee-73c2-a87b-ff46a7d3dde5","2025-09-02_09h23.31.927",NA,NA,338.567,338.567,338.567,338.9169,NA,NA,NA,NA,NA,NA,NA,TRUE,4,1.8234,335.5676,338.567,0,75,75,70,1,60,47,NA,NA,NA,NA,NA,1,76,"likert"
"8F311538737641A0864C57B0E31CDDFC",1,"01990a98-a121-7716-b7b7-d63f1bd0a80e","01990a84-c4ee-73c2-a87b-ff46a7d3dde5","2025-09-02_09h23.31.927",NA,NA,341.917,341.917,341.917,342.2669,NA,NA,NA,NA,NA,NA,NA,TRUE,4,2.3847,338.9173,341.9169,0,76,76,61,1,50,30,NA,NA,NA,NA,NA,1,77,"likert"
"8F311538737641A0864C57B0E31CDDFC",1,"01990a98-a121-7716-b7b7-d63f1bd0a80e","01990a84-c4ee-73c2-a87b-ff46a7d3dde5","2025-09-02_09h23.31.927",NA,NA,345.2668,345.2669,345.2669,345.6169,NA,NA,NA,NA,NA,NA,NA,TRUE,3,1.5937,342.2674,345.2668,0,77,77,82,1,95,47,NA,NA,NA,NA,NA,1,78,"likert"
"8F311538737641A0864C57B0E31CDDFC",1,"01990a98-a121-7716-b7b7-d63f1bd0a80e","01990a84-c4ee-73c2-a87b-ff46a7d3dde5","2025-09-02_09h23.31.927",NA,NA,348.6168,348.6169,348.6169,348.9668,NA,NA,NA,NA,NA,NA,NA,TRUE,1,1.8158,345.6174,348.6168,0,78,78,92,1,150,35,NA,NA,NA,NA,NA,1,79,"likert"
"8F311538737641A0864C57B0E31CDDFC",1,"01990a98-a121-7716-b7b7-d63f1bd0a80e","01990a84-c4ee-73c2-a87b-ff46a7d3dde5","2025-09-02_09h23.31.927",NA,NA,351.967,351.967,351.967,352.3167,NA,NA,NA,NA,NA,NA,NA,TRUE,1,2.1857,348.9672,351.9669,0,79,79,74,1,90,33,NA,NA,NA,NA,NA,1,80,"likert"
"8F311538737641A0864C57B0E31CDDFC",1,"01990a98-a121-7716-b7b7-d63f1bd0a80e","01990a84-c4ee-73c2-a87b-ff46a7d3dde5","2025-09-02_09h23.31.927",NA,NA,355.3168,355.3168,355.3168,355.6666,NA,NA,NA,NA,NA,NA,NA,TRUE,4,1.9062,352.3171,355.3167,0,80,80,89,1,100,54,NA,NA,NA,NA,NA,1,81,"likert"
"8F311538737641A0864C57B0E31CDDFC",1,"01990a98-a121-7716-b7b7-d63f1bd0a80e","01990a84-c4ee-73c2-a87b-ff46a7d3dde5","2025-09-02_09h23.31.927",NA,NA,358.6668,358.6668,358.6668,359.0167,NA,NA,NA,NA,NA,NA,NA,TRUE,5,2.5654,355.6671,358.6667,0,81,81,41,1,28,46,NA,NA,NA,NA,NA,1,82,"likert"
"8F311538737641A0864C57B0E31CDDFC",1,"01990a98-a121-7716-b7b7-d63f1bd0a80e","01990a84-c4ee-73c2-a87b-ff46a7d3dde5","2025-09-02_09h23.31.927",NA,NA,362.0167,362.0167,362.0167,362.3667,NA,NA,NA,NA,NA,NA,NA,TRUE,4,1.4931,359.0171,362.0166,0,82,82,97,1,180,31,NA,NA,NA,NA,NA,1,83,"likert"
"8F311538737641A0864C57B0E31CDDFC",1,"01990a98-a121-7716-b7b7-d63f1bd0a80e","01990a84-c4ee-73c2-a87b-ff46a7d3dde5","2025-09-02_09h23.31.927",NA,NA,365.3666,365.3666,365.3666,365.7166,NA,NA,NA,NA,NA,NA,NA,TRUE,1,1.5637,362.3673,365.3666,0,83,83,24,1,21,26,NA,NA,NA,NA,NA,1,84,"likert"
"8F311538737641A0864C57B0E31CDDFC",1,"01990a98-a121-7716-b7b7-d63f1bd0a80e","01990a84-c4ee-73c2-a87b-ff46a7d3dde5","2025-09-02_09h23.31.927",NA,NA,368.7166,368.7166,368.7166,369.0666,NA,NA,NA,NA,NA,NA,NA,TRUE,1,0.9942,365.7169,368.7166,0,84,84,0,1,7,25,NA,NA,NA,NA,NA,1,85,"likert"
"8F311538737641A0864C57B0E31CDDFC",1,"01990a98-a121-7716-b7b7-d63f1bd0a80e","01990a84-c4ee-73c2-a87b-ff46a7d3dde5","2025-09-02_09h23.31.927",NA,NA,372.0667,372.0667,372.0667,372.4165,NA,NA,NA,NA,NA,NA,NA,TRUE,2,2.0535,369.067,372.0667,0,85,85,9,1,10,29,NA,NA,NA,NA,NA,1,86,"likert"
"8F311538737641A0864C57B0E31CDDFC",1,"01990a98-a121-7716-b7b7-d63f1bd0a80e","01990a84-c4ee-73c2-a87b-ff46a7d3dde5","2025-09-02_09h23.31.927",NA,NA,375.4165,375.4166,375.4166,375.7665,NA,NA,NA,NA,NA,NA,NA,TRUE,1,1.358,372.4169,375.4164,0,86,86,96,1,180,27,NA,NA,NA,NA,NA,1,87,"likert"
"8F311538737641A0864C57B0E31CDDFC",1,"01990a98-a121-7716-b7b7-d63f1bd0a80e","01990a84-c4ee-73c2-a87b-ff46a7d3dde5","2025-09-02_09h23.31.927",NA,NA,378.7667,378.7667,378.7667,379.1165,NA,NA,NA,NA,NA,NA,NA,TRUE,2,1.4942,375.7669,378.7666,0,87,87,62,1,50,35,NA,NA,NA,NA,NA,1,88,"likert"
"8F311538737641A0864C57B0E31CDDFC",1,"01990a98-a121-7716-b7b7-d63f1bd0a80e","01990a84-c4ee-73c2-a87b-ff46a7d3dde5","2025-09-02_09h23.31.927",NA,NA,382.1166,382.1166,382.1166,382.4665,NA,NA,NA,NA,NA,NA,NA,TRUE,3,1.9441,379.1169,382.1166,0,88,88,81,1,95,40,NA,NA,NA,NA,NA,1,89,"likert"
"8F311538737641A0864C57B0E31CDDFC",1,"01990a98-a121-7716-b7b7-d63f1bd0a80e","01990a84-c4ee-73c2-a87b-ff46a7d3dde5","2025-09-02_09h23.31.927",NA,NA,385.4665,385.4665,385.4665,385.8164,NA,NA,NA,NA,NA,NA,NA,TRUE,1,1.7151,382.4669,385.4665,0,89,89,85,1,100,31,NA,NA,NA,NA,NA,1,90,"likert"
"8F311538737641A0864C57B0E31CDDFC",1,"01990a98-a121-7716-b7b7-d63f1bd0a80e","01990a84-c4ee-73c2-a87b-ff46a7d3dde5","2025-09-02_09h23.31.927",NA,NA,388.8165,388.8165,388.8165,389.1663,NA,NA,NA,NA,NA,NA,NA,TRUE,5,1.9246,385.8169,388.8164,0,90,90,59,1,45,46,NA,NA,NA,NA,NA,1,91,"likert"
"8F311538737641A0864C57B0E31CDDFC",1,"01990a98-a121-7716-b7b7-d63f1bd0a80e","01990a84-c4ee-73c2-a87b-ff46a7d3dde5","2025-09-02_09h23.31.927",NA,NA,392.1664,392.1664,392.1664,392.5164,NA,NA,NA,NA,NA,NA,NA,TRUE,5,1.2046,389.1668,392.1664,0,91,91,5,1,7,35,NA,NA,NA,NA,NA,1,92,"likert"
"8F311538737641A0864C57B0E31CDDFC",1,"01990a98-a121-7716-b7b7-d63f1bd0a80e","01990a84-c4ee-73c2-a87b-ff46a7d3dde5","2025-09-02_09h23.31.927",NA,NA,395.5164,395.5164,395.5164,395.8664,NA,NA,NA,NA,NA,NA,NA,TRUE,5,1.6531,392.5168,395.5163,0,92,92,94,1,150,47,NA,NA,NA,NA,NA,1,93,"likert"
"8F311538737641A0864C57B0E31CDDFC",1,"01990a98-a121-7716-b7b7-d63f1bd0a80e","01990a84-c4ee-73c2-a87b-ff46a7d3dde5","2025-09-02_09h23.31.927",NA,NA,398.8665,398.8666,398.8666,399.2164,NA,NA,NA,NA,NA,NA,NA,TRUE,1,1.6748,395.8668,398.8665,0,93,93,43,1,30,27,NA,NA,NA,NA,NA,1,94,"likert"
"8F311538737641A0864C57B0E31CDDFC",1,"01990a98-a121-7716-b7b7-d63f1bd0a80e","01990a84-c4ee-73c2-a87b-ff46a7d3dde5","2025-09-02_09h23.31.927",NA,NA,402.2164,402.2164,402.2164,402.5662,NA,NA,NA,NA,NA,NA,NA,TRUE,1,1.2964,399.2168,402.2164,0,94,94,91,1,150,33,NA,NA,NA,NA,NA,1,95,"likert"
"8F311538737641A0864C57B0E31CDDFC",1,"01990a98-a121-7716-b7b7-d63f1bd0a80e","01990a84-c4ee-73c2-a87b-ff46a7d3dde5","2025-09-02_09h23.31.927",NA,NA,405.5663,405.5663,405.5663,405.9162,NA,NA,NA,NA,NA,NA,NA,TRUE,2,1.7226,402.5668,405.5663,0,95,95,66,1,60,29,NA,NA,NA,NA,NA,1,96,"likert"
"8F311538737641A0864C57B0E31CDDFC",1,"01990a98-a121-7716-b7b7-d63f1bd0a80e","01990a84-c4ee-73c2-a87b-ff46a7d3dde5","2025-09-02_09h23.31.927",NA,NA,408.9164,408.9164,408.9164,409.2663,NA,NA,NA,NA,NA,NA,NA,TRUE,1,1.5713,405.9166,408.9163,0,96,96,36,1,28,26,NA,NA,NA,NA,NA,1,97,"likert"
"8F311538737641A0864C57B0E31CDDFC",1,"01990a98-a121-7716-b7b7-d63f1bd0a80e","01990a84-c4ee-73c2-a87b-ff46a7d3dde5","2025-09-02_09h23.31.927",NA,NA,412.2664,412.2664,412.2664,412.6163,NA,NA,NA,NA,NA,NA,NA,TRUE,1,1.2945,409.2667,412.2663,0,97,97,90,1,150,31,NA,NA,NA,NA,NA,1,98,"likert"
"8F311538737641A0864C57B0E31CDDFC",1,"01990a98-a121-7716-b7b7-d63f1bd0a80e","01990a84-c4ee-73c2-a87b-ff46a7d3dde5","2025-09-02_09h23.31.927",NA,NA,415.6163,415.6163,415.6163,415.9662,NA,NA,NA,NA,NA,NA,NA,TRUE,3,1.4354,412.6166,415.6162,0,98,98,88,1,100,46,NA,NA,NA,NA,NA,1,99,"likert"
"8F311538737641A0864C57B0E31CDDFC",1,"01990a98-a121-7716-b7b7-d63f1bd0a80e","01990a84-c4ee-73c2-a87b-ff46a7d3dde5","2025-09-02_09h23.31.927",NA,NA,418.9661,418.9662,418.9662,419.3162,NA,NA,NA,NA,NA,NA,NA,TRUE,3,1.5847,415.9666,418.9661,0,99,99,57,1,45,35,NA,NA,NA,NA,NA,1,100,"likert"
"8F311538737641A0864C57B0E31CDDFC",1,"01990a98-a121-7716-b7b7-d63f1bd0a80e","01990a84-c4ee-73c2-a87b-ff46a7d3dde5","2025-09-02_09h23.31.927",NA,NA,422.3162,422.3162,422.3162,422.6661,NA,NA,NA,NA,NA,NA,NA,TRUE,2,1.2547,419.3166,422.3162,0,100,100,33,1,25,33,NA,NA,NA,NA,NA,1,101,"likert"
"8F311538737641A0864C57B0E31CDDFC",1,"01990a98-a121-7716-b7b7-d63f1bd0a80e","01990a84-c4ee-73c2-a87b-ff46a7d3dde5","2025-09-02_09h23.31.927",NA,NA,425.6661,425.6661,425.6661,426.0161,NA,NA,NA,NA,NA,NA,NA,TRUE,2,1.8461,422.6664,425.666,0,101,101,46,1,30,32,NA,NA,NA,NA,NA,1,102,"likert"
"8F311538737641A0864C57B0E31CDDFC",1,"01990a98-a121-7716-b7b7-d63f1bd0a80e","01990a84-c4ee-73c2-a87b-ff46a7d3dde5","2025-09-02_09h23.31.927",NA,NA,429.0162,429.0162,429.0162,429.366,NA,NA,NA,NA,NA,NA,NA,TRUE,5,1.7442,426.0165,429.0161,0,102,102,35,1,25,46,NA,NA,NA,NA,NA,1,103,"likert"
"8F311538737641A0864C57B0E31CDDFC",1,"01990a98-a121-7716-b7b7-d63f1bd0a80e","01990a84-c4ee-73c2-a87b-ff46a7d3dde5","2025-09-02_09h23.31.927",NA,NA,432.3661,432.3661,432.3661,432.716,NA,NA,NA,NA,NA,NA,NA,TRUE,4,1.6354,429.3664,432.3661,0,103,103,106,1,200,47,NA,NA,NA,NA,NA,1,104,"likert"
"8F311538737641A0864C57B0E31CDDFC",1,"01990a98-a121-7716-b7b7-d63f1bd0a80e","01990a84-c4ee-73c2-a87b-ff46a7d3dde5","2025-09-02_09h23.31.927",NA,NA,435.716,435.716,435.716,436.066,NA,NA,NA,NA,NA,NA,NA,TRUE,3,1.5853,432.7163,435.716,0,104,104,69,1,60,40,NA,NA,NA,NA,NA,1,105,"likert"
"8F311538737641A0864C57B0E31CDDFC",1,"01990a98-a121-7716-b7b7-d63f1bd0a80e","01990a84-c4ee-73c2-a87b-ff46a7d3dde5","2025-09-02_09h23.31.927",NA,NA,439.0661,439.0661,439.0661,439.416,NA,NA,NA,NA,NA,NA,NA,TRUE,5,2.2551,436.0664,439.066,0,105,105,23,1,14,39,NA,NA,NA,NA,NA,1,106,"likert"
"8F311538737641A0864C57B0E31CDDFC",1,"01990a98-a121-7716-b7b7-d63f1bd0a80e","01990a84-c4ee-73c2-a87b-ff46a7d3dde5","2025-09-02_09h23.31.927",NA,NA,442.4159,442.4159,442.4159,442.7659,NA,NA,NA,NA,NA,NA,NA,TRUE,4,2.066,439.4164,442.4159,0,106,106,21,1,14,32,NA,NA,NA,NA,NA,1,107,"likert"
"8F311538737641A0864C57B0E31CDDFC",1,"01990a98-a121-7716-b7b7-d63f1bd0a80e","01990a84-c4ee-73c2-a87b-ff46a7d3dde5","2025-09-02_09h23.31.927",NA,NA,445.7661,445.7661,445.7661,446.1159,NA,NA,NA,NA,NA,NA,NA,TRUE,2,2.8453,442.7665,445.7661,0,107,107,101,1,180,54,NA,NA,NA,NA,NA,1,108,"likert"
"8F311538737641A0864C57B0E31CDDFC",1,"01990a98-a121-7716-b7b7-d63f1bd0a80e","01990a84-c4ee-73c2-a87b-ff46a7d3dde5","2025-09-02_09h23.31.927",NA,NA,860.0874,860.0874,860.0874,860.4373,NA,NA,NA,NA,NA,NA,NA,TRUE,2,1.4749,857.0939,860.0873,NA,NA,NA,NA,NA,95,31,0,0,0,78,1,2,1,"likert"
"8F311538737641A0864C57B0E31CDDFC",1,"01990a98-a121-7716-b7b7-d63f1bd0a80e","01990a84-c4ee-73c2-a87b-ff46a7d3dde5","2025-09-02_09h23.31.927",NA,NA,863.4373,863.4373,863.4374,863.7872,NA,NA,NA,NA,NA,NA,NA,TRUE,2,2.2247,860.4378,863.4372,NA,NA,NA,NA,NA,7,26,0,1,1,1,1,2,2,"likert"
"8F311538737641A0864C57B0E31CDDFC",1,"01990a98-a121-7716-b7b7-d63f1bd0a80e","01990a84-c4ee-73c2-a87b-ff46a7d3dde5","2025-09-02_09h23.31.927",NA,NA,866.7873,866.7874,866.7874,867.1372,NA,NA,NA,NA,NA,NA,NA,TRUE,4,2.1746,863.7877,866.7873,NA,NA,NA,NA,NA,90,46,0,2,2,76,1,2,3,"likert"
"8F311538737641A0864C57B0E31CDDFC",1,"01990a98-a121-7716-b7b7-d63f1bd0a80e","01990a84-c4ee-73c2-a87b-ff46a7d3dde5","2025-09-02_09h23.31.927",NA,NA,870.1372,870.1372,870.1373,870.4873,NA,NA,NA,NA,NA,NA,NA,TRUE,1,2.2242,867.1376,870.1372,NA,NA,NA,NA,NA,21,26,0,3,3,24,1,2,4,"likert"
"8F311538737641A0864C57B0E31CDDFC",1,"01990a98-a121-7716-b7b7-d63f1bd0a80e","01990a84-c4ee-73c2-a87b-ff46a7d3dde5","2025-09-02_09h23.31.927",NA,NA,873.4875,873.4876,873.4876,873.8372,NA,NA,NA,NA,NA,NA,NA,TRUE,3,2.0226,870.4879,873.4872,NA,NA,NA,NA,NA,25,35,0,4,4,34,1,2,5,"likert"
"8F311538737641A0864C57B0E31CDDFC",1,"01990a98-a121-7716-b7b7-d63f1bd0a80e","01990a84-c4ee-73c2-a87b-ff46a7d3dde5","2025-09-02_09h23.31.927",NA,NA,876.8374,876.8376,876.8376,877.1871,NA,NA,NA,NA,NA,NA,NA,TRUE,2,1.9037,873.8377,876.8373,NA,NA,NA,NA,NA,25,31,0,5,5,32,1,2,6,"likert"
"8F311538737641A0864C57B0E31CDDFC",1,"01990a98-a121-7716-b7b7-d63f1bd0a80e","01990a84-c4ee-73c2-a87b-ff46a7d3dde5","2025-09-02_09h23.31.927",NA,NA,880.1872,880.1872,880.1873,880.5374,NA,NA,NA,NA,NA,NA,NA,TRUE,2,2.2429,877.1876,880.1871,NA,NA,NA,NA,NA,21,27,0,6,6,25,1,2,7,"likert"
"8F311538737641A0864C57B0E31CDDFC",1,"01990a98-a121-7716-b7b7-d63f1bd0a80e","01990a84-c4ee-73c2-a87b-ff46a7d3dde5","2025-09-02_09h23.31.927",NA,NA,883.5372,883.5372,883.5372,883.887,NA,NA,NA,NA,NA,NA,NA,TRUE,2,2.4726,880.5378,883.5371,NA,NA,NA,NA,NA,12,28,0,7,7,14,1,2,8,"likert"
"8F311538737641A0864C57B0E31CDDFC",1,"01990a98-a121-7716-b7b7-d63f1bd0a80e","01990a84-c4ee-73c2-a87b-ff46a7d3dde5","2025-09-02_09h23.31.927",NA,NA,886.8871,886.8871,886.8871,887.2372,NA,NA,NA,NA,NA,NA,NA,TRUE,1,1.4509,883.8875,886.887,NA,NA,NA,NA,NA,45,26,0,8,8,54,1,2,9,"likert"
"8F311538737641A0864C57B0E31CDDFC",1,"01990a98-a121-7716-b7b7-d63f1bd0a80e","01990a84-c4ee-73c2-a87b-ff46a7d3dde5","2025-09-02_09h23.31.927",NA,NA,890.2371,890.2371,890.2371,890.5871,NA,NA,NA,NA,NA,NA,NA,TRUE,3,2.0918,887.2375,890.2371,NA,NA,NA,NA,NA,30,30,0,9,9,45,1,2,10,"likert"
"8F311538737641A0864C57B0E31CDDFC",1,"01990a98-a121-7716-b7b7-d63f1bd0a80e","01990a84-c4ee-73c2-a87b-ff46a7d3dde5","2025-09-02_09h23.31.927",NA,NA,893.5871,893.5871,893.5871,893.9371,NA,NA,NA,NA,NA,NA,NA,TRUE,5,1.8944,890.5874,893.587,NA,NA,NA,NA,NA,60,54,0,10,10,71,1,2,11,"likert"
"8F311538737641A0864C57B0E31CDDFC",1,"01990a98-a121-7716-b7b7-d63f1bd0a80e","01990a84-c4ee-73c2-a87b-ff46a7d3dde5","2025-09-02_09h23.31.927",NA,NA,896.937,896.937,896.937,897.287,NA,NA,NA,NA,NA,NA,NA,TRUE,4,2.6443,893.9374,896.937,NA,NA,NA,NA,NA,7,30,0,11,11,3,1,2,12,"likert"
"8F311538737641A0864C57B0E31CDDFC",1,"01990a98-a121-7716-b7b7-d63f1bd0a80e","01990a84-c4ee-73c2-a87b-ff46a7d3dde5","2025-09-02_09h23.31.927",NA,NA,900.287,900.287,900.287,900.6369,NA,NA,NA,NA,NA,NA,NA,TRUE,3,2.414,897.2874,900.287,NA,NA,NA,NA,NA,40,33,0,12,12,49,1,2,13,"likert"
"8F311538737641A0864C57B0E31CDDFC",1,"01990a98-a121-7716-b7b7-d63f1bd0a80e","01990a84-c4ee-73c2-a87b-ff46a7d3dde5","2025-09-02_09h23.31.927",NA,NA,903.6369,903.6369,903.6369,903.987,NA,NA,NA,NA,NA,NA,NA,TRUE,1,1.0345,900.6372,903.6369,NA,NA,NA,NA,NA,200,26,0,13,13,102,1,2,14,"likert"
"8F311538737641A0864C57B0E31CDDFC",1,"01990a98-a121-7716-b7b7-d63f1bd0a80e","01990a84-c4ee-73c2-a87b-ff46a7d3dde5","2025-09-02_09h23.31.927",NA,NA,906.9874,906.9874,906.9874,907.3369,NA,NA,NA,NA,NA,NA,NA,TRUE,1,2.572,903.9876,906.9873,NA,NA,NA,NA,NA,150,47,0,14,14,94,1,2,15,"likert"
"8F311538737641A0864C57B0E31CDDFC",1,"01990a98-a121-7716-b7b7-d63f1bd0a80e","01990a84-c4ee-73c2-a87b-ff46a7d3dde5","2025-09-02_09h23.31.927",NA,NA,910.337,910.337,910.337,910.6868,NA,NA,NA,NA,NA,NA,NA,TRUE,1,1.5347,907.3373,910.337,NA,NA,NA,NA,NA,7,25,0,15,15,0,1,2,16,"likert"
"8F311538737641A0864C57B0E31CDDFC",1,"01990a98-a121-7716-b7b7-d63f1bd0a80e","01990a84-c4ee-73c2-a87b-ff46a7d3dde5","2025-09-02_09h23.31.927",NA,NA,913.6868,913.9368,913.9368,914.037,NA,NA,NA,NA,NA,NA,NA,FALSE,NA,NA,910.6871,913.6868,NA,NA,NA,NA,NA,180,35,0,16,16,98,1,2,17,"likert"
"8F311538737641A0864C57B0E31CDDFC",1,"01990a98-a121-7716-b7b7-d63f1bd0a80e","01990a84-c4ee-73c2-a87b-ff46a7d3dde5","2025-09-02_09h23.31.927",NA,NA,917.0367,917.0367,917.0368,917.3869,NA,NA,NA,NA,NA,NA,NA,TRUE,1,1.9747,914.0374,917.0367,NA,NA,NA,NA,NA,40,27,0,17,17,48,1,2,18,"likert"
"8F311538737641A0864C57B0E31CDDFC",1,"01990a98-a121-7716-b7b7-d63f1bd0a80e","01990a84-c4ee-73c2-a87b-ff46a7d3dde5","2025-09-02_09h23.31.927",NA,NA,920.3867,920.3867,920.3868,920.7367,NA,NA,NA,NA,NA,NA,NA,TRUE,2,1.7587,917.3872,920.3867,NA,NA,NA,NA,NA,10,29,0,18,18,9,1,2,19,"likert"
"8F311538737641A0864C57B0E31CDDFC",1,"01990a98-a121-7716-b7b7-d63f1bd0a80e","01990a84-c4ee-73c2-a87b-ff46a7d3dde5","2025-09-02_09h23.31.927",NA,NA,923.7369,923.7369,923.7369,924.0867,NA,NA,NA,NA,NA,NA,NA,TRUE,5,1.545,920.7372,923.7367,NA,NA,NA,NA,NA,7,32,0,19,19,4,1,2,20,"likert"
"8F311538737641A0864C57B0E31CDDFC",1,"01990a98-a121-7716-b7b7-d63f1bd0a80e","01990a84-c4ee-73c2-a87b-ff46a7d3dde5","2025-09-02_09h23.31.927",NA,NA,927.0867,927.0867,927.0867,927.4367,NA,NA,NA,NA,NA,NA,NA,TRUE,5,1.7054,924.0872,927.0867,NA,NA,NA,NA,NA,60,40,0,20,20,69,1,2,21,"likert"
"8F311538737641A0864C57B0E31CDDFC",1,"01990a98-a121-7716-b7b7-d63f1bd0a80e","01990a84-c4ee-73c2-a87b-ff46a7d3dde5","2025-09-02_09h23.31.927",NA,NA,930.4369,930.437,930.437,930.7868,NA,NA,NA,NA,NA,NA,NA,TRUE,1,1.8036,927.4373,930.4368,NA,NA,NA,NA,NA,100,26,0,21,21,84,1,2,22,"likert"
"8F311538737641A0864C57B0E31CDDFC",1,"01990a98-a121-7716-b7b7-d63f1bd0a80e","01990a84-c4ee-73c2-a87b-ff46a7d3dde5","2025-09-02_09h23.31.927",NA,NA,933.7868,933.7868,933.7869,934.1367,NA,NA,NA,NA,NA,NA,NA,TRUE,1,0.9745,930.7872,933.7868,NA,NA,NA,NA,NA,180,27,0,22,22,96,1,2,23,"likert"
"8F311538737641A0864C57B0E31CDDFC",1,"01990a98-a121-7716-b7b7-d63f1bd0a80e","01990a84-c4ee-73c2-a87b-ff46a7d3dde5","2025-09-02_09h23.31.927",NA,NA,937.1368,937.1368,937.1368,937.4867,NA,NA,NA,NA,NA,NA,NA,TRUE,3,2.2046,934.137,937.1367,NA,NA,NA,NA,NA,95,47,0,23,23,82,1,2,24,"likert"
"8F311538737641A0864C57B0E31CDDFC",1,"01990a98-a121-7716-b7b7-d63f1bd0a80e","01990a84-c4ee-73c2-a87b-ff46a7d3dde5","2025-09-02_09h23.31.927",NA,NA,940.4868,940.4868,940.4868,940.8367,NA,NA,NA,NA,NA,NA,NA,TRUE,2,1.5253,937.4872,940.4867,NA,NA,NA,NA,NA,200,54,0,24,24,107,1,2,25,"likert"
"8F311538737641A0864C57B0E31CDDFC",1,"01990a98-a121-7716-b7b7-d63f1bd0a80e","01990a84-c4ee-73c2-a87b-ff46a7d3dde5","2025-09-02_09h23.31.927",NA,NA,943.8368,943.8368,943.8368,944.1866,NA,NA,NA,NA,NA,NA,NA,TRUE,1,2.1551,940.8371,943.8367,NA,NA,NA,NA,NA,150,33,0,25,25,91,1,2,26,"likert"
"8F311538737641A0864C57B0E31CDDFC",1,"01990a98-a121-7716-b7b7-d63f1bd0a80e","01990a84-c4ee-73c2-a87b-ff46a7d3dde5","2025-09-02_09h23.31.927",NA,NA,947.1867,947.1867,947.1867,947.5366,NA,NA,NA,NA,NA,NA,NA,TRUE,3,1.7447,944.1871,947.1867,NA,NA,NA,NA,NA,45,31,0,26,26,56,1,2,27,"likert"
"8F311538737641A0864C57B0E31CDDFC",1,"01990a98-a121-7716-b7b7-d63f1bd0a80e","01990a84-c4ee-73c2-a87b-ff46a7d3dde5","2025-09-02_09h23.31.927",NA,NA,950.5367,950.5367,950.5367,950.8866,NA,NA,NA,NA,NA,NA,NA,TRUE,4,1.9753,947.5369,950.5367,NA,NA,NA,NA,NA,90,40,0,27,27,75,1,2,28,"likert"
"8F311538737641A0864C57B0E31CDDFC",1,"01990a98-a121-7716-b7b7-d63f1bd0a80e","01990a84-c4ee-73c2-a87b-ff46a7d3dde5","2025-09-02_09h23.31.927",NA,NA,953.8866,953.8866,953.8866,954.2365,NA,NA,NA,NA,NA,NA,NA,TRUE,1,1.2444,950.8873,953.8865,NA,NA,NA,NA,NA,90,26,0,28,28,72,1,2,29,"likert"
"8F311538737641A0864C57B0E31CDDFC",1,"01990a98-a121-7716-b7b7-d63f1bd0a80e","01990a84-c4ee-73c2-a87b-ff46a7d3dde5","2025-09-02_09h23.31.927",NA,NA,957.2365,957.2365,957.2365,957.5865,NA,NA,NA,NA,NA,NA,NA,TRUE,2,2.0757,954.2369,957.2365,NA,NA,NA,NA,NA,45,35,0,29,29,57,1,2,30,"likert"
"8F311538737641A0864C57B0E31CDDFC",1,"01990a98-a121-7716-b7b7-d63f1bd0a80e","01990a84-c4ee-73c2-a87b-ff46a7d3dde5","2025-09-02_09h23.31.927",NA,NA,960.5865,960.5865,960.5865,960.9363,NA,NA,NA,NA,NA,NA,NA,TRUE,4,1.9441,957.5869,960.5864,NA,NA,NA,NA,NA,180,54,0,30,30,101,1,2,31,"likert"
"8F311538737641A0864C57B0E31CDDFC",1,"01990a98-a121-7716-b7b7-d63f1bd0a80e","01990a84-c4ee-73c2-a87b-ff46a7d3dde5","2025-09-02_09h23.31.927",NA,NA,963.9365,963.9365,963.9366,964.2864,NA,NA,NA,NA,NA,NA,NA,TRUE,4,2.2046,960.9368,963.9364,NA,NA,NA,NA,NA,60,35,0,31,31,68,1,2,32,"likert"
"8F311538737641A0864C57B0E31CDDFC",1,"01990a98-a121-7716-b7b7-d63f1bd0a80e","01990a84-c4ee-73c2-a87b-ff46a7d3dde5","2025-09-02_09h23.31.927",NA,NA,967.2863,967.2863,967.2863,967.6364,NA,NA,NA,NA,NA,NA,NA,TRUE,4,2.1445,964.2869,967.2863,NA,NA,NA,NA,NA,150,54,0,32,32,95,1,2,33,"likert"
"8F311538737641A0864C57B0E31CDDFC",1,"01990a98-a121-7716-b7b7-d63f1bd0a80e","01990a84-c4ee-73c2-a87b-ff46a7d3dde5","2025-09-02_09h23.31.927",NA,NA,970.6366,970.6366,970.6366,970.9863,NA,NA,NA,NA,NA,NA,NA,TRUE,3,2.016,967.6368,970.6363,NA,NA,NA,NA,NA,180,39,0,33,33,99,1,2,34,"likert"
"8F311538737641A0864C57B0E31CDDFC",1,"01990a98-a121-7716-b7b7-d63f1bd0a80e","01990a84-c4ee-73c2-a87b-ff46a7d3dde5","2025-09-02_09h23.31.927",NA,NA,973.9865,973.9866,973.9866,974.3364,NA,NA,NA,NA,NA,NA,NA,TRUE,3,2.1042,970.9868,973.9864,NA,NA,NA,NA,NA,25,29,0,34,34,31,1,2,35,"likert"
"8F311538737641A0864C57B0E31CDDFC",1,"01990a98-a121-7716-b7b7-d63f1bd0a80e","01990a84-c4ee-73c2-a87b-ff46a7d3dde5","2025-09-02_09h23.31.927",NA,NA,977.3363,977.3364,977.3364,977.6863,NA,NA,NA,NA,NA,NA,NA,TRUE,2,1.8355,974.3368,977.3363,NA,NA,NA,NA,NA,200,28,0,35,35,103,1,2,36,"likert"
"8F311538737641A0864C57B0E31CDDFC",1,"01990a98-a121-7716-b7b7-d63f1bd0a80e","01990a84-c4ee-73c2-a87b-ff46a7d3dde5","2025-09-02_09h23.31.927",NA,NA,980.6864,980.6864,980.6864,981.0363,NA,NA,NA,NA,NA,NA,NA,TRUE,4,2.2944,977.6867,980.6863,NA,NA,NA,NA,NA,50,40,0,36,36,63,1,2,37,"likert"
"8F311538737641A0864C57B0E31CDDFC",1,"01990a98-a121-7716-b7b7-d63f1bd0a80e","01990a84-c4ee-73c2-a87b-ff46a7d3dde5","2025-09-02_09h23.31.927",NA,NA,984.0363,984.0363,984.0363,984.3862,NA,NA,NA,NA,NA,NA,NA,TRUE,5,2.0343,981.0368,984.0362,NA,NA,NA,NA,NA,45,40,0,37,37,58,1,2,38,"likert"
"8F311538737641A0864C57B0E31CDDFC",1,"01990a98-a121-7716-b7b7-d63f1bd0a80e","01990a84-c4ee-73c2-a87b-ff46a7d3dde5","2025-09-02_09h23.31.927",NA,NA,987.3864,987.3864,987.3864,987.7362,NA,NA,NA,NA,NA,NA,NA,TRUE,5,1.5153,984.3867,987.3863,NA,NA,NA,NA,NA,7,28,0,38,38,2,1,2,39,"likert"
"8F311538737641A0864C57B0E31CDDFC",1,"01990a98-a121-7716-b7b7-d63f1bd0a80e","01990a84-c4ee-73c2-a87b-ff46a7d3dde5","2025-09-02_09h23.31.927",NA,NA,990.7361,990.7362,990.7362,991.0861,NA,NA,NA,NA,NA,NA,NA,TRUE,1,2.4345,987.7367,990.7361,NA,NA,NA,NA,NA,180,31,0,39,39,97,1,2,40,"likert"
"8F311538737641A0864C57B0E31CDDFC",1,"01990a98-a121-7716-b7b7-d63f1bd0a80e","01990a84-c4ee-73c2-a87b-ff46a7d3dde5","2025-09-02_09h23.31.927",NA,NA,994.0863,994.0863,994.0863,994.4361,NA,NA,NA,NA,NA,NA,NA,TRUE,5,2.1858,991.0865,994.0862,NA,NA,NA,NA,NA,28,46,0,40,40,41,1,2,41,"likert"
"8F311538737641A0864C57B0E31CDDFC",1,"01990a98-a121-7716-b7b7-d63f1bd0a80e","01990a84-c4ee-73c2-a87b-ff46a7d3dde5","2025-09-02_09h23.31.927",NA,NA,997.4363,997.4363,997.4363,997.7861,NA,NA,NA,NA,NA,NA,NA,TRUE,5,1.1543,994.4366,997.4361,NA,NA,NA,NA,NA,50,46,0,41,41,64,1,2,42,"likert"
"8F311538737641A0864C57B0E31CDDFC",1,"01990a98-a121-7716-b7b7-d63f1bd0a80e","01990a84-c4ee-73c2-a87b-ff46a7d3dde5","2025-09-02_09h23.31.927",NA,NA,1000.7862,1000.7863,1000.7863,1001.136,NA,NA,NA,NA,NA,NA,NA,TRUE,5,1.6553,997.7866,1000.7861,NA,NA,NA,NA,NA,40,47,0,42,42,52,1,2,43,"likert"
"8F311538737641A0864C57B0E31CDDFC",1,"01990a98-a121-7716-b7b7-d63f1bd0a80e","01990a84-c4ee-73c2-a87b-ff46a7d3dde5","2025-09-02_09h23.31.927",NA,NA,1004.136,1004.136,1004.136,1004.486,NA,NA,NA,NA,NA,NA,NA,TRUE,2,2.5053,1001.1364,1004.1359,NA,NA,NA,NA,NA,95,33,0,43,43,79,1,2,44,"likert"
"8F311538737641A0864C57B0E31CDDFC",1,"01990a98-a121-7716-b7b7-d63f1bd0a80e","01990a84-c4ee-73c2-a87b-ff46a7d3dde5","2025-09-02_09h23.31.927",NA,NA,1007.4861,1007.4862,1007.4862,1007.8361,NA,NA,NA,NA,NA,NA,NA,TRUE,2,2.0859,1004.4866,1007.486,NA,NA,NA,NA,NA,95,40,0,44,44,81,1,2,45,"likert"
"8F311538737641A0864C57B0E31CDDFC",1,"01990a98-a121-7716-b7b7-d63f1bd0a80e","01990a84-c4ee-73c2-a87b-ff46a7d3dde5","2025-09-02_09h23.31.927",NA,NA,1010.8361,1010.8361,1010.8361,1011.1859,NA,NA,NA,NA,NA,NA,NA,TRUE,1,1.9954,1007.8365,1010.8361,NA,NA,NA,NA,NA,10,26,0,45,45,7,1,2,46,"likert"
"8F311538737641A0864C57B0E31CDDFC",1,"01990a98-a121-7716-b7b7-d63f1bd0a80e","01990a84-c4ee-73c2-a87b-ff46a7d3dde5","2025-09-02_09h23.31.927",NA,NA,1014.1861,1014.1861,1014.1861,1014.536,NA,NA,NA,NA,NA,NA,NA,TRUE,1,2.4345,1011.1863,1014.1861,NA,NA,NA,NA,NA,200,47,0,46,46,106,1,2,47,"likert"
"8F311538737641A0864C57B0E31CDDFC",1,"01990a98-a121-7716-b7b7-d63f1bd0a80e","01990a84-c4ee-73c2-a87b-ff46a7d3dde5","2025-09-02_09h23.31.927",NA,NA,1017.536,1017.536,1017.536,1017.8859,NA,NA,NA,NA,NA,NA,NA,TRUE,3,2.7257,1014.5363,1017.5359,NA,NA,NA,NA,NA,90,54,0,47,47,77,1,2,48,"likert"
"8F311538737641A0864C57B0E31CDDFC",1,"01990a98-a121-7716-b7b7-d63f1bd0a80e","01990a84-c4ee-73c2-a87b-ff46a7d3dde5","2025-09-02_09h23.31.927",NA,NA,1020.8859,1020.8859,1020.8859,1021.2359,NA,NA,NA,NA,NA,NA,NA,TRUE,2,1.645,1017.8863,1020.8859,NA,NA,NA,NA,NA,30,29,0,48,48,44,1,2,49,"likert"
"8F311538737641A0864C57B0E31CDDFC",1,"01990a98-a121-7716-b7b7-d63f1bd0a80e","01990a84-c4ee-73c2-a87b-ff46a7d3dde5","2025-09-02_09h23.31.927",NA,NA,1024.236,1024.236,1024.236,1024.5859,NA,NA,NA,NA,NA,NA,NA,TRUE,3,2.1656,1021.2363,1024.2359,NA,NA,NA,NA,NA,45,46,0,49,49,59,1,2,50,"likert"
"8F311538737641A0864C57B0E31CDDFC",1,"01990a98-a121-7716-b7b7-d63f1bd0a80e","01990a84-c4ee-73c2-a87b-ff46a7d3dde5","2025-09-02_09h23.31.927",NA,NA,1027.5859,1027.5859,1027.5859,1027.9361,NA,NA,NA,NA,NA,NA,NA,TRUE,3,1.8957,1024.5862,1027.5859,NA,NA,NA,NA,NA,100,38,0,50,50,86,1,2,51,"likert"
"8F311538737641A0864C57B0E31CDDFC",1,"01990a98-a121-7716-b7b7-d63f1bd0a80e","01990a84-c4ee-73c2-a87b-ff46a7d3dde5","2025-09-02_09h23.31.927",NA,NA,1030.9359,1030.936,1030.936,1031.2857,NA,NA,NA,NA,NA,NA,NA,TRUE,2,1.4943,1027.9365,1030.9358,NA,NA,NA,NA,NA,150,31,0,51,51,90,1,2,52,"likert"
"8F311538737641A0864C57B0E31CDDFC",1,"01990a98-a121-7716-b7b7-d63f1bd0a80e","01990a84-c4ee-73c2-a87b-ff46a7d3dde5","2025-09-02_09h23.31.927",NA,NA,1034.2858,1034.2858,1034.2858,1034.6358,NA,NA,NA,NA,NA,NA,NA,TRUE,1,1.8252,1031.2862,1034.2857,NA,NA,NA,NA,NA,14,28,0,52,52,20,1,2,53,"likert"
"8F311538737641A0864C57B0E31CDDFC",1,"01990a98-a121-7716-b7b7-d63f1bd0a80e","01990a84-c4ee-73c2-a87b-ff46a7d3dde5","2025-09-02_09h23.31.927",NA,NA,1037.6359,1037.6359,1037.6359,1037.9858,NA,NA,NA,NA,NA,NA,NA,TRUE,1,1.8864,1034.6363,1037.6358,NA,NA,NA,NA,NA,100,31,0,53,53,85,1,2,54,"likert"
"8F311538737641A0864C57B0E31CDDFC",1,"01990a98-a121-7716-b7b7-d63f1bd0a80e","01990a84-c4ee-73c2-a87b-ff46a7d3dde5","2025-09-02_09h23.31.927",NA,NA,1040.9859,1040.9859,1040.9859,1041.3358,NA,NA,NA,NA,NA,NA,NA,TRUE,1,1.5564,1037.9862,1040.9858,NA,NA,NA,NA,NA,12,26,0,54,54,13,1,2,55,"likert"
"8F311538737641A0864C57B0E31CDDFC",1,"01990a98-a121-7716-b7b7-d63f1bd0a80e","01990a84-c4ee-73c2-a87b-ff46a7d3dde5","2025-09-02_09h23.31.927",NA,NA,1044.3359,1044.3359,1044.336,1044.6857,NA,NA,NA,NA,NA,NA,NA,TRUE,3,2.1358,1041.3362,1044.3358,NA,NA,NA,NA,NA,30,38,0,55,55,47,1,2,56,"likert"
"8F311538737641A0864C57B0E31CDDFC",1,"01990a98-a121-7716-b7b7-d63f1bd0a80e","01990a84-c4ee-73c2-a87b-ff46a7d3dde5","2025-09-02_09h23.31.927",NA,NA,1047.6857,1047.6857,1047.6858,1048.0359,NA,NA,NA,NA,NA,NA,NA,TRUE,4,2.1656,1044.6863,1047.6857,NA,NA,NA,NA,NA,12,31,0,56,56,15,1,2,57,"likert"
"8F311538737641A0864C57B0E31CDDFC",1,"01990a98-a121-7716-b7b7-d63f1bd0a80e","01990a84-c4ee-73c2-a87b-ff46a7d3dde5","2025-09-02_09h23.31.927",NA,NA,1051.0358,1051.0358,1051.0358,1051.3856,NA,NA,NA,NA,NA,NA,NA,TRUE,3,2.2656,1048.0363,1051.0357,NA,NA,NA,NA,NA,50,35,0,57,57,62,1,2,58,"likert"
"8F311538737641A0864C57B0E31CDDFC",1,"01990a98-a121-7716-b7b7-d63f1bd0a80e","01990a84-c4ee-73c2-a87b-ff46a7d3dde5","2025-09-02_09h23.31.927",NA,NA,1054.3857,1054.3857,1054.3857,1054.7357,NA,NA,NA,NA,NA,NA,NA,TRUE,5,2.6362,1051.3861,1054.3856,NA,NA,NA,NA,NA,25,46,0,58,58,35,1,2,59,"likert"
"8F311538737641A0864C57B0E31CDDFC",1,"01990a98-a121-7716-b7b7-d63f1bd0a80e","01990a84-c4ee-73c2-a87b-ff46a7d3dde5","2025-09-02_09h23.31.927",NA,NA,1057.7358,1057.7358,1057.7358,1058.0855,NA,NA,NA,NA,NA,NA,NA,TRUE,3,1.8563,1054.736,1057.7357,NA,NA,NA,NA,NA,90,30,0,59,59,73,1,2,60,"likert"
"8F311538737641A0864C57B0E31CDDFC",1,"01990a98-a121-7716-b7b7-d63f1bd0a80e","01990a84-c4ee-73c2-a87b-ff46a7d3dde5","2025-09-02_09h23.31.927",NA,NA,1061.0858,1061.0858,1061.0858,1061.4356,NA,NA,NA,NA,NA,NA,NA,TRUE,2,2.2564,1058.0859,1061.0857,NA,NA,NA,NA,NA,21,32,0,60,60,28,1,2,61,"likert"
"8F311538737641A0864C57B0E31CDDFC",1,"01990a98-a121-7716-b7b7-d63f1bd0a80e","01990a84-c4ee-73c2-a87b-ff46a7d3dde5","2025-09-02_09h23.31.927",NA,NA,1064.4355,1064.4355,1064.4355,1064.7857,NA,NA,NA,NA,NA,NA,NA,TRUE,1,1.3356,1061.4362,1064.4355,NA,NA,NA,NA,NA,50,27,0,61,61,60,1,2,62,"likert"
"8F311538737641A0864C57B0E31CDDFC",1,"01990a98-a121-7716-b7b7-d63f1bd0a80e","01990a84-c4ee-73c2-a87b-ff46a7d3dde5","2025-09-02_09h23.31.927",NA,NA,1067.7854,1067.7855,1067.7855,1068.1357,NA,NA,NA,NA,NA,NA,NA,TRUE,3,1.5571,1064.7861,1067.7854,NA,NA,NA,NA,NA,90,33,0,62,62,74,1,2,63,"likert"
"8F311538737641A0864C57B0E31CDDFC",1,"01990a98-a121-7716-b7b7-d63f1bd0a80e","01990a84-c4ee-73c2-a87b-ff46a7d3dde5","2025-09-02_09h23.31.927",NA,NA,1071.1356,1071.1356,1071.1356,1071.4854,NA,NA,NA,NA,NA,NA,NA,TRUE,1,1.7353,1068.1361,1071.1356,NA,NA,NA,NA,NA,25,27,0,63,63,30,1,2,64,"likert"
"8F311538737641A0864C57B0E31CDDFC",1,"01990a98-a121-7716-b7b7-d63f1bd0a80e","01990a84-c4ee-73c2-a87b-ff46a7d3dde5","2025-09-02_09h23.31.927",NA,NA,1074.4854,1074.4854,1074.4854,1074.8355,NA,NA,NA,NA,NA,NA,NA,TRUE,2,2.0069,1071.4861,1074.4853,NA,NA,NA,NA,NA,180,46,0,64,64,100,1,2,65,"likert"
"8F311538737641A0864C57B0E31CDDFC",1,"01990a98-a121-7716-b7b7-d63f1bd0a80e","01990a84-c4ee-73c2-a87b-ff46a7d3dde5","2025-09-02_09h23.31.927",NA,NA,1077.8354,1077.8354,1077.8354,1078.1856,NA,NA,NA,NA,NA,NA,NA,TRUE,5,1.986,1074.8358,1077.8354,NA,NA,NA,NA,NA,60,47,0,65,65,70,1,2,66,"likert"
"8F311538737641A0864C57B0E31CDDFC",1,"01990a98-a121-7716-b7b7-d63f1bd0a80e","01990a84-c4ee-73c2-a87b-ff46a7d3dde5","2025-09-02_09h23.31.927",NA,NA,1081.1855,1081.1855,1081.1855,1081.5355,NA,NA,NA,NA,NA,NA,NA,TRUE,5,1.6157,1078.186,1081.1854,NA,NA,NA,NA,NA,50,54,0,66,66,65,1,2,67,"likert"
"8F311538737641A0864C57B0E31CDDFC",1,"01990a98-a121-7716-b7b7-d63f1bd0a80e","01990a84-c4ee-73c2-a87b-ff46a7d3dde5","2025-09-02_09h23.31.927",NA,NA,1084.5354,1084.5354,1084.5354,1084.8854,NA,NA,NA,NA,NA,NA,NA,TRUE,5,2.0073,1081.5358,1084.5354,NA,NA,NA,NA,NA,10,30,0,67,67,10,1,2,68,"likert"
"8F311538737641A0864C57B0E31CDDFC",1,"01990a98-a121-7716-b7b7-d63f1bd0a80e","01990a84-c4ee-73c2-a87b-ff46a7d3dde5","2025-09-02_09h23.31.927",NA,NA,1087.8855,1087.8855,1087.8855,1088.2352,NA,NA,NA,NA,NA,NA,NA,TRUE,3,2.1571,1084.8859,1087.8854,NA,NA,NA,NA,NA,25,33,0,68,68,33,1,2,69,"likert"
"8F311538737641A0864C57B0E31CDDFC",1,"01990a98-a121-7716-b7b7-d63f1bd0a80e","01990a84-c4ee-73c2-a87b-ff46a7d3dde5","2025-09-02_09h23.31.927",NA,NA,1091.2354,1091.2354,1091.2354,1091.5853,NA,NA,NA,NA,NA,NA,NA,TRUE,1,1.5668,1088.2356,1091.2353,NA,NA,NA,NA,NA,200,39,0,69,69,105,1,2,70,"likert"
"8F311538737641A0864C57B0E31CDDFC",1,"01990a98-a121-7716-b7b7-d63f1bd0a80e","01990a84-c4ee-73c2-a87b-ff46a7d3dde5","2025-09-02_09h23.31.927",NA,NA,1094.5852,1094.5852,1094.5853,1094.9353,NA,NA,NA,NA,NA,NA,NA,TRUE,3,1.6654,1091.5857,1094.5852,NA,NA,NA,NA,NA,40,54,0,70,70,53,1,2,71,"likert"
"8F311538737641A0864C57B0E31CDDFC",1,"01990a98-a121-7716-b7b7-d63f1bd0a80e","01990a84-c4ee-73c2-a87b-ff46a7d3dde5","2025-09-02_09h23.31.927",NA,NA,1097.9354,1097.9354,1097.9354,1098.2852,NA,NA,NA,NA,NA,NA,NA,TRUE,2,1.8951,1094.9358,1097.9354,NA,NA,NA,NA,NA,30,32,0,71,71,46,1,2,72,"likert"
"8F311538737641A0864C57B0E31CDDFC",1,"01990a98-a121-7716-b7b7-d63f1bd0a80e","01990a84-c4ee-73c2-a87b-ff46a7d3dde5","2025-09-02_09h23.31.927",NA,NA,1101.2853,1101.2853,1101.2853,1101.6353,NA,NA,NA,NA,NA,NA,NA,TRUE,4,2.5854,1098.2856,1101.2852,NA,NA,NA,NA,NA,95,54,0,72,72,83,1,2,73,"likert"
"8F311538737641A0864C57B0E31CDDFC",1,"01990a98-a121-7716-b7b7-d63f1bd0a80e","01990a84-c4ee-73c2-a87b-ff46a7d3dde5","2025-09-02_09h23.31.927",NA,NA,1104.6353,1104.6353,1104.6353,1104.9852,NA,NA,NA,NA,NA,NA,NA,TRUE,2,2.227,1101.6357,1104.6353,NA,NA,NA,NA,NA,28,32,0,73,73,38,1,2,74,"likert"
"8F311538737641A0864C57B0E31CDDFC",1,"01990a98-a121-7716-b7b7-d63f1bd0a80e","01990a84-c4ee-73c2-a87b-ff46a7d3dde5","2025-09-02_09h23.31.927",NA,NA,1107.9852,1107.9853,1107.9853,1108.3352,NA,NA,NA,NA,NA,NA,NA,TRUE,3,1.537,1104.9856,1107.9852,NA,NA,NA,NA,NA,95,35,0,74,74,80,1,2,75,"likert"
"8F311538737641A0864C57B0E31CDDFC",1,"01990a98-a121-7716-b7b7-d63f1bd0a80e","01990a84-c4ee-73c2-a87b-ff46a7d3dde5","2025-09-02_09h23.31.927",NA,NA,1111.3352,1111.3352,1111.3353,1111.685,NA,NA,NA,NA,NA,NA,NA,TRUE,1,1.5864,1108.3356,1111.3352,NA,NA,NA,NA,NA,12,25,0,75,75,12,1,2,76,"likert"
"8F311538737641A0864C57B0E31CDDFC",1,"01990a98-a121-7716-b7b7-d63f1bd0a80e","01990a84-c4ee-73c2-a87b-ff46a7d3dde5","2025-09-02_09h23.31.927",NA,NA,1114.6852,1114.6852,1114.6852,1115.0352,NA,NA,NA,NA,NA,NA,NA,TRUE,1,2.0501,1111.6855,1114.6851,NA,NA,NA,NA,NA,60,33,0,76,76,67,1,2,77,"likert"
"8F311538737641A0864C57B0E31CDDFC",1,"01990a98-a121-7716-b7b7-d63f1bd0a80e","01990a84-c4ee-73c2-a87b-ff46a7d3dde5","2025-09-02_09h23.31.927",NA,NA,1118.035,1118.035,1118.035,1118.385,NA,NA,NA,NA,NA,NA,NA,TRUE,1,0.8354,1115.0355,1118.035,NA,NA,NA,NA,NA,28,28,0,77,77,37,1,2,78,"likert"
"8F311538737641A0864C57B0E31CDDFC",1,"01990a98-a121-7716-b7b7-d63f1bd0a80e","01990a84-c4ee-73c2-a87b-ff46a7d3dde5","2025-09-02_09h23.31.927",NA,NA,1121.3851,1121.3851,1121.3851,1121.7349,NA,NA,NA,NA,NA,NA,NA,TRUE,3,2.3364,1118.3855,1121.385,NA,NA,NA,NA,NA,28,35,0,78,78,39,1,2,79,"likert"
"8F311538737641A0864C57B0E31CDDFC",1,"01990a98-a121-7716-b7b7-d63f1bd0a80e","01990a84-c4ee-73c2-a87b-ff46a7d3dde5","2025-09-02_09h23.31.927",NA,NA,1124.7351,1124.7351,1124.7352,1125.085,NA,NA,NA,NA,NA,NA,NA,TRUE,2,1.507,1121.7354,1124.735,NA,NA,NA,NA,NA,60,29,0,79,79,66,1,2,80,"likert"
"8F311538737641A0864C57B0E31CDDFC",1,"01990a98-a121-7716-b7b7-d63f1bd0a80e","01990a84-c4ee-73c2-a87b-ff46a7d3dde5","2025-09-02_09h23.31.927",NA,NA,1128.085,1128.085,1128.085,1128.4352,NA,NA,NA,NA,NA,NA,NA,TRUE,2,2.1168,1125.0854,1128.085,NA,NA,NA,NA,NA,14,32,0,80,80,21,1,2,81,"likert"
"8F311538737641A0864C57B0E31CDDFC",1,"01990a98-a121-7716-b7b7-d63f1bd0a80e","01990a84-c4ee-73c2-a87b-ff46a7d3dde5","2025-09-02_09h23.31.927",NA,NA,1131.4351,1131.4351,1131.4351,1131.785,NA,NA,NA,NA,NA,NA,NA,TRUE,1,0.9864,1128.4356,1131.435,NA,NA,NA,NA,NA,200,35,0,81,81,104,1,2,82,"likert"
"8F311538737641A0864C57B0E31CDDFC",1,"01990a98-a121-7716-b7b7-d63f1bd0a80e","01990a84-c4ee-73c2-a87b-ff46a7d3dde5","2025-09-02_09h23.31.927",NA,NA,1134.785,1134.785,1134.785,1135.135,NA,NA,NA,NA,NA,NA,NA,TRUE,5,2.1584,1131.7854,1134.785,NA,NA,NA,NA,NA,10,32,0,82,82,11,1,2,83,"likert"
"8F311538737641A0864C57B0E31CDDFC",1,"01990a98-a121-7716-b7b7-d63f1bd0a80e","01990a84-c4ee-73c2-a87b-ff46a7d3dde5","2025-09-02_09h23.31.927",NA,NA,1138.1349,1138.1349,1138.1349,1138.485,NA,NA,NA,NA,NA,NA,NA,TRUE,5,1.7355,1135.1354,1138.1348,NA,NA,NA,NA,NA,12,35,0,83,83,17,1,2,84,"likert"
"8F311538737641A0864C57B0E31CDDFC",1,"01990a98-a121-7716-b7b7-d63f1bd0a80e","01990a84-c4ee-73c2-a87b-ff46a7d3dde5","2025-09-02_09h23.31.927",NA,NA,1141.485,1141.485,1141.485,1141.8348,NA,NA,NA,NA,NA,NA,NA,TRUE,1,2.0264,1138.4854,1141.4849,NA,NA,NA,NA,NA,45,29,0,84,84,55,1,2,85,"likert"
"8F311538737641A0864C57B0E31CDDFC",1,"01990a98-a121-7716-b7b7-d63f1bd0a80e","01990a84-c4ee-73c2-a87b-ff46a7d3dde5","2025-09-02_09h23.31.927",NA,NA,1144.835,1144.835,1144.835,1145.1848,NA,NA,NA,NA,NA,NA,NA,TRUE,1,2.1268,1141.8353,1144.8349,NA,NA,NA,NA,NA,28,26,0,85,85,36,1,2,86,"likert"
"8F311538737641A0864C57B0E31CDDFC",1,"01990a98-a121-7716-b7b7-d63f1bd0a80e","01990a84-c4ee-73c2-a87b-ff46a7d3dde5","2025-09-02_09h23.31.927",NA,NA,1148.1849,1148.1849,1148.1849,1148.5349,NA,NA,NA,NA,NA,NA,NA,TRUE,2,1.557,1145.1852,1148.1849,NA,NA,NA,NA,NA,150,40,0,86,86,93,1,2,87,"likert"
"8F311538737641A0864C57B0E31CDDFC",1,"01990a98-a121-7716-b7b7-d63f1bd0a80e","01990a84-c4ee-73c2-a87b-ff46a7d3dde5","2025-09-02_09h23.31.927",NA,NA,1151.5348,1151.5349,1151.5349,1151.8848,NA,NA,NA,NA,NA,NA,NA,TRUE,5,2.2162,1148.5352,1151.5348,NA,NA,NA,NA,NA,12,33,0,87,87,16,1,2,88,"likert"
"8F311538737641A0864C57B0E31CDDFC",1,"01990a98-a121-7716-b7b7-d63f1bd0a80e","01990a84-c4ee-73c2-a87b-ff46a7d3dde5","2025-09-02_09h23.31.927",NA,NA,1154.8848,1154.8848,1154.8848,1155.2347,NA,NA,NA,NA,NA,NA,NA,TRUE,5,1.516,1151.8852,1154.8847,NA,NA,NA,NA,NA,21,29,0,88,88,26,1,2,89,"likert"
"8F311538737641A0864C57B0E31CDDFC",1,"01990a98-a121-7716-b7b7-d63f1bd0a80e","01990a84-c4ee-73c2-a87b-ff46a7d3dde5","2025-09-02_09h23.31.927",NA,NA,1158.2347,1158.2347,1158.2347,1158.5846,NA,NA,NA,NA,NA,NA,NA,TRUE,2,1.9865,1155.2352,1158.2346,NA,NA,NA,NA,NA,30,27,0,89,89,43,1,2,90,"likert"
"8F311538737641A0864C57B0E31CDDFC",1,"01990a98-a121-7716-b7b7-d63f1bd0a80e","01990a84-c4ee-73c2-a87b-ff46a7d3dde5","2025-09-02_09h23.31.927",NA,NA,1161.5847,1161.5848,1161.5848,1161.9347,NA,NA,NA,NA,NA,NA,NA,TRUE,1,2.4365,1158.5852,1161.5847,NA,NA,NA,NA,NA,150,35,0,90,90,92,1,2,91,"likert"
"8F311538737641A0864C57B0E31CDDFC",1,"01990a98-a121-7716-b7b7-d63f1bd0a80e","01990a84-c4ee-73c2-a87b-ff46a7d3dde5","2025-09-02_09h23.31.927",NA,NA,1164.9349,1164.9349,1164.9349,1165.2847,NA,NA,NA,NA,NA,NA,NA,TRUE,1,1.0466,1161.9351,1164.9348,NA,NA,NA,NA,NA,10,25,0,91,91,6,1,2,92,"likert"
"8F311538737641A0864C57B0E31CDDFC",1,"01990a98-a121-7716-b7b7-d63f1bd0a80e","01990a84-c4ee-73c2-a87b-ff46a7d3dde5","2025-09-02_09h23.31.927",NA,NA,1168.2847,1168.2847,1168.2847,1168.6345,NA,NA,NA,NA,NA,NA,NA,TRUE,3,2.5466,1165.285,1168.2846,NA,NA,NA,NA,NA,100,39,0,92,92,87,1,2,93,"likert"
"8F311538737641A0864C57B0E31CDDFC",1,"01990a98-a121-7716-b7b7-d63f1bd0a80e","01990a84-c4ee-73c2-a87b-ff46a7d3dde5","2025-09-02_09h23.31.927",NA,NA,1171.6347,1171.6347,1171.6347,1171.9846,NA,NA,NA,NA,NA,NA,NA,TRUE,4,2.1176,1168.6349,1171.6346,NA,NA,NA,NA,NA,40,35,0,93,93,50,1,2,94,"likert"
"8F311538737641A0864C57B0E31CDDFC",1,"01990a98-a121-7716-b7b7-d63f1bd0a80e","01990a84-c4ee-73c2-a87b-ff46a7d3dde5","2025-09-02_09h23.31.927",NA,NA,1174.9848,1174.9849,1174.9849,1175.3345,NA,NA,NA,NA,NA,NA,NA,TRUE,1,1.0154,1171.985,1174.9846,NA,NA,NA,NA,NA,14,25,0,94,94,18,1,2,95,"likert"
"8F311538737641A0864C57B0E31CDDFC",1,"01990a98-a121-7716-b7b7-d63f1bd0a80e","01990a84-c4ee-73c2-a87b-ff46a7d3dde5","2025-09-02_09h23.31.927",NA,NA,1178.3346,1178.3346,1178.3346,1178.6846,NA,NA,NA,NA,NA,NA,NA,TRUE,2,1.8995,1175.3349,1178.3346,NA,NA,NA,NA,NA,14,35,0,95,95,22,1,2,96,"likert"
"8F311538737641A0864C57B0E31CDDFC",1,"01990a98-a121-7716-b7b7-d63f1bd0a80e","01990a84-c4ee-73c2-a87b-ff46a7d3dde5","2025-09-02_09h23.31.927",NA,NA,1181.6847,1181.6847,1181.6847,1182.0346,NA,NA,NA,NA,NA,NA,NA,TRUE,1,1.1073,1178.685,1181.6846,NA,NA,NA,NA,NA,30,26,0,96,96,42,1,2,97,"likert"
"8F311538737641A0864C57B0E31CDDFC",1,"01990a98-a121-7716-b7b7-d63f1bd0a80e","01990a84-c4ee-73c2-a87b-ff46a7d3dde5","2025-09-02_09h23.31.927",NA,NA,1185.0348,1185.0348,1185.0348,1185.3846,NA,NA,NA,NA,NA,NA,NA,TRUE,3,2.0576,1182.0349,1185.0348,NA,NA,NA,NA,NA,21,30,0,97,97,27,1,2,98,"likert"
"8F311538737641A0864C57B0E31CDDFC",1,"01990a98-a121-7716-b7b7-d63f1bd0a80e","01990a84-c4ee-73c2-a87b-ff46a7d3dde5","2025-09-02_09h23.31.927",NA,NA,1188.3846,1188.3846,1188.3846,1188.7345,NA,NA,NA,NA,NA,NA,NA,TRUE,5,1.1367,1185.385,1188.3846,NA,NA,NA,NA,NA,7,35,0,98,98,5,1,2,99,"likert"
"8F311538737641A0864C57B0E31CDDFC",1,"01990a98-a121-7716-b7b7-d63f1bd0a80e","01990a84-c4ee-73c2-a87b-ff46a7d3dde5","2025-09-02_09h23.31.927",NA,NA,1191.7345,1191.7345,1191.7345,1192.0845,NA,NA,NA,NA,NA,NA,NA,TRUE,1,1.1575,1188.7349,1191.7345,NA,NA,NA,NA,NA,10,27,0,99,99,8,1,2,100,"likert"
"8F311538737641A0864C57B0E31CDDFC",1,"01990a98-a121-7716-b7b7-d63f1bd0a80e","01990a84-c4ee-73c2-a87b-ff46a7d3dde5","2025-09-02_09h23.31.927",NA,NA,1195.0845,1195.0846,1195.0846,1195.4345,NA,NA,NA,NA,NA,NA,NA,TRUE,2,2.226,1192.0849,1195.0844,NA,NA,NA,NA,NA,100,46,0,100,100,88,1,2,101,"likert"
"8F311538737641A0864C57B0E31CDDFC",1,"01990a98-a121-7716-b7b7-d63f1bd0a80e","01990a84-c4ee-73c2-a87b-ff46a7d3dde5","2025-09-02_09h23.31.927",NA,NA,1198.4346,1198.4346,1198.4346,1198.7845,NA,NA,NA,NA,NA,NA,NA,TRUE,1,1.016,1195.4349,1198.4344,NA,NA,NA,NA,NA,14,26,0,101,101,19,1,2,102,"likert"
"8F311538737641A0864C57B0E31CDDFC",1,"01990a98-a121-7716-b7b7-d63f1bd0a80e","01990a84-c4ee-73c2-a87b-ff46a7d3dde5","2025-09-02_09h23.31.927",NA,NA,1201.7843,1201.7843,1201.7843,1202.1344,NA,NA,NA,NA,NA,NA,NA,TRUE,5,2.2769,1198.7848,1201.7843,NA,NA,NA,NA,NA,28,39,0,102,102,40,1,2,103,"likert"
"8F311538737641A0864C57B0E31CDDFC",1,"01990a98-a121-7716-b7b7-d63f1bd0a80e","01990a84-c4ee-73c2-a87b-ff46a7d3dde5","2025-09-02_09h23.31.927",NA,NA,1205.1344,1205.1344,1205.1344,1205.4843,NA,NA,NA,NA,NA,NA,NA,TRUE,3,1.5971,1202.1348,1205.1343,NA,NA,NA,NA,NA,50,30,0,103,103,61,1,2,104,"likert"
"8F311538737641A0864C57B0E31CDDFC",1,"01990a98-a121-7716-b7b7-d63f1bd0a80e","01990a84-c4ee-73c2-a87b-ff46a7d3dde5","2025-09-02_09h23.31.927",NA,NA,1208.4843,1208.4843,1208.4843,1208.8342,NA,NA,NA,NA,NA,NA,NA,TRUE,2,1.5076,1205.4847,1208.4842,NA,NA,NA,NA,NA,14,39,0,104,104,23,1,2,105,"likert"
"8F311538737641A0864C57B0E31CDDFC",1,"01990a98-a121-7716-b7b7-d63f1bd0a80e","01990a84-c4ee-73c2-a87b-ff46a7d3dde5","2025-09-02_09h23.31.927",NA,NA,1211.8342,1211.8342,1211.8343,1212.1843,NA,NA,NA,NA,NA,NA,NA,TRUE,1,1.6263,1208.8347,1211.8342,NA,NA,NA,NA,NA,100,54,0,105,105,89,1,2,106,"likert"
"8F311538737641A0864C57B0E31CDDFC",1,"01990a98-a121-7716-b7b7-d63f1bd0a80e","01990a84-c4ee-73c2-a87b-ff46a7d3dde5","2025-09-02_09h23.31.927",NA,NA,1215.1843,1215.1843,1215.1843,1215.5343,NA,NA,NA,NA,NA,NA,NA,TRUE,5,1.897,1212.1847,1215.1842,NA,NA,NA,NA,NA,40,40,0,106,106,51,1,2,107,"likert"
"8F311538737641A0864C57B0E31CDDFC",1,"01990a98-a121-7716-b7b7-d63f1bd0a80e","01990a84-c4ee-73c2-a87b-ff46a7d3dde5","2025-09-02_09h23.31.927",NA,NA,1218.5342,1218.5342,1218.5342,1218.8843,NA,NA,NA,NA,NA,NA,NA,TRUE,5,2.0173,1215.5347,1218.5341,NA,NA,NA,NA,NA,21,38,0,107,107,29,1,2,108,"likert"
