"participant","session","assignmentId","projectId","date","practiceTrial.started","practiceTrial.stopped","tooLate.started","tooLate.stopped","blank.started","blank.stopped","trials_pract.thisRepN","trials_pract.thisTrialN","trials_pract.thisN","trials_pract.thisIndex","trials_pract.ran","delay_pract","amount_pract","responseMade","key","rt","trial.started","trial.stopped","trials.thisRepN","trials.thisTrialN","trials.thisN","trials.thisIndex","trials.ran","delay","amount","trials_2.thisRepN","trials_2.thisTrialN","trials_2.thisN","trials_2.thisIndex","trials_2.ran","block","trial","taskType"
"945B815AA9D04EDBA58B91E4C01FA46D",1,"01990ab6-88ea-7ad2-a3c1-88f3a4153a72","01990a84-c4ee-73c2-a87b-ff46a7d3dde5","2025-09-02_09h12.16.921",111.9242,114.9047,114.9056,115.1556,115.1557,115.2547,0,0,0,2,1,14,45,FALSE,NA,NA,NA,NA,NA,NA,NA,NA,NA,NA,NA,NA,NA,NA,NA,NA,0,1,"likert"
"945B815AA9D04EDBA58B91E4C01FA46D",1,"01990ab6-88ea-7ad2-a3c1-88f3a4153a72","01990a84-c4ee-73c2-a87b-ff46a7d3dde5","2025-09-02_09h12.16.921",115.2563,118.2553,118.2555,118.2555,118.2555,118.6053,0,1,1,0,1,7,30,TRUE,1,0.0829,NA,NA,NA,NA,NA,NA,NA,NA,NA,NA,NA,NA,NA,NA,0,2,"likert"
"945B815AA9D04EDBA58B91E4C01FA46D",1,"01990ab6-88ea-7ad2-a3c1-88f3a4153a72","01990a84-c4ee-73c2-a87b-ff46a7d3dde5","2025-09-02_09h12.16.921",118.6065,121.6053,121.6055,121.6055,121.6055,121.9552,0,2,2,1,1,100,50,TRUE,3,2.1478,NA,NA,NA,NA,NA,NA,NA,NA,NA,NA,NA,NA,NA,NA,0,3,"likert"
"945B815AA9D04EDBA58B91E4C01FA46D",1,"01990ab6-88ea-7ad2-a3c1-88f3a4153a72","01990a84-c4ee-73c2-a87b-ff46a7d3dde5","2025-09-02_09h12.16.921",121.9565,124.9553,124.9555,124.9555,124.9556,125.3053,0,3,3,3,1,3,27,TRUE,5,2.6133,NA,NA,NA,NA,NA,NA,NA,NA,NA,NA,NA,NA,NA,NA,0,4,"likert"
"945B815AA9D04EDBA58B91E4C01FA46D",1,"01990ab6-88ea-7ad2-a3c1-88f3a4153a72","01990a84-c4ee-73c2-a87b-ff46a7d3dde5","2025-09-02_09h12.16.921",125.3066,128.3053,128.3055,128.3055,128.3055,128.6552,0,4,4,4,1,30,40,TRUE,4,2.8876,NA,NA,NA,NA,NA,NA,NA,NA,NA,NA,NA,NA,NA,NA,0,5,"likert"
"945B815AA9D04EDBA58B91E4C01FA46D",1,"01990ab6-88ea-7ad2-a3c1-88f3a4153a72","01990a84-c4ee-73c2-a87b-ff46a7d3dde5","2025-09-02_09h12.16.921",NA,NA,165.5549,165.555,165.5551,165.9052,NA,NA,NA,NA,NA,NA,NA,TRUE,3,1.258,162.574,165.5545,0,0,0,36,1,28,26,NA,NA,NA,NA,NA,1,1,"likert"
"945B815AA9D04EDBA58B91E4C01FA46D",1,"01990ab6-88ea-7ad2-a3c1-88f3a4153a72","01990a84-c4ee-73c2-a87b-ff46a7d3dde5","2025-09-02_09h12.16.921",NA,NA,168.9046,168.9046,168.9046,169.255,NA,NA,NA,NA,NA,NA,NA,TRUE,2,0.3713,165.9067,168.9044,0,1,1,98,1,180,35,NA,NA,NA,NA,NA,1,2,"likert"
"945B815AA9D04EDBA58B91E4C01FA46D",1,"01990ab6-88ea-7ad2-a3c1-88f3a4153a72","01990a84-c4ee-73c2-a87b-ff46a7d3dde5","2025-09-02_09h12.16.921",NA,NA,172.2552,172.2552,172.2552,172.6041,NA,NA,NA,NA,NA,NA,NA,TRUE,2,2.2886,169.2562,172.2551,0,2,2,95,1,150,54,NA,NA,NA,NA,NA,1,3,"likert"
"945B815AA9D04EDBA58B91E4C01FA46D",1,"01990ab6-88ea-7ad2-a3c1-88f3a4153a72","01990a84-c4ee-73c2-a87b-ff46a7d3dde5","2025-09-02_09h12.16.921",NA,NA,175.6052,175.6052,175.6052,175.955,NA,NA,NA,NA,NA,NA,NA,TRUE,1,2.0501,172.6054,175.605,0,3,3,28,1,21,32,NA,NA,NA,NA,NA,1,4,"likert"
"945B815AA9D04EDBA58B91E4C01FA46D",1,"01990ab6-88ea-7ad2-a3c1-88f3a4153a72","01990a84-c4ee-73c2-a87b-ff46a7d3dde5","2025-09-02_09h12.16.921",NA,NA,178.9551,178.9552,178.9552,179.304,NA,NA,NA,NA,NA,NA,NA,TRUE,4,1.8662,175.9562,178.955,0,4,4,37,1,28,28,NA,NA,NA,NA,NA,1,5,"likert"
"945B815AA9D04EDBA58B91E4C01FA46D",1,"01990ab6-88ea-7ad2-a3c1-88f3a4153a72","01990a84-c4ee-73c2-a87b-ff46a7d3dde5","2025-09-02_09h12.16.921",NA,NA,182.3053,182.3053,182.3054,182.655,NA,NA,NA,NA,NA,NA,NA,TRUE,3,0.9986,179.3053,182.3051,0,5,5,82,1,95,47,NA,NA,NA,NA,NA,1,6,"likert"
"945B815AA9D04EDBA58B91E4C01FA46D",1,"01990ab6-88ea-7ad2-a3c1-88f3a4153a72","01990a84-c4ee-73c2-a87b-ff46a7d3dde5","2025-09-02_09h12.16.921",NA,NA,185.6553,185.6554,185.6554,186.0049,NA,NA,NA,NA,NA,NA,NA,TRUE,3,1.1155,182.6562,185.6551,0,6,6,57,1,45,35,NA,NA,NA,NA,NA,1,7,"likert"
"945B815AA9D04EDBA58B91E4C01FA46D",1,"01990ab6-88ea-7ad2-a3c1-88f3a4153a72","01990a84-c4ee-73c2-a87b-ff46a7d3dde5","2025-09-02_09h12.16.921",NA,NA,189.0051,189.0052,189.0052,189.3549,NA,NA,NA,NA,NA,NA,NA,TRUE,2,1.8465,186.0062,189.0049,0,7,7,72,1,90,26,NA,NA,NA,NA,NA,1,8,"likert"
"945B815AA9D04EDBA58B91E4C01FA46D",1,"01990ab6-88ea-7ad2-a3c1-88f3a4153a72","01990a84-c4ee-73c2-a87b-ff46a7d3dde5","2025-09-02_09h12.16.921",NA,NA,192.3552,192.6049,192.6049,192.7049,NA,NA,NA,NA,NA,NA,NA,FALSE,NA,NA,189.3561,192.355,0,8,8,50,1,40,35,NA,NA,NA,NA,NA,1,9,"likert"
"945B815AA9D04EDBA58B91E4C01FA46D",1,"01990ab6-88ea-7ad2-a3c1-88f3a4153a72","01990a84-c4ee-73c2-a87b-ff46a7d3dde5","2025-09-02_09h12.16.921",NA,NA,195.705,195.705,195.7051,196.0541,NA,NA,NA,NA,NA,NA,NA,TRUE,2,1.8494,192.7061,195.7048,0,9,9,21,1,14,32,NA,NA,NA,NA,NA,1,10,"likert"
"945B815AA9D04EDBA58B91E4C01FA46D",1,"01990ab6-88ea-7ad2-a3c1-88f3a4153a72","01990a84-c4ee-73c2-a87b-ff46a7d3dde5","2025-09-02_09h12.16.921",NA,NA,199.055,199.055,199.055,199.404,NA,NA,NA,NA,NA,NA,NA,TRUE,1,1.7569,196.0552,199.0548,0,10,10,26,1,21,29,NA,NA,NA,NA,NA,1,11,"likert"
"945B815AA9D04EDBA58B91E4C01FA46D",1,"01990ab6-88ea-7ad2-a3c1-88f3a4153a72","01990a84-c4ee-73c2-a87b-ff46a7d3dde5","2025-09-02_09h12.16.921",NA,NA,202.405,202.405,202.405,202.7548,NA,NA,NA,NA,NA,NA,NA,TRUE,1,2.0068,199.4052,202.4049,0,11,11,30,1,25,27,NA,NA,NA,NA,NA,1,12,"likert"
"945B815AA9D04EDBA58B91E4C01FA46D",1,"01990ab6-88ea-7ad2-a3c1-88f3a4153a72","01990a84-c4ee-73c2-a87b-ff46a7d3dde5","2025-09-02_09h12.16.921",NA,NA,205.755,205.7551,205.7551,206.1047,NA,NA,NA,NA,NA,NA,NA,TRUE,5,1.3992,202.7561,205.7548,0,12,12,77,1,90,54,NA,NA,NA,NA,NA,1,13,"likert"
"945B815AA9D04EDBA58B91E4C01FA46D",1,"01990ab6-88ea-7ad2-a3c1-88f3a4153a72","01990a84-c4ee-73c2-a87b-ff46a7d3dde5","2025-09-02_09h12.16.921",NA,NA,209.105,209.1051,209.1051,209.4539,NA,NA,NA,NA,NA,NA,NA,TRUE,4,1.106,206.1059,209.1048,0,13,13,102,1,200,26,NA,NA,NA,NA,NA,1,14,"likert"
"945B815AA9D04EDBA58B91E4C01FA46D",1,"01990ab6-88ea-7ad2-a3c1-88f3a4153a72","01990a84-c4ee-73c2-a87b-ff46a7d3dde5","2025-09-02_09h12.16.921",NA,NA,212.454,212.4541,212.4541,212.8048,NA,NA,NA,NA,NA,NA,NA,TRUE,3,0.8743,209.4551,212.4539,0,14,14,22,1,14,35,NA,NA,NA,NA,NA,1,15,"likert"
"945B815AA9D04EDBA58B91E4C01FA46D",1,"01990ab6-88ea-7ad2-a3c1-88f3a4153a72","01990a84-c4ee-73c2-a87b-ff46a7d3dde5","2025-09-02_09h12.16.921",NA,NA,215.805,215.8051,215.8051,216.1548,NA,NA,NA,NA,NA,NA,NA,TRUE,4,1.1323,212.806,215.8048,0,15,15,91,1,150,33,NA,NA,NA,NA,NA,1,16,"likert"
"945B815AA9D04EDBA58B91E4C01FA46D",1,"01990ab6-88ea-7ad2-a3c1-88f3a4153a72","01990a84-c4ee-73c2-a87b-ff46a7d3dde5","2025-09-02_09h12.16.921",NA,NA,219.1546,219.1546,219.1546,219.5046,NA,NA,NA,NA,NA,NA,NA,TRUE,5,2.2155,216.156,219.1544,0,16,16,55,1,45,29,NA,NA,NA,NA,NA,1,17,"likert"
"945B815AA9D04EDBA58B91E4C01FA46D",1,"01990ab6-88ea-7ad2-a3c1-88f3a4153a72","01990a84-c4ee-73c2-a87b-ff46a7d3dde5","2025-09-02_09h12.16.921",NA,NA,222.505,222.505,222.505,222.8546,NA,NA,NA,NA,NA,NA,NA,TRUE,5,2.2551,219.5058,222.5048,0,17,17,13,1,12,26,NA,NA,NA,NA,NA,1,18,"likert"
"945B815AA9D04EDBA58B91E4C01FA46D",1,"01990ab6-88ea-7ad2-a3c1-88f3a4153a72","01990a84-c4ee-73c2-a87b-ff46a7d3dde5","2025-09-02_09h12.16.921",NA,NA,225.8549,225.855,225.855,226.2048,NA,NA,NA,NA,NA,NA,NA,TRUE,5,1.4428,222.8558,225.8548,0,18,18,79,1,95,33,NA,NA,NA,NA,NA,1,19,"likert"
"945B815AA9D04EDBA58B91E4C01FA46D",1,"01990ab6-88ea-7ad2-a3c1-88f3a4153a72","01990a84-c4ee-73c2-a87b-ff46a7d3dde5","2025-09-02_09h12.16.921",NA,NA,229.204,229.204,229.204,229.5547,NA,NA,NA,NA,NA,NA,NA,TRUE,5,0.8064,226.2059,229.2039,0,19,19,56,1,45,31,NA,NA,NA,NA,NA,1,20,"likert"
"945B815AA9D04EDBA58B91E4C01FA46D",1,"01990ab6-88ea-7ad2-a3c1-88f3a4153a72","01990a84-c4ee-73c2-a87b-ff46a7d3dde5","2025-09-02_09h12.16.921",NA,NA,232.5549,232.5549,232.5549,232.9038,NA,NA,NA,NA,NA,NA,NA,TRUE,4,1.366,229.5558,232.5548,0,20,20,41,1,28,46,NA,NA,NA,NA,NA,1,21,"likert"
"945B815AA9D04EDBA58B91E4C01FA46D",1,"01990ab6-88ea-7ad2-a3c1-88f3a4153a72","01990a84-c4ee-73c2-a87b-ff46a7d3dde5","2025-09-02_09h12.16.921",NA,NA,235.9048,235.9049,235.905,236.2537,NA,NA,NA,NA,NA,NA,NA,TRUE,5,1.5002,232.9049,235.9048,0,21,21,66,1,60,29,NA,NA,NA,NA,NA,1,22,"likert"
"945B815AA9D04EDBA58B91E4C01FA46D",1,"01990ab6-88ea-7ad2-a3c1-88f3a4153a72","01990a84-c4ee-73c2-a87b-ff46a7d3dde5","2025-09-02_09h12.16.921",NA,NA,239.2547,239.2548,239.2548,239.6046,NA,NA,NA,NA,NA,NA,NA,TRUE,5,1.2323,236.255,239.2546,0,22,22,19,1,14,26,NA,NA,NA,NA,NA,1,23,"likert"
"945B815AA9D04EDBA58B91E4C01FA46D",1,"01990ab6-88ea-7ad2-a3c1-88f3a4153a72","01990a84-c4ee-73c2-a87b-ff46a7d3dde5","2025-09-02_09h12.16.921",NA,NA,242.6048,242.6048,242.6049,242.9545,NA,NA,NA,NA,NA,NA,NA,TRUE,4,1.1141,239.6059,242.6047,0,23,23,85,1,100,31,NA,NA,NA,NA,NA,1,24,"likert"
"945B815AA9D04EDBA58B91E4C01FA46D",1,"01990ab6-88ea-7ad2-a3c1-88f3a4153a72","01990a84-c4ee-73c2-a87b-ff46a7d3dde5","2025-09-02_09h12.16.921",NA,NA,245.9539,245.954,245.9541,246.3046,NA,NA,NA,NA,NA,NA,NA,TRUE,4,1.5065,242.9557,245.9537,0,24,24,94,1,150,47,NA,NA,NA,NA,NA,1,25,"likert"
"945B815AA9D04EDBA58B91E4C01FA46D",1,"01990ab6-88ea-7ad2-a3c1-88f3a4153a72","01990a84-c4ee-73c2-a87b-ff46a7d3dde5","2025-09-02_09h12.16.921",NA,NA,249.3048,249.3048,249.3048,249.6536,NA,NA,NA,NA,NA,NA,NA,TRUE,5,1.0819,246.3059,249.3046,0,25,25,103,1,200,28,NA,NA,NA,NA,NA,1,26,"likert"
"945B815AA9D04EDBA58B91E4C01FA46D",1,"01990ab6-88ea-7ad2-a3c1-88f3a4153a72","01990a84-c4ee-73c2-a87b-ff46a7d3dde5","2025-09-02_09h12.16.921",NA,NA,252.6546,252.6546,252.6546,253.0045,NA,NA,NA,NA,NA,NA,NA,TRUE,5,1.107,249.6548,252.6544,0,26,26,3,1,7,30,NA,NA,NA,NA,NA,1,27,"likert"
"945B815AA9D04EDBA58B91E4C01FA46D",1,"01990ab6-88ea-7ad2-a3c1-88f3a4153a72","01990a84-c4ee-73c2-a87b-ff46a7d3dde5","2025-09-02_09h12.16.921",NA,NA,256.0047,256.0047,256.0048,256.3536,NA,NA,NA,NA,NA,NA,NA,TRUE,5,1.0482,253.0056,256.0046,0,27,27,8,1,10,27,NA,NA,NA,NA,NA,1,28,"likert"
"945B815AA9D04EDBA58B91E4C01FA46D",1,"01990ab6-88ea-7ad2-a3c1-88f3a4153a72","01990a84-c4ee-73c2-a87b-ff46a7d3dde5","2025-09-02_09h12.16.921",NA,NA,259.3546,259.3547,259.3547,259.7036,NA,NA,NA,NA,NA,NA,NA,TRUE,5,0.7672,256.3548,259.3545,0,28,28,43,1,30,27,NA,NA,NA,NA,NA,1,29,"likert"
"945B815AA9D04EDBA58B91E4C01FA46D",1,"01990ab6-88ea-7ad2-a3c1-88f3a4153a72","01990a84-c4ee-73c2-a87b-ff46a7d3dde5","2025-09-02_09h12.16.921",NA,NA,262.7047,262.7048,262.7048,263.0545,NA,NA,NA,NA,NA,NA,NA,TRUE,3,1.1175,259.7048,262.7045,0,29,29,96,1,180,27,NA,NA,NA,NA,NA,1,30,"likert"
"945B815AA9D04EDBA58B91E4C01FA46D",1,"01990ab6-88ea-7ad2-a3c1-88f3a4153a72","01990a84-c4ee-73c2-a87b-ff46a7d3dde5","2025-09-02_09h12.16.921",NA,NA,266.0546,266.0546,266.0547,266.4045,NA,NA,NA,NA,NA,NA,NA,TRUE,3,0.7724,263.0556,266.0545,0,30,30,4,1,7,32,NA,NA,NA,NA,NA,1,31,"likert"
"945B815AA9D04EDBA58B91E4C01FA46D",1,"01990ab6-88ea-7ad2-a3c1-88f3a4153a72","01990a84-c4ee-73c2-a87b-ff46a7d3dde5","2025-09-02_09h12.16.921",NA,NA,269.4045,269.4045,269.4045,269.7535,NA,NA,NA,NA,NA,NA,NA,TRUE,5,1.0163,266.4057,269.4044,0,31,31,84,1,100,26,NA,NA,NA,NA,NA,1,32,"likert"
"945B815AA9D04EDBA58B91E4C01FA46D",1,"01990ab6-88ea-7ad2-a3c1-88f3a4153a72","01990a84-c4ee-73c2-a87b-ff46a7d3dde5","2025-09-02_09h12.16.921",NA,NA,272.7546,272.7546,272.7546,273.1044,NA,NA,NA,NA,NA,NA,NA,TRUE,3,1.0912,269.7548,272.7545,0,32,32,15,1,12,31,NA,NA,NA,NA,NA,1,33,"likert"
"945B815AA9D04EDBA58B91E4C01FA46D",1,"01990ab6-88ea-7ad2-a3c1-88f3a4153a72","01990a84-c4ee-73c2-a87b-ff46a7d3dde5","2025-09-02_09h12.16.921",NA,NA,276.1046,276.1046,276.1047,276.4535,NA,NA,NA,NA,NA,NA,NA,TRUE,4,0.6903,273.1055,276.1045,0,33,33,78,1,95,31,NA,NA,NA,NA,NA,1,34,"likert"
"945B815AA9D04EDBA58B91E4C01FA46D",1,"01990ab6-88ea-7ad2-a3c1-88f3a4153a72","01990a84-c4ee-73c2-a87b-ff46a7d3dde5","2025-09-02_09h12.16.921",NA,NA,279.4547,279.4547,279.4547,279.8044,NA,NA,NA,NA,NA,NA,NA,TRUE,2,1.2835,276.4546,279.4545,0,34,34,65,1,50,54,NA,NA,NA,NA,NA,1,35,"likert"
"945B815AA9D04EDBA58B91E4C01FA46D",1,"01990ab6-88ea-7ad2-a3c1-88f3a4153a72","01990a84-c4ee-73c2-a87b-ff46a7d3dde5","2025-09-02_09h12.16.921",NA,NA,282.8036,282.8037,282.8037,283.1544,NA,NA,NA,NA,NA,NA,NA,TRUE,2,2.0468,279.8055,282.8034,0,35,35,0,1,7,25,NA,NA,NA,NA,NA,1,36,"likert"
"945B815AA9D04EDBA58B91E4C01FA46D",1,"01990ab6-88ea-7ad2-a3c1-88f3a4153a72","01990a84-c4ee-73c2-a87b-ff46a7d3dde5","2025-09-02_09h12.16.921",NA,NA,286.1545,286.1545,286.1545,286.5035,NA,NA,NA,NA,NA,NA,NA,TRUE,2,2.0815,283.1555,286.1543,0,36,36,18,1,14,25,NA,NA,NA,NA,NA,1,37,"likert"
"945B815AA9D04EDBA58B91E4C01FA46D",1,"01990ab6-88ea-7ad2-a3c1-88f3a4153a72","01990a84-c4ee-73c2-a87b-ff46a7d3dde5","2025-09-02_09h12.16.921",NA,NA,289.5045,289.5046,289.5046,289.8543,NA,NA,NA,NA,NA,NA,NA,TRUE,3,0.8563,286.5046,289.5043,0,37,37,76,1,90,46,NA,NA,NA,NA,NA,1,38,"likert"
"945B815AA9D04EDBA58B91E4C01FA46D",1,"01990ab6-88ea-7ad2-a3c1-88f3a4153a72","01990a84-c4ee-73c2-a87b-ff46a7d3dde5","2025-09-02_09h12.16.921",NA,NA,292.8546,292.8546,292.8546,293.2035,NA,NA,NA,NA,NA,NA,NA,TRUE,2,1.0056,289.8555,292.8544,0,38,38,29,1,21,38,NA,NA,NA,NA,NA,1,39,"likert"
"945B815AA9D04EDBA58B91E4C01FA46D",1,"01990ab6-88ea-7ad2-a3c1-88f3a4153a72","01990a84-c4ee-73c2-a87b-ff46a7d3dde5","2025-09-02_09h12.16.921",NA,NA,296.2045,296.2045,296.2045,296.5543,NA,NA,NA,NA,NA,NA,NA,TRUE,3,1.0055,293.2046,296.2044,0,39,39,87,1,100,39,NA,NA,NA,NA,NA,1,40,"likert"
"945B815AA9D04EDBA58B91E4C01FA46D",1,"01990ab6-88ea-7ad2-a3c1-88f3a4153a72","01990a84-c4ee-73c2-a87b-ff46a7d3dde5","2025-09-02_09h12.16.921",NA,NA,299.5545,299.5545,299.5546,299.9034,NA,NA,NA,NA,NA,NA,NA,TRUE,3,0.3737,296.5555,299.5544,0,40,40,67,1,60,33,NA,NA,NA,NA,NA,1,41,"likert"
"945B815AA9D04EDBA58B91E4C01FA46D",1,"01990ab6-88ea-7ad2-a3c1-88f3a4153a72","01990a84-c4ee-73c2-a87b-ff46a7d3dde5","2025-09-02_09h12.16.921",NA,NA,302.9045,302.9046,302.9046,303.2534,NA,NA,NA,NA,NA,NA,NA,TRUE,4,0.7584,299.9045,302.9044,0,41,41,99,1,180,39,NA,NA,NA,NA,NA,1,42,"likert"
"945B815AA9D04EDBA58B91E4C01FA46D",1,"01990ab6-88ea-7ad2-a3c1-88f3a4153a72","01990a84-c4ee-73c2-a87b-ff46a7d3dde5","2025-09-02_09h12.16.921",NA,NA,306.2543,306.2544,306.2544,306.6038,NA,NA,NA,NA,NA,NA,NA,TRUE,3,0.7067,303.2547,306.2542,0,42,42,52,1,40,47,NA,NA,NA,NA,NA,1,43,"likert"
"945B815AA9D04EDBA58B91E4C01FA46D",1,"01990ab6-88ea-7ad2-a3c1-88f3a4153a72","01990a84-c4ee-73c2-a87b-ff46a7d3dde5","2025-09-02_09h12.16.921",NA,NA,309.6044,309.6044,309.6045,309.9534,NA,NA,NA,NA,NA,NA,NA,TRUE,2,0.909,306.605,309.6043,0,43,43,88,1,100,46,NA,NA,NA,NA,NA,1,44,"likert"
"945B815AA9D04EDBA58B91E4C01FA46D",1,"01990ab6-88ea-7ad2-a3c1-88f3a4153a72","01990a84-c4ee-73c2-a87b-ff46a7d3dde5","2025-09-02_09h12.16.921",NA,NA,312.9544,312.9544,312.9544,313.3042,NA,NA,NA,NA,NA,NA,NA,TRUE,4,1.5989,309.9546,312.9542,0,44,44,73,1,90,30,NA,NA,NA,NA,NA,1,45,"likert"
"945B815AA9D04EDBA58B91E4C01FA46D",1,"01990ab6-88ea-7ad2-a3c1-88f3a4153a72","01990a84-c4ee-73c2-a87b-ff46a7d3dde5","2025-09-02_09h12.16.921",NA,NA,316.3045,316.3045,316.3046,316.6542,NA,NA,NA,NA,NA,NA,NA,TRUE,5,1.9402,313.3054,316.3043,0,45,45,61,1,50,30,NA,NA,NA,NA,NA,1,46,"likert"
"945B815AA9D04EDBA58B91E4C01FA46D",1,"01990ab6-88ea-7ad2-a3c1-88f3a4153a72","01990a84-c4ee-73c2-a87b-ff46a7d3dde5","2025-09-02_09h12.16.921",NA,NA,319.6543,319.6544,319.6544,320.0043,NA,NA,NA,NA,NA,NA,NA,TRUE,4,0.9503,316.6554,319.6542,0,46,46,97,1,180,31,NA,NA,NA,NA,NA,1,47,"likert"
"945B815AA9D04EDBA58B91E4C01FA46D",1,"01990ab6-88ea-7ad2-a3c1-88f3a4153a72","01990a84-c4ee-73c2-a87b-ff46a7d3dde5","2025-09-02_09h12.16.921",NA,NA,323.0036,323.0036,323.0036,323.3533,NA,NA,NA,NA,NA,NA,NA,TRUE,1,1.4554,320.0055,323.0034,0,47,47,35,1,25,46,NA,NA,NA,NA,NA,1,48,"likert"
"945B815AA9D04EDBA58B91E4C01FA46D",1,"01990ab6-88ea-7ad2-a3c1-88f3a4153a72","01990a84-c4ee-73c2-a87b-ff46a7d3dde5","2025-09-02_09h12.16.921",NA,NA,326.3544,326.3544,326.3544,326.7033,NA,NA,NA,NA,NA,NA,NA,TRUE,3,0.8065,323.3547,326.3542,0,48,48,16,1,12,33,NA,NA,NA,NA,NA,1,49,"likert"
"945B815AA9D04EDBA58B91E4C01FA46D",1,"01990ab6-88ea-7ad2-a3c1-88f3a4153a72","01990a84-c4ee-73c2-a87b-ff46a7d3dde5","2025-09-02_09h12.16.921",NA,NA,329.7043,329.7044,329.7045,330.0541,NA,NA,NA,NA,NA,NA,NA,TRUE,3,0.973,326.7046,329.7041,0,49,49,68,1,60,35,NA,NA,NA,NA,NA,1,50,"likert"
"945B815AA9D04EDBA58B91E4C01FA46D",1,"01990ab6-88ea-7ad2-a3c1-88f3a4153a72","01990a84-c4ee-73c2-a87b-ff46a7d3dde5","2025-09-02_09h12.16.921",NA,NA,333.0544,333.0544,333.0545,333.4033,NA,NA,NA,NA,NA,NA,NA,TRUE,4,1.6759,330.0553,333.0542,0,50,50,9,1,10,29,NA,NA,NA,NA,NA,1,51,"likert"
"945B815AA9D04EDBA58B91E4C01FA46D",1,"01990ab6-88ea-7ad2-a3c1-88f3a4153a72","01990a84-c4ee-73c2-a87b-ff46a7d3dde5","2025-09-02_09h12.16.921",NA,NA,336.4043,336.4043,336.4043,336.7532,NA,NA,NA,NA,NA,NA,NA,TRUE,2,2.266,333.4046,336.4041,0,51,51,64,1,50,46,NA,NA,NA,NA,NA,1,52,"likert"
"945B815AA9D04EDBA58B91E4C01FA46D",1,"01990ab6-88ea-7ad2-a3c1-88f3a4153a72","01990a84-c4ee-73c2-a87b-ff46a7d3dde5","2025-09-02_09h12.16.921",NA,NA,339.7544,339.7544,339.7544,340.1041,NA,NA,NA,NA,NA,NA,NA,TRUE,2,1.6166,336.7543,339.7541,0,52,52,89,1,100,54,NA,NA,NA,NA,NA,1,53,"likert"
"945B815AA9D04EDBA58B91E4C01FA46D",1,"01990ab6-88ea-7ad2-a3c1-88f3a4153a72","01990a84-c4ee-73c2-a87b-ff46a7d3dde5","2025-09-02_09h12.16.921",NA,NA,343.1043,343.1043,343.1044,343.454,NA,NA,NA,NA,NA,NA,NA,TRUE,2,0.789,340.1053,343.1041,0,53,53,51,1,40,40,NA,NA,NA,NA,NA,1,54,"likert"
"945B815AA9D04EDBA58B91E4C01FA46D",1,"01990ab6-88ea-7ad2-a3c1-88f3a4153a72","01990a84-c4ee-73c2-a87b-ff46a7d3dde5","2025-09-02_09h12.16.921",NA,NA,346.4542,346.4542,346.4543,346.804,NA,NA,NA,NA,NA,NA,NA,TRUE,2,0.6055,343.4553,346.454,0,54,54,90,1,150,31,NA,NA,NA,NA,NA,1,55,"likert"
"945B815AA9D04EDBA58B91E4C01FA46D",1,"01990ab6-88ea-7ad2-a3c1-88f3a4153a72","01990a84-c4ee-73c2-a87b-ff46a7d3dde5","2025-09-02_09h12.16.921",NA,NA,349.8043,349.8043,349.8044,350.154,NA,NA,NA,NA,NA,NA,NA,TRUE,4,1.5416,346.8052,349.8041,0,55,55,23,1,14,39,NA,NA,NA,NA,NA,1,56,"likert"
"945B815AA9D04EDBA58B91E4C01FA46D",1,"01990ab6-88ea-7ad2-a3c1-88f3a4153a72","01990a84-c4ee-73c2-a87b-ff46a7d3dde5","2025-09-02_09h12.16.921",NA,NA,353.1543,353.1543,353.1544,353.504,NA,NA,NA,NA,NA,NA,NA,TRUE,2,0.9332,350.1552,353.1542,0,56,56,93,1,150,40,NA,NA,NA,NA,NA,1,57,"likert"
"945B815AA9D04EDBA58B91E4C01FA46D",1,"01990ab6-88ea-7ad2-a3c1-88f3a4153a72","01990a84-c4ee-73c2-a87b-ff46a7d3dde5","2025-09-02_09h12.16.921",NA,NA,356.5041,356.5042,356.5043,356.854,NA,NA,NA,NA,NA,NA,NA,TRUE,5,2.0402,353.5051,356.504,0,57,57,33,1,25,33,NA,NA,NA,NA,NA,1,58,"likert"
"945B815AA9D04EDBA58B91E4C01FA46D",1,"01990ab6-88ea-7ad2-a3c1-88f3a4153a72","01990a84-c4ee-73c2-a87b-ff46a7d3dde5","2025-09-02_09h12.16.921",NA,NA,359.8542,359.8543,359.8543,360.2031,NA,NA,NA,NA,NA,NA,NA,TRUE,5,1.1232,356.8554,359.854,0,58,58,49,1,40,33,NA,NA,NA,NA,NA,1,59,"likert"
"945B815AA9D04EDBA58B91E4C01FA46D",1,"01990ab6-88ea-7ad2-a3c1-88f3a4153a72","01990a84-c4ee-73c2-a87b-ff46a7d3dde5","2025-09-02_09h12.16.921",NA,NA,363.2042,363.2042,363.2042,363.554,NA,NA,NA,NA,NA,NA,NA,TRUE,4,1.1913,360.2044,363.204,0,59,59,58,1,45,40,NA,NA,NA,NA,NA,1,60,"likert"
"945B815AA9D04EDBA58B91E4C01FA46D",1,"01990ab6-88ea-7ad2-a3c1-88f3a4153a72","01990a84-c4ee-73c2-a87b-ff46a7d3dde5","2025-09-02_09h12.16.921",NA,NA,366.5542,366.5542,366.5543,366.9032,NA,NA,NA,NA,NA,NA,NA,TRUE,5,1.4491,363.5552,366.554,0,60,60,106,1,200,47,NA,NA,NA,NA,NA,1,61,"likert"
"945B815AA9D04EDBA58B91E4C01FA46D",1,"01990ab6-88ea-7ad2-a3c1-88f3a4153a72","01990a84-c4ee-73c2-a87b-ff46a7d3dde5","2025-09-02_09h12.16.921",NA,NA,369.9041,369.9041,369.9041,370.2539,NA,NA,NA,NA,NA,NA,NA,TRUE,4,1.7065,366.9044,369.9039,0,61,61,101,1,180,54,NA,NA,NA,NA,NA,1,62,"likert"
"945B815AA9D04EDBA58B91E4C01FA46D",1,"01990ab6-88ea-7ad2-a3c1-88f3a4153a72","01990a84-c4ee-73c2-a87b-ff46a7d3dde5","2025-09-02_09h12.16.921",NA,NA,373.2532,373.2532,373.2532,373.6039,NA,NA,NA,NA,NA,NA,NA,TRUE,4,1.2225,370.2551,373.253,0,62,62,71,1,60,54,NA,NA,NA,NA,NA,1,63,"likert"
"945B815AA9D04EDBA58B91E4C01FA46D",1,"01990ab6-88ea-7ad2-a3c1-88f3a4153a72","01990a84-c4ee-73c2-a87b-ff46a7d3dde5","2025-09-02_09h12.16.921",NA,NA,376.604,376.6041,376.6041,376.9539,NA,NA,NA,NA,NA,NA,NA,TRUE,4,2.2236,373.6051,376.6039,0,63,63,12,1,12,25,NA,NA,NA,NA,NA,1,64,"likert"
"945B815AA9D04EDBA58B91E4C01FA46D",1,"01990ab6-88ea-7ad2-a3c1-88f3a4153a72","01990a84-c4ee-73c2-a87b-ff46a7d3dde5","2025-09-02_09h12.16.921",NA,NA,379.9541,379.9541,379.9541,380.303,NA,NA,NA,NA,NA,NA,NA,TRUE,5,1.1409,376.9551,379.9539,0,64,64,60,1,50,27,NA,NA,NA,NA,NA,1,65,"likert"
"945B815AA9D04EDBA58B91E4C01FA46D",1,"01990ab6-88ea-7ad2-a3c1-88f3a4153a72","01990a84-c4ee-73c2-a87b-ff46a7d3dde5","2025-09-02_09h12.16.921",NA,NA,383.3041,383.3041,383.3041,383.6539,NA,NA,NA,NA,NA,NA,NA,TRUE,4,0.9565,380.3042,383.3039,0,65,65,69,1,60,40,NA,NA,NA,NA,NA,1,66,"likert"
"945B815AA9D04EDBA58B91E4C01FA46D",1,"01990ab6-88ea-7ad2-a3c1-88f3a4153a72","01990a84-c4ee-73c2-a87b-ff46a7d3dde5","2025-09-02_09h12.16.921",NA,NA,386.654,386.654,386.654,387.0039,NA,NA,NA,NA,NA,NA,NA,TRUE,4,0.8552,383.6551,386.6539,0,66,66,20,1,14,28,NA,NA,NA,NA,NA,1,67,"likert"
"945B815AA9D04EDBA58B91E4C01FA46D",1,"01990ab6-88ea-7ad2-a3c1-88f3a4153a72","01990a84-c4ee-73c2-a87b-ff46a7d3dde5","2025-09-02_09h12.16.921",NA,NA,390.004,390.004,390.0041,390.3538,NA,NA,NA,NA,NA,NA,NA,TRUE,4,0.7237,387.0051,390.0038,0,67,67,11,1,10,32,NA,NA,NA,NA,NA,1,68,"likert"
"945B815AA9D04EDBA58B91E4C01FA46D",1,"01990ab6-88ea-7ad2-a3c1-88f3a4153a72","01990a84-c4ee-73c2-a87b-ff46a7d3dde5","2025-09-02_09h12.16.921",NA,NA,393.354,393.354,393.3541,393.7037,NA,NA,NA,NA,NA,NA,NA,TRUE,5,1.3477,390.355,393.3539,0,68,68,24,1,21,26,NA,NA,NA,NA,NA,1,69,"likert"
"945B815AA9D04EDBA58B91E4C01FA46D",1,"01990ab6-88ea-7ad2-a3c1-88f3a4153a72","01990a84-c4ee-73c2-a87b-ff46a7d3dde5","2025-09-02_09h12.16.921",NA,NA,396.7031,396.7032,396.7032,397.053,NA,NA,NA,NA,NA,NA,NA,TRUE,4,0.9079,393.7049,396.703,0,69,69,107,1,200,54,NA,NA,NA,NA,NA,1,70,"likert"
"945B815AA9D04EDBA58B91E4C01FA46D",1,"01990ab6-88ea-7ad2-a3c1-88f3a4153a72","01990a84-c4ee-73c2-a87b-ff46a7d3dde5","2025-09-02_09h12.16.921",NA,NA,400.054,400.054,400.054,400.4038,NA,NA,NA,NA,NA,NA,NA,TRUE,4,0.7661,397.0541,400.0538,0,70,70,104,1,200,35,NA,NA,NA,NA,NA,1,71,"likert"
"945B815AA9D04EDBA58B91E4C01FA46D",1,"01990ab6-88ea-7ad2-a3c1-88f3a4153a72","01990a84-c4ee-73c2-a87b-ff46a7d3dde5","2025-09-02_09h12.16.921",NA,NA,403.4032,403.4032,403.4032,403.7538,NA,NA,NA,NA,NA,NA,NA,TRUE,5,1.0575,400.4049,403.403,0,71,71,45,1,30,30,NA,NA,NA,NA,NA,1,72,"likert"
"945B815AA9D04EDBA58B91E4C01FA46D",1,"01990ab6-88ea-7ad2-a3c1-88f3a4153a72","01990a84-c4ee-73c2-a87b-ff46a7d3dde5","2025-09-02_09h12.16.921",NA,NA,406.753,406.7531,406.7531,407.1037,NA,NA,NA,NA,NA,NA,NA,TRUE,5,2.3732,403.755,406.7529,0,72,72,42,1,30,26,NA,NA,NA,NA,NA,1,73,"likert"
"945B815AA9D04EDBA58B91E4C01FA46D",1,"01990ab6-88ea-7ad2-a3c1-88f3a4153a72","01990a84-c4ee-73c2-a87b-ff46a7d3dde5","2025-09-02_09h12.16.921",NA,NA,410.1039,410.104,410.104,410.4528,NA,NA,NA,NA,NA,NA,NA,TRUE,4,1.6905,407.1049,410.1038,0,73,73,83,1,95,54,NA,NA,NA,NA,NA,1,74,"likert"
"945B815AA9D04EDBA58B91E4C01FA46D",1,"01990ab6-88ea-7ad2-a3c1-88f3a4153a72","01990a84-c4ee-73c2-a87b-ff46a7d3dde5","2025-09-02_09h12.16.921",NA,NA,413.4539,413.4539,413.4539,413.8037,NA,NA,NA,NA,NA,NA,NA,TRUE,5,1.0095,410.4539,413.4537,0,74,74,32,1,25,31,NA,NA,NA,NA,NA,1,75,"likert"
"945B815AA9D04EDBA58B91E4C01FA46D",1,"01990ab6-88ea-7ad2-a3c1-88f3a4153a72","01990a84-c4ee-73c2-a87b-ff46a7d3dde5","2025-09-02_09h12.16.921",NA,NA,416.804,416.804,416.804,417.1537,NA,NA,NA,NA,NA,NA,NA,TRUE,4,0.39,413.8049,416.8037,0,75,75,100,1,180,46,NA,NA,NA,NA,NA,1,76,"likert"
"945B815AA9D04EDBA58B91E4C01FA46D",1,"01990ab6-88ea-7ad2-a3c1-88f3a4153a72","01990a84-c4ee-73c2-a87b-ff46a7d3dde5","2025-09-02_09h12.16.921",NA,NA,420.1539,420.1539,420.1539,420.5036,NA,NA,NA,NA,NA,NA,NA,TRUE,5,0.8151,417.155,420.1537,0,76,76,54,1,45,26,NA,NA,NA,NA,NA,1,77,"likert"
"945B815AA9D04EDBA58B91E4C01FA46D",1,"01990ab6-88ea-7ad2-a3c1-88f3a4153a72","01990a84-c4ee-73c2-a87b-ff46a7d3dde5","2025-09-02_09h12.16.921",NA,NA,423.5038,423.5038,423.5038,423.8536,NA,NA,NA,NA,NA,NA,NA,TRUE,4,0.807,420.5047,423.5037,0,77,77,7,1,10,26,NA,NA,NA,NA,NA,1,78,"likert"
"945B815AA9D04EDBA58B91E4C01FA46D",1,"01990ab6-88ea-7ad2-a3c1-88f3a4153a72","01990a84-c4ee-73c2-a87b-ff46a7d3dde5","2025-09-02_09h12.16.921",NA,NA,426.8538,426.8538,426.8539,427.2036,NA,NA,NA,NA,NA,NA,NA,TRUE,4,0.8504,423.8548,426.8537,0,78,78,48,1,40,27,NA,NA,NA,NA,NA,1,79,"likert"
"945B815AA9D04EDBA58B91E4C01FA46D",1,"01990ab6-88ea-7ad2-a3c1-88f3a4153a72","01990a84-c4ee-73c2-a87b-ff46a7d3dde5","2025-09-02_09h12.16.921",NA,NA,430.2038,430.2038,430.2038,430.5536,NA,NA,NA,NA,NA,NA,NA,TRUE,4,0.3303,427.2046,430.2036,0,79,79,53,1,40,54,NA,NA,NA,NA,NA,1,80,"likert"
"945B815AA9D04EDBA58B91E4C01FA46D",1,"01990ab6-88ea-7ad2-a3c1-88f3a4153a72","01990a84-c4ee-73c2-a87b-ff46a7d3dde5","2025-09-02_09h12.16.921",NA,NA,433.5537,433.5539,433.5539,433.9035,NA,NA,NA,NA,NA,NA,NA,TRUE,4,0.3571,430.5547,433.5537,0,80,80,34,1,25,35,NA,NA,NA,NA,NA,1,81,"likert"
"945B815AA9D04EDBA58B91E4C01FA46D",1,"01990ab6-88ea-7ad2-a3c1-88f3a4153a72","01990a84-c4ee-73c2-a87b-ff46a7d3dde5","2025-09-02_09h12.16.921",NA,NA,436.9037,436.9037,436.9038,437.2535,NA,NA,NA,NA,NA,NA,NA,TRUE,4,0.9673,433.9048,436.9036,0,81,81,14,1,12,28,NA,NA,NA,NA,NA,1,82,"likert"
"945B815AA9D04EDBA58B91E4C01FA46D",1,"01990ab6-88ea-7ad2-a3c1-88f3a4153a72","01990a84-c4ee-73c2-a87b-ff46a7d3dde5","2025-09-02_09h12.16.921",NA,NA,440.2537,440.2537,440.2538,440.6034,NA,NA,NA,NA,NA,NA,NA,TRUE,3,0.3568,437.2547,440.2536,0,82,82,105,1,200,39,NA,NA,NA,NA,NA,1,83,"likert"
"945B815AA9D04EDBA58B91E4C01FA46D",1,"01990ab6-88ea-7ad2-a3c1-88f3a4153a72","01990a84-c4ee-73c2-a87b-ff46a7d3dde5","2025-09-02_09h12.16.921",NA,NA,443.6037,443.6037,443.6037,443.9535,NA,NA,NA,NA,NA,NA,NA,TRUE,4,0.7657,440.6046,443.6036,0,83,83,92,1,150,35,NA,NA,NA,NA,NA,1,84,"likert"
"945B815AA9D04EDBA58B91E4C01FA46D",1,"01990ab6-88ea-7ad2-a3c1-88f3a4153a72","01990a84-c4ee-73c2-a87b-ff46a7d3dde5","2025-09-02_09h12.16.921",NA,NA,446.9536,446.9537,446.9537,447.3035,NA,NA,NA,NA,NA,NA,NA,TRUE,4,0.982,443.9546,446.9535,0,84,84,44,1,30,29,NA,NA,NA,NA,NA,1,85,"likert"
"945B815AA9D04EDBA58B91E4C01FA46D",1,"01990ab6-88ea-7ad2-a3c1-88f3a4153a72","01990a84-c4ee-73c2-a87b-ff46a7d3dde5","2025-09-02_09h12.16.921",NA,NA,450.3036,450.3037,450.3037,450.6535,NA,NA,NA,NA,NA,NA,NA,TRUE,4,1.767,447.3047,450.3036,0,85,85,40,1,28,39,NA,NA,NA,NA,NA,1,86,"likert"
"945B815AA9D04EDBA58B91E4C01FA46D",1,"01990ab6-88ea-7ad2-a3c1-88f3a4153a72","01990a84-c4ee-73c2-a87b-ff46a7d3dde5","2025-09-02_09h12.16.921",NA,NA,453.6536,453.6537,453.6538,454.0035,NA,NA,NA,NA,NA,NA,NA,TRUE,5,1.1323,450.6546,453.6535,0,86,86,81,1,95,40,NA,NA,NA,NA,NA,1,87,"likert"
"945B815AA9D04EDBA58B91E4C01FA46D",1,"01990ab6-88ea-7ad2-a3c1-88f3a4153a72","01990a84-c4ee-73c2-a87b-ff46a7d3dde5","2025-09-02_09h12.16.921",NA,NA,457.0036,457.0037,457.0037,457.3534,NA,NA,NA,NA,NA,NA,NA,TRUE,5,1.2153,454.0047,457.0035,0,87,87,6,1,10,25,NA,NA,NA,NA,NA,1,88,"likert"
"945B815AA9D04EDBA58B91E4C01FA46D",1,"01990ab6-88ea-7ad2-a3c1-88f3a4153a72","01990a84-c4ee-73c2-a87b-ff46a7d3dde5","2025-09-02_09h12.16.921",NA,NA,460.3536,460.3537,460.3537,460.7034,NA,NA,NA,NA,NA,NA,NA,TRUE,4,1.0671,457.3547,460.3534,0,88,88,38,1,28,32,NA,NA,NA,NA,NA,1,89,"likert"
"945B815AA9D04EDBA58B91E4C01FA46D",1,"01990ab6-88ea-7ad2-a3c1-88f3a4153a72","01990a84-c4ee-73c2-a87b-ff46a7d3dde5","2025-09-02_09h12.16.921",NA,NA,463.7035,463.7036,463.7036,464.0534,NA,NA,NA,NA,NA,NA,NA,TRUE,5,1.6997,460.7045,463.7034,0,89,89,1,1,7,26,NA,NA,NA,NA,NA,1,90,"likert"
"945B815AA9D04EDBA58B91E4C01FA46D",1,"01990ab6-88ea-7ad2-a3c1-88f3a4153a72","01990a84-c4ee-73c2-a87b-ff46a7d3dde5","2025-09-02_09h12.16.921",NA,NA,467.0536,467.0536,467.0536,467.4034,NA,NA,NA,NA,NA,NA,NA,TRUE,4,0.9228,464.0546,467.0534,0,90,90,39,1,28,35,NA,NA,NA,NA,NA,1,91,"likert"
"945B815AA9D04EDBA58B91E4C01FA46D",1,"01990ab6-88ea-7ad2-a3c1-88f3a4153a72","01990a84-c4ee-73c2-a87b-ff46a7d3dde5","2025-09-02_09h12.16.921",NA,NA,470.4035,470.4035,470.4036,470.7533,NA,NA,NA,NA,NA,NA,NA,TRUE,5,1.1992,467.4046,470.4034,0,91,91,2,1,7,28,NA,NA,NA,NA,NA,1,92,"likert"
"945B815AA9D04EDBA58B91E4C01FA46D",1,"01990ab6-88ea-7ad2-a3c1-88f3a4153a72","01990a84-c4ee-73c2-a87b-ff46a7d3dde5","2025-09-02_09h12.16.921",NA,NA,473.7536,473.7536,473.7536,474.1033,NA,NA,NA,NA,NA,NA,NA,TRUE,4,2.0818,470.7542,473.7534,0,92,92,47,1,30,38,NA,NA,NA,NA,NA,1,93,"likert"
"945B815AA9D04EDBA58B91E4C01FA46D",1,"01990ab6-88ea-7ad2-a3c1-88f3a4153a72","01990a84-c4ee-73c2-a87b-ff46a7d3dde5","2025-09-02_09h12.16.921",NA,NA,477.1036,477.1036,477.1036,477.4534,NA,NA,NA,NA,NA,NA,NA,TRUE,3,1.4749,474.1045,477.1034,0,93,93,10,1,10,30,NA,NA,NA,NA,NA,1,94,"likert"
"945B815AA9D04EDBA58B91E4C01FA46D",1,"01990ab6-88ea-7ad2-a3c1-88f3a4153a72","01990a84-c4ee-73c2-a87b-ff46a7d3dde5","2025-09-02_09h12.16.921",NA,NA,480.4535,480.4535,480.4535,480.8033,NA,NA,NA,NA,NA,NA,NA,TRUE,5,1.0238,477.4545,480.4533,0,94,94,31,1,25,29,NA,NA,NA,NA,NA,1,95,"likert"
"945B815AA9D04EDBA58B91E4C01FA46D",1,"01990ab6-88ea-7ad2-a3c1-88f3a4153a72","01990a84-c4ee-73c2-a87b-ff46a7d3dde5","2025-09-02_09h12.16.921",NA,NA,483.8035,483.8036,483.8036,484.1524,NA,NA,NA,NA,NA,NA,NA,TRUE,4,1.4236,480.8044,483.8034,0,95,95,59,1,45,46,NA,NA,NA,NA,NA,1,96,"likert"
"945B815AA9D04EDBA58B91E4C01FA46D",1,"01990ab6-88ea-7ad2-a3c1-88f3a4153a72","01990a84-c4ee-73c2-a87b-ff46a7d3dde5","2025-09-02_09h12.16.921",NA,NA,487.1535,487.1535,487.1536,487.5033,NA,NA,NA,NA,NA,NA,NA,TRUE,4,1.31,484.1535,487.1533,0,96,96,86,1,100,38,NA,NA,NA,NA,NA,1,97,"likert"
"945B815AA9D04EDBA58B91E4C01FA46D",1,"01990ab6-88ea-7ad2-a3c1-88f3a4153a72","01990a84-c4ee-73c2-a87b-ff46a7d3dde5","2025-09-02_09h12.16.921",NA,NA,490.5034,490.5034,490.5035,490.8534,NA,NA,NA,NA,NA,NA,NA,TRUE,4,0.791,487.5044,490.5033,0,97,97,25,1,21,27,NA,NA,NA,NA,NA,1,98,"likert"
"945B815AA9D04EDBA58B91E4C01FA46D",1,"01990ab6-88ea-7ad2-a3c1-88f3a4153a72","01990a84-c4ee-73c2-a87b-ff46a7d3dde5","2025-09-02_09h12.16.921",NA,NA,493.8525,493.8525,493.8525,494.2032,NA,NA,NA,NA,NA,NA,NA,TRUE,4,0.5893,490.8545,493.8523,0,98,98,80,1,95,35,NA,NA,NA,NA,NA,1,99,"likert"
"945B815AA9D04EDBA58B91E4C01FA46D",1,"01990ab6-88ea-7ad2-a3c1-88f3a4153a72","01990a84-c4ee-73c2-a87b-ff46a7d3dde5","2025-09-02_09h12.16.921",NA,NA,497.2034,497.2035,497.2035,497.5532,NA,NA,NA,NA,NA,NA,NA,TRUE,2,1.2891,494.2044,497.2033,0,99,99,70,1,60,47,NA,NA,NA,NA,NA,1,100,"likert"
"945B815AA9D04EDBA58B91E4C01FA46D",1,"01990ab6-88ea-7ad2-a3c1-88f3a4153a72","01990a84-c4ee-73c2-a87b-ff46a7d3dde5","2025-09-02_09h12.16.921",NA,NA,500.5525,500.5525,500.5525,500.9023,NA,NA,NA,NA,NA,NA,NA,TRUE,4,0.7822,497.5543,500.5523,0,100,100,5,1,7,35,NA,NA,NA,NA,NA,1,101,"likert"
"945B815AA9D04EDBA58B91E4C01FA46D",1,"01990ab6-88ea-7ad2-a3c1-88f3a4153a72","01990a84-c4ee-73c2-a87b-ff46a7d3dde5","2025-09-02_09h12.16.921",NA,NA,503.9024,503.9025,503.9025,504.2523,NA,NA,NA,NA,NA,NA,NA,TRUE,4,0.4822,500.9037,503.9024,0,101,101,63,1,50,40,NA,NA,NA,NA,NA,1,102,"likert"
"945B815AA9D04EDBA58B91E4C01FA46D",1,"01990ab6-88ea-7ad2-a3c1-88f3a4153a72","01990a84-c4ee-73c2-a87b-ff46a7d3dde5","2025-09-02_09h12.16.921",NA,NA,507.2534,507.2534,507.2535,507.6023,NA,NA,NA,NA,NA,NA,NA,TRUE,4,0.8075,504.2535,507.2532,0,102,102,62,1,50,35,NA,NA,NA,NA,NA,1,103,"likert"
"945B815AA9D04EDBA58B91E4C01FA46D",1,"01990ab6-88ea-7ad2-a3c1-88f3a4153a72","01990a84-c4ee-73c2-a87b-ff46a7d3dde5","2025-09-02_09h12.16.921",NA,NA,510.6034,510.6034,510.6034,510.9532,NA,NA,NA,NA,NA,NA,NA,TRUE,4,0.7671,507.6035,510.6032,0,103,103,46,1,30,32,NA,NA,NA,NA,NA,1,104,"likert"
"945B815AA9D04EDBA58B91E4C01FA46D",1,"01990ab6-88ea-7ad2-a3c1-88f3a4153a72","01990a84-c4ee-73c2-a87b-ff46a7d3dde5","2025-09-02_09h12.16.921",NA,NA,513.9528,513.9529,513.9529,514.3032,NA,NA,NA,NA,NA,NA,NA,TRUE,3,0.8331,510.9544,513.9527,0,104,104,17,1,12,35,NA,NA,NA,NA,NA,1,105,"likert"
"945B815AA9D04EDBA58B91E4C01FA46D",1,"01990ab6-88ea-7ad2-a3c1-88f3a4153a72","01990a84-c4ee-73c2-a87b-ff46a7d3dde5","2025-09-02_09h12.16.921",NA,NA,517.3033,517.3034,517.3034,517.6522,NA,NA,NA,NA,NA,NA,NA,TRUE,3,0.5563,514.3044,517.3031,0,105,105,27,1,21,30,NA,NA,NA,NA,NA,1,106,"likert"
"945B815AA9D04EDBA58B91E4C01FA46D",1,"01990ab6-88ea-7ad2-a3c1-88f3a4153a72","01990a84-c4ee-73c2-a87b-ff46a7d3dde5","2025-09-02_09h12.16.921",NA,NA,520.6533,520.6533,520.6533,521.0021,NA,NA,NA,NA,NA,NA,NA,TRUE,3,1.0502,517.6533,520.6531,0,106,106,74,1,90,33,NA,NA,NA,NA,NA,1,107,"likert"
"945B815AA9D04EDBA58B91E4C01FA46D",1,"01990ab6-88ea-7ad2-a3c1-88f3a4153a72","01990a84-c4ee-73c2-a87b-ff46a7d3dde5","2025-09-02_09h12.16.921",NA,NA,524.0033,524.0034,524.0034,524.3521,NA,NA,NA,NA,NA,NA,NA,TRUE,4,1.539,521.0034,524.0031,0,107,107,75,1,90,40,NA,NA,NA,NA,NA,1,108,"likert"
"945B815AA9D04EDBA58B91E4C01FA46D",1,"01990ab6-88ea-7ad2-a3c1-88f3a4153a72","01990a84-c4ee-73c2-a87b-ff46a7d3dde5","2025-09-02_09h12.16.921",NA,NA,529.4033,529.4034,529.4034,529.7531,NA,NA,NA,NA,NA,NA,NA,TRUE,4,1.6219,526.4171,529.4031,NA,NA,NA,NA,NA,10,30,0,0,0,10,1,2,1,"likert"
"945B815AA9D04EDBA58B91E4C01FA46D",1,"01990ab6-88ea-7ad2-a3c1-88f3a4153a72","01990a84-c4ee-73c2-a87b-ff46a7d3dde5","2025-09-02_09h12.16.921",NA,NA,532.7533,532.7534,532.7534,533.103,NA,NA,NA,NA,NA,NA,NA,TRUE,5,0.9502,529.7544,532.7532,NA,NA,NA,NA,NA,200,26,0,1,1,102,1,2,2,"likert"
"945B815AA9D04EDBA58B91E4C01FA46D",1,"01990ab6-88ea-7ad2-a3c1-88f3a4153a72","01990a84-c4ee-73c2-a87b-ff46a7d3dde5","2025-09-02_09h12.16.921",NA,NA,536.1023,536.1023,536.1023,536.453,NA,NA,NA,NA,NA,NA,NA,TRUE,3,1.2811,533.1042,536.1021,NA,NA,NA,NA,NA,95,47,0,2,2,82,1,2,3,"likert"
"945B815AA9D04EDBA58B91E4C01FA46D",1,"01990ab6-88ea-7ad2-a3c1-88f3a4153a72","01990a84-c4ee-73c2-a87b-ff46a7d3dde5","2025-09-02_09h12.16.921",NA,NA,539.4533,539.4534,539.4534,539.803,NA,NA,NA,NA,NA,NA,NA,TRUE,5,1.7415,536.4542,539.4531,NA,NA,NA,NA,NA,14,25,0,3,3,18,1,2,4,"likert"
"945B815AA9D04EDBA58B91E4C01FA46D",1,"01990ab6-88ea-7ad2-a3c1-88f3a4153a72","01990a84-c4ee-73c2-a87b-ff46a7d3dde5","2025-09-02_09h12.16.921",NA,NA,542.8022,542.8023,542.8023,543.153,NA,NA,NA,NA,NA,NA,NA,TRUE,4,1.2393,539.8041,542.8021,NA,NA,NA,NA,NA,90,40,0,4,4,75,1,2,5,"likert"
"945B815AA9D04EDBA58B91E4C01FA46D",1,"01990ab6-88ea-7ad2-a3c1-88f3a4153a72","01990a84-c4ee-73c2-a87b-ff46a7d3dde5","2025-09-02_09h12.16.921",NA,NA,546.1522,546.1522,546.1523,546.503,NA,NA,NA,NA,NA,NA,NA,TRUE,5,0.933,543.1541,546.1521,NA,NA,NA,NA,NA,30,32,0,5,5,46,1,2,6,"likert"
"945B815AA9D04EDBA58B91E4C01FA46D",1,"01990ab6-88ea-7ad2-a3c1-88f3a4153a72","01990a84-c4ee-73c2-a87b-ff46a7d3dde5","2025-09-02_09h12.16.921",NA,NA,549.5031,549.5032,549.5032,549.852,NA,NA,NA,NA,NA,NA,NA,TRUE,4,1.5161,546.5041,549.5029,NA,NA,NA,NA,NA,7,25,0,6,6,0,1,2,7,"likert"
"945B815AA9D04EDBA58B91E4C01FA46D",1,"01990ab6-88ea-7ad2-a3c1-88f3a4153a72","01990a84-c4ee-73c2-a87b-ff46a7d3dde5","2025-09-02_09h12.16.921",NA,NA,552.8531,552.8531,552.8531,553.2021,NA,NA,NA,NA,NA,NA,NA,TRUE,4,1.1068,549.8531,552.8529,NA,NA,NA,NA,NA,7,28,0,7,7,2,1,2,8,"likert"
"945B815AA9D04EDBA58B91E4C01FA46D",1,"01990ab6-88ea-7ad2-a3c1-88f3a4153a72","01990a84-c4ee-73c2-a87b-ff46a7d3dde5","2025-09-02_09h12.16.921",NA,NA,556.2021,556.2021,556.2022,556.5519,NA,NA,NA,NA,NA,NA,NA,TRUE,4,1.4173,553.2033,556.2019,NA,NA,NA,NA,NA,14,28,0,8,8,20,1,2,9,"likert"
"945B815AA9D04EDBA58B91E4C01FA46D",1,"01990ab6-88ea-7ad2-a3c1-88f3a4153a72","01990a84-c4ee-73c2-a87b-ff46a7d3dde5","2025-09-02_09h12.16.921",NA,NA,559.5531,559.5532,559.5532,559.9031,NA,NA,NA,NA,NA,NA,NA,TRUE,3,1.3574,556.5531,559.553,NA,NA,NA,NA,NA,40,40,0,9,9,51,1,2,10,"likert"
"945B815AA9D04EDBA58B91E4C01FA46D",1,"01990ab6-88ea-7ad2-a3c1-88f3a4153a72","01990a84-c4ee-73c2-a87b-ff46a7d3dde5","2025-09-02_09h12.16.921",NA,NA,562.903,562.903,562.9031,563.2528,NA,NA,NA,NA,NA,NA,NA,TRUE,5,1.2657,559.9042,562.9029,NA,NA,NA,NA,NA,21,26,0,10,10,24,1,2,11,"likert"
"945B815AA9D04EDBA58B91E4C01FA46D",1,"01990ab6-88ea-7ad2-a3c1-88f3a4153a72","01990a84-c4ee-73c2-a87b-ff46a7d3dde5","2025-09-02_09h12.16.921",NA,NA,566.2531,566.2531,566.2531,566.6028,NA,NA,NA,NA,NA,NA,NA,TRUE,5,1.4249,563.2541,566.2529,NA,NA,NA,NA,NA,14,26,0,11,11,19,1,2,12,"likert"
"945B815AA9D04EDBA58B91E4C01FA46D",1,"01990ab6-88ea-7ad2-a3c1-88f3a4153a72","01990a84-c4ee-73c2-a87b-ff46a7d3dde5","2025-09-02_09h12.16.921",NA,NA,569.6021,569.6022,569.6022,569.9528,NA,NA,NA,NA,NA,NA,NA,TRUE,4,1.8405,566.6039,569.602,NA,NA,NA,NA,NA,60,54,0,12,12,71,1,2,13,"likert"
"945B815AA9D04EDBA58B91E4C01FA46D",1,"01990ab6-88ea-7ad2-a3c1-88f3a4153a72","01990a84-c4ee-73c2-a87b-ff46a7d3dde5","2025-09-02_09h12.16.921",NA,NA,572.953,572.9531,572.9531,573.3029,NA,NA,NA,NA,NA,NA,NA,TRUE,4,1.4324,569.9539,572.9529,NA,NA,NA,NA,NA,28,46,0,13,13,41,1,2,14,"likert"
"945B815AA9D04EDBA58B91E4C01FA46D",1,"01990ab6-88ea-7ad2-a3c1-88f3a4153a72","01990a84-c4ee-73c2-a87b-ff46a7d3dde5","2025-09-02_09h12.16.921",NA,NA,576.303,576.303,576.3031,576.6528,NA,NA,NA,NA,NA,NA,NA,TRUE,4,1.523,573.3042,576.3029,NA,NA,NA,NA,NA,50,46,0,14,14,64,1,2,15,"likert"
"945B815AA9D04EDBA58B91E4C01FA46D",1,"01990ab6-88ea-7ad2-a3c1-88f3a4153a72","01990a84-c4ee-73c2-a87b-ff46a7d3dde5","2025-09-02_09h12.16.921",NA,NA,579.6529,579.6529,579.653,580.0017,NA,NA,NA,NA,NA,NA,NA,TRUE,4,1.6653,576.654,579.6528,NA,NA,NA,NA,NA,21,32,0,15,15,28,1,2,16,"likert"
"945B815AA9D04EDBA58B91E4C01FA46D",1,"01990ab6-88ea-7ad2-a3c1-88f3a4153a72","01990a84-c4ee-73c2-a87b-ff46a7d3dde5","2025-09-02_09h12.16.921",NA,NA,583.003,583.003,583.0031,583.3527,NA,NA,NA,NA,NA,NA,NA,TRUE,4,1.1825,580.0028,583.0029,NA,NA,NA,NA,NA,150,54,0,16,16,95,1,2,17,"likert"
"945B815AA9D04EDBA58B91E4C01FA46D",1,"01990ab6-88ea-7ad2-a3c1-88f3a4153a72","01990a84-c4ee-73c2-a87b-ff46a7d3dde5","2025-09-02_09h12.16.921",NA,NA,586.353,586.3531,586.3531,586.7028,NA,NA,NA,NA,NA,NA,NA,TRUE,3,2.4411,583.354,586.3529,NA,NA,NA,NA,NA,12,33,0,17,17,16,1,2,18,"likert"
"945B815AA9D04EDBA58B91E4C01FA46D",1,"01990ab6-88ea-7ad2-a3c1-88f3a4153a72","01990a84-c4ee-73c2-a87b-ff46a7d3dde5","2025-09-02_09h12.16.921",NA,NA,589.702,589.7021,589.7021,590.0527,NA,NA,NA,NA,NA,NA,NA,TRUE,4,2.6322,586.7036,589.7018,NA,NA,NA,NA,NA,95,40,0,18,18,81,1,2,19,"likert"
"945B815AA9D04EDBA58B91E4C01FA46D",1,"01990ab6-88ea-7ad2-a3c1-88f3a4153a72","01990a84-c4ee-73c2-a87b-ff46a7d3dde5","2025-09-02_09h12.16.921",NA,NA,593.052,593.052,593.052,593.4017,NA,NA,NA,NA,NA,NA,NA,TRUE,4,1.8981,590.0538,593.0518,NA,NA,NA,NA,NA,30,26,0,19,19,42,1,2,20,"likert"
"945B815AA9D04EDBA58B91E4C01FA46D",1,"01990ab6-88ea-7ad2-a3c1-88f3a4153a72","01990a84-c4ee-73c2-a87b-ff46a7d3dde5","2025-09-02_09h12.16.921",NA,NA,596.4029,596.4029,596.403,596.7517,NA,NA,NA,NA,NA,NA,NA,TRUE,5,1.6733,593.403,596.4027,NA,NA,NA,NA,NA,50,27,0,20,20,60,1,2,21,"likert"
"945B815AA9D04EDBA58B91E4C01FA46D",1,"01990ab6-88ea-7ad2-a3c1-88f3a4153a72","01990a84-c4ee-73c2-a87b-ff46a7d3dde5","2025-09-02_09h12.16.921",NA,NA,599.7528,599.7529,599.7529,600.1026,NA,NA,NA,NA,NA,NA,NA,TRUE,2,2.5891,596.7529,599.7527,NA,NA,NA,NA,NA,180,54,0,21,21,101,1,2,22,"likert"
"945B815AA9D04EDBA58B91E4C01FA46D",1,"01990ab6-88ea-7ad2-a3c1-88f3a4153a72","01990a84-c4ee-73c2-a87b-ff46a7d3dde5","2025-09-02_09h12.16.921",NA,NA,603.1028,603.3526,603.3526,603.4519,NA,NA,NA,NA,NA,NA,NA,FALSE,NA,NA,600.1038,603.1027,NA,NA,NA,NA,NA,40,47,0,22,22,52,1,2,23,"likert"
"945B815AA9D04EDBA58B91E4C01FA46D",1,"01990ab6-88ea-7ad2-a3c1-88f3a4153a72","01990a84-c4ee-73c2-a87b-ff46a7d3dde5","2025-09-02_09h12.16.921",NA,NA,606.4528,606.4528,606.4528,606.8018,NA,NA,NA,NA,NA,NA,NA,TRUE,4,0.503,603.4531,606.4527,NA,NA,NA,NA,NA,180,27,0,23,23,96,1,2,24,"likert"
"945B815AA9D04EDBA58B91E4C01FA46D",1,"01990ab6-88ea-7ad2-a3c1-88f3a4153a72","01990a84-c4ee-73c2-a87b-ff46a7d3dde5","2025-09-02_09h12.16.921",NA,NA,609.803,609.8031,609.8031,610.1526,NA,NA,NA,NA,NA,NA,NA,TRUE,5,0.6069,606.8029,609.8029,NA,NA,NA,NA,NA,150,31,0,24,24,90,1,2,25,"likert"
"945B815AA9D04EDBA58B91E4C01FA46D",1,"01990ab6-88ea-7ad2-a3c1-88f3a4153a72","01990a84-c4ee-73c2-a87b-ff46a7d3dde5","2025-09-02_09h12.16.921",NA,NA,613.1528,613.1528,613.1529,613.5025,NA,NA,NA,NA,NA,NA,NA,TRUE,4,0.5217,610.154,613.1527,NA,NA,NA,NA,NA,50,30,0,25,25,61,1,2,26,"likert"
"945B815AA9D04EDBA58B91E4C01FA46D",1,"01990ab6-88ea-7ad2-a3c1-88f3a4153a72","01990a84-c4ee-73c2-a87b-ff46a7d3dde5","2025-09-02_09h12.16.921",NA,NA,616.5027,616.5029,616.5029,616.8526,NA,NA,NA,NA,NA,NA,NA,TRUE,4,1.7488,613.5038,616.5026,NA,NA,NA,NA,NA,30,29,0,26,26,44,1,2,27,"likert"
"945B815AA9D04EDBA58B91E4C01FA46D",1,"01990ab6-88ea-7ad2-a3c1-88f3a4153a72","01990a84-c4ee-73c2-a87b-ff46a7d3dde5","2025-09-02_09h12.16.921",NA,NA,619.8527,619.8527,619.8528,620.2016,NA,NA,NA,NA,NA,NA,NA,TRUE,4,0.3389,616.8539,619.8526,NA,NA,NA,NA,NA,50,54,0,27,27,65,1,2,28,"likert"
"945B815AA9D04EDBA58B91E4C01FA46D",1,"01990ab6-88ea-7ad2-a3c1-88f3a4153a72","01990a84-c4ee-73c2-a87b-ff46a7d3dde5","2025-09-02_09h12.16.921",NA,NA,623.2028,623.2028,623.2028,623.5526,NA,NA,NA,NA,NA,NA,NA,TRUE,4,1.0232,620.2029,623.2026,NA,NA,NA,NA,NA,40,33,0,28,28,49,1,2,29,"likert"
"945B815AA9D04EDBA58B91E4C01FA46D",1,"01990ab6-88ea-7ad2-a3c1-88f3a4153a72","01990a84-c4ee-73c2-a87b-ff46a7d3dde5","2025-09-02_09h12.16.921",NA,NA,626.5519,626.5519,626.552,626.9017,NA,NA,NA,NA,NA,NA,NA,TRUE,4,1.2068,623.5539,626.5518,NA,NA,NA,NA,NA,200,35,0,29,29,104,1,2,30,"likert"
"945B815AA9D04EDBA58B91E4C01FA46D",1,"01990ab6-88ea-7ad2-a3c1-88f3a4153a72","01990a84-c4ee-73c2-a87b-ff46a7d3dde5","2025-09-02_09h12.16.921",NA,NA,629.9026,629.9027,629.9027,630.2525,NA,NA,NA,NA,NA,NA,NA,TRUE,5,0.8562,626.9029,629.9025,NA,NA,NA,NA,NA,60,47,0,30,30,70,1,2,31,"likert"
"945B815AA9D04EDBA58B91E4C01FA46D",1,"01990ab6-88ea-7ad2-a3c1-88f3a4153a72","01990a84-c4ee-73c2-a87b-ff46a7d3dde5","2025-09-02_09h12.16.921",NA,NA,633.2519,633.2519,633.2519,633.6025,NA,NA,NA,NA,NA,NA,NA,TRUE,4,0.949,630.2537,633.2517,NA,NA,NA,NA,NA,40,54,0,31,31,53,1,2,32,"likert"
"945B815AA9D04EDBA58B91E4C01FA46D",1,"01990ab6-88ea-7ad2-a3c1-88f3a4153a72","01990a84-c4ee-73c2-a87b-ff46a7d3dde5","2025-09-02_09h12.16.921",NA,NA,636.6018,636.6018,636.6018,636.9525,NA,NA,NA,NA,NA,NA,NA,TRUE,4,0.3325,633.6036,636.6016,NA,NA,NA,NA,NA,12,35,0,32,32,17,1,2,33,"likert"
"945B815AA9D04EDBA58B91E4C01FA46D",1,"01990ab6-88ea-7ad2-a3c1-88f3a4153a72","01990a84-c4ee-73c2-a87b-ff46a7d3dde5","2025-09-02_09h12.16.921",NA,NA,639.9527,639.9527,639.9527,640.3026,NA,NA,NA,NA,NA,NA,NA,TRUE,4,0.0326,636.9535,639.9525,NA,NA,NA,NA,NA,45,29,0,33,33,55,1,2,34,"likert"
"945B815AA9D04EDBA58B91E4C01FA46D",1,"01990ab6-88ea-7ad2-a3c1-88f3a4153a72","01990a84-c4ee-73c2-a87b-ff46a7d3dde5","2025-09-02_09h12.16.921",NA,NA,643.3018,643.3018,643.3018,643.6524,NA,NA,NA,NA,NA,NA,NA,TRUE,3,0.6638,640.3037,643.3017,NA,NA,NA,NA,NA,150,47,0,34,34,94,1,2,35,"likert"
"945B815AA9D04EDBA58B91E4C01FA46D",1,"01990ab6-88ea-7ad2-a3c1-88f3a4153a72","01990a84-c4ee-73c2-a87b-ff46a7d3dde5","2025-09-02_09h12.16.921",NA,NA,646.6517,646.6518,646.6518,647.0024,NA,NA,NA,NA,NA,NA,NA,TRUE,5,1.0333,643.6537,646.6516,NA,NA,NA,NA,NA,180,39,0,35,35,99,1,2,36,"likert"
"945B815AA9D04EDBA58B91E4C01FA46D",1,"01990ab6-88ea-7ad2-a3c1-88f3a4153a72","01990a84-c4ee-73c2-a87b-ff46a7d3dde5","2025-09-02_09h12.16.921",NA,NA,650.0017,650.0017,650.0017,650.3524,NA,NA,NA,NA,NA,NA,NA,TRUE,4,0.6395,647.0036,650.0015,NA,NA,NA,NA,NA,95,31,0,36,36,78,1,2,37,"likert"
"945B815AA9D04EDBA58B91E4C01FA46D",1,"01990ab6-88ea-7ad2-a3c1-88f3a4153a72","01990a84-c4ee-73c2-a87b-ff46a7d3dde5","2025-09-02_09h12.16.921",NA,NA,653.3525,653.3526,653.3526,653.7021,NA,NA,NA,NA,NA,NA,NA,TRUE,4,2.2656,650.3536,653.3524,NA,NA,NA,NA,NA,50,35,0,37,37,62,1,2,38,"likert"
"945B815AA9D04EDBA58B91E4C01FA46D",1,"01990ab6-88ea-7ad2-a3c1-88f3a4153a72","01990a84-c4ee-73c2-a87b-ff46a7d3dde5","2025-09-02_09h12.16.921",NA,NA,656.7026,656.7026,656.7027,657.0515,NA,NA,NA,NA,NA,NA,NA,TRUE,5,1.0566,653.7028,656.7024,NA,NA,NA,NA,NA,12,28,0,38,38,14,1,2,39,"likert"
"945B815AA9D04EDBA58B91E4C01FA46D",1,"01990ab6-88ea-7ad2-a3c1-88f3a4153a72","01990a84-c4ee-73c2-a87b-ff46a7d3dde5","2025-09-02_09h12.16.921",NA,NA,660.0525,660.0525,660.0525,660.4023,NA,NA,NA,NA,NA,NA,NA,TRUE,5,0.8495,657.0526,660.0524,NA,NA,NA,NA,NA,180,31,0,39,39,97,1,2,40,"likert"
"945B815AA9D04EDBA58B91E4C01FA46D",1,"01990ab6-88ea-7ad2-a3c1-88f3a4153a72","01990a84-c4ee-73c2-a87b-ff46a7d3dde5","2025-09-02_09h12.16.921",NA,NA,663.4025,663.4026,663.4026,663.7523,NA,NA,NA,NA,NA,NA,NA,TRUE,5,1.4392,660.4035,663.4023,NA,NA,NA,NA,NA,10,25,0,40,40,6,1,2,41,"likert"
"945B815AA9D04EDBA58B91E4C01FA46D",1,"01990ab6-88ea-7ad2-a3c1-88f3a4153a72","01990a84-c4ee-73c2-a87b-ff46a7d3dde5","2025-09-02_09h12.16.921",NA,NA,666.7526,666.7526,666.7526,667.1023,NA,NA,NA,NA,NA,NA,NA,TRUE,4,0.939,663.7536,666.7524,NA,NA,NA,NA,NA,45,40,0,41,41,58,1,2,42,"likert"
"945B815AA9D04EDBA58B91E4C01FA46D",1,"01990ab6-88ea-7ad2-a3c1-88f3a4153a72","01990a84-c4ee-73c2-a87b-ff46a7d3dde5","2025-09-02_09h12.16.921",NA,NA,670.1025,670.1026,670.1026,670.4522,NA,NA,NA,NA,NA,NA,NA,TRUE,3,1.1895,667.1035,670.1023,NA,NA,NA,NA,NA,14,39,0,42,42,23,1,2,43,"likert"
"945B815AA9D04EDBA58B91E4C01FA46D",1,"01990ab6-88ea-7ad2-a3c1-88f3a4153a72","01990a84-c4ee-73c2-a87b-ff46a7d3dde5","2025-09-02_09h12.16.921",NA,NA,673.4516,673.4516,673.4516,673.8022,NA,NA,NA,NA,NA,NA,NA,TRUE,4,1.5814,670.4535,673.4515,NA,NA,NA,NA,NA,10,29,0,43,43,9,1,2,44,"likert"
"945B815AA9D04EDBA58B91E4C01FA46D",1,"01990ab6-88ea-7ad2-a3c1-88f3a4153a72","01990a84-c4ee-73c2-a87b-ff46a7d3dde5","2025-09-02_09h12.16.921",NA,NA,676.8025,676.8025,676.8026,677.1522,NA,NA,NA,NA,NA,NA,NA,TRUE,3,1.209,673.8034,676.8023,NA,NA,NA,NA,NA,50,40,0,44,44,63,1,2,45,"likert"
"945B815AA9D04EDBA58B91E4C01FA46D",1,"01990ab6-88ea-7ad2-a3c1-88f3a4153a72","01990a84-c4ee-73c2-a87b-ff46a7d3dde5","2025-09-02_09h12.16.921",NA,NA,680.1516,680.1517,680.1517,680.5022,NA,NA,NA,NA,NA,NA,NA,TRUE,4,0.7715,677.1535,680.1515,NA,NA,NA,NA,NA,200,54,0,45,45,107,1,2,46,"likert"
"945B815AA9D04EDBA58B91E4C01FA46D",1,"01990ab6-88ea-7ad2-a3c1-88f3a4153a72","01990a84-c4ee-73c2-a87b-ff46a7d3dde5","2025-09-02_09h12.16.921",NA,NA,683.5024,683.5024,683.5025,683.8514,NA,NA,NA,NA,NA,NA,NA,TRUE,3,1.3007,680.5034,683.5023,NA,NA,NA,NA,NA,45,35,0,46,46,57,1,2,47,"likert"
"945B815AA9D04EDBA58B91E4C01FA46D",1,"01990ab6-88ea-7ad2-a3c1-88f3a4153a72","01990a84-c4ee-73c2-a87b-ff46a7d3dde5","2025-09-02_09h12.16.921",NA,NA,686.8519,686.852,686.852,687.2022,NA,NA,NA,NA,NA,NA,NA,TRUE,5,0.9881,683.8526,686.8518,NA,NA,NA,NA,NA,30,27,0,47,47,43,1,2,48,"likert"
"945B815AA9D04EDBA58B91E4C01FA46D",1,"01990ab6-88ea-7ad2-a3c1-88f3a4153a72","01990a84-c4ee-73c2-a87b-ff46a7d3dde5","2025-09-02_09h12.16.921",NA,NA,690.2024,690.2025,690.2025,690.5522,NA,NA,NA,NA,NA,NA,NA,TRUE,5,1.7488,687.2034,690.2022,NA,NA,NA,NA,NA,21,29,0,48,48,26,1,2,49,"likert"
"945B815AA9D04EDBA58B91E4C01FA46D",1,"01990ab6-88ea-7ad2-a3c1-88f3a4153a72","01990a84-c4ee-73c2-a87b-ff46a7d3dde5","2025-09-02_09h12.16.921",NA,NA,693.5523,693.5523,693.5524,693.9022,NA,NA,NA,NA,NA,NA,NA,TRUE,4,1.2884,690.5534,693.5521,NA,NA,NA,NA,NA,95,35,0,49,49,80,1,2,50,"likert"
"945B815AA9D04EDBA58B91E4C01FA46D",1,"01990ab6-88ea-7ad2-a3c1-88f3a4153a72","01990a84-c4ee-73c2-a87b-ff46a7d3dde5","2025-09-02_09h12.16.921",NA,NA,696.9015,696.9016,696.9016,697.2522,NA,NA,NA,NA,NA,NA,NA,TRUE,4,0.8565,693.9033,696.9013,NA,NA,NA,NA,NA,90,33,0,50,50,74,1,2,51,"likert"
"945B815AA9D04EDBA58B91E4C01FA46D",1,"01990ab6-88ea-7ad2-a3c1-88f3a4153a72","01990a84-c4ee-73c2-a87b-ff46a7d3dde5","2025-09-02_09h12.16.921",NA,NA,700.2514,700.2515,700.2515,700.6013,NA,NA,NA,NA,NA,NA,NA,TRUE,5,0.7569,697.2536,700.2512,NA,NA,NA,NA,NA,25,46,0,51,51,35,1,2,52,"likert"
"945B815AA9D04EDBA58B91E4C01FA46D",1,"01990ab6-88ea-7ad2-a3c1-88f3a4153a72","01990a84-c4ee-73c2-a87b-ff46a7d3dde5","2025-09-02_09h12.16.921",NA,NA,703.6024,703.6024,703.6024,703.9521,NA,NA,NA,NA,NA,NA,NA,TRUE,4,0.0807,700.6025,703.6022,NA,NA,NA,NA,NA,25,29,0,52,52,31,1,2,53,"likert"
"945B815AA9D04EDBA58B91E4C01FA46D",1,"01990ab6-88ea-7ad2-a3c1-88f3a4153a72","01990a84-c4ee-73c2-a87b-ff46a7d3dde5","2025-09-02_09h12.16.921",NA,NA,706.9514,706.9515,706.9515,707.3012,NA,NA,NA,NA,NA,NA,NA,TRUE,4,2.0236,703.9533,706.9512,NA,NA,NA,NA,NA,200,47,0,53,53,106,1,2,54,"likert"
"945B815AA9D04EDBA58B91E4C01FA46D",1,"01990ab6-88ea-7ad2-a3c1-88f3a4153a72","01990a84-c4ee-73c2-a87b-ff46a7d3dde5","2025-09-02_09h12.16.921",NA,NA,710.3023,710.3023,710.3023,710.6521,NA,NA,NA,NA,NA,NA,NA,TRUE,4,1.1231,707.3024,710.3021,NA,NA,NA,NA,NA,200,28,0,54,54,103,1,2,55,"likert"
"945B815AA9D04EDBA58B91E4C01FA46D",1,"01990ab6-88ea-7ad2-a3c1-88f3a4153a72","01990a84-c4ee-73c2-a87b-ff46a7d3dde5","2025-09-02_09h12.16.921",NA,NA,713.6522,713.6522,713.6523,714.0012,NA,NA,NA,NA,NA,NA,NA,TRUE,4,0.4974,710.6533,713.652,NA,NA,NA,NA,NA,100,39,0,55,55,87,1,2,56,"likert"
"945B815AA9D04EDBA58B91E4C01FA46D",1,"01990ab6-88ea-7ad2-a3c1-88f3a4153a72","01990a84-c4ee-73c2-a87b-ff46a7d3dde5","2025-09-02_09h12.16.921",NA,NA,717.0022,717.0023,717.0023,717.3512,NA,NA,NA,NA,NA,NA,NA,TRUE,4,0.8062,714.0022,717.0021,NA,NA,NA,NA,NA,30,38,0,56,56,47,1,2,57,"likert"
"945B815AA9D04EDBA58B91E4C01FA46D",1,"01990ab6-88ea-7ad2-a3c1-88f3a4153a72","01990a84-c4ee-73c2-a87b-ff46a7d3dde5","2025-09-02_09h12.16.921",NA,NA,720.3523,720.3524,720.3524,720.7021,NA,NA,NA,NA,NA,NA,NA,TRUE,4,2.0495,717.3525,720.3521,NA,NA,NA,NA,NA,14,32,0,57,57,21,1,2,58,"likert"
"945B815AA9D04EDBA58B91E4C01FA46D",1,"01990ab6-88ea-7ad2-a3c1-88f3a4153a72","01990a84-c4ee-73c2-a87b-ff46a7d3dde5","2025-09-02_09h12.16.921",NA,NA,723.7022,723.7022,723.7022,724.052,NA,NA,NA,NA,NA,NA,NA,TRUE,4,0.3085,720.7033,723.7021,NA,NA,NA,NA,NA,25,31,0,58,58,32,1,2,59,"likert"
"945B815AA9D04EDBA58B91E4C01FA46D",1,"01990ab6-88ea-7ad2-a3c1-88f3a4153a72","01990a84-c4ee-73c2-a87b-ff46a7d3dde5","2025-09-02_09h12.16.921",NA,NA,727.0513,727.0513,727.0513,727.402,NA,NA,NA,NA,NA,NA,NA,TRUE,3,0.0512,724.0532,727.0511,NA,NA,NA,NA,NA,28,28,0,59,59,37,1,2,60,"likert"
"945B815AA9D04EDBA58B91E4C01FA46D",1,"01990ab6-88ea-7ad2-a3c1-88f3a4153a72","01990a84-c4ee-73c2-a87b-ff46a7d3dde5","2025-09-02_09h12.16.921",NA,NA,730.4013,730.4013,730.4014,730.7511,NA,NA,NA,NA,NA,NA,NA,TRUE,3,1.4077,727.4032,730.4012,NA,NA,NA,NA,NA,45,46,0,60,60,59,1,2,61,"likert"
"945B815AA9D04EDBA58B91E4C01FA46D",1,"01990ab6-88ea-7ad2-a3c1-88f3a4153a72","01990a84-c4ee-73c2-a87b-ff46a7d3dde5","2025-09-02_09h12.16.921",NA,NA,733.7524,733.7524,733.7524,734.101,NA,NA,NA,NA,NA,NA,NA,TRUE,3,1.1435,730.7523,733.7522,NA,NA,NA,NA,NA,10,32,0,61,61,11,1,2,62,"likert"
"945B815AA9D04EDBA58B91E4C01FA46D",1,"01990ab6-88ea-7ad2-a3c1-88f3a4153a72","01990a84-c4ee-73c2-a87b-ff46a7d3dde5","2025-09-02_09h12.16.921",NA,NA,737.1022,737.1023,737.1023,737.452,NA,NA,NA,NA,NA,NA,NA,TRUE,2,1.284,734.1022,737.102,NA,NA,NA,NA,NA,150,40,0,62,62,93,1,2,63,"likert"
"945B815AA9D04EDBA58B91E4C01FA46D",1,"01990ab6-88ea-7ad2-a3c1-88f3a4153a72","01990a84-c4ee-73c2-a87b-ff46a7d3dde5","2025-09-02_09h12.16.921",NA,NA,740.4521,740.4522,740.4522,740.8019,NA,NA,NA,NA,NA,NA,NA,TRUE,2,1.2167,737.4531,740.452,NA,NA,NA,NA,NA,100,38,0,63,63,86,1,2,64,"likert"
"945B815AA9D04EDBA58B91E4C01FA46D",1,"01990ab6-88ea-7ad2-a3c1-88f3a4153a72","01990a84-c4ee-73c2-a87b-ff46a7d3dde5","2025-09-02_09h12.16.921",NA,NA,743.8021,743.8022,743.8022,744.1518,NA,NA,NA,NA,NA,NA,NA,TRUE,5,1.0901,740.8031,743.802,NA,NA,NA,NA,NA,10,27,0,64,64,8,1,2,65,"likert"
"945B815AA9D04EDBA58B91E4C01FA46D",1,"01990ab6-88ea-7ad2-a3c1-88f3a4153a72","01990a84-c4ee-73c2-a87b-ff46a7d3dde5","2025-09-02_09h12.16.921",NA,NA,747.1521,747.1521,747.1521,747.5009,NA,NA,NA,NA,NA,NA,NA,TRUE,5,1.3005,744.153,747.152,NA,NA,NA,NA,NA,7,30,0,65,65,3,1,2,66,"likert"
"945B815AA9D04EDBA58B91E4C01FA46D",1,"01990ab6-88ea-7ad2-a3c1-88f3a4153a72","01990a84-c4ee-73c2-a87b-ff46a7d3dde5","2025-09-02_09h12.16.921",NA,NA,750.5022,750.5022,750.5023,750.8519,NA,NA,NA,NA,NA,NA,NA,TRUE,4,0.999,747.502,750.5019,NA,NA,NA,NA,NA,25,35,0,66,66,34,1,2,67,"likert"
"945B815AA9D04EDBA58B91E4C01FA46D",1,"01990ab6-88ea-7ad2-a3c1-88f3a4153a72","01990a84-c4ee-73c2-a87b-ff46a7d3dde5","2025-09-02_09h12.16.921",NA,NA,753.8511,753.8513,753.8513,754.2019,NA,NA,NA,NA,NA,NA,NA,TRUE,3,0.1812,750.8531,753.8511,NA,NA,NA,NA,NA,45,26,0,67,67,54,1,2,68,"likert"
"945B815AA9D04EDBA58B91E4C01FA46D",1,"01990ab6-88ea-7ad2-a3c1-88f3a4153a72","01990a84-c4ee-73c2-a87b-ff46a7d3dde5","2025-09-02_09h12.16.921",NA,NA,757.2012,757.2012,757.2012,757.5518,NA,NA,NA,NA,NA,NA,NA,TRUE,3,1.2486,754.2031,757.2011,NA,NA,NA,NA,NA,90,46,0,68,68,76,1,2,69,"likert"
"945B815AA9D04EDBA58B91E4C01FA46D",1,"01990ab6-88ea-7ad2-a3c1-88f3a4153a72","01990a84-c4ee-73c2-a87b-ff46a7d3dde5","2025-09-02_09h12.16.921",NA,NA,760.5521,760.5522,760.5522,760.9018,NA,NA,NA,NA,NA,NA,NA,TRUE,4,0.9723,757.553,760.552,NA,NA,NA,NA,NA,28,35,0,69,69,39,1,2,70,"likert"
"945B815AA9D04EDBA58B91E4C01FA46D",1,"01990ab6-88ea-7ad2-a3c1-88f3a4153a72","01990a84-c4ee-73c2-a87b-ff46a7d3dde5","2025-09-02_09h12.16.921",NA,NA,763.9011,763.9012,763.9012,764.251,NA,NA,NA,NA,NA,NA,NA,TRUE,4,0.8676,760.903,763.9009,NA,NA,NA,NA,NA,12,31,0,70,70,15,1,2,71,"likert"
"945B815AA9D04EDBA58B91E4C01FA46D",1,"01990ab6-88ea-7ad2-a3c1-88f3a4153a72","01990a84-c4ee-73c2-a87b-ff46a7d3dde5","2025-09-02_09h12.16.921",NA,NA,767.252,767.252,767.252,767.6018,NA,NA,NA,NA,NA,NA,NA,TRUE,4,1.3916,764.2522,767.2518,NA,NA,NA,NA,NA,25,27,0,71,71,30,1,2,72,"likert"
"945B815AA9D04EDBA58B91E4C01FA46D",1,"01990ab6-88ea-7ad2-a3c1-88f3a4153a72","01990a84-c4ee-73c2-a87b-ff46a7d3dde5","2025-09-02_09h12.16.921",NA,NA,770.602,770.602,770.602,770.9517,NA,NA,NA,NA,NA,NA,NA,TRUE,3,1.3009,767.6029,770.6018,NA,NA,NA,NA,NA,12,26,0,72,72,13,1,2,73,"likert"
"945B815AA9D04EDBA58B91E4C01FA46D",1,"01990ab6-88ea-7ad2-a3c1-88f3a4153a72","01990a84-c4ee-73c2-a87b-ff46a7d3dde5","2025-09-02_09h12.16.921",NA,NA,773.951,773.9511,773.9511,774.3018,NA,NA,NA,NA,NA,NA,NA,TRUE,4,1.3229,770.953,773.9509,NA,NA,NA,NA,NA,180,35,0,73,73,98,1,2,74,"likert"
"945B815AA9D04EDBA58B91E4C01FA46D",1,"01990ab6-88ea-7ad2-a3c1-88f3a4153a72","01990a84-c4ee-73c2-a87b-ff46a7d3dde5","2025-09-02_09h12.16.921",NA,NA,777.3011,777.3011,777.3011,777.6508,NA,NA,NA,NA,NA,NA,NA,TRUE,4,1.0257,774.303,777.3009,NA,NA,NA,NA,NA,90,30,0,74,74,73,1,2,75,"likert"
"945B815AA9D04EDBA58B91E4C01FA46D",1,"01990ab6-88ea-7ad2-a3c1-88f3a4153a72","01990a84-c4ee-73c2-a87b-ff46a7d3dde5","2025-09-02_09h12.16.921",NA,NA,780.6519,780.652,780.652,781.0017,NA,NA,NA,NA,NA,NA,NA,TRUE,3,1.0975,777.652,780.6518,NA,NA,NA,NA,NA,28,39,0,75,75,40,1,2,76,"likert"
"945B815AA9D04EDBA58B91E4C01FA46D",1,"01990ab6-88ea-7ad2-a3c1-88f3a4153a72","01990a84-c4ee-73c2-a87b-ff46a7d3dde5","2025-09-02_09h12.16.921",NA,NA,784.0009,784.0009,784.001,784.3517,NA,NA,NA,NA,NA,NA,NA,TRUE,3,0.0914,781.003,784.0008,NA,NA,NA,NA,NA,30,30,0,76,76,45,1,2,77,"likert"
"945B815AA9D04EDBA58B91E4C01FA46D",1,"01990ab6-88ea-7ad2-a3c1-88f3a4153a72","01990a84-c4ee-73c2-a87b-ff46a7d3dde5","2025-09-02_09h12.16.921",NA,NA,787.3518,787.3519,787.3519,787.7016,NA,NA,NA,NA,NA,NA,NA,TRUE,4,0.7659,784.3529,787.3517,NA,NA,NA,NA,NA,60,33,0,77,77,67,1,2,78,"likert"
"945B815AA9D04EDBA58B91E4C01FA46D",1,"01990ab6-88ea-7ad2-a3c1-88f3a4153a72","01990a84-c4ee-73c2-a87b-ff46a7d3dde5","2025-09-02_09h12.16.921",NA,NA,790.7018,790.7019,790.7019,791.0507,NA,NA,NA,NA,NA,NA,NA,TRUE,2,1.3362,787.7026,790.7017,NA,NA,NA,NA,NA,100,31,0,78,78,85,1,2,79,"likert"
"945B815AA9D04EDBA58B91E4C01FA46D",1,"01990ab6-88ea-7ad2-a3c1-88f3a4153a72","01990a84-c4ee-73c2-a87b-ff46a7d3dde5","2025-09-02_09h12.16.921",NA,NA,794.0519,794.052,794.052,794.4008,NA,NA,NA,NA,NA,NA,NA,TRUE,3,0.8416,791.0519,794.0518,NA,NA,NA,NA,NA,100,46,0,79,79,88,1,2,80,"likert"
"945B815AA9D04EDBA58B91E4C01FA46D",1,"01990ab6-88ea-7ad2-a3c1-88f3a4153a72","01990a84-c4ee-73c2-a87b-ff46a7d3dde5","2025-09-02_09h12.16.921",NA,NA,797.401,797.401,797.401,797.7516,NA,NA,NA,NA,NA,NA,NA,TRUE,2,1.6737,794.4019,797.4009,NA,NA,NA,NA,NA,40,35,0,80,80,50,1,2,81,"likert"
"945B815AA9D04EDBA58B91E4C01FA46D",1,"01990ab6-88ea-7ad2-a3c1-88f3a4153a72","01990a84-c4ee-73c2-a87b-ff46a7d3dde5","2025-09-02_09h12.16.921",NA,NA,800.7518,800.7518,800.7518,801.1016,NA,NA,NA,NA,NA,NA,NA,TRUE,4,1.8568,797.7527,800.7517,NA,NA,NA,NA,NA,60,29,0,81,81,66,1,2,82,"likert"
"945B815AA9D04EDBA58B91E4C01FA46D",1,"01990ab6-88ea-7ad2-a3c1-88f3a4153a72","01990a84-c4ee-73c2-a87b-ff46a7d3dde5","2025-09-02_09h12.16.921",NA,NA,804.1017,804.1017,804.1017,804.4507,NA,NA,NA,NA,NA,NA,NA,TRUE,3,1.2153,801.1028,804.1016,NA,NA,NA,NA,NA,45,31,0,82,82,56,1,2,83,"likert"
"945B815AA9D04EDBA58B91E4C01FA46D",1,"01990ab6-88ea-7ad2-a3c1-88f3a4153a72","01990a84-c4ee-73c2-a87b-ff46a7d3dde5","2025-09-02_09h12.16.921",NA,NA,807.4517,807.4519,807.4519,807.8015,NA,NA,NA,NA,NA,NA,NA,TRUE,4,1.8998,804.4519,807.4516,NA,NA,NA,NA,NA,28,32,0,83,83,38,1,2,84,"likert"
"945B815AA9D04EDBA58B91E4C01FA46D",1,"01990ab6-88ea-7ad2-a3c1-88f3a4153a72","01990a84-c4ee-73c2-a87b-ff46a7d3dde5","2025-09-02_09h12.16.921",NA,NA,810.8008,810.8008,810.8008,811.1516,NA,NA,NA,NA,NA,NA,NA,TRUE,3,1.9567,807.8028,810.8007,NA,NA,NA,NA,NA,150,33,0,84,84,91,1,2,85,"likert"
"945B815AA9D04EDBA58B91E4C01FA46D",1,"01990ab6-88ea-7ad2-a3c1-88f3a4153a72","01990a84-c4ee-73c2-a87b-ff46a7d3dde5","2025-09-02_09h12.16.921",NA,NA,814.1518,814.1518,814.1518,814.5007,NA,NA,NA,NA,NA,NA,NA,TRUE,4,2.4337,811.1527,814.1516,NA,NA,NA,NA,NA,95,33,0,85,85,79,1,2,86,"likert"
"945B815AA9D04EDBA58B91E4C01FA46D",1,"01990ab6-88ea-7ad2-a3c1-88f3a4153a72","01990a84-c4ee-73c2-a87b-ff46a7d3dde5","2025-09-02_09h12.16.921",NA,NA,817.5017,817.5018,817.5018,817.8506,NA,NA,NA,NA,NA,NA,NA,TRUE,4,1.3408,814.5018,817.5015,NA,NA,NA,NA,NA,7,32,0,86,86,4,1,2,87,"likert"
"945B815AA9D04EDBA58B91E4C01FA46D",1,"01990ab6-88ea-7ad2-a3c1-88f3a4153a72","01990a84-c4ee-73c2-a87b-ff46a7d3dde5","2025-09-02_09h12.16.921",NA,NA,820.8517,820.8518,820.8518,821.2007,NA,NA,NA,NA,NA,NA,NA,TRUE,5,1.8822,817.8518,820.8515,NA,NA,NA,NA,NA,10,26,0,87,87,7,1,2,88,"likert"
"945B815AA9D04EDBA58B91E4C01FA46D",1,"01990ab6-88ea-7ad2-a3c1-88f3a4153a72","01990a84-c4ee-73c2-a87b-ff46a7d3dde5","2025-09-02_09h12.16.921",NA,NA,824.2016,824.2017,824.2017,824.5506,NA,NA,NA,NA,NA,NA,NA,TRUE,3,1.0643,821.2018,824.2015,NA,NA,NA,NA,NA,60,40,0,88,88,69,1,2,89,"likert"
"945B815AA9D04EDBA58B91E4C01FA46D",1,"01990ab6-88ea-7ad2-a3c1-88f3a4153a72","01990a84-c4ee-73c2-a87b-ff46a7d3dde5","2025-09-02_09h12.16.921",NA,NA,827.5508,827.5508,827.5508,827.9014,NA,NA,NA,NA,NA,NA,NA,TRUE,5,1.2573,824.5517,827.5507,NA,NA,NA,NA,NA,100,26,0,89,89,84,1,2,90,"likert"
"945B815AA9D04EDBA58B91E4C01FA46D",1,"01990ab6-88ea-7ad2-a3c1-88f3a4153a72","01990a84-c4ee-73c2-a87b-ff46a7d3dde5","2025-09-02_09h12.16.921",NA,NA,830.9016,830.9017,830.9017,831.2514,NA,NA,NA,NA,NA,NA,NA,TRUE,3,1.3642,827.9026,830.9015,NA,NA,NA,NA,NA,200,39,0,90,90,105,1,2,91,"likert"
"945B815AA9D04EDBA58B91E4C01FA46D",1,"01990ab6-88ea-7ad2-a3c1-88f3a4153a72","01990a84-c4ee-73c2-a87b-ff46a7d3dde5","2025-09-02_09h12.16.921",NA,NA,834.2517,834.2517,834.2517,834.6014,NA,NA,NA,NA,NA,NA,NA,TRUE,3,1.2567,831.2526,834.2515,NA,NA,NA,NA,NA,90,54,0,91,91,77,1,2,92,"likert"
"945B815AA9D04EDBA58B91E4C01FA46D",1,"01990ab6-88ea-7ad2-a3c1-88f3a4153a72","01990a84-c4ee-73c2-a87b-ff46a7d3dde5","2025-09-02_09h12.16.921",NA,NA,837.6015,837.6016,837.6016,837.9514,NA,NA,NA,NA,NA,NA,NA,TRUE,4,1.5173,834.6026,837.6014,NA,NA,NA,NA,NA,100,54,0,92,92,89,1,2,93,"likert"
"945B815AA9D04EDBA58B91E4C01FA46D",1,"01990ab6-88ea-7ad2-a3c1-88f3a4153a72","01990a84-c4ee-73c2-a87b-ff46a7d3dde5","2025-09-02_09h12.16.921",NA,NA,840.9516,840.9516,840.9516,841.301,NA,NA,NA,NA,NA,NA,NA,TRUE,4,1.4825,837.9526,840.9514,NA,NA,NA,NA,NA,7,35,0,93,93,5,1,2,94,"likert"
"945B815AA9D04EDBA58B91E4C01FA46D",1,"01990ab6-88ea-7ad2-a3c1-88f3a4153a72","01990a84-c4ee-73c2-a87b-ff46a7d3dde5","2025-09-02_09h12.16.921",NA,NA,844.3016,844.3016,844.3017,844.6506,NA,NA,NA,NA,NA,NA,NA,TRUE,4,1.3193,841.3016,844.3014,NA,NA,NA,NA,NA,40,27,0,94,94,48,1,2,95,"likert"
"945B815AA9D04EDBA58B91E4C01FA46D",1,"01990ab6-88ea-7ad2-a3c1-88f3a4153a72","01990a84-c4ee-73c2-a87b-ff46a7d3dde5","2025-09-02_09h12.16.921",NA,NA,847.6515,847.6516,847.6516,848.0013,NA,NA,NA,NA,NA,NA,NA,TRUE,5,2.2368,844.6518,847.6514,NA,NA,NA,NA,NA,90,26,0,95,95,72,1,2,96,"likert"
"945B815AA9D04EDBA58B91E4C01FA46D",1,"01990ab6-88ea-7ad2-a3c1-88f3a4153a72","01990a84-c4ee-73c2-a87b-ff46a7d3dde5","2025-09-02_09h12.16.921",NA,NA,851.0016,851.0016,851.0016,851.3513,NA,NA,NA,NA,NA,NA,NA,TRUE,3,0.9333,848.0023,851.0014,NA,NA,NA,NA,NA,95,54,0,96,96,83,1,2,97,"likert"
"945B815AA9D04EDBA58B91E4C01FA46D",1,"01990ab6-88ea-7ad2-a3c1-88f3a4153a72","01990a84-c4ee-73c2-a87b-ff46a7d3dde5","2025-09-02_09h12.16.921",NA,NA,854.3514,854.3515,854.3515,854.7005,NA,NA,NA,NA,NA,NA,NA,TRUE,4,1.1145,851.3525,854.3514,NA,NA,NA,NA,NA,14,35,0,97,97,22,1,2,98,"likert"
"945B815AA9D04EDBA58B91E4C01FA46D",1,"01990ab6-88ea-7ad2-a3c1-88f3a4153a72","01990a84-c4ee-73c2-a87b-ff46a7d3dde5","2025-09-02_09h12.16.921",NA,NA,857.7014,857.7015,857.7015,858.0513,NA,NA,NA,NA,NA,NA,NA,TRUE,5,1.6973,854.7017,857.7014,NA,NA,NA,NA,NA,12,25,0,98,98,12,1,2,99,"likert"
"945B815AA9D04EDBA58B91E4C01FA46D",1,"01990ab6-88ea-7ad2-a3c1-88f3a4153a72","01990a84-c4ee-73c2-a87b-ff46a7d3dde5","2025-09-02_09h12.16.921",NA,NA,861.0516,861.0516,861.0516,861.4005,NA,NA,NA,NA,NA,NA,NA,TRUE,3,2.2089,858.0524,861.0513,NA,NA,NA,NA,NA,60,35,0,99,99,68,1,2,100,"likert"
"945B815AA9D04EDBA58B91E4C01FA46D",1,"01990ab6-88ea-7ad2-a3c1-88f3a4153a72","01990a84-c4ee-73c2-a87b-ff46a7d3dde5","2025-09-02_09h12.16.921",NA,NA,864.4015,864.4015,864.4015,864.7513,NA,NA,NA,NA,NA,NA,NA,TRUE,4,1.1234,861.4018,864.4013,NA,NA,NA,NA,NA,150,35,0,100,100,92,1,2,101,"likert"
"945B815AA9D04EDBA58B91E4C01FA46D",1,"01990ab6-88ea-7ad2-a3c1-88f3a4153a72","01990a84-c4ee-73c2-a87b-ff46a7d3dde5","2025-09-02_09h12.16.921",NA,NA,867.7515,867.7515,867.7515,868.1012,NA,NA,NA,NA,NA,NA,NA,TRUE,4,0.6157,864.7524,867.7513,NA,NA,NA,NA,NA,21,27,0,101,101,25,1,2,102,"likert"
"945B815AA9D04EDBA58B91E4C01FA46D",1,"01990ab6-88ea-7ad2-a3c1-88f3a4153a72","01990a84-c4ee-73c2-a87b-ff46a7d3dde5","2025-09-02_09h12.16.921",NA,NA,871.1014,871.1014,871.1014,871.4514,NA,NA,NA,NA,NA,NA,NA,TRUE,4,1.4089,868.1024,871.1013,NA,NA,NA,NA,NA,7,26,0,102,102,1,1,2,103,"likert"
"945B815AA9D04EDBA58B91E4C01FA46D",1,"01990ab6-88ea-7ad2-a3c1-88f3a4153a72","01990a84-c4ee-73c2-a87b-ff46a7d3dde5","2025-09-02_09h12.16.921",NA,NA,874.4514,874.4514,874.4515,874.8012,NA,NA,NA,NA,NA,NA,NA,TRUE,3,0.878,871.4527,874.4513,NA,NA,NA,NA,NA,180,46,0,103,103,100,1,2,104,"likert"
"945B815AA9D04EDBA58B91E4C01FA46D",1,"01990ab6-88ea-7ad2-a3c1-88f3a4153a72","01990a84-c4ee-73c2-a87b-ff46a7d3dde5","2025-09-02_09h12.16.921",NA,NA,877.8014,877.8014,877.8014,878.1511,NA,NA,NA,NA,NA,NA,NA,TRUE,4,1.0491,874.8024,877.8013,NA,NA,NA,NA,NA,25,33,0,104,104,33,1,2,105,"likert"
"945B815AA9D04EDBA58B91E4C01FA46D",1,"01990ab6-88ea-7ad2-a3c1-88f3a4153a72","01990a84-c4ee-73c2-a87b-ff46a7d3dde5","2025-09-02_09h12.16.921",NA,NA,881.1514,881.1514,881.1514,881.5011,NA,NA,NA,NA,NA,NA,NA,TRUE,4,1.1595,878.1523,881.1512,NA,NA,NA,NA,NA,21,30,0,105,105,27,1,2,106,"likert"
"945B815AA9D04EDBA58B91E4C01FA46D",1,"01990ab6-88ea-7ad2-a3c1-88f3a4153a72","01990a84-c4ee-73c2-a87b-ff46a7d3dde5","2025-09-02_09h12.16.921",NA,NA,884.5013,884.5013,884.5013,884.8512,NA,NA,NA,NA,NA,NA,NA,TRUE,5,0.9406,881.5023,884.5012,NA,NA,NA,NA,NA,28,26,0,106,106,36,1,2,107,"likert"
"945B815AA9D04EDBA58B91E4C01FA46D",1,"01990ab6-88ea-7ad2-a3c1-88f3a4153a72","01990a84-c4ee-73c2-a87b-ff46a7d3dde5","2025-09-02_09h12.16.921",NA,NA,887.8513,887.8513,887.8514,888.2011,NA,NA,NA,NA,NA,NA,NA,TRUE,3,1.0311,884.8524,887.8511,NA,NA,NA,NA,NA,21,38,0,107,107,29,1,2,108,"likert"
