"participant","session","assignmentId","projectId","date","practiceTrial.started","practiceTrial.stopped","tooLate.started","tooLate.stopped","blank.started","blank.stopped","trials_pract.thisRepN","trials_pract.thisTrialN","trials_pract.thisN","trials_pract.thisIndex","trials_pract.ran","delay_pract","amount_pract","responseMade","key","rt","trial.started","trial.stopped","trials.thisRepN","trials.thisTrialN","trials.thisN","trials.thisIndex","trials.ran","delay","amount","trials_2.thisRepN","trials_2.thisTrialN","trials_2.thisN","trials_2.thisIndex","trials_2.ran","block","trial","taskType"
"96228F9246F549218C4B276134184D44",1,"0198f77f-a999-7cd7-8e9a-3b3274d3df0b","0198f768-e4d2-711c-944b-6f03c09216de","2025-08-29_16h23.56.250",47.5831,50.5677,50.5681,50.8118,50.8122,50.9065,0,0,0,3,1,3,27,FALSE,NA,NA,NA,NA,NA,NA,NA,NA,NA,NA,NA,NA,NA,NA,NA,NA,0,1,"likert"
"96228F9246F549218C4B276134184D44",1,"0198f77f-a999-7cd7-8e9a-3b3274d3df0b","0198f768-e4d2-711c-944b-6f03c09216de","2025-08-29_16h23.56.250",50.9085,53.9118,53.9119,53.9119,53.9119,54.2703,0,1,1,0,1,7,30,TRUE,5,1.5364,NA,NA,NA,NA,NA,NA,NA,NA,NA,NA,NA,NA,NA,NA,0,2,"likert"
"96228F9246F549218C4B276134184D44",1,"0198f77f-a999-7cd7-8e9a-3b3274d3df0b","0198f768-e4d2-711c-944b-6f03c09216de","2025-08-29_16h23.56.250",54.2729,57.2674,57.2682,57.2684,57.2684,57.6058,0,2,2,2,1,14,45,TRUE,5,1.2917,NA,NA,NA,NA,NA,NA,NA,NA,NA,NA,NA,NA,NA,NA,0,3,"likert"
"96228F9246F549218C4B276134184D44",1,"0198f77f-a999-7cd7-8e9a-3b3274d3df0b","0198f768-e4d2-711c-944b-6f03c09216de","2025-08-29_16h23.56.250",57.6087,60.6135,60.6136,60.6136,60.6136,60.9659,0,3,3,1,1,100,50,TRUE,5,0.918,NA,NA,NA,NA,NA,NA,NA,NA,NA,NA,NA,NA,NA,NA,0,4,"likert"
"96228F9246F549218C4B276134184D44",1,"0198f77f-a999-7cd7-8e9a-3b3274d3df0b","0198f768-e4d2-711c-944b-6f03c09216de","2025-08-29_16h23.56.250",60.969,63.963,63.9631,63.9632,63.9632,64.3124,0,4,4,4,1,30,40,TRUE,5,0.9958,NA,NA,NA,NA,NA,NA,NA,NA,NA,NA,NA,NA,NA,NA,0,5,"likert"
"96228F9246F549218C4B276134184D44",1,"0198f77f-a999-7cd7-8e9a-3b3274d3df0b","0198f768-e4d2-711c-944b-6f03c09216de","2025-08-29_16h23.56.250",NA,NA,95.4326,95.4328,95.4328,95.7837,NA,NA,NA,NA,NA,NA,NA,TRUE,5,0.8235,92.446,95.4321,0,0,0,71,1,60,54,NA,NA,NA,NA,NA,1,1,"likert"
"96228F9246F549218C4B276134184D44",1,"0198f77f-a999-7cd7-8e9a-3b3274d3df0b","0198f768-e4d2-711c-944b-6f03c09216de","2025-08-29_16h23.56.250",NA,NA,98.7802,98.7802,98.7802,99.1379,NA,NA,NA,NA,NA,NA,NA,TRUE,5,0.9157,95.787,98.7801,0,1,1,97,1,180,31,NA,NA,NA,NA,NA,1,2,"likert"
"96228F9246F549218C4B276134184D44",1,"0198f77f-a999-7cd7-8e9a-3b3274d3df0b","0198f768-e4d2-711c-944b-6f03c09216de","2025-08-29_16h23.56.250",NA,NA,102.1306,102.1309,102.1311,102.4799,NA,NA,NA,NA,NA,NA,NA,TRUE,5,1.6179,99.1403,102.1304,0,2,2,28,1,21,32,NA,NA,NA,NA,NA,1,3,"likert"
"96228F9246F549218C4B276134184D44",1,"0198f77f-a999-7cd7-8e9a-3b3274d3df0b","0198f768-e4d2-711c-944b-6f03c09216de","2025-08-29_16h23.56.250",NA,NA,105.4817,105.4817,105.4817,105.826,NA,NA,NA,NA,NA,NA,NA,TRUE,5,1.4627,102.4834,105.4815,0,3,3,42,1,30,26,NA,NA,NA,NA,NA,1,4,"likert"
"96228F9246F549218C4B276134184D44",1,"0198f77f-a999-7cd7-8e9a-3b3274d3df0b","0198f768-e4d2-711c-944b-6f03c09216de","2025-08-29_16h23.56.250",NA,NA,108.8241,108.8243,108.8243,109.1753,NA,NA,NA,NA,NA,NA,NA,TRUE,5,1.2716,105.8286,108.8237,0,4,4,100,1,180,46,NA,NA,NA,NA,NA,1,5,"likert"
"96228F9246F549218C4B276134184D44",1,"0198f77f-a999-7cd7-8e9a-3b3274d3df0b","0198f768-e4d2-711c-944b-6f03c09216de","2025-08-29_16h23.56.250",NA,NA,112.1801,112.1801,112.1802,112.5323,NA,NA,NA,NA,NA,NA,NA,TRUE,4,1.8146,109.1763,112.1797,0,5,5,31,1,25,29,NA,NA,NA,NA,NA,1,6,"likert"
"96228F9246F549218C4B276134184D44",1,"0198f77f-a999-7cd7-8e9a-3b3274d3df0b","0198f768-e4d2-711c-944b-6f03c09216de","2025-08-29_16h23.56.250",NA,NA,115.525,115.525,115.525,115.8746,NA,NA,NA,NA,NA,NA,NA,TRUE,4,1.5613,112.533,115.5249,0,6,6,61,1,50,30,NA,NA,NA,NA,NA,1,7,"likert"
"96228F9246F549218C4B276134184D44",1,"0198f77f-a999-7cd7-8e9a-3b3274d3df0b","0198f768-e4d2-711c-944b-6f03c09216de","2025-08-29_16h23.56.250",NA,NA,118.8889,118.889,118.889,119.2364,NA,NA,NA,NA,NA,NA,NA,TRUE,4,1.0179,115.8777,118.8886,0,7,7,86,1,100,38,NA,NA,NA,NA,NA,1,8,"likert"
"96228F9246F549218C4B276134184D44",1,"0198f77f-a999-7cd7-8e9a-3b3274d3df0b","0198f768-e4d2-711c-944b-6f03c09216de","2025-08-29_16h23.56.250",NA,NA,122.2306,122.2306,122.2306,122.5818,NA,NA,NA,NA,NA,NA,NA,TRUE,2,1.3339,119.2388,122.2305,0,8,8,60,1,50,27,NA,NA,NA,NA,NA,1,9,"likert"
"96228F9246F549218C4B276134184D44",1,"0198f77f-a999-7cd7-8e9a-3b3274d3df0b","0198f768-e4d2-711c-944b-6f03c09216de","2025-08-29_16h23.56.250",NA,NA,125.5851,125.5852,125.5853,125.9319,NA,NA,NA,NA,NA,NA,NA,TRUE,4,1.7336,122.585,125.5847,0,9,9,46,1,30,32,NA,NA,NA,NA,NA,1,10,"likert"
"96228F9246F549218C4B276134184D44",1,"0198f77f-a999-7cd7-8e9a-3b3274d3df0b","0198f768-e4d2-711c-944b-6f03c09216de","2025-08-29_16h23.56.250",NA,NA,128.9288,128.9288,128.9288,129.2805,NA,NA,NA,NA,NA,NA,NA,TRUE,5,1.2361,125.9349,128.9287,0,10,10,89,1,100,54,NA,NA,NA,NA,NA,1,11,"likert"
"96228F9246F549218C4B276134184D44",1,"0198f77f-a999-7cd7-8e9a-3b3274d3df0b","0198f768-e4d2-711c-944b-6f03c09216de","2025-08-29_16h23.56.250",NA,NA,132.2889,132.2889,132.2889,132.6247,NA,NA,NA,NA,NA,NA,NA,TRUE,4,1.5932,129.2828,132.2888,0,11,11,11,1,10,32,NA,NA,NA,NA,NA,1,12,"likert"
"96228F9246F549218C4B276134184D44",1,"0198f77f-a999-7cd7-8e9a-3b3274d3df0b","0198f768-e4d2-711c-944b-6f03c09216de","2025-08-29_16h23.56.250",NA,NA,135.6341,135.6341,135.6341,135.9788,NA,NA,NA,NA,NA,NA,NA,TRUE,3,1.5635,132.6274,135.634,0,12,12,90,1,150,31,NA,NA,NA,NA,NA,1,13,"likert"
"96228F9246F549218C4B276134184D44",1,"0198f77f-a999-7cd7-8e9a-3b3274d3df0b","0198f768-e4d2-711c-944b-6f03c09216de","2025-08-29_16h23.56.250",NA,NA,138.9842,138.9842,138.9843,139.3259,NA,NA,NA,NA,NA,NA,NA,TRUE,4,2.0256,135.9818,138.984,0,13,13,2,1,7,28,NA,NA,NA,NA,NA,1,14,"likert"
"96228F9246F549218C4B276134184D44",1,"0198f77f-a999-7cd7-8e9a-3b3274d3df0b","0198f768-e4d2-711c-944b-6f03c09216de","2025-08-29_16h23.56.250",NA,NA,142.3309,142.3309,142.3309,142.6744,NA,NA,NA,NA,NA,NA,NA,TRUE,2,1.7791,139.3286,142.3303,0,14,14,54,1,45,26,NA,NA,NA,NA,NA,1,15,"likert"
"96228F9246F549218C4B276134184D44",1,"0198f77f-a999-7cd7-8e9a-3b3274d3df0b","0198f768-e4d2-711c-944b-6f03c09216de","2025-08-29_16h23.56.250",NA,NA,145.6803,145.6803,145.6803,146.0337,NA,NA,NA,NA,NA,NA,NA,TRUE,2,1.8357,142.6776,145.6799,0,15,15,1,1,7,26,NA,NA,NA,NA,NA,1,16,"likert"
"96228F9246F549218C4B276134184D44",1,"0198f77f-a999-7cd7-8e9a-3b3274d3df0b","0198f768-e4d2-711c-944b-6f03c09216de","2025-08-29_16h23.56.250",NA,NA,149.0306,149.0306,149.0306,149.3836,NA,NA,NA,NA,NA,NA,NA,TRUE,4,2.0623,146.0366,149.0305,0,16,16,29,1,21,38,NA,NA,NA,NA,NA,1,17,"likert"
"96228F9246F549218C4B276134184D44",1,"0198f77f-a999-7cd7-8e9a-3b3274d3df0b","0198f768-e4d2-711c-944b-6f03c09216de","2025-08-29_16h23.56.250",NA,NA,152.3818,152.382,152.382,152.731,NA,NA,NA,NA,NA,NA,NA,TRUE,4,1.331,149.3842,152.3813,0,17,17,27,1,21,30,NA,NA,NA,NA,NA,1,18,"likert"
"96228F9246F549218C4B276134184D44",1,"0198f77f-a999-7cd7-8e9a-3b3274d3df0b","0198f768-e4d2-711c-944b-6f03c09216de","2025-08-29_16h23.56.250",NA,NA,155.7402,155.7402,155.7402,156.0827,NA,NA,NA,NA,NA,NA,NA,TRUE,4,1.1657,152.7317,155.7401,0,18,18,9,1,10,29,NA,NA,NA,NA,NA,1,19,"likert"
"96228F9246F549218C4B276134184D44",1,"0198f77f-a999-7cd7-8e9a-3b3274d3df0b","0198f768-e4d2-711c-944b-6f03c09216de","2025-08-29_16h23.56.250",NA,NA,159.0776,159.0776,159.0776,159.4302,NA,NA,NA,NA,NA,NA,NA,TRUE,4,1.4078,156.0853,159.0776,0,19,19,26,1,21,29,NA,NA,NA,NA,NA,1,20,"likert"
"96228F9246F549218C4B276134184D44",1,"0198f77f-a999-7cd7-8e9a-3b3274d3df0b","0198f768-e4d2-711c-944b-6f03c09216de","2025-08-29_16h23.56.250",NA,NA,162.4378,162.438,162.4381,162.778,NA,NA,NA,NA,NA,NA,NA,TRUE,5,1.1925,159.4328,162.4377,0,20,20,35,1,25,46,NA,NA,NA,NA,NA,1,21,"likert"
"96228F9246F549218C4B276134184D44",1,"0198f77f-a999-7cd7-8e9a-3b3274d3df0b","0198f768-e4d2-711c-944b-6f03c09216de","2025-08-29_16h23.56.250",NA,NA,165.7819,165.7819,165.7819,166.1314,NA,NA,NA,NA,NA,NA,NA,TRUE,5,1.3001,162.7809,165.7818,0,21,21,64,1,50,46,NA,NA,NA,NA,NA,1,22,"likert"
"96228F9246F549218C4B276134184D44",1,"0198f77f-a999-7cd7-8e9a-3b3274d3df0b","0198f768-e4d2-711c-944b-6f03c09216de","2025-08-29_16h23.56.250",NA,NA,169.1286,169.1286,169.1286,169.4806,NA,NA,NA,NA,NA,NA,NA,TRUE,2,1.5549,166.1344,169.1285,0,22,22,66,1,60,29,NA,NA,NA,NA,NA,1,23,"likert"
"96228F9246F549218C4B276134184D44",1,"0198f77f-a999-7cd7-8e9a-3b3274d3df0b","0198f768-e4d2-711c-944b-6f03c09216de","2025-08-29_16h23.56.250",NA,NA,172.4825,172.4825,172.4825,172.8284,NA,NA,NA,NA,NA,NA,NA,TRUE,2,1.7547,169.4814,172.4823,0,23,23,84,1,100,26,NA,NA,NA,NA,NA,1,24,"likert"
"96228F9246F549218C4B276134184D44",1,"0198f77f-a999-7cd7-8e9a-3b3274d3df0b","0198f768-e4d2-711c-944b-6f03c09216de","2025-08-29_16h23.56.250",NA,NA,175.8287,175.8288,175.8288,176.1732,NA,NA,NA,NA,NA,NA,NA,TRUE,1,1.2467,172.8291,175.8286,0,24,24,0,1,7,25,NA,NA,NA,NA,NA,1,25,"likert"
"96228F9246F549218C4B276134184D44",1,"0198f77f-a999-7cd7-8e9a-3b3274d3df0b","0198f768-e4d2-711c-944b-6f03c09216de","2025-08-29_16h23.56.250",NA,NA,179.1834,179.1837,179.1837,179.5295,NA,NA,NA,NA,NA,NA,NA,TRUE,4,1.5013,176.1763,179.1826,0,25,25,4,1,7,32,NA,NA,NA,NA,NA,1,26,"likert"
"96228F9246F549218C4B276134184D44",1,"0198f77f-a999-7cd7-8e9a-3b3274d3df0b","0198f768-e4d2-711c-944b-6f03c09216de","2025-08-29_16h23.56.250",NA,NA,182.5289,182.529,182.529,182.8817,NA,NA,NA,NA,NA,NA,NA,TRUE,3,1.7476,179.5308,182.5288,0,26,26,81,1,95,40,NA,NA,NA,NA,NA,1,27,"likert"
"96228F9246F549218C4B276134184D44",1,"0198f77f-a999-7cd7-8e9a-3b3274d3df0b","0198f768-e4d2-711c-944b-6f03c09216de","2025-08-29_16h23.56.250",NA,NA,185.8821,185.8822,185.8823,186.2358,NA,NA,NA,NA,NA,NA,NA,TRUE,4,2.2716,182.8852,185.8819,0,27,27,106,1,200,47,NA,NA,NA,NA,NA,1,28,"likert"
"96228F9246F549218C4B276134184D44",1,"0198f77f-a999-7cd7-8e9a-3b3274d3df0b","0198f768-e4d2-711c-944b-6f03c09216de","2025-08-29_16h23.56.250",NA,NA,189.231,189.2311,189.2311,189.5783,NA,NA,NA,NA,NA,NA,NA,TRUE,4,1.4782,186.2383,189.2308,0,28,28,17,1,12,35,NA,NA,NA,NA,NA,1,29,"likert"
"96228F9246F549218C4B276134184D44",1,"0198f77f-a999-7cd7-8e9a-3b3274d3df0b","0198f768-e4d2-711c-944b-6f03c09216de","2025-08-29_16h23.56.250",NA,NA,192.5795,192.5795,192.5795,192.9293,NA,NA,NA,NA,NA,NA,NA,TRUE,4,1.3452,189.579,192.5794,0,29,29,41,1,28,46,NA,NA,NA,NA,NA,1,30,"likert"
"96228F9246F549218C4B276134184D44",1,"0198f77f-a999-7cd7-8e9a-3b3274d3df0b","0198f768-e4d2-711c-944b-6f03c09216de","2025-08-29_16h23.56.250",NA,NA,195.9372,195.9373,195.9373,196.284,NA,NA,NA,NA,NA,NA,NA,TRUE,4,1.5,192.9321,195.937,0,30,30,80,1,95,35,NA,NA,NA,NA,NA,1,31,"likert"
"96228F9246F549218C4B276134184D44",1,"0198f77f-a999-7cd7-8e9a-3b3274d3df0b","0198f768-e4d2-711c-944b-6f03c09216de","2025-08-29_16h23.56.250",NA,NA,199.2773,199.2774,199.2775,199.6318,NA,NA,NA,NA,NA,NA,NA,TRUE,4,1.4502,196.2865,199.2765,0,31,31,37,1,28,28,NA,NA,NA,NA,NA,1,32,"likert"
"96228F9246F549218C4B276134184D44",1,"0198f77f-a999-7cd7-8e9a-3b3274d3df0b","0198f768-e4d2-711c-944b-6f03c09216de","2025-08-29_16h23.56.250",NA,NA,202.6367,202.6367,202.6367,202.9802,NA,NA,NA,NA,NA,NA,NA,TRUE,4,1.223,199.6351,202.6366,0,32,32,69,1,60,40,NA,NA,NA,NA,NA,1,33,"likert"
"96228F9246F549218C4B276134184D44",1,"0198f77f-a999-7cd7-8e9a-3b3274d3df0b","0198f768-e4d2-711c-944b-6f03c09216de","2025-08-29_16h23.56.250",NA,NA,205.9795,205.9795,205.9796,206.328,NA,NA,NA,NA,NA,NA,NA,TRUE,4,1.4315,202.9835,205.9792,0,33,33,95,1,150,54,NA,NA,NA,NA,NA,1,34,"likert"
"96228F9246F549218C4B276134184D44",1,"0198f77f-a999-7cd7-8e9a-3b3274d3df0b","0198f768-e4d2-711c-944b-6f03c09216de","2025-08-29_16h23.56.250",NA,NA,209.3279,209.3279,209.3279,209.6859,NA,NA,NA,NA,NA,NA,NA,TRUE,4,1.085,206.3288,209.3278,0,34,34,68,1,60,35,NA,NA,NA,NA,NA,1,35,"likert"
"96228F9246F549218C4B276134184D44",1,"0198f77f-a999-7cd7-8e9a-3b3274d3df0b","0198f768-e4d2-711c-944b-6f03c09216de","2025-08-29_16h23.56.250",NA,NA,212.6742,212.6743,212.6743,213.0297,NA,NA,NA,NA,NA,NA,NA,TRUE,1,1.2533,209.6887,212.6741,0,35,35,13,1,12,26,NA,NA,NA,NA,NA,1,36,"likert"
"96228F9246F549218C4B276134184D44",1,"0198f77f-a999-7cd7-8e9a-3b3274d3df0b","0198f768-e4d2-711c-944b-6f03c09216de","2025-08-29_16h23.56.250",NA,NA,216.0307,216.0308,216.0308,216.3745,NA,NA,NA,NA,NA,NA,NA,TRUE,4,1.5734,213.0303,216.03,0,36,36,44,1,30,29,NA,NA,NA,NA,NA,1,37,"likert"
"96228F9246F549218C4B276134184D44",1,"0198f77f-a999-7cd7-8e9a-3b3274d3df0b","0198f768-e4d2-711c-944b-6f03c09216de","2025-08-29_16h23.56.250",NA,NA,219.3858,219.3859,219.3859,219.7353,NA,NA,NA,NA,NA,NA,NA,TRUE,5,1.4451,216.3772,219.3857,0,37,37,65,1,50,54,NA,NA,NA,NA,NA,1,38,"likert"
"96228F9246F549218C4B276134184D44",1,"0198f77f-a999-7cd7-8e9a-3b3274d3df0b","0198f768-e4d2-711c-944b-6f03c09216de","2025-08-29_16h23.56.250",NA,NA,222.7352,222.7353,222.7353,223.077,NA,NA,NA,NA,NA,NA,NA,TRUE,4,1.9078,219.7379,222.7351,0,38,38,45,1,30,30,NA,NA,NA,NA,NA,1,39,"likert"
"96228F9246F549218C4B276134184D44",1,"0198f77f-a999-7cd7-8e9a-3b3274d3df0b","0198f768-e4d2-711c-944b-6f03c09216de","2025-08-29_16h23.56.250",NA,NA,226.082,226.082,226.082,226.4287,NA,NA,NA,NA,NA,NA,NA,TRUE,4,1.6458,223.0795,226.0815,0,39,39,56,1,45,31,NA,NA,NA,NA,NA,1,40,"likert"
"96228F9246F549218C4B276134184D44",1,"0198f77f-a999-7cd7-8e9a-3b3274d3df0b","0198f768-e4d2-711c-944b-6f03c09216de","2025-08-29_16h23.56.250",NA,NA,229.4288,229.4288,229.4288,229.7812,NA,NA,NA,NA,NA,NA,NA,TRUE,5,1.4195,226.4321,229.4287,0,40,40,53,1,40,54,NA,NA,NA,NA,NA,1,41,"likert"
"96228F9246F549218C4B276134184D44",1,"0198f77f-a999-7cd7-8e9a-3b3274d3df0b","0198f768-e4d2-711c-944b-6f03c09216de","2025-08-29_16h23.56.250",NA,NA,232.7789,232.779,232.779,233.1317,NA,NA,NA,NA,NA,NA,NA,TRUE,1,1.2486,229.7851,232.7787,0,41,41,24,1,21,26,NA,NA,NA,NA,NA,1,42,"likert"
"96228F9246F549218C4B276134184D44",1,"0198f77f-a999-7cd7-8e9a-3b3274d3df0b","0198f768-e4d2-711c-944b-6f03c09216de","2025-08-29_16h23.56.250",NA,NA,236.1293,236.1294,236.1294,236.4811,NA,NA,NA,NA,NA,NA,NA,TRUE,2,1.9003,233.1345,236.1292,0,42,42,85,1,100,31,NA,NA,NA,NA,NA,1,43,"likert"
"96228F9246F549218C4B276134184D44",1,"0198f77f-a999-7cd7-8e9a-3b3274d3df0b","0198f768-e4d2-711c-944b-6f03c09216de","2025-08-29_16h23.56.250",NA,NA,239.4853,239.4854,239.4854,239.8272,NA,NA,NA,NA,NA,NA,NA,TRUE,4,1.5082,236.4819,239.4852,0,43,43,10,1,10,30,NA,NA,NA,NA,NA,1,44,"likert"
"96228F9246F549218C4B276134184D44",1,"0198f77f-a999-7cd7-8e9a-3b3274d3df0b","0198f768-e4d2-711c-944b-6f03c09216de","2025-08-29_16h23.56.250",NA,NA,242.829,242.829,242.829,243.1734,NA,NA,NA,NA,NA,NA,NA,TRUE,4,1.2396,239.8278,242.8289,0,44,44,32,1,25,31,NA,NA,NA,NA,NA,1,45,"likert"
"96228F9246F549218C4B276134184D44",1,"0198f77f-a999-7cd7-8e9a-3b3274d3df0b","0198f768-e4d2-711c-944b-6f03c09216de","2025-08-29_16h23.56.250",NA,NA,246.1799,246.18,246.1801,246.5338,NA,NA,NA,NA,NA,NA,NA,TRUE,4,1.1275,243.176,246.1792,0,45,45,62,1,50,35,NA,NA,NA,NA,NA,1,46,"likert"
"96228F9246F549218C4B276134184D44",1,"0198f77f-a999-7cd7-8e9a-3b3274d3df0b","0198f768-e4d2-711c-944b-6f03c09216de","2025-08-29_16h23.56.250",NA,NA,249.529,249.529,249.529,249.8825,NA,NA,NA,NA,NA,NA,NA,TRUE,5,1.64,246.5369,249.5285,0,46,46,76,1,90,46,NA,NA,NA,NA,NA,1,47,"likert"
"96228F9246F549218C4B276134184D44",1,"0198f77f-a999-7cd7-8e9a-3b3274d3df0b","0198f768-e4d2-711c-944b-6f03c09216de","2025-08-29_16h23.56.250",NA,NA,252.8834,252.8835,252.8835,253.2308,NA,NA,NA,NA,NA,NA,NA,TRUE,3,1.8664,249.8832,252.883,0,47,47,55,1,45,29,NA,NA,NA,NA,NA,1,48,"likert"
"96228F9246F549218C4B276134184D44",1,"0198f77f-a999-7cd7-8e9a-3b3274d3df0b","0198f768-e4d2-711c-944b-6f03c09216de","2025-08-29_16h23.56.250",NA,NA,256.2309,256.231,256.231,256.5821,NA,NA,NA,NA,NA,NA,NA,TRUE,1,1.0978,253.2315,256.2308,0,48,48,43,1,30,27,NA,NA,NA,NA,NA,1,49,"likert"
"96228F9246F549218C4B276134184D44",1,"0198f77f-a999-7cd7-8e9a-3b3274d3df0b","0198f768-e4d2-711c-944b-6f03c09216de","2025-08-29_16h23.56.250",NA,NA,259.578,259.5782,259.5782,259.9236,NA,NA,NA,NA,NA,NA,NA,TRUE,4,1.2337,256.5847,259.5774,0,49,49,101,1,180,54,NA,NA,NA,NA,NA,1,50,"likert"
"96228F9246F549218C4B276134184D44",1,"0198f77f-a999-7cd7-8e9a-3b3274d3df0b","0198f768-e4d2-711c-944b-6f03c09216de","2025-08-29_16h23.56.250",NA,NA,262.9283,262.9284,262.9284,263.2779,NA,NA,NA,NA,NA,NA,NA,TRUE,4,1.244,259.9262,262.9276,0,50,50,58,1,45,40,NA,NA,NA,NA,NA,1,51,"likert"
"96228F9246F549218C4B276134184D44",1,"0198f77f-a999-7cd7-8e9a-3b3274d3df0b","0198f768-e4d2-711c-944b-6f03c09216de","2025-08-29_16h23.56.250",NA,NA,266.2886,266.2886,266.2886,266.6313,NA,NA,NA,NA,NA,NA,NA,TRUE,4,1.7014,263.2803,266.2885,0,51,51,99,1,180,39,NA,NA,NA,NA,NA,1,52,"likert"
"96228F9246F549218C4B276134184D44",1,"0198f77f-a999-7cd7-8e9a-3b3274d3df0b","0198f768-e4d2-711c-944b-6f03c09216de","2025-08-29_16h23.56.250",NA,NA,269.6334,269.6335,269.6335,269.9795,NA,NA,NA,NA,NA,NA,NA,TRUE,5,1.9061,266.6347,269.6333,0,52,52,47,1,30,38,NA,NA,NA,NA,NA,1,53,"likert"
"96228F9246F549218C4B276134184D44",1,"0198f77f-a999-7cd7-8e9a-3b3274d3df0b","0198f768-e4d2-711c-944b-6f03c09216de","2025-08-29_16h23.56.250",NA,NA,272.9798,272.9798,272.9798,273.326,NA,NA,NA,NA,NA,NA,NA,TRUE,5,1.0761,269.9829,272.9796,0,53,53,16,1,12,33,NA,NA,NA,NA,NA,1,54,"likert"
"96228F9246F549218C4B276134184D44",1,"0198f77f-a999-7cd7-8e9a-3b3274d3df0b","0198f768-e4d2-711c-944b-6f03c09216de","2025-08-29_16h23.56.250",NA,NA,276.3343,276.3344,276.3344,276.6803,NA,NA,NA,NA,NA,NA,NA,TRUE,5,1.3516,273.3289,276.3342,0,54,54,3,1,7,30,NA,NA,NA,NA,NA,1,55,"likert"
"96228F9246F549218C4B276134184D44",1,"0198f77f-a999-7cd7-8e9a-3b3274d3df0b","0198f768-e4d2-711c-944b-6f03c09216de","2025-08-29_16h23.56.250",NA,NA,279.6815,279.6816,279.6816,280.0342,NA,NA,NA,NA,NA,NA,NA,TRUE,5,1.3998,276.683,279.681,0,55,55,107,1,200,54,NA,NA,NA,NA,NA,1,56,"likert"
"96228F9246F549218C4B276134184D44",1,"0198f77f-a999-7cd7-8e9a-3b3274d3df0b","0198f768-e4d2-711c-944b-6f03c09216de","2025-08-29_16h23.56.250",NA,NA,283.0336,283.0337,283.0337,283.3774,NA,NA,NA,NA,NA,NA,NA,TRUE,5,1.2569,280.0367,283.0332,0,56,56,52,1,40,47,NA,NA,NA,NA,NA,1,57,"likert"
"96228F9246F549218C4B276134184D44",1,"0198f77f-a999-7cd7-8e9a-3b3274d3df0b","0198f768-e4d2-711c-944b-6f03c09216de","2025-08-29_16h23.56.250",NA,NA,286.3835,286.3836,286.3836,286.729,NA,NA,NA,NA,NA,NA,NA,TRUE,5,1.5689,283.3809,286.3827,0,57,57,23,1,14,39,NA,NA,NA,NA,NA,1,58,"likert"
"96228F9246F549218C4B276134184D44",1,"0198f77f-a999-7cd7-8e9a-3b3274d3df0b","0198f768-e4d2-711c-944b-6f03c09216de","2025-08-29_16h23.56.250",NA,NA,289.7286,289.7287,289.7288,290.0833,NA,NA,NA,NA,NA,NA,NA,TRUE,5,1.4888,286.7322,289.7283,0,58,58,67,1,60,33,NA,NA,NA,NA,NA,1,59,"likert"
"96228F9246F549218C4B276134184D44",1,"0198f77f-a999-7cd7-8e9a-3b3274d3df0b","0198f768-e4d2-711c-944b-6f03c09216de","2025-08-29_16h23.56.250",NA,NA,293.0865,293.0865,293.0865,293.4235,NA,NA,NA,NA,NA,NA,NA,TRUE,3,2.2517,290.0857,293.0863,0,59,59,105,1,200,39,NA,NA,NA,NA,NA,1,60,"likert"
"96228F9246F549218C4B276134184D44",1,"0198f77f-a999-7cd7-8e9a-3b3274d3df0b","0198f768-e4d2-711c-944b-6f03c09216de","2025-08-29_16h23.56.250",NA,NA,296.4335,296.4336,296.4336,296.7833,NA,NA,NA,NA,NA,NA,NA,TRUE,5,1.473,293.4266,296.4333,0,60,60,39,1,28,35,NA,NA,NA,NA,NA,1,61,"likert"
"96228F9246F549218C4B276134184D44",1,"0198f77f-a999-7cd7-8e9a-3b3274d3df0b","0198f768-e4d2-711c-944b-6f03c09216de","2025-08-29_16h23.56.250",NA,NA,299.7796,299.7796,299.7796,300.1332,NA,NA,NA,NA,NA,NA,NA,TRUE,4,2.12,296.7857,299.7794,0,61,61,92,1,150,35,NA,NA,NA,NA,NA,1,62,"likert"
"96228F9246F549218C4B276134184D44",1,"0198f77f-a999-7cd7-8e9a-3b3274d3df0b","0198f768-e4d2-711c-944b-6f03c09216de","2025-08-29_16h23.56.250",NA,NA,303.1265,303.1265,303.1266,303.4806,NA,NA,NA,NA,NA,NA,NA,TRUE,4,1.6586,300.1362,303.1261,0,62,62,70,1,60,47,NA,NA,NA,NA,NA,1,63,"likert"
"96228F9246F549218C4B276134184D44",1,"0198f77f-a999-7cd7-8e9a-3b3274d3df0b","0198f768-e4d2-711c-944b-6f03c09216de","2025-08-29_16h23.56.250",NA,NA,306.4801,306.4801,306.4802,306.8355,NA,NA,NA,NA,NA,NA,NA,TRUE,4,2.0285,303.4812,306.4799,0,63,63,20,1,14,28,NA,NA,NA,NA,NA,1,64,"likert"
"96228F9246F549218C4B276134184D44",1,"0198f77f-a999-7cd7-8e9a-3b3274d3df0b","0198f768-e4d2-711c-944b-6f03c09216de","2025-08-29_16h23.56.250",NA,NA,309.831,309.8311,309.8311,310.1799,NA,NA,NA,NA,NA,NA,NA,TRUE,5,1.7028,306.8377,309.8307,0,64,64,21,1,14,32,NA,NA,NA,NA,NA,1,65,"likert"
"96228F9246F549218C4B276134184D44",1,"0198f77f-a999-7cd7-8e9a-3b3274d3df0b","0198f768-e4d2-711c-944b-6f03c09216de","2025-08-29_16h23.56.250",NA,NA,313.1824,313.1825,313.1825,313.5309,NA,NA,NA,NA,NA,NA,NA,TRUE,1,2.1512,310.1828,313.182,0,65,65,8,1,10,27,NA,NA,NA,NA,NA,1,66,"likert"
"96228F9246F549218C4B276134184D44",1,"0198f77f-a999-7cd7-8e9a-3b3274d3df0b","0198f768-e4d2-711c-944b-6f03c09216de","2025-08-29_16h23.56.250",NA,NA,316.5239,316.5241,316.5241,316.8856,NA,NA,NA,NA,NA,NA,NA,TRUE,4,1.9374,313.5316,316.5236,0,66,66,98,1,180,35,NA,NA,NA,NA,NA,1,67,"likert"
"96228F9246F549218C4B276134184D44",1,"0198f77f-a999-7cd7-8e9a-3b3274d3df0b","0198f768-e4d2-711c-944b-6f03c09216de","2025-08-29_16h23.56.250",NA,NA,319.8801,319.8802,319.8802,320.235,NA,NA,NA,NA,NA,NA,NA,TRUE,1,1.6616,316.8884,319.8799,0,67,67,18,1,14,25,NA,NA,NA,NA,NA,1,68,"likert"
"96228F9246F549218C4B276134184D44",1,"0198f77f-a999-7cd7-8e9a-3b3274d3df0b","0198f768-e4d2-711c-944b-6f03c09216de","2025-08-29_16h23.56.250",NA,NA,323.2336,323.2336,323.2336,323.5734,NA,NA,NA,NA,NA,NA,NA,TRUE,5,1.438,320.2373,323.2336,0,68,68,59,1,45,46,NA,NA,NA,NA,NA,1,69,"likert"
"96228F9246F549218C4B276134184D44",1,"0198f77f-a999-7cd7-8e9a-3b3274d3df0b","0198f768-e4d2-711c-944b-6f03c09216de","2025-08-29_16h23.56.250",NA,NA,326.5835,326.5837,326.5837,326.9364,NA,NA,NA,NA,NA,NA,NA,TRUE,2,1.959,323.5755,326.5829,0,69,69,104,1,200,35,NA,NA,NA,NA,NA,1,70,"likert"
"96228F9246F549218C4B276134184D44",1,"0198f77f-a999-7cd7-8e9a-3b3274d3df0b","0198f768-e4d2-711c-944b-6f03c09216de","2025-08-29_16h23.56.250",NA,NA,329.9295,329.9296,329.9296,330.277,NA,NA,NA,NA,NA,NA,NA,TRUE,1,1.6402,326.9395,329.929,0,70,70,7,1,10,26,NA,NA,NA,NA,NA,1,71,"likert"
"96228F9246F549218C4B276134184D44",1,"0198f77f-a999-7cd7-8e9a-3b3274d3df0b","0198f768-e4d2-711c-944b-6f03c09216de","2025-08-29_16h23.56.250",NA,NA,333.2798,333.2799,333.2799,333.6341,NA,NA,NA,NA,NA,NA,NA,TRUE,4,1.442,330.2796,333.2797,0,71,71,93,1,150,40,NA,NA,NA,NA,NA,1,72,"likert"
"96228F9246F549218C4B276134184D44",1,"0198f77f-a999-7cd7-8e9a-3b3274d3df0b","0198f768-e4d2-711c-944b-6f03c09216de","2025-08-29_16h23.56.250",NA,NA,336.6312,336.6313,336.6313,336.979,NA,NA,NA,NA,NA,NA,NA,TRUE,1,1.2983,333.6365,336.6308,0,72,72,103,1,200,28,NA,NA,NA,NA,NA,1,73,"likert"
"96228F9246F549218C4B276134184D44",1,"0198f77f-a999-7cd7-8e9a-3b3274d3df0b","0198f768-e4d2-711c-944b-6f03c09216de","2025-08-29_16h23.56.250",NA,NA,339.9833,339.9835,339.9835,340.3351,NA,NA,NA,NA,NA,NA,NA,TRUE,3,2.1747,336.9823,339.9829,0,73,73,79,1,95,33,NA,NA,NA,NA,NA,1,74,"likert"
"96228F9246F549218C4B276134184D44",1,"0198f77f-a999-7cd7-8e9a-3b3274d3df0b","0198f768-e4d2-711c-944b-6f03c09216de","2025-08-29_16h23.56.250",NA,NA,343.3304,343.3304,343.3304,343.6867,NA,NA,NA,NA,NA,NA,NA,TRUE,4,1.2169,340.3359,343.3303,0,74,74,49,1,40,33,NA,NA,NA,NA,NA,1,75,"likert"
"96228F9246F549218C4B276134184D44",1,"0198f77f-a999-7cd7-8e9a-3b3274d3df0b","0198f768-e4d2-711c-944b-6f03c09216de","2025-08-29_16h23.56.250",NA,NA,346.6855,346.6856,346.6856,347.0292,NA,NA,NA,NA,NA,NA,NA,TRUE,1,0.8347,343.6891,346.6854,0,75,75,36,1,28,26,NA,NA,NA,NA,NA,1,76,"likert"
"96228F9246F549218C4B276134184D44",1,"0198f77f-a999-7cd7-8e9a-3b3274d3df0b","0198f768-e4d2-711c-944b-6f03c09216de","2025-08-29_16h23.56.250",NA,NA,350.0334,350.0336,350.0336,350.3802,NA,NA,NA,NA,NA,NA,NA,TRUE,1,1.4204,347.03,350.033,0,76,76,25,1,21,27,NA,NA,NA,NA,NA,1,77,"likert"
"96228F9246F549218C4B276134184D44",1,"0198f77f-a999-7cd7-8e9a-3b3274d3df0b","0198f768-e4d2-711c-944b-6f03c09216de","2025-08-29_16h23.56.250",NA,NA,353.3836,353.3837,353.3837,353.7359,NA,NA,NA,NA,NA,NA,NA,TRUE,4,1.1798,350.3832,353.3835,0,77,77,88,1,100,46,NA,NA,NA,NA,NA,1,78,"likert"
"96228F9246F549218C4B276134184D44",1,"0198f77f-a999-7cd7-8e9a-3b3274d3df0b","0198f768-e4d2-711c-944b-6f03c09216de","2025-08-29_16h23.56.250",NA,NA,356.7343,356.7343,356.7343,357.084,NA,NA,NA,NA,NA,NA,NA,TRUE,4,1.3462,353.7388,356.7342,0,78,78,22,1,14,35,NA,NA,NA,NA,NA,1,79,"likert"
"96228F9246F549218C4B276134184D44",1,"0198f77f-a999-7cd7-8e9a-3b3274d3df0b","0198f768-e4d2-711c-944b-6f03c09216de","2025-08-29_16h23.56.250",NA,NA,360.0805,360.0805,360.0805,360.4339,NA,NA,NA,NA,NA,NA,NA,TRUE,5,1.4345,357.0845,360.0804,0,79,79,15,1,12,31,NA,NA,NA,NA,NA,1,80,"likert"
"96228F9246F549218C4B276134184D44",1,"0198f77f-a999-7cd7-8e9a-3b3274d3df0b","0198f768-e4d2-711c-944b-6f03c09216de","2025-08-29_16h23.56.250",NA,NA,363.4285,363.4285,363.4285,363.7841,NA,NA,NA,NA,NA,NA,NA,TRUE,5,1.5244,360.4367,363.4282,0,80,80,33,1,25,33,NA,NA,NA,NA,NA,1,81,"likert"
"96228F9246F549218C4B276134184D44",1,"0198f77f-a999-7cd7-8e9a-3b3274d3df0b","0198f768-e4d2-711c-944b-6f03c09216de","2025-08-29_16h23.56.250",NA,NA,366.7885,366.7885,366.7885,367.1314,NA,NA,NA,NA,NA,NA,NA,TRUE,4,1.8569,363.7868,366.7883,0,81,81,14,1,12,28,NA,NA,NA,NA,NA,1,82,"likert"
"96228F9246F549218C4B276134184D44",1,"0198f77f-a999-7cd7-8e9a-3b3274d3df0b","0198f768-e4d2-711c-944b-6f03c09216de","2025-08-29_16h23.56.250",NA,NA,370.1371,370.1372,370.1372,370.48,NA,NA,NA,NA,NA,NA,NA,TRUE,4,1.6978,367.1341,370.137,0,82,82,51,1,40,40,NA,NA,NA,NA,NA,1,83,"likert"
"96228F9246F549218C4B276134184D44",1,"0198f77f-a999-7cd7-8e9a-3b3274d3df0b","0198f768-e4d2-711c-944b-6f03c09216de","2025-08-29_16h23.56.250",NA,NA,373.4783,373.4784,373.4784,373.8281,NA,NA,NA,NA,NA,NA,NA,TRUE,4,1.241,370.4806,373.4782,0,83,83,38,1,28,32,NA,NA,NA,NA,NA,1,84,"likert"
"96228F9246F549218C4B276134184D44",1,"0198f77f-a999-7cd7-8e9a-3b3274d3df0b","0198f768-e4d2-711c-944b-6f03c09216de","2025-08-29_16h23.56.250",NA,NA,376.8337,376.8338,376.8338,377.1791,NA,NA,NA,NA,NA,NA,NA,TRUE,1,0.87,373.829,376.8337,0,84,84,72,1,90,26,NA,NA,NA,NA,NA,1,85,"likert"
"96228F9246F549218C4B276134184D44",1,"0198f77f-a999-7cd7-8e9a-3b3274d3df0b","0198f768-e4d2-711c-944b-6f03c09216de","2025-08-29_16h23.56.250",NA,NA,380.171,380.1711,380.1712,380.531,NA,NA,NA,NA,NA,NA,NA,TRUE,5,1.3611,377.1817,380.1709,0,85,85,82,1,95,47,NA,NA,NA,NA,NA,1,86,"likert"
"96228F9246F549218C4B276134184D44",1,"0198f77f-a999-7cd7-8e9a-3b3274d3df0b","0198f768-e4d2-711c-944b-6f03c09216de","2025-08-29_16h23.56.250",NA,NA,383.5354,383.5355,383.5355,383.8794,NA,NA,NA,NA,NA,NA,NA,TRUE,1,1.066,380.5335,383.5347,0,86,86,102,1,200,26,NA,NA,NA,NA,NA,1,87,"likert"
"96228F9246F549218C4B276134184D44",1,"0198f77f-a999-7cd7-8e9a-3b3274d3df0b","0198f768-e4d2-711c-944b-6f03c09216de","2025-08-29_16h23.56.250",NA,NA,386.8816,386.8817,386.8817,387.2376,NA,NA,NA,NA,NA,NA,NA,TRUE,3,2.1128,383.883,386.8813,0,87,87,73,1,90,30,NA,NA,NA,NA,NA,1,88,"likert"
"96228F9246F549218C4B276134184D44",1,"0198f77f-a999-7cd7-8e9a-3b3274d3df0b","0198f768-e4d2-711c-944b-6f03c09216de","2025-08-29_16h23.56.250",NA,NA,390.2357,390.2358,390.2358,390.5767,NA,NA,NA,NA,NA,NA,NA,TRUE,4,1.4014,387.2398,390.2353,0,88,88,57,1,45,35,NA,NA,NA,NA,NA,1,89,"likert"
"96228F9246F549218C4B276134184D44",1,"0198f77f-a999-7cd7-8e9a-3b3274d3df0b","0198f768-e4d2-711c-944b-6f03c09216de","2025-08-29_16h23.56.250",NA,NA,393.5817,393.5818,393.5818,393.9285,NA,NA,NA,NA,NA,NA,NA,TRUE,1,1.0087,390.5775,393.5813,0,89,89,19,1,14,26,NA,NA,NA,NA,NA,1,90,"likert"
"96228F9246F549218C4B276134184D44",1,"0198f77f-a999-7cd7-8e9a-3b3274d3df0b","0198f768-e4d2-711c-944b-6f03c09216de","2025-08-29_16h23.56.250",NA,NA,396.9306,396.9306,396.9307,397.2813,NA,NA,NA,NA,NA,NA,NA,TRUE,5,1.7166,393.9314,396.9302,0,90,90,40,1,28,39,NA,NA,NA,NA,NA,1,91,"likert"
"96228F9246F549218C4B276134184D44",1,"0198f77f-a999-7cd7-8e9a-3b3274d3df0b","0198f768-e4d2-711c-944b-6f03c09216de","2025-08-29_16h23.56.250",NA,NA,400.2802,400.2802,400.2802,400.627,NA,NA,NA,NA,NA,NA,NA,TRUE,4,1.7497,397.2844,400.2801,0,91,91,5,1,7,35,NA,NA,NA,NA,NA,1,92,"likert"
"96228F9246F549218C4B276134184D44",1,"0198f77f-a999-7cd7-8e9a-3b3274d3df0b","0198f768-e4d2-711c-944b-6f03c09216de","2025-08-29_16h23.56.250",NA,NA,403.6343,403.6343,403.6343,403.9841,NA,NA,NA,NA,NA,NA,NA,TRUE,4,1.3698,400.6297,403.6342,0,92,92,75,1,90,40,NA,NA,NA,NA,NA,1,93,"likert"
"96228F9246F549218C4B276134184D44",1,"0198f77f-a999-7cd7-8e9a-3b3274d3df0b","0198f768-e4d2-711c-944b-6f03c09216de","2025-08-29_16h23.56.250",NA,NA,406.9761,406.9761,406.9762,407.322,NA,NA,NA,NA,NA,NA,NA,TRUE,2,1.9368,403.9865,406.9757,0,93,93,78,1,95,31,NA,NA,NA,NA,NA,1,94,"likert"
"96228F9246F549218C4B276134184D44",1,"0198f77f-a999-7cd7-8e9a-3b3274d3df0b","0198f768-e4d2-711c-944b-6f03c09216de","2025-08-29_16h23.56.250",NA,NA,410.3302,410.3303,410.3303,410.6797,NA,NA,NA,NA,NA,NA,NA,TRUE,1,0.9954,407.3248,410.33,0,94,94,96,1,180,27,NA,NA,NA,NA,NA,1,95,"likert"
"96228F9246F549218C4B276134184D44",1,"0198f77f-a999-7cd7-8e9a-3b3274d3df0b","0198f768-e4d2-711c-944b-6f03c09216de","2025-08-29_16h23.56.250",NA,NA,413.6859,413.686,413.686,414.0285,NA,NA,NA,NA,NA,NA,NA,TRUE,4,1.2498,410.6824,413.6853,0,95,95,50,1,40,35,NA,NA,NA,NA,NA,1,96,"likert"
"96228F9246F549218C4B276134184D44",1,"0198f77f-a999-7cd7-8e9a-3b3274d3df0b","0198f768-e4d2-711c-944b-6f03c09216de","2025-08-29_16h23.56.250",NA,NA,417.0328,417.0329,417.0329,417.3816,NA,NA,NA,NA,NA,NA,NA,TRUE,3,1.5295,414.0311,417.0327,0,96,96,91,1,150,33,NA,NA,NA,NA,NA,1,97,"likert"
"96228F9246F549218C4B276134184D44",1,"0198f77f-a999-7cd7-8e9a-3b3274d3df0b","0198f768-e4d2-711c-944b-6f03c09216de","2025-08-29_16h23.56.250",NA,NA,420.3852,420.3853,420.3854,420.7307,NA,NA,NA,NA,NA,NA,NA,TRUE,1,1.7494,417.3844,420.385,0,97,97,30,1,25,27,NA,NA,NA,NA,NA,1,98,"likert"
"96228F9246F549218C4B276134184D44",1,"0198f77f-a999-7cd7-8e9a-3b3274d3df0b","0198f768-e4d2-711c-944b-6f03c09216de","2025-08-29_16h23.56.250",NA,NA,423.7285,423.7286,423.7286,424.0808,NA,NA,NA,NA,NA,NA,NA,TRUE,1,1.0841,420.7317,423.7282,0,98,98,12,1,12,25,NA,NA,NA,NA,NA,1,99,"likert"
"96228F9246F549218C4B276134184D44",1,"0198f77f-a999-7cd7-8e9a-3b3274d3df0b","0198f768-e4d2-711c-944b-6f03c09216de","2025-08-29_16h23.56.250",NA,NA,427.0857,427.0857,427.0857,427.4368,NA,NA,NA,NA,NA,NA,NA,TRUE,4,0.9603,424.0837,427.0856,0,99,99,77,1,90,54,NA,NA,NA,NA,NA,1,100,"likert"
"96228F9246F549218C4B276134184D44",1,"0198f77f-a999-7cd7-8e9a-3b3274d3df0b","0198f768-e4d2-711c-944b-6f03c09216de","2025-08-29_16h23.56.250",NA,NA,430.4243,430.4244,430.4244,430.7843,NA,NA,NA,NA,NA,NA,NA,TRUE,1,1.192,427.4395,430.424,0,100,100,48,1,40,27,NA,NA,NA,NA,NA,1,101,"likert"
"96228F9246F549218C4B276134184D44",1,"0198f77f-a999-7cd7-8e9a-3b3274d3df0b","0198f768-e4d2-711c-944b-6f03c09216de","2025-08-29_16h23.56.250",NA,NA,433.7825,433.7825,433.7825,434.1316,NA,NA,NA,NA,NA,NA,NA,TRUE,1,0.9073,430.7869,433.7824,0,101,101,6,1,10,25,NA,NA,NA,NA,NA,1,102,"likert"
"96228F9246F549218C4B276134184D44",1,"0198f77f-a999-7cd7-8e9a-3b3274d3df0b","0198f768-e4d2-711c-944b-6f03c09216de","2025-08-29_16h23.56.250",NA,NA,437.1289,437.129,437.129,437.4742,NA,NA,NA,NA,NA,NA,NA,TRUE,1,2.0767,434.135,437.1287,0,102,102,74,1,90,33,NA,NA,NA,NA,NA,1,103,"likert"
"96228F9246F549218C4B276134184D44",1,"0198f77f-a999-7cd7-8e9a-3b3274d3df0b","0198f768-e4d2-711c-944b-6f03c09216de","2025-08-29_16h23.56.250",NA,NA,440.4802,440.4802,440.4802,440.8328,NA,NA,NA,NA,NA,NA,NA,TRUE,4,1.8684,437.4754,440.4799,0,103,103,83,1,95,54,NA,NA,NA,NA,NA,1,104,"likert"
"96228F9246F549218C4B276134184D44",1,"0198f77f-a999-7cd7-8e9a-3b3274d3df0b","0198f768-e4d2-711c-944b-6f03c09216de","2025-08-29_16h23.56.250",NA,NA,443.8333,443.8333,443.8333,444.1857,NA,NA,NA,NA,NA,NA,NA,TRUE,4,1.1052,440.8358,443.8332,0,104,104,34,1,25,35,NA,NA,NA,NA,NA,1,105,"likert"
"96228F9246F549218C4B276134184D44",1,"0198f77f-a999-7cd7-8e9a-3b3274d3df0b","0198f768-e4d2-711c-944b-6f03c09216de","2025-08-29_16h23.56.250",NA,NA,447.1808,447.1809,447.1809,447.5332,NA,NA,NA,NA,NA,NA,NA,TRUE,4,1.7801,444.1887,447.1805,0,105,105,94,1,150,47,NA,NA,NA,NA,NA,1,106,"likert"
"96228F9246F549218C4B276134184D44",1,"0198f77f-a999-7cd7-8e9a-3b3274d3df0b","0198f768-e4d2-711c-944b-6f03c09216de","2025-08-29_16h23.56.250",NA,NA,450.5334,450.5335,450.5335,450.8788,NA,NA,NA,NA,NA,NA,NA,TRUE,2,2.0207,447.5361,450.5333,0,106,106,87,1,100,39,NA,NA,NA,NA,NA,1,107,"likert"
"96228F9246F549218C4B276134184D44",1,"0198f77f-a999-7cd7-8e9a-3b3274d3df0b","0198f768-e4d2-711c-944b-6f03c09216de","2025-08-29_16h23.56.250",NA,NA,453.8751,453.8752,453.8752,454.2351,NA,NA,NA,NA,NA,NA,NA,TRUE,4,1.3557,450.8823,453.8746,0,107,107,63,1,50,40,NA,NA,NA,NA,NA,1,108,"likert"
"96228F9246F549218C4B276134184D44",1,"0198f77f-a999-7cd7-8e9a-3b3274d3df0b","0198f768-e4d2-711c-944b-6f03c09216de","2025-08-29_16h23.56.250",NA,NA,459.8233,459.8233,459.8233,460.1758,NA,NA,NA,NA,NA,NA,NA,TRUE,2,1.7577,456.8372,459.8231,NA,NA,NA,NA,NA,200,35,0,0,0,104,1,2,1,"likert"
"96228F9246F549218C4B276134184D44",1,"0198f77f-a999-7cd7-8e9a-3b3274d3df0b","0198f768-e4d2-711c-944b-6f03c09216de","2025-08-29_16h23.56.250",NA,NA,463.1703,463.1703,463.1703,463.5203,NA,NA,NA,NA,NA,NA,NA,TRUE,4,1.1056,460.1794,463.1703,NA,NA,NA,NA,NA,40,33,0,1,1,49,1,2,2,"likert"
"96228F9246F549218C4B276134184D44",1,"0198f77f-a999-7cd7-8e9a-3b3274d3df0b","0198f768-e4d2-711c-944b-6f03c09216de","2025-08-29_16h23.56.250",NA,NA,466.5292,466.5293,466.5294,466.8747,NA,NA,NA,NA,NA,NA,NA,TRUE,1,1.3986,463.523,466.5288,NA,NA,NA,NA,NA,14,26,0,2,2,19,1,2,3,"likert"
"96228F9246F549218C4B276134184D44",1,"0198f77f-a999-7cd7-8e9a-3b3274d3df0b","0198f768-e4d2-711c-944b-6f03c09216de","2025-08-29_16h23.56.250",NA,NA,469.8655,469.8655,469.8655,470.2269,NA,NA,NA,NA,NA,NA,NA,TRUE,1,0.8825,466.8778,469.8654,NA,NA,NA,NA,NA,28,26,0,3,3,36,1,2,4,"likert"
"96228F9246F549218C4B276134184D44",1,"0198f77f-a999-7cd7-8e9a-3b3274d3df0b","0198f768-e4d2-711c-944b-6f03c09216de","2025-08-29_16h23.56.250",NA,NA,473.2228,473.2228,473.2228,473.5726,NA,NA,NA,NA,NA,NA,NA,TRUE,4,1.1231,470.2302,473.2224,NA,NA,NA,NA,NA,40,35,0,4,4,50,1,2,5,"likert"
"96228F9246F549218C4B276134184D44",1,"0198f77f-a999-7cd7-8e9a-3b3274d3df0b","0198f768-e4d2-711c-944b-6f03c09216de","2025-08-29_16h23.56.250",NA,NA,476.5756,476.5757,476.5757,476.923,NA,NA,NA,NA,NA,NA,NA,TRUE,4,1.4019,473.5732,476.5752,NA,NA,NA,NA,NA,10,30,0,5,5,10,1,2,6,"likert"
"96228F9246F549218C4B276134184D44",1,"0198f77f-a999-7cd7-8e9a-3b3274d3df0b","0198f768-e4d2-711c-944b-6f03c09216de","2025-08-29_16h23.56.250",NA,NA,479.9207,479.9207,479.9208,480.27,NA,NA,NA,NA,NA,NA,NA,TRUE,1,1.4705,476.9257,479.9201,NA,NA,NA,NA,NA,25,29,0,6,6,31,1,2,7,"likert"
"96228F9246F549218C4B276134184D44",1,"0198f77f-a999-7cd7-8e9a-3b3274d3df0b","0198f768-e4d2-711c-944b-6f03c09216de","2025-08-29_16h23.56.250",NA,NA,483.2783,483.2784,483.2784,483.6301,NA,NA,NA,NA,NA,NA,NA,TRUE,4,1.072,480.2729,483.2783,NA,NA,NA,NA,NA,60,54,0,7,7,71,1,2,8,"likert"
"96228F9246F549218C4B276134184D44",1,"0198f77f-a999-7cd7-8e9a-3b3274d3df0b","0198f768-e4d2-711c-944b-6f03c09216de","2025-08-29_16h23.56.250",NA,NA,486.6238,486.6239,486.6239,486.9785,NA,NA,NA,NA,NA,NA,NA,TRUE,5,1.5979,483.6331,486.6232,NA,NA,NA,NA,NA,7,35,0,8,8,5,1,2,9,"likert"
"96228F9246F549218C4B276134184D44",1,"0198f77f-a999-7cd7-8e9a-3b3274d3df0b","0198f768-e4d2-711c-944b-6f03c09216de","2025-08-29_16h23.56.250",NA,NA,489.9656,489.9657,489.9658,490.324,NA,NA,NA,NA,NA,NA,NA,TRUE,4,1.3179,486.9812,489.9653,NA,NA,NA,NA,NA,30,38,0,9,9,47,1,2,10,"likert"
"96228F9246F549218C4B276134184D44",1,"0198f77f-a999-7cd7-8e9a-3b3274d3df0b","0198f768-e4d2-711c-944b-6f03c09216de","2025-08-29_16h23.56.250",NA,NA,493.3196,493.3196,493.3196,493.6717,NA,NA,NA,NA,NA,NA,NA,TRUE,5,1.3563,490.3268,493.3195,NA,NA,NA,NA,NA,28,46,0,10,10,41,1,2,11,"likert"
"96228F9246F549218C4B276134184D44",1,"0198f77f-a999-7cd7-8e9a-3b3274d3df0b","0198f768-e4d2-711c-944b-6f03c09216de","2025-08-29_16h23.56.250",NA,NA,496.6748,496.6748,496.6749,497.0214,NA,NA,NA,NA,NA,NA,NA,TRUE,4,1.3656,493.6745,496.6742,NA,NA,NA,NA,NA,150,54,0,11,11,95,1,2,12,"likert"
"96228F9246F549218C4B276134184D44",1,"0198f77f-a999-7cd7-8e9a-3b3274d3df0b","0198f768-e4d2-711c-944b-6f03c09216de","2025-08-29_16h23.56.250",NA,NA,500.0155,500.0155,500.0155,500.3693,NA,NA,NA,NA,NA,NA,NA,TRUE,2,1.5022,497.0255,500.0154,NA,NA,NA,NA,NA,150,35,0,12,12,92,1,2,13,"likert"
"96228F9246F549218C4B276134184D44",1,"0198f77f-a999-7cd7-8e9a-3b3274d3df0b","0198f768-e4d2-711c-944b-6f03c09216de","2025-08-29_16h23.56.250",NA,NA,503.3768,503.3768,503.3768,503.7283,NA,NA,NA,NA,NA,NA,NA,TRUE,4,0.9069,500.37,503.3767,NA,NA,NA,NA,NA,25,46,0,13,13,35,1,2,14,"likert"
"96228F9246F549218C4B276134184D44",1,"0198f77f-a999-7cd7-8e9a-3b3274d3df0b","0198f768-e4d2-711c-944b-6f03c09216de","2025-08-29_16h23.56.250",NA,NA,506.7169,506.7169,506.7169,507.0657,NA,NA,NA,NA,NA,NA,NA,TRUE,1,0.8569,503.7306,506.7167,NA,NA,NA,NA,NA,10,29,0,14,14,9,1,2,15,"likert"
"96228F9246F549218C4B276134184D44",1,"0198f77f-a999-7cd7-8e9a-3b3274d3df0b","0198f768-e4d2-711c-944b-6f03c09216de","2025-08-29_16h23.56.250",NA,NA,510.0759,510.0761,510.0761,510.4292,NA,NA,NA,NA,NA,NA,NA,TRUE,4,1.0805,507.0685,510.0756,NA,NA,NA,NA,NA,45,35,0,15,15,57,1,2,16,"likert"
"96228F9246F549218C4B276134184D44",1,"0198f77f-a999-7cd7-8e9a-3b3274d3df0b","0198f768-e4d2-711c-944b-6f03c09216de","2025-08-29_16h23.56.250",NA,NA,513.4229,513.4229,513.4229,513.7773,NA,NA,NA,NA,NA,NA,NA,TRUE,4,1.2199,510.4317,513.4225,NA,NA,NA,NA,NA,30,32,0,16,16,46,1,2,17,"likert"
"96228F9246F549218C4B276134184D44",1,"0198f77f-a999-7cd7-8e9a-3b3274d3df0b","0198f768-e4d2-711c-944b-6f03c09216de","2025-08-29_16h23.56.250",NA,NA,516.7807,516.7807,516.7807,517.1236,NA,NA,NA,NA,NA,NA,NA,TRUE,1,1.5702,513.78,516.7806,NA,NA,NA,NA,NA,90,33,0,17,17,74,1,2,18,"likert"
"96228F9246F549218C4B276134184D44",1,"0198f77f-a999-7cd7-8e9a-3b3274d3df0b","0198f768-e4d2-711c-944b-6f03c09216de","2025-08-29_16h23.56.250",NA,NA,520.1196,520.1196,520.1196,520.4708,NA,NA,NA,NA,NA,NA,NA,TRUE,4,1.1232,517.1262,520.1195,NA,NA,NA,NA,NA,100,39,0,18,18,87,1,2,19,"likert"
"96228F9246F549218C4B276134184D44",1,"0198f77f-a999-7cd7-8e9a-3b3274d3df0b","0198f768-e4d2-711c-944b-6f03c09216de","2025-08-29_16h23.56.250",NA,NA,523.4813,523.4815,523.4815,523.8272,NA,NA,NA,NA,NA,NA,NA,TRUE,1,1.3558,520.4736,523.4809,NA,NA,NA,NA,NA,40,27,0,19,19,48,1,2,20,"likert"
"96228F9246F549218C4B276134184D44",1,"0198f77f-a999-7cd7-8e9a-3b3274d3df0b","0198f768-e4d2-711c-944b-6f03c09216de","2025-08-29_16h23.56.250",NA,NA,526.817,526.817,526.817,527.173,NA,NA,NA,NA,NA,NA,NA,TRUE,2,1.4627,523.8305,526.8169,NA,NA,NA,NA,NA,95,35,0,20,20,80,1,2,21,"likert"
"96228F9246F549218C4B276134184D44",1,"0198f77f-a999-7cd7-8e9a-3b3274d3df0b","0198f768-e4d2-711c-944b-6f03c09216de","2025-08-29_16h23.56.250",NA,NA,530.1733,530.1734,530.1734,530.5271,NA,NA,NA,NA,NA,NA,NA,TRUE,4,1.2503,527.1763,530.1732,NA,NA,NA,NA,NA,45,31,0,21,21,56,1,2,22,"likert"
"96228F9246F549218C4B276134184D44",1,"0198f77f-a999-7cd7-8e9a-3b3274d3df0b","0198f768-e4d2-711c-944b-6f03c09216de","2025-08-29_16h23.56.250",NA,NA,533.5222,533.5223,533.5223,533.8719,NA,NA,NA,NA,NA,NA,NA,TRUE,4,1.201,530.5302,533.5222,NA,NA,NA,NA,NA,60,40,0,22,22,69,1,2,23,"likert"
"96228F9246F549218C4B276134184D44",1,"0198f77f-a999-7cd7-8e9a-3b3274d3df0b","0198f768-e4d2-711c-944b-6f03c09216de","2025-08-29_16h23.56.250",NA,NA,536.8681,536.8681,536.8681,537.222,NA,NA,NA,NA,NA,NA,NA,TRUE,5,1.2486,533.8728,536.8679,NA,NA,NA,NA,NA,14,32,0,23,23,21,1,2,24,"likert"
"96228F9246F549218C4B276134184D44",1,"0198f77f-a999-7cd7-8e9a-3b3274d3df0b","0198f768-e4d2-711c-944b-6f03c09216de","2025-08-29_16h23.56.250",NA,NA,540.2326,540.2326,540.2326,540.571,NA,NA,NA,NA,NA,NA,NA,TRUE,1,1.3143,537.2245,540.2325,NA,NA,NA,NA,NA,12,25,0,24,24,12,1,2,25,"likert"
"96228F9246F549218C4B276134184D44",1,"0198f77f-a999-7cd7-8e9a-3b3274d3df0b","0198f768-e4d2-711c-944b-6f03c09216de","2025-08-29_16h23.56.250",NA,NA,543.5747,543.5748,543.5748,543.9228,NA,NA,NA,NA,NA,NA,NA,TRUE,1,0.9245,540.5721,543.5743,NA,NA,NA,NA,NA,10,26,0,25,25,7,1,2,26,"likert"
"96228F9246F549218C4B276134184D44",1,"0198f77f-a999-7cd7-8e9a-3b3274d3df0b","0198f768-e4d2-711c-944b-6f03c09216de","2025-08-29_16h23.56.250",NA,NA,546.9259,546.9259,546.9259,547.271,NA,NA,NA,NA,NA,NA,NA,TRUE,4,1.0418,543.9262,546.9257,NA,NA,NA,NA,NA,50,46,0,26,26,64,1,2,27,"likert"
"96228F9246F549218C4B276134184D44",1,"0198f77f-a999-7cd7-8e9a-3b3274d3df0b","0198f768-e4d2-711c-944b-6f03c09216de","2025-08-29_16h23.56.250",NA,NA,550.2731,550.2731,550.2731,550.6243,NA,NA,NA,NA,NA,NA,NA,TRUE,4,1.4593,547.2717,550.2729,NA,NA,NA,NA,NA,90,40,0,27,27,75,1,2,28,"likert"
"96228F9246F549218C4B276134184D44",1,"0198f77f-a999-7cd7-8e9a-3b3274d3df0b","0198f768-e4d2-711c-944b-6f03c09216de","2025-08-29_16h23.56.250",NA,NA,553.6287,553.6287,553.6287,553.9769,NA,NA,NA,NA,NA,NA,NA,TRUE,4,1.7779,550.6277,553.6285,NA,NA,NA,NA,NA,90,46,0,28,28,76,1,2,29,"likert"
"96228F9246F549218C4B276134184D44",1,"0198f77f-a999-7cd7-8e9a-3b3274d3df0b","0198f768-e4d2-711c-944b-6f03c09216de","2025-08-29_16h23.56.250",NA,NA,556.9829,556.9829,556.9829,557.3206,NA,NA,NA,NA,NA,NA,NA,TRUE,4,1.9165,553.9795,556.9827,NA,NA,NA,NA,NA,180,54,0,29,29,101,1,2,30,"likert"
"96228F9246F549218C4B276134184D44",1,"0198f77f-a999-7cd7-8e9a-3b3274d3df0b","0198f768-e4d2-711c-944b-6f03c09216de","2025-08-29_16h23.56.250",NA,NA,560.3261,560.3261,560.3261,560.6746,NA,NA,NA,NA,NA,NA,NA,TRUE,1,1.9538,557.3213,560.3257,NA,NA,NA,NA,NA,60,29,0,30,30,66,1,2,31,"likert"
"96228F9246F549218C4B276134184D44",1,"0198f77f-a999-7cd7-8e9a-3b3274d3df0b","0198f768-e4d2-711c-944b-6f03c09216de","2025-08-29_16h23.56.250",NA,NA,563.6735,563.6736,563.6736,564.0205,NA,NA,NA,NA,NA,NA,NA,TRUE,1,0.8469,560.6771,563.6734,NA,NA,NA,NA,NA,90,26,0,31,31,72,1,2,32,"likert"
"96228F9246F549218C4B276134184D44",1,"0198f77f-a999-7cd7-8e9a-3b3274d3df0b","0198f768-e4d2-711c-944b-6f03c09216de","2025-08-29_16h23.56.250",NA,NA,567.0178,567.0179,567.0179,567.3742,NA,NA,NA,NA,NA,NA,NA,TRUE,1,1.5351,564.0232,567.0173,NA,NA,NA,NA,NA,50,30,0,32,32,61,1,2,33,"likert"
"96228F9246F549218C4B276134184D44",1,"0198f77f-a999-7cd7-8e9a-3b3274d3df0b","0198f768-e4d2-711c-944b-6f03c09216de","2025-08-29_16h23.56.250",NA,NA,570.3761,570.3761,570.3761,570.7243,NA,NA,NA,NA,NA,NA,NA,TRUE,1,1.763,567.378,570.376,NA,NA,NA,NA,NA,21,29,0,33,33,26,1,2,34,"likert"
"96228F9246F549218C4B276134184D44",1,"0198f77f-a999-7cd7-8e9a-3b3274d3df0b","0198f768-e4d2-711c-944b-6f03c09216de","2025-08-29_16h23.56.250",NA,NA,573.7161,573.7161,573.7161,574.0744,NA,NA,NA,NA,NA,NA,NA,TRUE,1,1.2392,570.7257,573.7157,NA,NA,NA,NA,NA,7,26,0,34,34,1,1,2,35,"likert"
"96228F9246F549218C4B276134184D44",1,"0198f77f-a999-7cd7-8e9a-3b3274d3df0b","0198f768-e4d2-711c-944b-6f03c09216de","2025-08-29_16h23.56.250",NA,NA,577.0709,577.0709,577.0709,577.4177,NA,NA,NA,NA,NA,NA,NA,TRUE,4,1.1257,574.0773,577.0707,NA,NA,NA,NA,NA,40,47,0,35,35,52,1,2,36,"likert"
"96228F9246F549218C4B276134184D44",1,"0198f77f-a999-7cd7-8e9a-3b3274d3df0b","0198f768-e4d2-711c-944b-6f03c09216de","2025-08-29_16h23.56.250",NA,NA,580.4278,580.4278,580.4278,580.7766,NA,NA,NA,NA,NA,NA,NA,TRUE,4,1.544,577.4184,580.4277,NA,NA,NA,NA,NA,100,38,0,36,36,86,1,2,37,"likert"
"96228F9246F549218C4B276134184D44",1,"0198f77f-a999-7cd7-8e9a-3b3274d3df0b","0198f768-e4d2-711c-944b-6f03c09216de","2025-08-29_16h23.56.250",NA,NA,583.7731,583.7732,583.7732,584.1237,NA,NA,NA,NA,NA,NA,NA,TRUE,4,1.2097,580.7789,583.773,NA,NA,NA,NA,NA,100,54,0,37,37,89,1,2,38,"likert"
"96228F9246F549218C4B276134184D44",1,"0198f77f-a999-7cd7-8e9a-3b3274d3df0b","0198f768-e4d2-711c-944b-6f03c09216de","2025-08-29_16h23.56.250",NA,NA,587.1311,587.1312,587.1312,587.473,NA,NA,NA,NA,NA,NA,NA,TRUE,4,0.8868,584.1261,587.1307,NA,NA,NA,NA,NA,60,47,0,38,38,70,1,2,39,"likert"
"96228F9246F549218C4B276134184D44",1,"0198f77f-a999-7cd7-8e9a-3b3274d3df0b","0198f768-e4d2-711c-944b-6f03c09216de","2025-08-29_16h23.56.250",NA,NA,590.4658,590.4659,590.4659,590.8229,NA,NA,NA,NA,NA,NA,NA,TRUE,4,1.2657,587.4735,590.4656,NA,NA,NA,NA,NA,12,31,0,39,39,15,1,2,40,"likert"
"96228F9246F549218C4B276134184D44",1,"0198f77f-a999-7cd7-8e9a-3b3274d3df0b","0198f768-e4d2-711c-944b-6f03c09216de","2025-08-29_16h23.56.250",NA,NA,593.8267,593.8268,593.8268,594.1784,NA,NA,NA,NA,NA,NA,NA,TRUE,1,1.1388,590.826,593.8266,NA,NA,NA,NA,NA,100,31,0,40,40,85,1,2,41,"likert"
"96228F9246F549218C4B276134184D44",1,"0198f77f-a999-7cd7-8e9a-3b3274d3df0b","0198f768-e4d2-711c-944b-6f03c09216de","2025-08-29_16h23.56.250",NA,NA,597.1736,597.1737,597.1737,597.5262,NA,NA,NA,NA,NA,NA,NA,TRUE,4,1.7912,594.1814,597.1734,NA,NA,NA,NA,NA,200,54,0,41,41,107,1,2,42,"likert"
"96228F9246F549218C4B276134184D44",1,"0198f77f-a999-7cd7-8e9a-3b3274d3df0b","0198f768-e4d2-711c-944b-6f03c09216de","2025-08-29_16h23.56.250",NA,NA,600.5226,600.5226,600.5226,600.8742,NA,NA,NA,NA,NA,NA,NA,TRUE,1,1.4875,597.5287,600.5225,NA,NA,NA,NA,NA,150,33,0,42,42,91,1,2,43,"likert"
"96228F9246F549218C4B276134184D44",1,"0198f77f-a999-7cd7-8e9a-3b3274d3df0b","0198f768-e4d2-711c-944b-6f03c09216de","2025-08-29_16h23.56.250",NA,NA,603.8674,603.8676,603.8676,604.221,NA,NA,NA,NA,NA,NA,NA,TRUE,1,1.0628,600.8764,603.8671,NA,NA,NA,NA,NA,14,25,0,43,43,18,1,2,44,"likert"
"96228F9246F549218C4B276134184D44",1,"0198f77f-a999-7cd7-8e9a-3b3274d3df0b","0198f768-e4d2-711c-944b-6f03c09216de","2025-08-29_16h23.56.250",NA,NA,607.2234,607.2234,607.2234,607.5692,NA,NA,NA,NA,NA,NA,NA,TRUE,4,0.8659,604.2243,607.2234,NA,NA,NA,NA,NA,7,32,0,44,44,4,1,2,45,"likert"
"96228F9246F549218C4B276134184D44",1,"0198f77f-a999-7cd7-8e9a-3b3274d3df0b","0198f768-e4d2-711c-944b-6f03c09216de","2025-08-29_16h23.56.250",NA,NA,610.5667,610.5668,610.5668,610.9223,NA,NA,NA,NA,NA,NA,NA,TRUE,1,0.7645,607.5717,610.5661,NA,NA,NA,NA,NA,14,28,0,45,45,20,1,2,46,"likert"
"96228F9246F549218C4B276134184D44",1,"0198f77f-a999-7cd7-8e9a-3b3274d3df0b","0198f768-e4d2-711c-944b-6f03c09216de","2025-08-29_16h23.56.250",NA,NA,613.9242,613.9243,613.9243,614.2786,NA,NA,NA,NA,NA,NA,NA,TRUE,4,0.8962,610.9251,613.9238,NA,NA,NA,NA,NA,45,40,0,46,46,58,1,2,47,"likert"
"96228F9246F549218C4B276134184D44",1,"0198f77f-a999-7cd7-8e9a-3b3274d3df0b","0198f768-e4d2-711c-944b-6f03c09216de","2025-08-29_16h23.56.250",NA,NA,617.2724,617.2725,617.2725,617.6233,NA,NA,NA,NA,NA,NA,NA,TRUE,4,0.9183,614.2792,617.2722,NA,NA,NA,NA,NA,40,40,0,47,47,51,1,2,48,"likert"
"96228F9246F549218C4B276134184D44",1,"0198f77f-a999-7cd7-8e9a-3b3274d3df0b","0198f768-e4d2-711c-944b-6f03c09216de","2025-08-29_16h23.56.250",NA,NA,620.6318,620.6319,620.6319,620.9713,NA,NA,NA,NA,NA,NA,NA,TRUE,4,0.9384,617.6261,620.6314,NA,NA,NA,NA,NA,25,31,0,48,48,32,1,2,49,"likert"
"96228F9246F549218C4B276134184D44",1,"0198f77f-a999-7cd7-8e9a-3b3274d3df0b","0198f768-e4d2-711c-944b-6f03c09216de","2025-08-29_16h23.56.250",NA,NA,623.9788,623.9789,623.9789,624.328,NA,NA,NA,NA,NA,NA,NA,TRUE,4,1.0494,620.9743,623.9785,NA,NA,NA,NA,NA,28,39,0,49,49,40,1,2,50,"likert"
"96228F9246F549218C4B276134184D44",1,"0198f77f-a999-7cd7-8e9a-3b3274d3df0b","0198f768-e4d2-711c-944b-6f03c09216de","2025-08-29_16h23.56.250",NA,NA,627.323,627.323,627.3231,627.6785,NA,NA,NA,NA,NA,NA,NA,TRUE,4,1.6045,624.3288,627.3223,NA,NA,NA,NA,NA,28,32,0,50,50,38,1,2,51,"likert"
"96228F9246F549218C4B276134184D44",1,"0198f77f-a999-7cd7-8e9a-3b3274d3df0b","0198f768-e4d2-711c-944b-6f03c09216de","2025-08-29_16h23.56.250",NA,NA,630.6754,630.6755,630.6755,631.0317,NA,NA,NA,NA,NA,NA,NA,TRUE,4,1.084,627.6811,630.6754,NA,NA,NA,NA,NA,50,27,0,51,51,60,1,2,52,"likert"
"96228F9246F549218C4B276134184D44",1,"0198f77f-a999-7cd7-8e9a-3b3274d3df0b","0198f768-e4d2-711c-944b-6f03c09216de","2025-08-29_16h23.56.250",NA,NA,634.0233,634.0233,634.0233,634.3773,NA,NA,NA,NA,NA,NA,NA,TRUE,1,0.9928,631.0322,634.0231,NA,NA,NA,NA,NA,95,33,0,52,52,79,1,2,53,"likert"
"96228F9246F549218C4B276134184D44",1,"0198f77f-a999-7cd7-8e9a-3b3274d3df0b","0198f768-e4d2-711c-944b-6f03c09216de","2025-08-29_16h23.56.250",NA,NA,637.3725,637.3725,637.3725,637.7212,NA,NA,NA,NA,NA,NA,NA,TRUE,4,1.272,634.3798,637.3724,NA,NA,NA,NA,NA,95,54,0,53,53,83,1,2,54,"likert"
"96228F9246F549218C4B276134184D44",1,"0198f77f-a999-7cd7-8e9a-3b3274d3df0b","0198f768-e4d2-711c-944b-6f03c09216de","2025-08-29_16h23.56.250",NA,NA,640.719,640.7191,640.7191,641.0813,NA,NA,NA,NA,NA,NA,NA,TRUE,1,1.3219,637.7245,640.7187,NA,NA,NA,NA,NA,200,39,0,54,54,105,1,2,55,"likert"
"96228F9246F549218C4B276134184D44",1,"0198f77f-a999-7cd7-8e9a-3b3274d3df0b","0198f768-e4d2-711c-944b-6f03c09216de","2025-08-29_16h23.56.250",NA,NA,644.0663,644.0664,644.0664,644.4164,NA,NA,NA,NA,NA,NA,NA,TRUE,5,1.1185,641.0841,644.066,NA,NA,NA,NA,NA,10,32,0,55,55,11,1,2,56,"likert"
"96228F9246F549218C4B276134184D44",1,"0198f77f-a999-7cd7-8e9a-3b3274d3df0b","0198f768-e4d2-711c-944b-6f03c09216de","2025-08-29_16h23.56.250",NA,NA,647.4239,647.4239,647.4239,647.7706,NA,NA,NA,NA,NA,NA,NA,TRUE,5,1.3145,644.4193,647.4238,NA,NA,NA,NA,NA,21,30,0,56,56,27,1,2,57,"likert"
"96228F9246F549218C4B276134184D44",1,"0198f77f-a999-7cd7-8e9a-3b3274d3df0b","0198f768-e4d2-711c-944b-6f03c09216de","2025-08-29_16h23.56.250",NA,NA,650.7775,650.7777,650.7777,651.1256,NA,NA,NA,NA,NA,NA,NA,TRUE,1,1.6549,647.7745,650.7771,NA,NA,NA,NA,NA,180,35,0,57,57,98,1,2,58,"likert"
"96228F9246F549218C4B276134184D44",1,"0198f77f-a999-7cd7-8e9a-3b3274d3df0b","0198f768-e4d2-711c-944b-6f03c09216de","2025-08-29_16h23.56.250",NA,NA,654.1195,654.1196,654.1196,654.4736,NA,NA,NA,NA,NA,NA,NA,TRUE,5,1.0702,651.1262,654.1194,NA,NA,NA,NA,NA,40,54,0,58,58,53,1,2,59,"likert"
"96228F9246F549218C4B276134184D44",1,"0198f77f-a999-7cd7-8e9a-3b3274d3df0b","0198f768-e4d2-711c-944b-6f03c09216de","2025-08-29_16h23.56.250",NA,NA,657.4781,657.4782,657.4782,657.8227,NA,NA,NA,NA,NA,NA,NA,TRUE,1,1.0772,654.4742,657.4777,NA,NA,NA,NA,NA,100,26,0,59,59,84,1,2,60,"likert"
"96228F9246F549218C4B276134184D44",1,"0198f77f-a999-7cd7-8e9a-3b3274d3df0b","0198f768-e4d2-711c-944b-6f03c09216de","2025-08-29_16h23.56.250",NA,NA,660.818,660.818,660.818,661.1731,NA,NA,NA,NA,NA,NA,NA,TRUE,1,1.5062,657.8261,660.8178,NA,NA,NA,NA,NA,200,28,0,60,60,103,1,2,61,"likert"
"96228F9246F549218C4B276134184D44",1,"0198f77f-a999-7cd7-8e9a-3b3274d3df0b","0198f768-e4d2-711c-944b-6f03c09216de","2025-08-29_16h23.56.250",NA,NA,664.1698,664.1699,664.1699,664.5245,NA,NA,NA,NA,NA,NA,NA,TRUE,1,1.1224,661.1758,664.1695,NA,NA,NA,NA,NA,45,26,0,61,61,54,1,2,62,"likert"
"96228F9246F549218C4B276134184D44",1,"0198f77f-a999-7cd7-8e9a-3b3274d3df0b","0198f768-e4d2-711c-944b-6f03c09216de","2025-08-29_16h23.56.250",NA,NA,667.5173,667.5173,667.5173,667.8795,NA,NA,NA,NA,NA,NA,NA,TRUE,4,1.4608,664.5275,667.5171,NA,NA,NA,NA,NA,95,40,0,62,62,81,1,2,63,"likert"
"96228F9246F549218C4B276134184D44",1,"0198f77f-a999-7cd7-8e9a-3b3274d3df0b","0198f768-e4d2-711c-944b-6f03c09216de","2025-08-29_16h23.56.250",NA,NA,670.8752,670.8753,670.8753,671.221,NA,NA,NA,NA,NA,NA,NA,TRUE,4,1.3999,667.8802,670.8751,NA,NA,NA,NA,NA,150,40,0,63,63,93,1,2,64,"likert"
"96228F9246F549218C4B276134184D44",1,"0198f77f-a999-7cd7-8e9a-3b3274d3df0b","0198f768-e4d2-711c-944b-6f03c09216de","2025-08-29_16h23.56.250",NA,NA,674.2201,674.2202,674.2202,674.5758,NA,NA,NA,NA,NA,NA,NA,TRUE,4,1.4263,671.2235,674.22,NA,NA,NA,NA,NA,200,47,0,64,64,106,1,2,65,"likert"
"96228F9246F549218C4B276134184D44",1,"0198f77f-a999-7cd7-8e9a-3b3274d3df0b","0198f768-e4d2-711c-944b-6f03c09216de","2025-08-29_16h23.56.250",NA,NA,677.5692,677.5692,677.5693,677.9241,NA,NA,NA,NA,NA,NA,NA,TRUE,5,1.228,674.5795,677.569,NA,NA,NA,NA,NA,50,54,0,65,65,65,1,2,66,"likert"
"96228F9246F549218C4B276134184D44",1,"0198f77f-a999-7cd7-8e9a-3b3274d3df0b","0198f768-e4d2-711c-944b-6f03c09216de","2025-08-29_16h23.56.250",NA,NA,680.9255,680.9256,680.9256,681.276,NA,NA,NA,NA,NA,NA,NA,TRUE,4,1.4101,677.9265,680.9254,NA,NA,NA,NA,NA,180,39,0,66,66,99,1,2,67,"likert"
"96228F9246F549218C4B276134184D44",1,"0198f77f-a999-7cd7-8e9a-3b3274d3df0b","0198f768-e4d2-711c-944b-6f03c09216de","2025-08-29_16h23.56.250",NA,NA,684.2714,684.2714,684.2714,684.6212,NA,NA,NA,NA,NA,NA,NA,TRUE,5,0.968,681.2786,684.2713,NA,NA,NA,NA,NA,12,33,0,67,67,16,1,2,68,"likert"
"96228F9246F549218C4B276134184D44",1,"0198f77f-a999-7cd7-8e9a-3b3274d3df0b","0198f768-e4d2-711c-944b-6f03c09216de","2025-08-29_16h23.56.250",NA,NA,687.6291,687.6291,687.6291,687.9725,NA,NA,NA,NA,NA,NA,NA,TRUE,4,1.3521,684.6245,687.629,NA,NA,NA,NA,NA,150,47,0,68,68,94,1,2,69,"likert"
"96228F9246F549218C4B276134184D44",1,"0198f77f-a999-7cd7-8e9a-3b3274d3df0b","0198f768-e4d2-711c-944b-6f03c09216de","2025-08-29_16h23.56.250",NA,NA,690.9762,690.9763,690.9763,691.3251,NA,NA,NA,NA,NA,NA,NA,TRUE,1,1.2995,687.9752,690.9762,NA,NA,NA,NA,NA,25,27,0,69,69,30,1,2,70,"likert"
"96228F9246F549218C4B276134184D44",1,"0198f77f-a999-7cd7-8e9a-3b3274d3df0b","0198f768-e4d2-711c-944b-6f03c09216de","2025-08-29_16h23.56.250",NA,NA,694.3235,694.3235,694.3235,694.6734,NA,NA,NA,NA,NA,NA,NA,TRUE,1,0.6262,691.3279,694.3232,NA,NA,NA,NA,NA,7,25,0,70,70,0,1,2,71,"likert"
"96228F9246F549218C4B276134184D44",1,"0198f77f-a999-7cd7-8e9a-3b3274d3df0b","0198f768-e4d2-711c-944b-6f03c09216de","2025-08-29_16h23.56.250",NA,NA,697.674,697.6741,697.6741,698.0212,NA,NA,NA,NA,NA,NA,NA,TRUE,1,1.0647,694.6764,697.6737,NA,NA,NA,NA,NA,45,29,0,71,71,55,1,2,72,"likert"
"96228F9246F549218C4B276134184D44",1,"0198f77f-a999-7cd7-8e9a-3b3274d3df0b","0198f768-e4d2-711c-944b-6f03c09216de","2025-08-29_16h23.56.250",NA,NA,701.0228,701.0228,701.0228,701.3734,NA,NA,NA,NA,NA,NA,NA,TRUE,1,0.8279,698.0238,701.0227,NA,NA,NA,NA,NA,200,26,0,72,72,102,1,2,73,"likert"
"96228F9246F549218C4B276134184D44",1,"0198f77f-a999-7cd7-8e9a-3b3274d3df0b","0198f768-e4d2-711c-944b-6f03c09216de","2025-08-29_16h23.56.250",NA,NA,704.3738,704.3739,704.3739,704.7242,NA,NA,NA,NA,NA,NA,NA,TRUE,4,1.1391,701.376,704.3734,NA,NA,NA,NA,NA,50,35,0,73,73,62,1,2,74,"likert"
"96228F9246F549218C4B276134184D44",1,"0198f77f-a999-7cd7-8e9a-3b3274d3df0b","0198f768-e4d2-711c-944b-6f03c09216de","2025-08-29_16h23.56.250",NA,NA,707.7294,707.7295,707.7295,708.0695,NA,NA,NA,NA,NA,NA,NA,TRUE,1,1.0942,704.725,707.7293,NA,NA,NA,NA,NA,28,28,0,74,74,37,1,2,75,"likert"
"96228F9246F549218C4B276134184D44",1,"0198f77f-a999-7cd7-8e9a-3b3274d3df0b","0198f768-e4d2-711c-944b-6f03c09216de","2025-08-29_16h23.56.250",NA,NA,711.081,711.0812,711.0812,711.43,NA,NA,NA,NA,NA,NA,NA,TRUE,4,1.4996,708.0722,711.0807,NA,NA,NA,NA,NA,12,26,0,75,75,13,1,2,76,"likert"
"96228F9246F549218C4B276134184D44",1,"0198f77f-a999-7cd7-8e9a-3b3274d3df0b","0198f768-e4d2-711c-944b-6f03c09216de","2025-08-29_16h23.56.250",NA,NA,714.423,714.4231,714.4231,714.7751,NA,NA,NA,NA,NA,NA,NA,TRUE,1,1.5762,711.4329,714.4228,NA,NA,NA,NA,NA,30,27,0,76,76,43,1,2,77,"likert"
"96228F9246F549218C4B276134184D44",1,"0198f77f-a999-7cd7-8e9a-3b3274d3df0b","0198f768-e4d2-711c-944b-6f03c09216de","2025-08-29_16h23.56.250",NA,NA,717.7764,717.7765,717.7765,718.1247,NA,NA,NA,NA,NA,NA,NA,TRUE,1,0.9086,714.778,717.776,NA,NA,NA,NA,NA,21,27,0,77,77,25,1,2,78,"likert"
"96228F9246F549218C4B276134184D44",1,"0198f77f-a999-7cd7-8e9a-3b3274d3df0b","0198f768-e4d2-711c-944b-6f03c09216de","2025-08-29_16h23.56.250",NA,NA,721.1225,721.1225,721.1225,721.4733,NA,NA,NA,NA,NA,NA,NA,TRUE,1,0.6258,718.1264,721.1223,NA,NA,NA,NA,NA,21,26,0,78,78,24,1,2,79,"likert"
"96228F9246F549218C4B276134184D44",1,"0198f77f-a999-7cd7-8e9a-3b3274d3df0b","0198f768-e4d2-711c-944b-6f03c09216de","2025-08-29_16h23.56.250",NA,NA,724.4666,724.4666,724.4666,724.8275,NA,NA,NA,NA,NA,NA,NA,TRUE,1,0.6937,721.4763,724.4665,NA,NA,NA,NA,NA,10,27,0,79,79,8,1,2,80,"likert"
"96228F9246F549218C4B276134184D44",1,"0198f77f-a999-7cd7-8e9a-3b3274d3df0b","0198f768-e4d2-711c-944b-6f03c09216de","2025-08-29_16h23.56.250",NA,NA,727.8162,727.8163,727.8163,728.1744,NA,NA,NA,NA,NA,NA,NA,TRUE,4,1.0585,724.8282,727.8157,NA,NA,NA,NA,NA,28,35,0,80,80,39,1,2,81,"likert"
"96228F9246F549218C4B276134184D44",1,"0198f77f-a999-7cd7-8e9a-3b3274d3df0b","0198f768-e4d2-711c-944b-6f03c09216de","2025-08-29_16h23.56.250",NA,NA,731.1746,731.1746,731.1746,731.5198,NA,NA,NA,NA,NA,NA,NA,TRUE,1,0.9317,728.1751,731.1745,NA,NA,NA,NA,NA,30,26,0,81,81,42,1,2,82,"likert"
"96228F9246F549218C4B276134184D44",1,"0198f77f-a999-7cd7-8e9a-3b3274d3df0b","0198f768-e4d2-711c-944b-6f03c09216de","2025-08-29_16h23.56.250",NA,NA,734.5224,734.5224,734.5224,734.8691,NA,NA,NA,NA,NA,NA,NA,TRUE,1,1.4661,731.5223,734.5223,NA,NA,NA,NA,NA,60,33,0,82,82,67,1,2,83,"likert"
"96228F9246F549218C4B276134184D44",1,"0198f77f-a999-7cd7-8e9a-3b3274d3df0b","0198f768-e4d2-711c-944b-6f03c09216de","2025-08-29_16h23.56.250",NA,NA,737.8758,737.8759,737.8759,738.2274,NA,NA,NA,NA,NA,NA,NA,TRUE,4,0.812,734.8697,737.8756,NA,NA,NA,NA,NA,21,38,0,83,83,29,1,2,84,"likert"
"96228F9246F549218C4B276134184D44",1,"0198f77f-a999-7cd7-8e9a-3b3274d3df0b","0198f768-e4d2-711c-944b-6f03c09216de","2025-08-29_16h23.56.250",NA,NA,741.2267,741.2267,741.2267,741.5805,NA,NA,NA,NA,NA,NA,NA,TRUE,1,1.0366,738.23,741.2266,NA,NA,NA,NA,NA,12,28,0,84,84,14,1,2,85,"likert"
"96228F9246F549218C4B276134184D44",1,"0198f77f-a999-7cd7-8e9a-3b3274d3df0b","0198f768-e4d2-711c-944b-6f03c09216de","2025-08-29_16h23.56.250",NA,NA,744.5707,744.5708,744.5708,744.9284,NA,NA,NA,NA,NA,NA,NA,TRUE,4,1.1705,741.5835,744.5706,NA,NA,NA,NA,NA,21,32,0,85,85,28,1,2,86,"likert"
"96228F9246F549218C4B276134184D44",1,"0198f77f-a999-7cd7-8e9a-3b3274d3df0b","0198f768-e4d2-711c-944b-6f03c09216de","2025-08-29_16h23.56.250",NA,NA,747.9202,747.9202,747.9202,748.2713,NA,NA,NA,NA,NA,NA,NA,TRUE,1,1.3183,744.9307,747.9197,NA,NA,NA,NA,NA,7,28,0,86,86,2,1,2,87,"likert"
"96228F9246F549218C4B276134184D44",1,"0198f77f-a999-7cd7-8e9a-3b3274d3df0b","0198f768-e4d2-711c-944b-6f03c09216de","2025-08-29_16h23.56.250",NA,NA,751.279,751.279,751.279,751.631,NA,NA,NA,NA,NA,NA,NA,TRUE,4,0.9184,748.2744,751.2789,NA,NA,NA,NA,NA,50,40,0,87,87,63,1,2,88,"likert"
"96228F9246F549218C4B276134184D44",1,"0198f77f-a999-7cd7-8e9a-3b3274d3df0b","0198f768-e4d2-711c-944b-6f03c09216de","2025-08-29_16h23.56.250",NA,NA,754.6216,754.6217,754.6217,754.9724,NA,NA,NA,NA,NA,NA,NA,TRUE,1,1.366,751.6337,754.6211,NA,NA,NA,NA,NA,150,31,0,88,88,90,1,2,89,"likert"
"96228F9246F549218C4B276134184D44",1,"0198f77f-a999-7cd7-8e9a-3b3274d3df0b","0198f768-e4d2-711c-944b-6f03c09216de","2025-08-29_16h23.56.250",NA,NA,757.9729,757.9729,757.9729,758.3265,NA,NA,NA,NA,NA,NA,NA,TRUE,4,1.2721,754.9732,757.9728,NA,NA,NA,NA,NA,25,33,0,89,89,33,1,2,90,"likert"
"96228F9246F549218C4B276134184D44",1,"0198f77f-a999-7cd7-8e9a-3b3274d3df0b","0198f768-e4d2-711c-944b-6f03c09216de","2025-08-29_16h23.56.250",NA,NA,761.3268,761.3268,761.3268,761.6722,NA,NA,NA,NA,NA,NA,NA,TRUE,4,1.3409,758.3271,761.3267,NA,NA,NA,NA,NA,12,35,0,90,90,17,1,2,91,"likert"
"96228F9246F549218C4B276134184D44",1,"0198f77f-a999-7cd7-8e9a-3b3274d3df0b","0198f768-e4d2-711c-944b-6f03c09216de","2025-08-29_16h23.56.250",NA,NA,764.6709,764.671,764.671,765.0218,NA,NA,NA,NA,NA,NA,NA,TRUE,1,1.0947,761.6749,764.6705,NA,NA,NA,NA,NA,30,29,0,91,91,44,1,2,92,"likert"
"96228F9246F549218C4B276134184D44",1,"0198f77f-a999-7cd7-8e9a-3b3274d3df0b","0198f768-e4d2-711c-944b-6f03c09216de","2025-08-29_16h23.56.250",NA,NA,768.0211,768.0211,768.0212,768.3783,NA,NA,NA,NA,NA,NA,NA,TRUE,4,0.9918,765.023,768.0207,NA,NA,NA,NA,NA,25,35,0,92,92,34,1,2,93,"likert"
"96228F9246F549218C4B276134184D44",1,"0198f77f-a999-7cd7-8e9a-3b3274d3df0b","0198f768-e4d2-711c-944b-6f03c09216de","2025-08-29_16h23.56.250",NA,NA,771.3711,771.3712,771.3712,771.7226,NA,NA,NA,NA,NA,NA,NA,TRUE,1,1.3682,768.379,771.3706,NA,NA,NA,NA,NA,10,25,0,93,93,6,1,2,94,"likert"
"96228F9246F549218C4B276134184D44",1,"0198f77f-a999-7cd7-8e9a-3b3274d3df0b","0198f768-e4d2-711c-944b-6f03c09216de","2025-08-29_16h23.56.250",NA,NA,774.7286,774.7287,774.7288,775.0703,NA,NA,NA,NA,NA,NA,NA,TRUE,5,1.8181,771.7265,774.7286,NA,NA,NA,NA,NA,7,30,0,94,94,3,1,2,95,"likert"
"96228F9246F549218C4B276134184D44",1,"0198f77f-a999-7cd7-8e9a-3b3274d3df0b","0198f768-e4d2-711c-944b-6f03c09216de","2025-08-29_16h23.56.250",NA,NA,778.0725,778.0725,778.0725,778.4176,NA,NA,NA,NA,NA,NA,NA,TRUE,4,1.8931,775.071,778.0724,NA,NA,NA,NA,NA,95,47,0,95,95,82,1,2,96,"likert"
"96228F9246F549218C4B276134184D44",1,"0198f77f-a999-7cd7-8e9a-3b3274d3df0b","0198f768-e4d2-711c-944b-6f03c09216de","2025-08-29_16h23.56.250",NA,NA,781.4252,781.4252,781.4252,781.7742,NA,NA,NA,NA,NA,NA,NA,TRUE,5,1.7763,778.4201,781.4251,NA,NA,NA,NA,NA,14,39,0,96,96,23,1,2,97,"likert"
"96228F9246F549218C4B276134184D44",1,"0198f77f-a999-7cd7-8e9a-3b3274d3df0b","0198f768-e4d2-711c-944b-6f03c09216de","2025-08-29_16h23.56.250",NA,NA,784.7767,784.7768,784.7768,785.1185,NA,NA,NA,NA,NA,NA,NA,TRUE,4,1.3896,781.7764,784.7763,NA,NA,NA,NA,NA,45,46,0,97,97,59,1,2,98,"likert"
"96228F9246F549218C4B276134184D44",1,"0198f77f-a999-7cd7-8e9a-3b3274d3df0b","0198f768-e4d2-711c-944b-6f03c09216de","2025-08-29_16h23.56.250",NA,NA,788.1224,788.1224,788.1224,788.4747,NA,NA,NA,NA,NA,NA,NA,TRUE,5,1.2344,785.1192,788.1224,NA,NA,NA,NA,NA,100,46,0,98,98,88,1,2,99,"likert"
"96228F9246F549218C4B276134184D44",1,"0198f77f-a999-7cd7-8e9a-3b3274d3df0b","0198f768-e4d2-711c-944b-6f03c09216de","2025-08-29_16h23.56.250",NA,NA,791.4786,791.4787,791.4787,791.8169,NA,NA,NA,NA,NA,NA,NA,TRUE,4,1.2962,788.4774,791.4784,NA,NA,NA,NA,NA,90,30,0,99,99,73,1,2,100,"likert"
"96228F9246F549218C4B276134184D44",1,"0198f77f-a999-7cd7-8e9a-3b3274d3df0b","0198f768-e4d2-711c-944b-6f03c09216de","2025-08-29_16h23.56.250",NA,NA,794.8248,794.8248,794.8248,795.1664,NA,NA,NA,NA,NA,NA,NA,TRUE,5,1.2966,791.82,794.8245,NA,NA,NA,NA,NA,14,35,0,100,100,22,1,2,101,"likert"
"96228F9246F549218C4B276134184D44",1,"0198f77f-a999-7cd7-8e9a-3b3274d3df0b","0198f768-e4d2-711c-944b-6f03c09216de","2025-08-29_16h23.56.250",NA,NA,798.1711,798.1711,798.1711,798.525,NA,NA,NA,NA,NA,NA,NA,TRUE,4,1.2978,795.169,798.171,NA,NA,NA,NA,NA,30,30,0,101,101,45,1,2,102,"likert"
"96228F9246F549218C4B276134184D44",1,"0198f77f-a999-7cd7-8e9a-3b3274d3df0b","0198f768-e4d2-711c-944b-6f03c09216de","2025-08-29_16h23.56.250",NA,NA,801.5228,801.5228,801.5228,801.8671,NA,NA,NA,NA,NA,NA,NA,TRUE,1,1.4254,798.5282,801.5227,NA,NA,NA,NA,NA,180,27,0,102,102,96,1,2,103,"likert"
"96228F9246F549218C4B276134184D44",1,"0198f77f-a999-7cd7-8e9a-3b3274d3df0b","0198f768-e4d2-711c-944b-6f03c09216de","2025-08-29_16h23.56.250",NA,NA,804.8751,804.8751,804.8752,805.228,NA,NA,NA,NA,NA,NA,NA,TRUE,1,1.7369,801.8702,804.8748,NA,NA,NA,NA,NA,95,31,0,103,103,78,1,2,104,"likert"
"96228F9246F549218C4B276134184D44",1,"0198f77f-a999-7cd7-8e9a-3b3274d3df0b","0198f768-e4d2-711c-944b-6f03c09216de","2025-08-29_16h23.56.250",NA,NA,808.2241,808.2241,808.2241,808.5763,NA,NA,NA,NA,NA,NA,NA,TRUE,4,2.5726,805.2303,808.224,NA,NA,NA,NA,NA,180,46,0,104,104,100,1,2,105,"likert"
"96228F9246F549218C4B276134184D44",1,"0198f77f-a999-7cd7-8e9a-3b3274d3df0b","0198f768-e4d2-711c-944b-6f03c09216de","2025-08-29_16h23.56.250",NA,NA,811.5793,811.5793,811.5793,811.9245,NA,NA,NA,NA,NA,NA,NA,TRUE,1,1.3414,808.5792,811.5792,NA,NA,NA,NA,NA,180,31,0,105,105,97,1,2,106,"likert"
"96228F9246F549218C4B276134184D44",1,"0198f77f-a999-7cd7-8e9a-3b3274d3df0b","0198f768-e4d2-711c-944b-6f03c09216de","2025-08-29_16h23.56.250",NA,NA,814.9294,814.9294,814.9294,815.2705,NA,NA,NA,NA,NA,NA,NA,TRUE,5,1.4298,811.9252,814.929,NA,NA,NA,NA,NA,90,54,0,106,106,77,1,2,107,"likert"
"96228F9246F549218C4B276134184D44",1,"0198f77f-a999-7cd7-8e9a-3b3274d3df0b","0198f768-e4d2-711c-944b-6f03c09216de","2025-08-29_16h23.56.250",NA,NA,818.2721,818.2721,818.2722,818.6263,NA,NA,NA,NA,NA,NA,NA,TRUE,4,1.7606,815.2737,818.272,NA,NA,NA,NA,NA,60,35,0,107,107,68,1,2,108,"likert"
