"participant","session","assignmentId","projectId","date","practiceTrial.started","practiceTrial.stopped","tooLate.started","tooLate.stopped","blank.started","blank.stopped","trials_pract.thisRepN","trials_pract.thisTrialN","trials_pract.thisN","trials_pract.thisIndex","trials_pract.ran","delay_pract","amount_pract","responseMade","key","rt","trial.started","trial.stopped","trials.thisRepN","trials.thisTrialN","trials.thisN","trials.thisIndex","trials.ran","delay","amount","trials_2.thisRepN","trials_2.thisTrialN","trials_2.thisN","trials_2.thisIndex","trials_2.ran","block","trial","taskType"
"97149AC2E8DA41C593B79D71CA0C1F36",1,"01990a9b-b7e4-716d-a6fd-e9aba7089a93","01990a84-c4ee-73c2-a87b-ff46a7d3dde5","2025-09-02_08h44.58.162",62.587,65.598,65.606,65.61,65.61,65.922,0,0,0,0,1,7,30,TRUE,1,2.003,NA,NA,NA,NA,NA,NA,NA,NA,NA,NA,NA,NA,NA,NA,0,1,"likert"
"97149AC2E8DA41C593B79D71CA0C1F36",1,"01990a9b-b7e4-716d-a6fd-e9aba7089a93","01990a84-c4ee-73c2-a87b-ff46a7d3dde5","2025-09-02_08h44.58.162",65.924,68.936,68.937,69.095,69.095,69.251,0,1,1,3,1,3,27,FALSE,NA,NA,NA,NA,NA,NA,NA,NA,NA,NA,NA,NA,NA,NA,NA,NA,0,2,"likert"
"97149AC2E8DA41C593B79D71CA0C1F36",1,"01990a9b-b7e4-716d-a6fd-e9aba7089a93","01990a84-c4ee-73c2-a87b-ff46a7d3dde5","2025-09-02_08h44.58.162",69.253,72.164,72.165,72.165,72.165,72.647,0,2,2,1,1,100,50,TRUE,1,1.197,NA,NA,NA,NA,NA,NA,NA,NA,NA,NA,NA,NA,NA,NA,0,3,"likert"
"97149AC2E8DA41C593B79D71CA0C1F36",1,"01990a9b-b7e4-716d-a6fd-e9aba7089a93","01990a84-c4ee-73c2-a87b-ff46a7d3dde5","2025-09-02_08h44.58.162",72.656,75.642,75.642,75.642,75.642,75.949,0,3,3,4,1,30,40,TRUE,1,1.119,NA,NA,NA,NA,NA,NA,NA,NA,NA,NA,NA,NA,NA,NA,0,4,"likert"
"97149AC2E8DA41C593B79D71CA0C1F36",1,"01990a9b-b7e4-716d-a6fd-e9aba7089a93","01990a84-c4ee-73c2-a87b-ff46a7d3dde5","2025-09-02_08h44.58.162",75.957,78.946,78.947,78.947,78.947,79.276,0,4,4,2,1,14,45,TRUE,1,2.498,NA,NA,NA,NA,NA,NA,NA,NA,NA,NA,NA,NA,NA,NA,0,5,"likert"
"97149AC2E8DA41C593B79D71CA0C1F36",1,"01990a9b-b7e4-716d-a6fd-e9aba7089a93","01990a84-c4ee-73c2-a87b-ff46a7d3dde5","2025-09-02_08h44.58.162",NA,NA,201.163,201.508,201.508,201.663,NA,NA,NA,NA,NA,NA,NA,FALSE,NA,NA,198.32,201.162,0,0,0,48,1,40,27,NA,NA,NA,NA,NA,1,1,"likert"
"97149AC2E8DA41C593B79D71CA0C1F36",1,"01990a9b-b7e4-716d-a6fd-e9aba7089a93","01990a84-c4ee-73c2-a87b-ff46a7d3dde5","2025-09-02_08h44.58.162",NA,NA,204.598,204.598,204.599,204.911,NA,NA,NA,NA,NA,NA,NA,TRUE,1,0.702,201.665,204.598,0,1,1,6,1,10,25,NA,NA,NA,NA,NA,1,2,"likert"
"97149AC2E8DA41C593B79D71CA0C1F36",1,"01990a9b-b7e4-716d-a6fd-e9aba7089a93","01990a84-c4ee-73c2-a87b-ff46a7d3dde5","2025-09-02_08h44.58.162",NA,NA,207.912,207.912,207.912,208.377,NA,NA,NA,NA,NA,NA,NA,TRUE,1,1.462,204.921,207.911,0,2,2,44,1,30,29,NA,NA,NA,NA,NA,1,3,"likert"
"97149AC2E8DA41C593B79D71CA0C1F36",1,"01990a9b-b7e4-716d-a6fd-e9aba7089a93","01990a84-c4ee-73c2-a87b-ff46a7d3dde5","2025-09-02_08h44.58.162",NA,NA,211.297,211.297,211.297,211.637,NA,NA,NA,NA,NA,NA,NA,TRUE,1,1.225,208.378,211.296,0,3,3,14,1,12,28,NA,NA,NA,NA,NA,1,4,"likert"
"97149AC2E8DA41C593B79D71CA0C1F36",1,"01990a9b-b7e4-716d-a6fd-e9aba7089a93","01990a84-c4ee-73c2-a87b-ff46a7d3dde5","2025-09-02_08h44.58.162",NA,NA,214.591,214.591,214.591,215.081,NA,NA,NA,NA,NA,NA,NA,TRUE,1,1.094,211.646,214.59,0,4,4,16,1,12,33,NA,NA,NA,NA,NA,1,5,"likert"
"97149AC2E8DA41C593B79D71CA0C1F36",1,"01990a9b-b7e4-716d-a6fd-e9aba7089a93","01990a84-c4ee-73c2-a87b-ff46a7d3dde5","2025-09-02_08h44.58.162",NA,NA,218.058,218.058,218.058,218.383,NA,NA,NA,NA,NA,NA,NA,TRUE,1,2.623,215.083,218.057,0,5,5,62,1,50,35,NA,NA,NA,NA,NA,1,6,"likert"
"97149AC2E8DA41C593B79D71CA0C1F36",1,"01990a9b-b7e4-716d-a6fd-e9aba7089a93","01990a84-c4ee-73c2-a87b-ff46a7d3dde5","2025-09-02_08h44.58.162",NA,NA,221.399,221.4,221.4,221.724,NA,NA,NA,NA,NA,NA,NA,TRUE,1,1.785,218.392,221.399,0,6,6,21,1,14,32,NA,NA,NA,NA,NA,1,7,"likert"
"97149AC2E8DA41C593B79D71CA0C1F36",1,"01990a9b-b7e4-716d-a6fd-e9aba7089a93","01990a84-c4ee-73c2-a87b-ff46a7d3dde5","2025-09-02_08h44.58.162",NA,NA,224.779,224.779,224.78,225.094,NA,NA,NA,NA,NA,NA,NA,TRUE,1,1.24,221.725,224.779,0,7,7,11,1,10,32,NA,NA,NA,NA,NA,1,8,"likert"
"97149AC2E8DA41C593B79D71CA0C1F36",1,"01990a9b-b7e4-716d-a6fd-e9aba7089a93","01990a84-c4ee-73c2-a87b-ff46a7d3dde5","2025-09-02_08h44.58.162",NA,NA,228.065,228.065,228.065,228.388,NA,NA,NA,NA,NA,NA,NA,TRUE,1,0.889,225.101,228.065,0,8,8,74,1,90,33,NA,NA,NA,NA,NA,1,9,"likert"
"97149AC2E8DA41C593B79D71CA0C1F36",1,"01990a9b-b7e4-716d-a6fd-e9aba7089a93","01990a84-c4ee-73c2-a87b-ff46a7d3dde5","2025-09-02_08h44.58.162",NA,NA,231.47,231.47,231.47,231.774,NA,NA,NA,NA,NA,NA,NA,TRUE,1,1.085,228.39,231.469,0,9,9,104,1,200,35,NA,NA,NA,NA,NA,1,10,"likert"
"97149AC2E8DA41C593B79D71CA0C1F36",1,"01990a9b-b7e4-716d-a6fd-e9aba7089a93","01990a84-c4ee-73c2-a87b-ff46a7d3dde5","2025-09-02_08h44.58.162",NA,NA,234.686,234.686,234.686,235.146,NA,NA,NA,NA,NA,NA,NA,TRUE,1,0.898,231.775,234.686,0,10,10,57,1,45,35,NA,NA,NA,NA,NA,1,11,"likert"
"97149AC2E8DA41C593B79D71CA0C1F36",1,"01990a9b-b7e4-716d-a6fd-e9aba7089a93","01990a84-c4ee-73c2-a87b-ff46a7d3dde5","2025-09-02_08h44.58.162",NA,NA,238.125,238.125,238.125,238.454,NA,NA,NA,NA,NA,NA,NA,TRUE,1,1.229,235.148,238.125,0,11,11,60,1,50,27,NA,NA,NA,NA,NA,1,12,"likert"
"97149AC2E8DA41C593B79D71CA0C1F36",1,"01990a9b-b7e4-716d-a6fd-e9aba7089a93","01990a84-c4ee-73c2-a87b-ff46a7d3dde5","2025-09-02_08h44.58.162",NA,NA,241.478,241.478,241.478,241.802,NA,NA,NA,NA,NA,NA,NA,TRUE,1,0.948,238.463,241.478,0,12,12,61,1,50,30,NA,NA,NA,NA,NA,1,13,"likert"
"97149AC2E8DA41C593B79D71CA0C1F36",1,"01990a9b-b7e4-716d-a6fd-e9aba7089a93","01990a84-c4ee-73c2-a87b-ff46a7d3dde5","2025-09-02_08h44.58.162",NA,NA,244.768,244.768,244.768,245.24,NA,NA,NA,NA,NA,NA,NA,TRUE,1,1.31,241.802,244.768,0,13,13,4,1,7,32,NA,NA,NA,NA,NA,1,14,"likert"
"97149AC2E8DA41C593B79D71CA0C1F36",1,"01990a9b-b7e4-716d-a6fd-e9aba7089a93","01990a84-c4ee-73c2-a87b-ff46a7d3dde5","2025-09-02_08h44.58.162",NA,NA,248.228,248.229,248.229,248.562,NA,NA,NA,NA,NA,NA,NA,TRUE,1,1.083,245.247,248.228,0,14,14,20,1,14,28,NA,NA,NA,NA,NA,1,15,"likert"
"97149AC2E8DA41C593B79D71CA0C1F36",1,"01990a9b-b7e4-716d-a6fd-e9aba7089a93","01990a84-c4ee-73c2-a87b-ff46a7d3dde5","2025-09-02_08h44.58.162",NA,NA,251.502,251.502,251.502,251.828,NA,NA,NA,NA,NA,NA,NA,TRUE,1,1.415,248.571,251.502,0,15,15,12,1,12,25,NA,NA,NA,NA,NA,1,16,"likert"
"97149AC2E8DA41C593B79D71CA0C1F36",1,"01990a9b-b7e4-716d-a6fd-e9aba7089a93","01990a84-c4ee-73c2-a87b-ff46a7d3dde5","2025-09-02_08h44.58.162",NA,NA,254.887,254.887,254.888,255.226,NA,NA,NA,NA,NA,NA,NA,TRUE,1,1.509,251.83,254.887,0,16,16,84,1,100,26,NA,NA,NA,NA,NA,1,17,"likert"
"97149AC2E8DA41C593B79D71CA0C1F36",1,"01990a9b-b7e4-716d-a6fd-e9aba7089a93","01990a84-c4ee-73c2-a87b-ff46a7d3dde5","2025-09-02_08h44.58.162",NA,NA,258.214,258.214,258.214,258.528,NA,NA,NA,NA,NA,NA,NA,TRUE,1,1.639,255.228,258.214,0,17,17,22,1,14,35,NA,NA,NA,NA,NA,1,18,"likert"
"97149AC2E8DA41C593B79D71CA0C1F36",1,"01990a9b-b7e4-716d-a6fd-e9aba7089a93","01990a84-c4ee-73c2-a87b-ff46a7d3dde5","2025-09-02_08h44.58.162",NA,NA,261.566,261.566,261.566,261.909,NA,NA,NA,NA,NA,NA,NA,TRUE,1,1.112,258.537,261.564,0,18,18,55,1,45,29,NA,NA,NA,NA,NA,1,19,"likert"
"97149AC2E8DA41C593B79D71CA0C1F36",1,"01990a9b-b7e4-716d-a6fd-e9aba7089a93","01990a84-c4ee-73c2-a87b-ff46a7d3dde5","2025-09-02_08h44.58.162",NA,NA,264.856,264.856,264.856,265.298,NA,NA,NA,NA,NA,NA,NA,TRUE,1,0.944,261.911,264.855,0,19,19,50,1,40,35,NA,NA,NA,NA,NA,1,20,"likert"
"97149AC2E8DA41C593B79D71CA0C1F36",1,"01990a9b-b7e4-716d-a6fd-e9aba7089a93","01990a84-c4ee-73c2-a87b-ff46a7d3dde5","2025-09-02_08h44.58.162",NA,NA,268.195,268.195,268.195,268.677,NA,NA,NA,NA,NA,NA,NA,TRUE,1,0.18,265.306,268.195,0,20,20,15,1,12,31,NA,NA,NA,NA,NA,1,21,"likert"
"97149AC2E8DA41C593B79D71CA0C1F36",1,"01990a9b-b7e4-716d-a6fd-e9aba7089a93","01990a84-c4ee-73c2-a87b-ff46a7d3dde5","2025-09-02_08h44.58.162",NA,NA,271.654,271.654,271.654,271.991,NA,NA,NA,NA,NA,NA,NA,TRUE,1,0.731,268.685,271.653,0,21,21,38,1,28,32,NA,NA,NA,NA,NA,1,22,"likert"
"97149AC2E8DA41C593B79D71CA0C1F36",1,"01990a9b-b7e4-716d-a6fd-e9aba7089a93","01990a84-c4ee-73c2-a87b-ff46a7d3dde5","2025-09-02_08h44.58.162",NA,NA,274.914,274.914,274.914,275.369,NA,NA,NA,NA,NA,NA,NA,TRUE,1,0.904,271.991,274.914,0,22,22,68,1,60,35,NA,NA,NA,NA,NA,1,23,"likert"
"97149AC2E8DA41C593B79D71CA0C1F36",1,"01990a9b-b7e4-716d-a6fd-e9aba7089a93","01990a84-c4ee-73c2-a87b-ff46a7d3dde5","2025-09-02_08h44.58.162",NA,NA,278.352,278.353,278.353,278.657,NA,NA,NA,NA,NA,NA,NA,TRUE,1,0.715,275.377,278.352,0,23,23,46,1,30,32,NA,NA,NA,NA,NA,1,24,"likert"
"97149AC2E8DA41C593B79D71CA0C1F36",1,"01990a9b-b7e4-716d-a6fd-e9aba7089a93","01990a84-c4ee-73c2-a87b-ff46a7d3dde5","2025-09-02_08h44.58.162",NA,NA,281.614,281.614,281.614,282.097,NA,NA,NA,NA,NA,NA,NA,TRUE,1,1.039,278.659,281.613,0,24,24,23,1,14,39,NA,NA,NA,NA,NA,1,25,"likert"
"97149AC2E8DA41C593B79D71CA0C1F36",1,"01990a9b-b7e4-716d-a6fd-e9aba7089a93","01990a84-c4ee-73c2-a87b-ff46a7d3dde5","2025-09-02_08h44.58.162",NA,NA,284.915,284.915,284.915,285.387,NA,NA,NA,NA,NA,NA,NA,TRUE,1,0.877,282.107,284.915,0,25,25,35,1,25,46,NA,NA,NA,NA,NA,1,26,"likert"
"97149AC2E8DA41C593B79D71CA0C1F36",1,"01990a9b-b7e4-716d-a6fd-e9aba7089a93","01990a84-c4ee-73c2-a87b-ff46a7d3dde5","2025-09-02_08h44.58.162",NA,NA,288.31,288.31,288.31,288.744,NA,NA,NA,NA,NA,NA,NA,TRUE,1,1.259,285.389,288.31,0,26,26,82,1,95,47,NA,NA,NA,NA,NA,1,27,"likert"
"97149AC2E8DA41C593B79D71CA0C1F36",1,"01990a9b-b7e4-716d-a6fd-e9aba7089a93","01990a84-c4ee-73c2-a87b-ff46a7d3dde5","2025-09-02_08h44.58.162",NA,NA,291.767,291.767,291.767,292.092,NA,NA,NA,NA,NA,NA,NA,TRUE,1,1.068,288.752,291.767,0,27,27,94,1,150,47,NA,NA,NA,NA,NA,1,28,"likert"
"97149AC2E8DA41C593B79D71CA0C1F36",1,"01990a9b-b7e4-716d-a6fd-e9aba7089a93","01990a84-c4ee-73c2-a87b-ff46a7d3dde5","2025-09-02_08h44.58.162",NA,NA,295.055,295.055,295.055,295.387,NA,NA,NA,NA,NA,NA,NA,TRUE,1,0.725,292.093,295.054,0,28,28,98,1,180,35,NA,NA,NA,NA,NA,1,29,"likert"
"97149AC2E8DA41C593B79D71CA0C1F36",1,"01990a9b-b7e4-716d-a6fd-e9aba7089a93","01990a84-c4ee-73c2-a87b-ff46a7d3dde5","2025-09-02_08h44.58.162",NA,NA,298.463,298.463,298.463,298.82,NA,NA,NA,NA,NA,NA,NA,TRUE,1,0.963,295.395,298.462,0,29,29,8,1,10,27,NA,NA,NA,NA,NA,1,30,"likert"
"97149AC2E8DA41C593B79D71CA0C1F36",1,"01990a9b-b7e4-716d-a6fd-e9aba7089a93","01990a84-c4ee-73c2-a87b-ff46a7d3dde5","2025-09-02_08h44.58.162",NA,NA,301.667,301.667,301.667,302.148,NA,NA,NA,NA,NA,NA,NA,TRUE,1,1.455,298.822,301.667,0,30,30,26,1,21,29,NA,NA,NA,NA,NA,1,31,"likert"
"97149AC2E8DA41C593B79D71CA0C1F36",1,"01990a9b-b7e4-716d-a6fd-e9aba7089a93","01990a84-c4ee-73c2-a87b-ff46a7d3dde5","2025-09-02_08h44.58.162",NA,NA,305.115,305.115,305.115,305.432,NA,NA,NA,NA,NA,NA,NA,TRUE,1,0.425,302.157,305.114,0,31,31,31,1,25,29,NA,NA,NA,NA,NA,1,32,"likert"
"97149AC2E8DA41C593B79D71CA0C1F36",1,"01990a9b-b7e4-716d-a6fd-e9aba7089a93","01990a84-c4ee-73c2-a87b-ff46a7d3dde5","2025-09-02_08h44.58.162",NA,NA,308.383,308.383,308.383,308.856,NA,NA,NA,NA,NA,NA,NA,TRUE,1,0.709,305.442,308.383,0,32,32,65,1,50,54,NA,NA,NA,NA,NA,1,33,"likert"
"97149AC2E8DA41C593B79D71CA0C1F36",1,"01990a9b-b7e4-716d-a6fd-e9aba7089a93","01990a84-c4ee-73c2-a87b-ff46a7d3dde5","2025-09-02_08h44.58.162",NA,NA,311.762,311.762,311.762,312.238,NA,NA,NA,NA,NA,NA,NA,TRUE,1,0.719,308.857,311.761,0,33,33,107,1,200,54,NA,NA,NA,NA,NA,1,34,"likert"
"97149AC2E8DA41C593B79D71CA0C1F36",1,"01990a9b-b7e4-716d-a6fd-e9aba7089a93","01990a84-c4ee-73c2-a87b-ff46a7d3dde5","2025-09-02_08h44.58.162",NA,NA,315.114,315.114,315.114,315.598,NA,NA,NA,NA,NA,NA,NA,TRUE,1,1.209,312.247,315.114,0,34,34,13,1,12,26,NA,NA,NA,NA,NA,1,35,"likert"
"97149AC2E8DA41C593B79D71CA0C1F36",1,"01990a9b-b7e4-716d-a6fd-e9aba7089a93","01990a84-c4ee-73c2-a87b-ff46a7d3dde5","2025-09-02_08h44.58.162",NA,NA,318.451,318.451,318.451,318.936,NA,NA,NA,NA,NA,NA,NA,TRUE,1,0.902,315.599,318.451,0,35,35,88,1,100,46,NA,NA,NA,NA,NA,1,36,"likert"
"97149AC2E8DA41C593B79D71CA0C1F36",1,"01990a9b-b7e4-716d-a6fd-e9aba7089a93","01990a84-c4ee-73c2-a87b-ff46a7d3dde5","2025-09-02_08h44.58.162",NA,NA,321.784,321.784,321.784,322.257,NA,NA,NA,NA,NA,NA,NA,TRUE,1,0.872,318.944,321.783,0,36,36,43,1,30,27,NA,NA,NA,NA,NA,1,37,"likert"
"97149AC2E8DA41C593B79D71CA0C1F36",1,"01990a9b-b7e4-716d-a6fd-e9aba7089a93","01990a84-c4ee-73c2-a87b-ff46a7d3dde5","2025-09-02_08h44.58.162",NA,NA,325.236,325.236,325.236,325.538,NA,NA,NA,NA,NA,NA,NA,TRUE,1,1.256,322.258,325.236,0,37,37,59,1,45,46,NA,NA,NA,NA,NA,1,38,"likert"
"97149AC2E8DA41C593B79D71CA0C1F36",1,"01990a9b-b7e4-716d-a6fd-e9aba7089a93","01990a84-c4ee-73c2-a87b-ff46a7d3dde5","2025-09-02_08h44.58.162",NA,NA,328.632,328.632,328.632,328.947,NA,NA,NA,NA,NA,NA,NA,TRUE,1,0.863,325.545,328.632,0,38,38,95,1,150,54,NA,NA,NA,NA,NA,1,39,"likert"
"97149AC2E8DA41C593B79D71CA0C1F36",1,"01990a9b-b7e4-716d-a6fd-e9aba7089a93","01990a84-c4ee-73c2-a87b-ff46a7d3dde5","2025-09-02_08h44.58.162",NA,NA,331.902,331.902,331.902,332.212,NA,NA,NA,NA,NA,NA,NA,TRUE,1,1.099,328.949,331.902,0,39,39,66,1,60,29,NA,NA,NA,NA,NA,1,40,"likert"
"97149AC2E8DA41C593B79D71CA0C1F36",1,"01990a9b-b7e4-716d-a6fd-e9aba7089a93","01990a84-c4ee-73c2-a87b-ff46a7d3dde5","2025-09-02_08h44.58.162",NA,NA,335.326,335.326,335.326,335.721,NA,NA,NA,NA,NA,NA,NA,TRUE,1,1.194,332.22,335.326,0,40,40,18,1,14,25,NA,NA,NA,NA,NA,1,41,"likert"
"97149AC2E8DA41C593B79D71CA0C1F36",1,"01990a9b-b7e4-716d-a6fd-e9aba7089a93","01990a84-c4ee-73c2-a87b-ff46a7d3dde5","2025-09-02_08h44.58.162",NA,NA,338.609,338.609,338.609,338.94,NA,NA,NA,NA,NA,NA,NA,TRUE,1,0.997,335.722,338.608,0,41,41,3,1,7,30,NA,NA,NA,NA,NA,1,42,"likert"
"97149AC2E8DA41C593B79D71CA0C1F36",1,"01990a9b-b7e4-716d-a6fd-e9aba7089a93","01990a84-c4ee-73c2-a87b-ff46a7d3dde5","2025-09-02_08h44.58.162",NA,NA,341.922,341.922,341.922,342.4,NA,NA,NA,NA,NA,NA,NA,TRUE,1,1.433,338.949,341.922,0,42,42,49,1,40,33,NA,NA,NA,NA,NA,1,43,"likert"
"97149AC2E8DA41C593B79D71CA0C1F36",1,"01990a9b-b7e4-716d-a6fd-e9aba7089a93","01990a84-c4ee-73c2-a87b-ff46a7d3dde5","2025-09-02_08h44.58.162",NA,NA,345.308,345.308,345.308,345.614,NA,NA,NA,NA,NA,NA,NA,TRUE,1,0.903,342.401,345.307,0,43,43,90,1,150,31,NA,NA,NA,NA,NA,1,44,"likert"
"97149AC2E8DA41C593B79D71CA0C1F36",1,"01990a9b-b7e4-716d-a6fd-e9aba7089a93","01990a84-c4ee-73c2-a87b-ff46a7d3dde5","2025-09-02_08h44.58.162",NA,NA,348.741,348.741,348.741,349.048,NA,NA,NA,NA,NA,NA,NA,TRUE,1,2.263,345.622,348.741,0,44,44,52,1,40,47,NA,NA,NA,NA,NA,1,45,"likert"
"97149AC2E8DA41C593B79D71CA0C1F36",1,"01990a9b-b7e4-716d-a6fd-e9aba7089a93","01990a84-c4ee-73c2-a87b-ff46a7d3dde5","2025-09-02_08h44.58.162",NA,NA,351.987,351.987,351.987,352.304,NA,NA,NA,NA,NA,NA,NA,TRUE,1,1.223,349.05,351.986,0,45,45,19,1,14,26,NA,NA,NA,NA,NA,1,46,"likert"
"97149AC2E8DA41C593B79D71CA0C1F36",1,"01990a9b-b7e4-716d-a6fd-e9aba7089a93","01990a84-c4ee-73c2-a87b-ff46a7d3dde5","2025-09-02_08h44.58.162",NA,NA,355.444,355.444,355.444,355.767,NA,NA,NA,NA,NA,NA,NA,TRUE,1,1.065,352.312,355.444,0,46,46,92,1,150,35,NA,NA,NA,NA,NA,1,47,"likert"
"97149AC2E8DA41C593B79D71CA0C1F36",1,"01990a9b-b7e4-716d-a6fd-e9aba7089a93","01990a84-c4ee-73c2-a87b-ff46a7d3dde5","2025-09-02_08h44.58.162",NA,NA,358.809,358.809,358.809,359.162,NA,NA,NA,NA,NA,NA,NA,TRUE,1,0.009,355.769,358.808,0,47,47,81,1,95,40,NA,NA,NA,NA,NA,1,48,"likert"
"97149AC2E8DA41C593B79D71CA0C1F36",1,"01990a9b-b7e4-716d-a6fd-e9aba7089a93","01990a84-c4ee-73c2-a87b-ff46a7d3dde5","2025-09-02_08h44.58.162",NA,NA,362.117,362.118,362.118,362.443,NA,NA,NA,NA,NA,NA,NA,TRUE,1,0.86,359.171,362.117,0,48,48,63,1,50,40,NA,NA,NA,NA,NA,1,49,"likert"
"97149AC2E8DA41C593B79D71CA0C1F36",1,"01990a9b-b7e4-716d-a6fd-e9aba7089a93","01990a84-c4ee-73c2-a87b-ff46a7d3dde5","2025-09-02_08h44.58.162",NA,NA,365.298,365.298,365.298,365.757,NA,NA,NA,NA,NA,NA,NA,TRUE,1,0.872,362.445,365.298,0,49,49,30,1,25,27,NA,NA,NA,NA,NA,1,50,"likert"
"97149AC2E8DA41C593B79D71CA0C1F36",1,"01990a9b-b7e4-716d-a6fd-e9aba7089a93","01990a84-c4ee-73c2-a87b-ff46a7d3dde5","2025-09-02_08h44.58.162",NA,NA,368.68,368.68,368.68,369.235,NA,NA,NA,NA,NA,NA,NA,TRUE,1,0.18,365.765,368.68,0,50,50,78,1,95,31,NA,NA,NA,NA,NA,1,51,"likert"
"97149AC2E8DA41C593B79D71CA0C1F36",1,"01990a9b-b7e4-716d-a6fd-e9aba7089a93","01990a84-c4ee-73c2-a87b-ff46a7d3dde5","2025-09-02_08h44.58.162",NA,NA,372.057,372.404,372.404,372.404,NA,NA,NA,NA,NA,NA,NA,FALSE,NA,NA,369.237,372.056,0,51,51,73,1,90,30,NA,NA,NA,NA,NA,1,52,"likert"
"97149AC2E8DA41C593B79D71CA0C1F36",1,"01990a9b-b7e4-716d-a6fd-e9aba7089a93","01990a84-c4ee-73c2-a87b-ff46a7d3dde5","2025-09-02_08h44.58.162",NA,NA,375.398,375.398,375.398,375.98,NA,NA,NA,NA,NA,NA,NA,TRUE,1,2.095,372.411,375.397,0,52,52,71,1,60,54,NA,NA,NA,NA,NA,1,53,"likert"
"97149AC2E8DA41C593B79D71CA0C1F36",1,"01990a9b-b7e4-716d-a6fd-e9aba7089a93","01990a84-c4ee-73c2-a87b-ff46a7d3dde5","2025-09-02_08h44.58.162",NA,NA,378.767,378.767,378.767,379.243,NA,NA,NA,NA,NA,NA,NA,TRUE,1,0.924,375.981,378.767,0,53,53,80,1,95,35,NA,NA,NA,NA,NA,1,54,"likert"
"97149AC2E8DA41C593B79D71CA0C1F36",1,"01990a9b-b7e4-716d-a6fd-e9aba7089a93","01990a84-c4ee-73c2-a87b-ff46a7d3dde5","2025-09-02_08h44.58.162",NA,NA,382.236,382.399,382.399,382.564,NA,NA,NA,NA,NA,NA,NA,FALSE,NA,NA,379.252,382.236,0,54,54,79,1,95,33,NA,NA,NA,NA,NA,1,55,"likert"
"97149AC2E8DA41C593B79D71CA0C1F36",1,"01990a9b-b7e4-716d-a6fd-e9aba7089a93","01990a84-c4ee-73c2-a87b-ff46a7d3dde5","2025-09-02_08h44.58.162",NA,NA,385.47,385.8,385.8,385.8,NA,NA,NA,NA,NA,NA,NA,FALSE,NA,NA,382.565,385.469,0,55,55,53,1,40,54,NA,NA,NA,NA,NA,1,56,"likert"
"97149AC2E8DA41C593B79D71CA0C1F36",1,"01990a9b-b7e4-716d-a6fd-e9aba7089a93","01990a84-c4ee-73c2-a87b-ff46a7d3dde5","2025-09-02_08h44.58.162",NA,NA,388.925,388.925,388.925,389.235,NA,NA,NA,NA,NA,NA,NA,TRUE,1,1.08,385.809,388.925,0,56,56,37,1,28,28,NA,NA,NA,NA,NA,1,57,"likert"
"97149AC2E8DA41C593B79D71CA0C1F36",1,"01990a9b-b7e4-716d-a6fd-e9aba7089a93","01990a84-c4ee-73c2-a87b-ff46a7d3dde5","2025-09-02_08h44.58.162",NA,NA,392.237,392.237,392.237,392.548,NA,NA,NA,NA,NA,NA,NA,TRUE,1,0.912,389.236,392.237,0,57,57,72,1,90,26,NA,NA,NA,NA,NA,1,58,"likert"
"97149AC2E8DA41C593B79D71CA0C1F36",1,"01990a9b-b7e4-716d-a6fd-e9aba7089a93","01990a84-c4ee-73c2-a87b-ff46a7d3dde5","2025-09-02_08h44.58.162",NA,NA,395.521,395.521,395.521,395.984,NA,NA,NA,NA,NA,NA,NA,TRUE,1,1.045,392.556,395.521,0,58,58,0,1,7,25,NA,NA,NA,NA,NA,1,59,"likert"
"97149AC2E8DA41C593B79D71CA0C1F36",1,"01990a9b-b7e4-716d-a6fd-e9aba7089a93","01990a84-c4ee-73c2-a87b-ff46a7d3dde5","2025-09-02_08h44.58.162",NA,NA,398.863,398.863,398.863,399.345,NA,NA,NA,NA,NA,NA,NA,TRUE,1,2.605,395.985,398.862,0,59,59,99,1,180,39,NA,NA,NA,NA,NA,1,60,"likert"
"97149AC2E8DA41C593B79D71CA0C1F36",1,"01990a9b-b7e4-716d-a6fd-e9aba7089a93","01990a84-c4ee-73c2-a87b-ff46a7d3dde5","2025-09-02_08h44.58.162",NA,NA,402.237,402.237,402.237,402.572,NA,NA,NA,NA,NA,NA,NA,TRUE,1,1.142,399.353,402.236,0,60,60,77,1,90,54,NA,NA,NA,NA,NA,1,61,"likert"
"97149AC2E8DA41C593B79D71CA0C1F36",1,"01990a9b-b7e4-716d-a6fd-e9aba7089a93","01990a84-c4ee-73c2-a87b-ff46a7d3dde5","2025-09-02_08h44.58.162",NA,NA,405.547,405.547,405.547,406.045,NA,NA,NA,NA,NA,NA,NA,TRUE,1,0.944,402.573,405.546,0,61,61,56,1,45,31,NA,NA,NA,NA,NA,1,62,"likert"
"97149AC2E8DA41C593B79D71CA0C1F36",1,"01990a9b-b7e4-716d-a6fd-e9aba7089a93","01990a84-c4ee-73c2-a87b-ff46a7d3dde5","2025-09-02_08h44.58.162",NA,NA,408.971,408.971,408.971,409.313,NA,NA,NA,NA,NA,NA,NA,TRUE,1,0.537,406.054,408.97,0,62,62,85,1,100,31,NA,NA,NA,NA,NA,1,63,"likert"
"97149AC2E8DA41C593B79D71CA0C1F36",1,"01990a9b-b7e4-716d-a6fd-e9aba7089a93","01990a84-c4ee-73c2-a87b-ff46a7d3dde5","2025-09-02_08h44.58.162",NA,NA,412.355,412.355,412.355,412.69,NA,NA,NA,NA,NA,NA,NA,TRUE,1,1.019,409.322,412.354,0,63,63,32,1,25,31,NA,NA,NA,NA,NA,1,64,"likert"
"97149AC2E8DA41C593B79D71CA0C1F36",1,"01990a9b-b7e4-716d-a6fd-e9aba7089a93","01990a84-c4ee-73c2-a87b-ff46a7d3dde5","2025-09-02_08h44.58.162",NA,NA,415.628,415.628,415.628,415.947,NA,NA,NA,NA,NA,NA,NA,TRUE,1,0.868,412.692,415.628,0,64,64,1,1,7,26,NA,NA,NA,NA,NA,1,65,"likert"
"97149AC2E8DA41C593B79D71CA0C1F36",1,"01990a9b-b7e4-716d-a6fd-e9aba7089a93","01990a84-c4ee-73c2-a87b-ff46a7d3dde5","2025-09-02_08h44.58.162",NA,NA,419.04,419.04,419.04,419.379,NA,NA,NA,NA,NA,NA,NA,TRUE,1,0.189,415.955,419.04,0,65,65,86,1,100,38,NA,NA,NA,NA,NA,1,66,"likert"
"97149AC2E8DA41C593B79D71CA0C1F36",1,"01990a9b-b7e4-716d-a6fd-e9aba7089a93","01990a84-c4ee-73c2-a87b-ff46a7d3dde5","2025-09-02_08h44.58.162",NA,NA,422.327,422.327,422.328,422.66,NA,NA,NA,NA,NA,NA,NA,TRUE,1,0.538,419.38,422.327,0,66,66,39,1,28,35,NA,NA,NA,NA,NA,1,67,"likert"
"97149AC2E8DA41C593B79D71CA0C1F36",1,"01990a9b-b7e4-716d-a6fd-e9aba7089a93","01990a84-c4ee-73c2-a87b-ff46a7d3dde5","2025-09-02_08h44.58.162",NA,NA,425.754,425.754,425.754,426.079,NA,NA,NA,NA,NA,NA,NA,TRUE,1,2.615,422.662,425.753,0,67,67,106,1,200,47,NA,NA,NA,NA,NA,1,68,"likert"
"97149AC2E8DA41C593B79D71CA0C1F36",1,"01990a9b-b7e4-716d-a6fd-e9aba7089a93","01990a84-c4ee-73c2-a87b-ff46a7d3dde5","2025-09-02_08h44.58.162",NA,NA,429.005,429.005,429.005,429.466,NA,NA,NA,NA,NA,NA,NA,TRUE,1,0.903,426.081,429.005,0,68,68,17,1,12,35,NA,NA,NA,NA,NA,1,69,"likert"
"97149AC2E8DA41C593B79D71CA0C1F36",1,"01990a9b-b7e4-716d-a6fd-e9aba7089a93","01990a84-c4ee-73c2-a87b-ff46a7d3dde5","2025-09-02_08h44.58.162",NA,NA,432.428,432.428,432.428,432.736,NA,NA,NA,NA,NA,NA,NA,TRUE,1,0.866,429.475,432.428,0,69,69,58,1,45,40,NA,NA,NA,NA,NA,1,70,"likert"
"97149AC2E8DA41C593B79D71CA0C1F36",1,"01990a9b-b7e4-716d-a6fd-e9aba7089a93","01990a84-c4ee-73c2-a87b-ff46a7d3dde5","2025-09-02_08h44.58.162",NA,NA,435.712,435.712,435.712,436.09,NA,NA,NA,NA,NA,NA,NA,TRUE,1,1.062,432.737,435.712,0,70,70,5,1,7,35,NA,NA,NA,NA,NA,1,71,"likert"
"97149AC2E8DA41C593B79D71CA0C1F36",1,"01990a9b-b7e4-716d-a6fd-e9aba7089a93","01990a84-c4ee-73c2-a87b-ff46a7d3dde5","2025-09-02_08h44.58.162",NA,NA,439.065,439.065,439.065,439.395,NA,NA,NA,NA,NA,NA,NA,TRUE,1,0.882,436.098,439.064,0,71,71,103,1,200,28,NA,NA,NA,NA,NA,1,72,"likert"
"97149AC2E8DA41C593B79D71CA0C1F36",1,"01990a9b-b7e4-716d-a6fd-e9aba7089a93","01990a84-c4ee-73c2-a87b-ff46a7d3dde5","2025-09-02_08h44.58.162",NA,NA,442.416,442.416,442.416,442.889,NA,NA,NA,NA,NA,NA,NA,TRUE,1,0.936,439.398,442.415,0,72,72,34,1,25,35,NA,NA,NA,NA,NA,1,73,"likert"
"97149AC2E8DA41C593B79D71CA0C1F36",1,"01990a9b-b7e4-716d-a6fd-e9aba7089a93","01990a84-c4ee-73c2-a87b-ff46a7d3dde5","2025-09-02_08h44.58.162",NA,NA,445.729,445.729,445.729,446.232,NA,NA,NA,NA,NA,NA,NA,TRUE,1,0.891,442.897,445.729,0,73,73,41,1,28,46,NA,NA,NA,NA,NA,1,74,"likert"
"97149AC2E8DA41C593B79D71CA0C1F36",1,"01990a9b-b7e4-716d-a6fd-e9aba7089a93","01990a84-c4ee-73c2-a87b-ff46a7d3dde5","2025-09-02_08h44.58.162",NA,NA,449.145,449.145,449.145,449.471,NA,NA,NA,NA,NA,NA,NA,TRUE,1,0.006,446.234,449.145,0,74,74,42,1,30,26,NA,NA,NA,NA,NA,1,75,"likert"
"97149AC2E8DA41C593B79D71CA0C1F36",1,"01990a9b-b7e4-716d-a6fd-e9aba7089a93","01990a84-c4ee-73c2-a87b-ff46a7d3dde5","2025-09-02_08h44.58.162",NA,NA,452.557,452.557,452.557,452.889,NA,NA,NA,NA,NA,NA,NA,TRUE,1,0.899,449.479,452.556,0,75,75,25,1,21,27,NA,NA,NA,NA,NA,1,76,"likert"
"97149AC2E8DA41C593B79D71CA0C1F36",1,"01990a9b-b7e4-716d-a6fd-e9aba7089a93","01990a84-c4ee-73c2-a87b-ff46a7d3dde5","2025-09-02_08h44.58.162",NA,NA,455.937,455.937,455.937,456.27,NA,NA,NA,NA,NA,NA,NA,TRUE,1,1.078,452.89,455.937,0,76,76,100,1,180,46,NA,NA,NA,NA,NA,1,77,"likert"
"97149AC2E8DA41C593B79D71CA0C1F36",1,"01990a9b-b7e4-716d-a6fd-e9aba7089a93","01990a84-c4ee-73c2-a87b-ff46a7d3dde5","2025-09-02_08h44.58.162",NA,NA,459.134,459.444,459.444,459.598,NA,NA,NA,NA,NA,NA,NA,FALSE,NA,NA,456.279,459.134,0,77,77,97,1,180,31,NA,NA,NA,NA,NA,1,78,"likert"
"97149AC2E8DA41C593B79D71CA0C1F36",1,"01990a9b-b7e4-716d-a6fd-e9aba7089a93","01990a84-c4ee-73c2-a87b-ff46a7d3dde5","2025-09-02_08h44.58.162",NA,NA,462.477,462.477,462.477,462.969,NA,NA,NA,NA,NA,NA,NA,TRUE,1,1.479,459.6,462.477,0,78,78,24,1,21,26,NA,NA,NA,NA,NA,1,79,"likert"
"97149AC2E8DA41C593B79D71CA0C1F36",1,"01990a9b-b7e4-716d-a6fd-e9aba7089a93","01990a84-c4ee-73c2-a87b-ff46a7d3dde5","2025-09-02_08h44.58.162",NA,NA,465.864,466.209,466.209,466.209,NA,NA,NA,NA,NA,NA,NA,FALSE,NA,NA,462.978,465.863,0,79,79,69,1,60,40,NA,NA,NA,NA,NA,1,80,"likert"
"97149AC2E8DA41C593B79D71CA0C1F36",1,"01990a9b-b7e4-716d-a6fd-e9aba7089a93","01990a84-c4ee-73c2-a87b-ff46a7d3dde5","2025-09-02_08h44.58.162",NA,NA,469.17,469.485,469.485,469.644,NA,NA,NA,NA,NA,NA,NA,FALSE,NA,NA,466.21,469.169,0,80,80,29,1,21,38,NA,NA,NA,NA,NA,1,81,"likert"
"97149AC2E8DA41C593B79D71CA0C1F36",1,"01990a9b-b7e4-716d-a6fd-e9aba7089a93","01990a84-c4ee-73c2-a87b-ff46a7d3dde5","2025-09-02_08h44.58.162",NA,NA,472.59,472.91,472.91,472.91,NA,NA,NA,NA,NA,NA,NA,FALSE,NA,NA,469.652,472.59,0,81,81,9,1,10,29,NA,NA,NA,NA,NA,1,82,"likert"
"97149AC2E8DA41C593B79D71CA0C1F36",1,"01990a9b-b7e4-716d-a6fd-e9aba7089a93","01990a84-c4ee-73c2-a87b-ff46a7d3dde5","2025-09-02_08h44.58.162",NA,NA,475.87,475.87,475.87,476.343,NA,NA,NA,NA,NA,NA,NA,TRUE,1,1.988,472.911,475.87,0,82,82,45,1,30,30,NA,NA,NA,NA,NA,1,83,"likert"
"97149AC2E8DA41C593B79D71CA0C1F36",1,"01990a9b-b7e4-716d-a6fd-e9aba7089a93","01990a84-c4ee-73c2-a87b-ff46a7d3dde5","2025-09-02_08h44.58.162",NA,NA,479.355,479.355,479.355,479.689,NA,NA,NA,NA,NA,NA,NA,TRUE,1,1.03,476.351,479.354,0,83,83,54,1,45,26,NA,NA,NA,NA,NA,1,84,"likert"
"97149AC2E8DA41C593B79D71CA0C1F36",1,"01990a9b-b7e4-716d-a6fd-e9aba7089a93","01990a84-c4ee-73c2-a87b-ff46a7d3dde5","2025-09-02_08h44.58.162",NA,NA,482.579,482.579,482.579,483.051,NA,NA,NA,NA,NA,NA,NA,TRUE,1,0.857,479.69,482.578,0,84,84,7,1,10,26,NA,NA,NA,NA,NA,1,85,"likert"
"97149AC2E8DA41C593B79D71CA0C1F36",1,"01990a9b-b7e4-716d-a6fd-e9aba7089a93","01990a84-c4ee-73c2-a87b-ff46a7d3dde5","2025-09-02_08h44.58.162",NA,NA,486.105,486.105,486.105,486.429,NA,NA,NA,NA,NA,NA,NA,TRUE,1,0.899,483.06,486.104,0,85,85,27,1,21,30,NA,NA,NA,NA,NA,1,86,"likert"
"97149AC2E8DA41C593B79D71CA0C1F36",1,"01990a9b-b7e4-716d-a6fd-e9aba7089a93","01990a84-c4ee-73c2-a87b-ff46a7d3dde5","2025-09-02_08h44.58.162",NA,NA,489.358,489.358,489.358,489.67,NA,NA,NA,NA,NA,NA,NA,TRUE,1,2.882,486.43,489.358,0,86,86,102,1,200,26,NA,NA,NA,NA,NA,1,87,"likert"
"97149AC2E8DA41C593B79D71CA0C1F36",1,"01990a9b-b7e4-716d-a6fd-e9aba7089a93","01990a84-c4ee-73c2-a87b-ff46a7d3dde5","2025-09-02_08h44.58.162",NA,NA,492.623,492.944,492.944,493.108,NA,NA,NA,NA,NA,NA,NA,FALSE,NA,NA,489.679,492.622,0,87,87,10,1,10,30,NA,NA,NA,NA,NA,1,88,"likert"
"97149AC2E8DA41C593B79D71CA0C1F36",1,"01990a9b-b7e4-716d-a6fd-e9aba7089a93","01990a84-c4ee-73c2-a87b-ff46a7d3dde5","2025-09-02_08h44.58.162",NA,NA,496.052,496.225,496.225,496.376,NA,NA,NA,NA,NA,NA,NA,FALSE,NA,NA,493.109,496.052,0,88,88,101,1,180,54,NA,NA,NA,NA,NA,1,89,"likert"
"97149AC2E8DA41C593B79D71CA0C1F36",1,"01990a9b-b7e4-716d-a6fd-e9aba7089a93","01990a84-c4ee-73c2-a87b-ff46a7d3dde5","2025-09-02_08h44.58.162",NA,NA,499.47,499.626,499.626,499.801,NA,NA,NA,NA,NA,NA,NA,FALSE,NA,NA,496.384,499.47,0,89,89,89,1,100,54,NA,NA,NA,NA,NA,1,90,"likert"
"97149AC2E8DA41C593B79D71CA0C1F36",1,"01990a9b-b7e4-716d-a6fd-e9aba7089a93","01990a84-c4ee-73c2-a87b-ff46a7d3dde5","2025-09-02_08h44.58.162",NA,NA,502.688,503.022,503.022,503.181,NA,NA,NA,NA,NA,NA,NA,FALSE,NA,NA,499.81,502.688,0,90,90,76,1,90,46,NA,NA,NA,NA,NA,1,91,"likert"
"97149AC2E8DA41C593B79D71CA0C1F36",1,"01990a9b-b7e4-716d-a6fd-e9aba7089a93","01990a84-c4ee-73c2-a87b-ff46a7d3dde5","2025-09-02_08h44.58.162",NA,NA,506.093,506.4,506.4,506.4,NA,NA,NA,NA,NA,NA,NA,FALSE,NA,NA,503.182,506.093,0,91,91,2,1,7,28,NA,NA,NA,NA,NA,1,92,"likert"
"97149AC2E8DA41C593B79D71CA0C1F36",1,"01990a9b-b7e4-716d-a6fd-e9aba7089a93","01990a84-c4ee-73c2-a87b-ff46a7d3dde5","2025-09-02_08h44.58.162",NA,NA,509.55,509.721,509.721,509.891,NA,NA,NA,NA,NA,NA,NA,FALSE,NA,NA,506.409,509.55,0,92,92,105,1,200,39,NA,NA,NA,NA,NA,1,93,"likert"
"97149AC2E8DA41C593B79D71CA0C1F36",1,"01990a9b-b7e4-716d-a6fd-e9aba7089a93","01990a84-c4ee-73c2-a87b-ff46a7d3dde5","2025-09-02_08h44.58.162",NA,NA,512.764,512.764,512.764,513.225,NA,NA,NA,NA,NA,NA,NA,TRUE,1,0.184,509.892,512.763,0,93,93,70,1,60,47,NA,NA,NA,NA,NA,1,94,"likert"
"97149AC2E8DA41C593B79D71CA0C1F36",1,"01990a9b-b7e4-716d-a6fd-e9aba7089a93","01990a84-c4ee-73c2-a87b-ff46a7d3dde5","2025-09-02_08h44.58.162",NA,NA,516.234,516.234,516.234,516.58,NA,NA,NA,NA,NA,NA,NA,TRUE,1,0.38,513.233,516.233,0,94,94,87,1,100,39,NA,NA,NA,NA,NA,1,95,"likert"
"97149AC2E8DA41C593B79D71CA0C1F36",1,"01990a9b-b7e4-716d-a6fd-e9aba7089a93","01990a84-c4ee-73c2-a87b-ff46a7d3dde5","2025-09-02_08h44.58.162",NA,NA,519.446,519.446,519.446,519.892,NA,NA,NA,NA,NA,NA,NA,TRUE,1,0.715,516.582,519.446,0,95,95,93,1,150,40,NA,NA,NA,NA,NA,1,96,"likert"
"97149AC2E8DA41C593B79D71CA0C1F36",1,"01990a9b-b7e4-716d-a6fd-e9aba7089a93","01990a84-c4ee-73c2-a87b-ff46a7d3dde5","2025-09-02_08h44.58.162",NA,NA,522.861,523.026,523.026,523.185,NA,NA,NA,NA,NA,NA,NA,FALSE,NA,NA,519.894,522.86,0,96,96,83,1,95,54,NA,NA,NA,NA,NA,1,97,"likert"
"97149AC2E8DA41C593B79D71CA0C1F36",1,"01990a9b-b7e4-716d-a6fd-e9aba7089a93","01990a84-c4ee-73c2-a87b-ff46a7d3dde5","2025-09-02_08h44.58.162",NA,NA,526.14,526.466,526.466,526.63,NA,NA,NA,NA,NA,NA,NA,FALSE,NA,NA,523.194,526.14,0,97,97,75,1,90,40,NA,NA,NA,NA,NA,1,98,"likert"
"97149AC2E8DA41C593B79D71CA0C1F36",1,"01990a9b-b7e4-716d-a6fd-e9aba7089a93","01990a84-c4ee-73c2-a87b-ff46a7d3dde5","2025-09-02_08h44.58.162",NA,NA,529.497,529.824,529.824,529.985,NA,NA,NA,NA,NA,NA,NA,FALSE,NA,NA,526.631,529.496,0,98,98,40,1,28,39,NA,NA,NA,NA,NA,1,99,"likert"
"97149AC2E8DA41C593B79D71CA0C1F36",1,"01990a9b-b7e4-716d-a6fd-e9aba7089a93","01990a84-c4ee-73c2-a87b-ff46a7d3dde5","2025-09-02_08h44.58.162",NA,NA,532.84,533.198,533.198,533.198,NA,NA,NA,NA,NA,NA,NA,FALSE,NA,NA,529.993,532.839,0,99,99,67,1,60,33,NA,NA,NA,NA,NA,1,100,"likert"
"97149AC2E8DA41C593B79D71CA0C1F36",1,"01990a9b-b7e4-716d-a6fd-e9aba7089a93","01990a84-c4ee-73c2-a87b-ff46a7d3dde5","2025-09-02_08h44.58.162",NA,NA,536.159,536.485,536.485,536.643,NA,NA,NA,NA,NA,NA,NA,FALSE,NA,NA,533.199,536.159,0,100,100,36,1,28,26,NA,NA,NA,NA,NA,1,101,"likert"
"97149AC2E8DA41C593B79D71CA0C1F36",1,"01990a9b-b7e4-716d-a6fd-e9aba7089a93","01990a84-c4ee-73c2-a87b-ff46a7d3dde5","2025-09-02_08h44.58.162",NA,NA,539.529,539.529,539.529,539.995,NA,NA,NA,NA,NA,NA,NA,TRUE,1,1.029,536.651,539.528,0,101,101,47,1,30,38,NA,NA,NA,NA,NA,1,102,"likert"
"97149AC2E8DA41C593B79D71CA0C1F36",1,"01990a9b-b7e4-716d-a6fd-e9aba7089a93","01990a84-c4ee-73c2-a87b-ff46a7d3dde5","2025-09-02_08h44.58.162",NA,NA,543.003,543.004,543.004,543.397,NA,NA,NA,NA,NA,NA,NA,TRUE,1,1.982,540.005,543.003,0,102,102,64,1,50,46,NA,NA,NA,NA,NA,1,103,"likert"
"97149AC2E8DA41C593B79D71CA0C1F36",1,"01990a9b-b7e4-716d-a6fd-e9aba7089a93","01990a84-c4ee-73c2-a87b-ff46a7d3dde5","2025-09-02_08h44.58.162",NA,NA,546.354,546.354,546.354,546.652,NA,NA,NA,NA,NA,NA,NA,TRUE,1,0.88,543.398,546.353,0,103,103,96,1,180,27,NA,NA,NA,NA,NA,1,104,"likert"
"97149AC2E8DA41C593B79D71CA0C1F36",1,"01990a9b-b7e4-716d-a6fd-e9aba7089a93","01990a84-c4ee-73c2-a87b-ff46a7d3dde5","2025-09-02_08h44.58.162",NA,NA,549.689,549.689,549.689,550.025,NA,NA,NA,NA,NA,NA,NA,TRUE,1,1.189,546.659,549.689,0,104,104,33,1,25,33,NA,NA,NA,NA,NA,1,105,"likert"
"97149AC2E8DA41C593B79D71CA0C1F36",1,"01990a9b-b7e4-716d-a6fd-e9aba7089a93","01990a84-c4ee-73c2-a87b-ff46a7d3dde5","2025-09-02_08h44.58.162",NA,NA,552.969,552.969,552.969,553.457,NA,NA,NA,NA,NA,NA,NA,TRUE,1,2.093,550.026,552.968,0,105,105,51,1,40,40,NA,NA,NA,NA,NA,1,106,"likert"
"97149AC2E8DA41C593B79D71CA0C1F36",1,"01990a9b-b7e4-716d-a6fd-e9aba7089a93","01990a84-c4ee-73c2-a87b-ff46a7d3dde5","2025-09-02_08h44.58.162",NA,NA,556.433,556.433,556.433,556.757,NA,NA,NA,NA,NA,NA,NA,TRUE,1,0.737,553.468,556.432,0,106,106,91,1,150,33,NA,NA,NA,NA,NA,1,107,"likert"
"97149AC2E8DA41C593B79D71CA0C1F36",1,"01990a9b-b7e4-716d-a6fd-e9aba7089a93","01990a84-c4ee-73c2-a87b-ff46a7d3dde5","2025-09-02_08h44.58.162",NA,NA,559.69,559.69,559.69,560.023,NA,NA,NA,NA,NA,NA,NA,TRUE,1,0.714,556.759,559.69,0,107,107,28,1,21,32,NA,NA,NA,NA,NA,1,108,"likert"
"97149AC2E8DA41C593B79D71CA0C1F36",1,"01990a9b-b7e4-716d-a6fd-e9aba7089a93","01990a84-c4ee-73c2-a87b-ff46a7d3dde5","2025-09-02_08h44.58.162",NA,NA,566.494,566.494,566.494,566.827,NA,NA,NA,NA,NA,NA,NA,TRUE,1,1.615,563.537,566.493,NA,NA,NA,NA,NA,95,47,0,0,0,82,1,2,1,"likert"
"97149AC2E8DA41C593B79D71CA0C1F36",1,"01990a9b-b7e4-716d-a6fd-e9aba7089a93","01990a84-c4ee-73c2-a87b-ff46a7d3dde5","2025-09-02_08h44.58.162",NA,NA,569.86,569.86,569.86,570.175,NA,NA,NA,NA,NA,NA,NA,TRUE,1,0.179,566.835,569.86,NA,NA,NA,NA,NA,50,46,0,1,1,64,1,2,2,"likert"
"97149AC2E8DA41C593B79D71CA0C1F36",1,"01990a9b-b7e4-716d-a6fd-e9aba7089a93","01990a84-c4ee-73c2-a87b-ff46a7d3dde5","2025-09-02_08h44.58.162",NA,NA,573.189,573.189,573.189,573.499,NA,NA,NA,NA,NA,NA,NA,TRUE,1,1.068,570.177,573.188,NA,NA,NA,NA,NA,200,54,0,2,2,107,1,2,3,"likert"
"97149AC2E8DA41C593B79D71CA0C1F36",1,"01990a9b-b7e4-716d-a6fd-e9aba7089a93","01990a84-c4ee-73c2-a87b-ff46a7d3dde5","2025-09-02_08h44.58.162",NA,NA,576.581,576.581,576.581,576.923,NA,NA,NA,NA,NA,NA,NA,TRUE,2,0.378,573.507,576.581,NA,NA,NA,NA,NA,14,35,0,3,3,22,1,2,4,"likert"
"97149AC2E8DA41C593B79D71CA0C1F36",1,"01990a9b-b7e4-716d-a6fd-e9aba7089a93","01990a84-c4ee-73c2-a87b-ff46a7d3dde5","2025-09-02_08h44.58.162",NA,NA,579.84,579.84,579.84,580.305,NA,NA,NA,NA,NA,NA,NA,TRUE,1,1.046,576.931,579.839,NA,NA,NA,NA,NA,50,54,0,4,4,65,1,2,5,"likert"
"97149AC2E8DA41C593B79D71CA0C1F36",1,"01990a9b-b7e4-716d-a6fd-e9aba7089a93","01990a84-c4ee-73c2-a87b-ff46a7d3dde5","2025-09-02_08h44.58.162",NA,NA,583.262,583.262,583.262,583.579,NA,NA,NA,NA,NA,NA,NA,TRUE,1,1.092,580.306,583.262,NA,NA,NA,NA,NA,7,25,0,5,5,0,1,2,6,"likert"
"97149AC2E8DA41C593B79D71CA0C1F36",1,"01990a9b-b7e4-716d-a6fd-e9aba7089a93","01990a84-c4ee-73c2-a87b-ff46a7d3dde5","2025-09-02_08h44.58.162",NA,NA,586.502,586.502,586.502,586.976,NA,NA,NA,NA,NA,NA,NA,TRUE,1,0.558,583.587,586.502,NA,NA,NA,NA,NA,60,33,0,6,6,67,1,2,7,"likert"
"97149AC2E8DA41C593B79D71CA0C1F36",1,"01990a9b-b7e4-716d-a6fd-e9aba7089a93","01990a84-c4ee-73c2-a87b-ff46a7d3dde5","2025-09-02_08h44.58.162",NA,NA,589.927,589.927,589.927,590.28,NA,NA,NA,NA,NA,NA,NA,TRUE,1,0.178,586.978,589.927,NA,NA,NA,NA,NA,50,40,0,7,7,63,1,2,8,"likert"
"97149AC2E8DA41C593B79D71CA0C1F36",1,"01990a9b-b7e4-716d-a6fd-e9aba7089a93","01990a84-c4ee-73c2-a87b-ff46a7d3dde5","2025-09-02_08h44.58.162",NA,NA,593.341,593.341,593.341,593.704,NA,NA,NA,NA,NA,NA,NA,TRUE,1,1.099,590.282,593.34,NA,NA,NA,NA,NA,21,38,0,8,8,29,1,2,9,"likert"
"97149AC2E8DA41C593B79D71CA0C1F36",1,"01990a9b-b7e4-716d-a6fd-e9aba7089a93","01990a84-c4ee-73c2-a87b-ff46a7d3dde5","2025-09-02_08h44.58.162",NA,NA,596.646,596.646,596.646,596.973,NA,NA,NA,NA,NA,NA,NA,TRUE,1,2.406,593.711,596.645,NA,NA,NA,NA,NA,12,26,0,9,9,13,1,2,10,"likert"
"97149AC2E8DA41C593B79D71CA0C1F36",1,"01990a9b-b7e4-716d-a6fd-e9aba7089a93","01990a84-c4ee-73c2-a87b-ff46a7d3dde5","2025-09-02_08h44.58.162",NA,NA,600.043,600.043,600.043,600.345,NA,NA,NA,NA,NA,NA,NA,TRUE,1,0.755,596.975,600.043,NA,NA,NA,NA,NA,14,26,0,10,10,19,1,2,11,"likert"
"97149AC2E8DA41C593B79D71CA0C1F36",1,"01990a9b-b7e4-716d-a6fd-e9aba7089a93","01990a84-c4ee-73c2-a87b-ff46a7d3dde5","2025-09-02_08h44.58.162",NA,NA,603.387,603.387,603.387,603.707,NA,NA,NA,NA,NA,NA,NA,TRUE,1,0.511,600.352,603.387,NA,NA,NA,NA,NA,30,32,0,11,11,46,1,2,12,"likert"
"97149AC2E8DA41C593B79D71CA0C1F36",1,"01990a9b-b7e4-716d-a6fd-e9aba7089a93","01990a84-c4ee-73c2-a87b-ff46a7d3dde5","2025-09-02_08h44.58.162",NA,NA,606.648,606.648,606.648,607.108,NA,NA,NA,NA,NA,NA,NA,TRUE,1,0.741,603.708,606.648,NA,NA,NA,NA,NA,28,32,0,12,12,38,1,2,13,"likert"
"97149AC2E8DA41C593B79D71CA0C1F36",1,"01990a9b-b7e4-716d-a6fd-e9aba7089a93","01990a84-c4ee-73c2-a87b-ff46a7d3dde5","2025-09-02_08h44.58.162",NA,NA,610.043,610.043,610.043,610.367,NA,NA,NA,NA,NA,NA,NA,TRUE,1,0.872,607.118,610.043,NA,NA,NA,NA,NA,50,35,0,13,13,62,1,2,14,"likert"
"97149AC2E8DA41C593B79D71CA0C1F36",1,"01990a9b-b7e4-716d-a6fd-e9aba7089a93","01990a84-c4ee-73c2-a87b-ff46a7d3dde5","2025-09-02_08h44.58.162",NA,NA,613.383,613.383,613.383,613.71,NA,NA,NA,NA,NA,NA,NA,TRUE,1,0.006,610.369,613.383,NA,NA,NA,NA,NA,28,26,0,14,14,36,1,2,15,"likert"
"97149AC2E8DA41C593B79D71CA0C1F36",1,"01990a9b-b7e4-716d-a6fd-e9aba7089a93","01990a84-c4ee-73c2-a87b-ff46a7d3dde5","2025-09-02_08h44.58.162",NA,NA,616.762,616.764,616.764,617.122,NA,NA,NA,NA,NA,NA,NA,TRUE,1,2.697,613.712,616.757,NA,NA,NA,NA,NA,10,32,0,15,15,11,1,2,16,"likert"
"97149AC2E8DA41C593B79D71CA0C1F36",1,"01990a9b-b7e4-716d-a6fd-e9aba7089a93","01990a84-c4ee-73c2-a87b-ff46a7d3dde5","2025-09-02_08h44.58.162",NA,NA,620.038,620.038,620.038,620.366,NA,NA,NA,NA,NA,NA,NA,TRUE,1,0.205,617.132,620.038,NA,NA,NA,NA,NA,100,39,0,16,16,87,1,2,17,"likert"
"97149AC2E8DA41C593B79D71CA0C1F36",1,"01990a9b-b7e4-716d-a6fd-e9aba7089a93","01990a84-c4ee-73c2-a87b-ff46a7d3dde5","2025-09-02_08h44.58.162",NA,NA,623.478,623.478,623.478,623.781,NA,NA,NA,NA,NA,NA,NA,TRUE,1,2.693,620.374,623.477,NA,NA,NA,NA,NA,50,30,0,17,17,61,1,2,18,"likert"
"97149AC2E8DA41C593B79D71CA0C1F36",1,"01990a9b-b7e4-716d-a6fd-e9aba7089a93","01990a84-c4ee-73c2-a87b-ff46a7d3dde5","2025-09-02_08h44.58.162",NA,NA,626.857,626.858,626.858,627.191,NA,NA,NA,NA,NA,NA,NA,TRUE,1,0.716,623.783,626.857,NA,NA,NA,NA,NA,14,39,0,18,18,23,1,2,19,"likert"
"97149AC2E8DA41C593B79D71CA0C1F36",1,"01990a9b-b7e4-716d-a6fd-e9aba7089a93","01990a84-c4ee-73c2-a87b-ff46a7d3dde5","2025-09-02_08h44.58.162",NA,NA,630.048,630.366,630.366,630.523,NA,NA,NA,NA,NA,NA,NA,FALSE,NA,NA,627.201,630.048,NA,NA,NA,NA,NA,10,25,0,19,19,6,1,2,20,"likert"
"97149AC2E8DA41C593B79D71CA0C1F36",1,"01990a9b-b7e4-716d-a6fd-e9aba7089a93","01990a84-c4ee-73c2-a87b-ff46a7d3dde5","2025-09-02_08h44.58.162",NA,NA,633.492,633.492,633.492,633.821,NA,NA,NA,NA,NA,NA,NA,TRUE,1,0.519,630.525,633.492,NA,NA,NA,NA,NA,150,47,0,20,20,94,1,2,21,"likert"
"97149AC2E8DA41C593B79D71CA0C1F36",1,"01990a9b-b7e4-716d-a6fd-e9aba7089a93","01990a84-c4ee-73c2-a87b-ff46a7d3dde5","2025-09-02_08h44.58.162",NA,NA,636.839,636.839,636.839,637.165,NA,NA,NA,NA,NA,NA,NA,TRUE,1,0.923,633.829,636.838,NA,NA,NA,NA,NA,150,54,0,21,21,95,1,2,22,"likert"
"97149AC2E8DA41C593B79D71CA0C1F36",1,"01990a9b-b7e4-716d-a6fd-e9aba7089a93","01990a84-c4ee-73c2-a87b-ff46a7d3dde5","2025-09-02_08h44.58.162",NA,NA,640.147,640.147,640.147,640.477,NA,NA,NA,NA,NA,NA,NA,TRUE,1,1.576,637.167,640.146,NA,NA,NA,NA,NA,40,54,0,22,22,53,1,2,23,"likert"
"97149AC2E8DA41C593B79D71CA0C1F36",1,"01990a9b-b7e4-716d-a6fd-e9aba7089a93","01990a84-c4ee-73c2-a87b-ff46a7d3dde5","2025-09-02_08h44.58.162",NA,NA,643.44,643.44,643.44,643.918,NA,NA,NA,NA,NA,NA,NA,TRUE,1,0.584,640.485,643.44,NA,NA,NA,NA,NA,25,46,0,23,23,35,1,2,24,"likert"
"97149AC2E8DA41C593B79D71CA0C1F36",1,"01990a9b-b7e4-716d-a6fd-e9aba7089a93","01990a84-c4ee-73c2-a87b-ff46a7d3dde5","2025-09-02_08h44.58.162",NA,NA,646.807,646.807,646.807,647.293,NA,NA,NA,NA,NA,NA,NA,TRUE,1,0.197,643.92,646.806,NA,NA,NA,NA,NA,180,54,0,24,24,101,1,2,25,"likert"
"97149AC2E8DA41C593B79D71CA0C1F36",1,"01990a9b-b7e4-716d-a6fd-e9aba7089a93","01990a84-c4ee-73c2-a87b-ff46a7d3dde5","2025-09-02_08h44.58.162",NA,NA,650.128,650.508,650.508,650.673,NA,NA,NA,NA,NA,NA,NA,FALSE,NA,NA,647.295,650.127,NA,NA,NA,NA,NA,28,35,0,25,25,39,1,2,26,"likert"
"97149AC2E8DA41C593B79D71CA0C1F36",1,"01990a9b-b7e4-716d-a6fd-e9aba7089a93","01990a84-c4ee-73c2-a87b-ff46a7d3dde5","2025-09-02_08h44.58.162",NA,NA,653.59,653.59,653.59,653.919,NA,NA,NA,NA,NA,NA,NA,TRUE,1,1.661,650.682,653.59,NA,NA,NA,NA,NA,25,27,0,26,26,30,1,2,27,"likert"
"97149AC2E8DA41C593B79D71CA0C1F36",1,"01990a9b-b7e4-716d-a6fd-e9aba7089a93","01990a84-c4ee-73c2-a87b-ff46a7d3dde5","2025-09-02_08h44.58.162",NA,NA,656.855,656.855,656.855,657.322,NA,NA,NA,NA,NA,NA,NA,TRUE,1,0.355,653.921,656.855,NA,NA,NA,NA,NA,10,30,0,27,27,10,1,2,28,"likert"
"97149AC2E8DA41C593B79D71CA0C1F36",1,"01990a9b-b7e4-716d-a6fd-e9aba7089a93","01990a84-c4ee-73c2-a87b-ff46a7d3dde5","2025-09-02_08h44.58.162",NA,NA,660.273,660.273,660.273,660.608,NA,NA,NA,NA,NA,NA,NA,TRUE,1,1.229,657.324,660.272,NA,NA,NA,NA,NA,12,25,0,28,28,12,1,2,29,"likert"
"97149AC2E8DA41C593B79D71CA0C1F36",1,"01990a9b-b7e4-716d-a6fd-e9aba7089a93","01990a84-c4ee-73c2-a87b-ff46a7d3dde5","2025-09-02_08h44.58.162",NA,NA,663.547,663.547,663.547,664.029,NA,NA,NA,NA,NA,NA,NA,TRUE,1,1.14,660.616,663.547,NA,NA,NA,NA,NA,45,31,0,29,29,56,1,2,30,"likert"
"97149AC2E8DA41C593B79D71CA0C1F36",1,"01990a9b-b7e4-716d-a6fd-e9aba7089a93","01990a84-c4ee-73c2-a87b-ff46a7d3dde5","2025-09-02_08h44.58.162",NA,NA,666.984,666.984,666.984,667.291,NA,NA,NA,NA,NA,NA,NA,TRUE,1,0.905,664.031,666.983,NA,NA,NA,NA,NA,14,32,0,30,30,21,1,2,31,"likert"
"97149AC2E8DA41C593B79D71CA0C1F36",1,"01990a9b-b7e4-716d-a6fd-e9aba7089a93","01990a84-c4ee-73c2-a87b-ff46a7d3dde5","2025-09-02_08h44.58.162",NA,NA,670.386,670.386,670.386,670.714,NA,NA,NA,NA,NA,NA,NA,TRUE,1,2.791,667.299,670.386,NA,NA,NA,NA,NA,45,46,0,31,31,59,1,2,32,"likert"
"97149AC2E8DA41C593B79D71CA0C1F36",1,"01990a9b-b7e4-716d-a6fd-e9aba7089a93","01990a84-c4ee-73c2-a87b-ff46a7d3dde5","2025-09-02_08h44.58.162",NA,NA,673.727,673.727,673.727,674.032,NA,NA,NA,NA,NA,NA,NA,TRUE,1,1.462,670.716,673.726,NA,NA,NA,NA,NA,28,39,0,32,32,40,1,2,33,"likert"
"97149AC2E8DA41C593B79D71CA0C1F36",1,"01990a9b-b7e4-716d-a6fd-e9aba7089a93","01990a84-c4ee-73c2-a87b-ff46a7d3dde5","2025-09-02_08h44.58.162",NA,NA,677.03,677.03,677.03,677.355,NA,NA,NA,NA,NA,NA,NA,TRUE,1,0.844,674.043,677.03,NA,NA,NA,NA,NA,21,26,0,33,33,24,1,2,34,"likert"
"97149AC2E8DA41C593B79D71CA0C1F36",1,"01990a9b-b7e4-716d-a6fd-e9aba7089a93","01990a84-c4ee-73c2-a87b-ff46a7d3dde5","2025-09-02_08h44.58.162",NA,NA,680.452,680.452,680.452,680.754,NA,NA,NA,NA,NA,NA,NA,TRUE,1,2.642,677.357,680.451,NA,NA,NA,NA,NA,14,28,0,34,34,20,1,2,35,"likert"
"97149AC2E8DA41C593B79D71CA0C1F36",1,"01990a9b-b7e4-716d-a6fd-e9aba7089a93","01990a84-c4ee-73c2-a87b-ff46a7d3dde5","2025-09-02_08h44.58.162",NA,NA,683.758,683.758,683.758,684.071,NA,NA,NA,NA,NA,NA,NA,TRUE,1,2.754,680.764,683.758,NA,NA,NA,NA,NA,100,46,0,35,35,88,1,2,36,"likert"
"97149AC2E8DA41C593B79D71CA0C1F36",1,"01990a9b-b7e4-716d-a6fd-e9aba7089a93","01990a84-c4ee-73c2-a87b-ff46a7d3dde5","2025-09-02_08h44.58.162",NA,NA,687.035,687.035,687.035,687.486,NA,NA,NA,NA,NA,NA,NA,TRUE,1,0.76,684.073,687.035,NA,NA,NA,NA,NA,7,35,0,36,36,5,1,2,37,"likert"
"97149AC2E8DA41C593B79D71CA0C1F36",1,"01990a9b-b7e4-716d-a6fd-e9aba7089a93","01990a84-c4ee-73c2-a87b-ff46a7d3dde5","2025-09-02_08h44.58.162",NA,NA,690.463,690.463,690.463,690.767,NA,NA,NA,NA,NA,NA,NA,TRUE,1,0.662,687.493,690.463,NA,NA,NA,NA,NA,10,29,0,37,37,9,1,2,38,"likert"
"97149AC2E8DA41C593B79D71CA0C1F36",1,"01990a9b-b7e4-716d-a6fd-e9aba7089a93","01990a84-c4ee-73c2-a87b-ff46a7d3dde5","2025-09-02_08h44.58.162",NA,NA,693.846,693.847,693.847,694.17,NA,NA,NA,NA,NA,NA,NA,TRUE,1,0.709,690.768,693.846,NA,NA,NA,NA,NA,21,32,0,38,38,28,1,2,39,"likert"
"97149AC2E8DA41C593B79D71CA0C1F36",1,"01990a9b-b7e4-716d-a6fd-e9aba7089a93","01990a84-c4ee-73c2-a87b-ff46a7d3dde5","2025-09-02_08h44.58.162",NA,NA,697.023,697.023,697.023,697.509,NA,NA,NA,NA,NA,NA,NA,TRUE,1,0.759,694.178,697.022,NA,NA,NA,NA,NA,200,39,0,39,39,105,1,2,40,"likert"
"97149AC2E8DA41C593B79D71CA0C1F36",1,"01990a9b-b7e4-716d-a6fd-e9aba7089a93","01990a84-c4ee-73c2-a87b-ff46a7d3dde5","2025-09-02_08h44.58.162",NA,NA,700.515,700.515,700.515,700.868,NA,NA,NA,NA,NA,NA,NA,TRUE,1,0.633,697.51,700.514,NA,NA,NA,NA,NA,200,28,0,40,40,103,1,2,41,"likert"
"97149AC2E8DA41C593B79D71CA0C1F36",1,"01990a9b-b7e4-716d-a6fd-e9aba7089a93","01990a84-c4ee-73c2-a87b-ff46a7d3dde5","2025-09-02_08h44.58.162",NA,NA,703.837,703.837,703.837,704.144,NA,NA,NA,NA,NA,NA,NA,TRUE,1,1.328,700.876,703.836,NA,NA,NA,NA,NA,12,31,0,41,41,15,1,2,42,"likert"
"97149AC2E8DA41C593B79D71CA0C1F36",1,"01990a9b-b7e4-716d-a6fd-e9aba7089a93","01990a84-c4ee-73c2-a87b-ff46a7d3dde5","2025-09-02_08h44.58.162",NA,NA,707.156,707.156,707.156,707.47,NA,NA,NA,NA,NA,NA,NA,TRUE,1,0.735,704.145,707.156,NA,NA,NA,NA,NA,21,27,0,42,42,25,1,2,43,"likert"
"97149AC2E8DA41C593B79D71CA0C1F36",1,"01990a9b-b7e4-716d-a6fd-e9aba7089a93","01990a84-c4ee-73c2-a87b-ff46a7d3dde5","2025-09-02_08h44.58.162",NA,NA,710.501,710.501,710.501,710.957,NA,NA,NA,NA,NA,NA,NA,TRUE,1,0.894,707.478,710.501,NA,NA,NA,NA,NA,60,35,0,43,43,68,1,2,44,"likert"
"97149AC2E8DA41C593B79D71CA0C1F36",1,"01990a9b-b7e4-716d-a6fd-e9aba7089a93","01990a84-c4ee-73c2-a87b-ff46a7d3dde5","2025-09-02_08h44.58.162",NA,NA,713.79,713.79,713.79,714.298,NA,NA,NA,NA,NA,NA,NA,TRUE,1,0.895,710.959,713.79,NA,NA,NA,NA,NA,45,29,0,44,44,55,1,2,45,"likert"
"97149AC2E8DA41C593B79D71CA0C1F36",1,"01990a9b-b7e4-716d-a6fd-e9aba7089a93","01990a84-c4ee-73c2-a87b-ff46a7d3dde5","2025-09-02_08h44.58.162",NA,NA,717.118,717.118,717.118,717.61,NA,NA,NA,NA,NA,NA,NA,TRUE,1,0.704,714.306,717.118,NA,NA,NA,NA,NA,12,35,0,45,45,17,1,2,46,"likert"
"97149AC2E8DA41C593B79D71CA0C1F36",1,"01990a9b-b7e4-716d-a6fd-e9aba7089a93","01990a84-c4ee-73c2-a87b-ff46a7d3dde5","2025-09-02_08h44.58.162",NA,NA,720.533,720.533,720.533,720.994,NA,NA,NA,NA,NA,NA,NA,TRUE,1,0.724,717.612,720.533,NA,NA,NA,NA,NA,45,40,0,46,46,58,1,2,47,"likert"
"97149AC2E8DA41C593B79D71CA0C1F36",1,"01990a9b-b7e4-716d-a6fd-e9aba7089a93","01990a84-c4ee-73c2-a87b-ff46a7d3dde5","2025-09-02_08h44.58.162",NA,NA,723.952,723.952,723.952,724.269,NA,NA,NA,NA,NA,NA,NA,TRUE,1,1.057,721.002,723.951,NA,NA,NA,NA,NA,40,40,0,47,47,51,1,2,48,"likert"
"97149AC2E8DA41C593B79D71CA0C1F36",1,"01990a9b-b7e4-716d-a6fd-e9aba7089a93","01990a84-c4ee-73c2-a87b-ff46a7d3dde5","2025-09-02_08h44.58.162",NA,NA,727.277,727.277,727.277,727.633,NA,NA,NA,NA,NA,NA,NA,TRUE,1,0.854,724.27,727.277,NA,NA,NA,NA,NA,25,31,0,48,48,32,1,2,49,"likert"
"97149AC2E8DA41C593B79D71CA0C1F36",1,"01990a9b-b7e4-716d-a6fd-e9aba7089a93","01990a84-c4ee-73c2-a87b-ff46a7d3dde5","2025-09-02_08h44.58.162",NA,NA,730.534,730.851,730.851,731.023,NA,NA,NA,NA,NA,NA,NA,FALSE,NA,NA,727.642,730.533,NA,NA,NA,NA,NA,30,30,0,49,49,45,1,2,50,"likert"
"97149AC2E8DA41C593B79D71CA0C1F36",1,"01990a9b-b7e4-716d-a6fd-e9aba7089a93","01990a84-c4ee-73c2-a87b-ff46a7d3dde5","2025-09-02_08h44.58.162",NA,NA,733.902,733.902,733.902,734.383,NA,NA,NA,NA,NA,NA,NA,TRUE,1,0.851,731.024,733.902,NA,NA,NA,NA,NA,90,46,0,50,50,76,1,2,51,"likert"
"97149AC2E8DA41C593B79D71CA0C1F36",1,"01990a9b-b7e4-716d-a6fd-e9aba7089a93","01990a84-c4ee-73c2-a87b-ff46a7d3dde5","2025-09-02_08h44.58.162",NA,NA,737.272,737.272,737.272,737.796,NA,NA,NA,NA,NA,NA,NA,TRUE,1,1.617,734.391,737.271,NA,NA,NA,NA,NA,90,40,0,51,51,75,1,2,52,"likert"
"97149AC2E8DA41C593B79D71CA0C1F36",1,"01990a9b-b7e4-716d-a6fd-e9aba7089a93","01990a84-c4ee-73c2-a87b-ff46a7d3dde5","2025-09-02_08h44.58.162",NA,NA,740.75,740.75,740.75,741.058,NA,NA,NA,NA,NA,NA,NA,TRUE,1,0.19,737.798,740.75,NA,NA,NA,NA,NA,45,35,0,52,52,57,1,2,53,"likert"
"97149AC2E8DA41C593B79D71CA0C1F36",1,"01990a9b-b7e4-716d-a6fd-e9aba7089a93","01990a84-c4ee-73c2-a87b-ff46a7d3dde5","2025-09-02_08h44.58.162",NA,NA,743.986,743.986,743.986,744.473,NA,NA,NA,NA,NA,NA,NA,TRUE,1,0.183,741.066,743.986,NA,NA,NA,NA,NA,40,35,0,53,53,50,1,2,54,"likert"
"97149AC2E8DA41C593B79D71CA0C1F36",1,"01990a9b-b7e4-716d-a6fd-e9aba7089a93","01990a84-c4ee-73c2-a87b-ff46a7d3dde5","2025-09-02_08h44.58.162",NA,NA,747.406,747.406,747.406,747.716,NA,NA,NA,NA,NA,NA,NA,TRUE,1,2.742,744.475,747.405,NA,NA,NA,NA,NA,95,33,0,54,54,79,1,2,55,"likert"
"97149AC2E8DA41C593B79D71CA0C1F36",1,"01990a9b-b7e4-716d-a6fd-e9aba7089a93","01990a84-c4ee-73c2-a87b-ff46a7d3dde5","2025-09-02_08h44.58.162",NA,NA,750.825,750.825,750.825,751.139,NA,NA,NA,NA,NA,NA,NA,TRUE,1,2.764,747.724,750.824,NA,NA,NA,NA,NA,30,29,0,55,55,44,1,2,56,"likert"
"97149AC2E8DA41C593B79D71CA0C1F36",1,"01990a9b-b7e4-716d-a6fd-e9aba7089a93","01990a84-c4ee-73c2-a87b-ff46a7d3dde5","2025-09-02_08h44.58.162",NA,NA,753.978,753.978,753.978,754.48,NA,NA,NA,NA,NA,NA,NA,TRUE,1,0.009,751.141,753.978,NA,NA,NA,NA,NA,100,54,0,56,56,89,1,2,57,"likert"
"97149AC2E8DA41C593B79D71CA0C1F36",1,"01990a9b-b7e4-716d-a6fd-e9aba7089a93","01990a84-c4ee-73c2-a87b-ff46a7d3dde5","2025-09-02_08h44.58.162",NA,NA,757.452,757.452,757.452,757.788,NA,NA,NA,NA,NA,NA,NA,TRUE,1,2.668,754.488,757.452,NA,NA,NA,NA,NA,200,26,0,57,57,102,1,2,58,"likert"
"97149AC2E8DA41C593B79D71CA0C1F36",1,"01990a9b-b7e4-716d-a6fd-e9aba7089a93","01990a84-c4ee-73c2-a87b-ff46a7d3dde5","2025-09-02_08h44.58.162",NA,NA,760.726,760.726,760.726,761.193,NA,NA,NA,NA,NA,NA,NA,TRUE,1,0.009,757.79,760.726,NA,NA,NA,NA,NA,180,35,0,58,58,98,1,2,59,"likert"
"97149AC2E8DA41C593B79D71CA0C1F36",1,"01990a9b-b7e4-716d-a6fd-e9aba7089a93","01990a84-c4ee-73c2-a87b-ff46a7d3dde5","2025-09-02_08h44.58.162",NA,NA,764.046,764.046,764.046,764.515,NA,NA,NA,NA,NA,NA,NA,TRUE,1,0.006,761.193,764.045,NA,NA,NA,NA,NA,40,47,0,59,59,52,1,2,60,"likert"
"97149AC2E8DA41C593B79D71CA0C1F36",1,"01990a9b-b7e4-716d-a6fd-e9aba7089a93","01990a84-c4ee-73c2-a87b-ff46a7d3dde5","2025-09-02_08h44.58.162",NA,NA,767.457,767.457,767.457,767.804,NA,NA,NA,NA,NA,NA,NA,TRUE,1,0.222,764.523,767.457,NA,NA,NA,NA,NA,95,31,0,60,60,78,1,2,61,"likert"
"97149AC2E8DA41C593B79D71CA0C1F36",1,"01990a9b-b7e4-716d-a6fd-e9aba7089a93","01990a84-c4ee-73c2-a87b-ff46a7d3dde5","2025-09-02_08h44.58.162",NA,NA,770.769,770.769,770.769,771.249,NA,NA,NA,NA,NA,NA,NA,TRUE,1,0.185,767.806,770.769,NA,NA,NA,NA,NA,7,28,0,61,61,2,1,2,62,"likert"
"97149AC2E8DA41C593B79D71CA0C1F36",1,"01990a9b-b7e4-716d-a6fd-e9aba7089a93","01990a84-c4ee-73c2-a87b-ff46a7d3dde5","2025-09-02_08h44.58.162",NA,NA,774.099,774.099,774.099,774.589,NA,NA,NA,NA,NA,NA,NA,TRUE,1,0.934,771.257,774.099,NA,NA,NA,NA,NA,25,29,0,62,62,31,1,2,63,"likert"
"97149AC2E8DA41C593B79D71CA0C1F36",1,"01990a9b-b7e4-716d-a6fd-e9aba7089a93","01990a84-c4ee-73c2-a87b-ff46a7d3dde5","2025-09-02_08h44.58.162",NA,NA,777.424,777.424,777.424,777.905,NA,NA,NA,NA,NA,NA,NA,TRUE,1,0.746,774.59,777.423,NA,NA,NA,NA,NA,25,35,0,63,63,34,1,2,64,"likert"
"97149AC2E8DA41C593B79D71CA0C1F36",1,"01990a9b-b7e4-716d-a6fd-e9aba7089a93","01990a84-c4ee-73c2-a87b-ff46a7d3dde5","2025-09-02_08h44.58.162",NA,NA,780.923,780.923,780.923,781.27,NA,NA,NA,NA,NA,NA,NA,TRUE,1,2.668,777.913,780.923,NA,NA,NA,NA,NA,40,33,0,64,64,49,1,2,65,"likert"
"97149AC2E8DA41C593B79D71CA0C1F36",1,"01990a9b-b7e4-716d-a6fd-e9aba7089a93","01990a84-c4ee-73c2-a87b-ff46a7d3dde5","2025-09-02_08h44.58.162",NA,NA,784.255,784.255,784.255,784.574,NA,NA,NA,NA,NA,NA,NA,TRUE,1,2.664,781.272,784.255,NA,NA,NA,NA,NA,180,46,0,65,65,100,1,2,66,"likert"
"97149AC2E8DA41C593B79D71CA0C1F36",1,"01990a9b-b7e4-716d-a6fd-e9aba7089a93","01990a84-c4ee-73c2-a87b-ff46a7d3dde5","2025-09-02_08h44.58.162",NA,NA,787.494,787.494,787.494,787.964,NA,NA,NA,NA,NA,NA,NA,TRUE,1,2.823,784.576,787.494,NA,NA,NA,NA,NA,12,33,0,66,66,16,1,2,67,"likert"
"97149AC2E8DA41C593B79D71CA0C1F36",1,"01990a9b-b7e4-716d-a6fd-e9aba7089a93","01990a84-c4ee-73c2-a87b-ff46a7d3dde5","2025-09-02_08h44.58.162",NA,NA,790.88,790.88,790.88,791.234,NA,NA,NA,NA,NA,NA,NA,TRUE,1,0.189,787.972,790.88,NA,NA,NA,NA,NA,60,29,0,67,67,66,1,2,68,"likert"
"97149AC2E8DA41C593B79D71CA0C1F36",1,"01990a9b-b7e4-716d-a6fd-e9aba7089a93","01990a84-c4ee-73c2-a87b-ff46a7d3dde5","2025-09-02_08h44.58.162",NA,NA,794.19,794.19,794.19,794.673,NA,NA,NA,NA,NA,NA,NA,TRUE,1,0.008,791.236,794.189,NA,NA,NA,NA,NA,200,35,0,68,68,104,1,2,69,"likert"
"97149AC2E8DA41C593B79D71CA0C1F36",1,"01990a9b-b7e4-716d-a6fd-e9aba7089a93","01990a84-c4ee-73c2-a87b-ff46a7d3dde5","2025-09-02_08h44.58.162",NA,NA,797.596,797.596,797.596,797.926,NA,NA,NA,NA,NA,NA,NA,TRUE,1,2.581,794.682,797.596,NA,NA,NA,NA,NA,95,35,0,69,69,80,1,2,70,"likert"
"97149AC2E8DA41C593B79D71CA0C1F36",1,"01990a9b-b7e4-716d-a6fd-e9aba7089a93","01990a84-c4ee-73c2-a87b-ff46a7d3dde5","2025-09-02_08h44.58.162",NA,NA,800.987,800.987,800.987,801.315,NA,NA,NA,NA,NA,NA,NA,TRUE,1,0.366,797.928,800.987,NA,NA,NA,NA,NA,95,54,0,70,70,83,1,2,71,"likert"
"97149AC2E8DA41C593B79D71CA0C1F36",1,"01990a9b-b7e4-716d-a6fd-e9aba7089a93","01990a84-c4ee-73c2-a87b-ff46a7d3dde5","2025-09-02_08h44.58.162",NA,NA,804.348,804.348,804.348,804.668,NA,NA,NA,NA,NA,NA,NA,TRUE,1,2.676,801.324,804.347,NA,NA,NA,NA,NA,21,30,0,71,71,27,1,2,72,"likert"
"97149AC2E8DA41C593B79D71CA0C1F36",1,"01990a9b-b7e4-716d-a6fd-e9aba7089a93","01990a84-c4ee-73c2-a87b-ff46a7d3dde5","2025-09-02_08h44.58.162",NA,NA,807.613,807.613,807.613,808.109,NA,NA,NA,NA,NA,NA,NA,TRUE,1,2.695,804.669,807.613,NA,NA,NA,NA,NA,50,27,0,72,72,60,1,2,73,"likert"
"97149AC2E8DA41C593B79D71CA0C1F36",1,"01990a9b-b7e4-716d-a6fd-e9aba7089a93","01990a84-c4ee-73c2-a87b-ff46a7d3dde5","2025-09-02_08h44.58.162",NA,NA,810.95,810.95,810.95,811.435,NA,NA,NA,NA,NA,NA,NA,TRUE,1,0.01,808.111,810.949,NA,NA,NA,NA,NA,21,29,0,73,73,26,1,2,74,"likert"
"97149AC2E8DA41C593B79D71CA0C1F36",1,"01990a9b-b7e4-716d-a6fd-e9aba7089a93","01990a84-c4ee-73c2-a87b-ff46a7d3dde5","2025-09-02_08h44.58.162",NA,NA,814.359,814.359,814.359,814.685,NA,NA,NA,NA,NA,NA,NA,TRUE,1,2.661,811.449,814.359,NA,NA,NA,NA,NA,7,30,0,74,74,3,1,2,75,"likert"
"97149AC2E8DA41C593B79D71CA0C1F36",1,"01990a9b-b7e4-716d-a6fd-e9aba7089a93","01990a84-c4ee-73c2-a87b-ff46a7d3dde5","2025-09-02_08h44.58.162",NA,NA,817.78,817.78,817.78,818.127,NA,NA,NA,NA,NA,NA,NA,TRUE,1,2.756,814.685,817.78,NA,NA,NA,NA,NA,30,27,0,75,75,43,1,2,76,"likert"
"97149AC2E8DA41C593B79D71CA0C1F36",1,"01990a9b-b7e4-716d-a6fd-e9aba7089a93","01990a84-c4ee-73c2-a87b-ff46a7d3dde5","2025-09-02_08h44.58.162",NA,NA,821.049,821.049,821.049,821.52,NA,NA,NA,NA,NA,NA,NA,TRUE,1,0.903,818.138,821.048,NA,NA,NA,NA,NA,100,26,0,76,76,84,1,2,77,"likert"
"97149AC2E8DA41C593B79D71CA0C1F36",1,"01990a9b-b7e4-716d-a6fd-e9aba7089a93","01990a84-c4ee-73c2-a87b-ff46a7d3dde5","2025-09-02_08h44.58.162",NA,NA,824.408,824.408,824.408,824.724,NA,NA,NA,NA,NA,NA,NA,TRUE,1,0.696,821.522,824.408,NA,NA,NA,NA,NA,28,46,0,77,77,41,1,2,78,"likert"
"97149AC2E8DA41C593B79D71CA0C1F36",1,"01990a9b-b7e4-716d-a6fd-e9aba7089a93","01990a84-c4ee-73c2-a87b-ff46a7d3dde5","2025-09-02_08h44.58.162",NA,NA,827.794,827.794,827.794,828.115,NA,NA,NA,NA,NA,NA,NA,TRUE,1,2.717,824.733,827.793,NA,NA,NA,NA,NA,150,35,0,78,78,92,1,2,79,"likert"
"97149AC2E8DA41C593B79D71CA0C1F36",1,"01990a9b-b7e4-716d-a6fd-e9aba7089a93","01990a84-c4ee-73c2-a87b-ff46a7d3dde5","2025-09-02_08h44.58.162",NA,NA,831.155,831.155,831.155,831.507,NA,NA,NA,NA,NA,NA,NA,TRUE,1,0.009,828.116,831.155,NA,NA,NA,NA,NA,45,26,0,79,79,54,1,2,80,"likert"
"97149AC2E8DA41C593B79D71CA0C1F36",1,"01990a9b-b7e4-716d-a6fd-e9aba7089a93","01990a84-c4ee-73c2-a87b-ff46a7d3dde5","2025-09-02_08h44.58.162",NA,NA,834.504,834.504,834.504,834.828,NA,NA,NA,NA,NA,NA,NA,TRUE,1,1.269,831.509,834.503,NA,NA,NA,NA,NA,100,31,0,80,80,85,1,2,81,"likert"
"97149AC2E8DA41C593B79D71CA0C1F36",1,"01990a9b-b7e4-716d-a6fd-e9aba7089a93","01990a84-c4ee-73c2-a87b-ff46a7d3dde5","2025-09-02_08h44.58.162",NA,NA,837.804,837.804,837.804,838.116,NA,NA,NA,NA,NA,NA,NA,TRUE,1,1.413,834.836,837.804,NA,NA,NA,NA,NA,100,38,0,81,81,86,1,2,82,"likert"
"97149AC2E8DA41C593B79D71CA0C1F36",1,"01990a9b-b7e4-716d-a6fd-e9aba7089a93","01990a84-c4ee-73c2-a87b-ff46a7d3dde5","2025-09-02_08h44.58.162",NA,NA,841.146,841.147,841.147,841.607,NA,NA,NA,NA,NA,NA,NA,TRUE,1,0.347,838.117,841.145,NA,NA,NA,NA,NA,10,27,0,82,82,8,1,2,83,"likert"
"97149AC2E8DA41C593B79D71CA0C1F36",1,"01990a9b-b7e4-716d-a6fd-e9aba7089a93","01990a84-c4ee-73c2-a87b-ff46a7d3dde5","2025-09-02_08h44.58.162",NA,NA,844.491,844.491,844.492,844.966,NA,NA,NA,NA,NA,NA,NA,TRUE,1,0.37,841.615,844.491,NA,NA,NA,NA,NA,180,31,0,83,83,97,1,2,84,"likert"
"97149AC2E8DA41C593B79D71CA0C1F36",1,"01990a9b-b7e4-716d-a6fd-e9aba7089a93","01990a84-c4ee-73c2-a87b-ff46a7d3dde5","2025-09-02_08h44.58.162",NA,NA,847.898,847.899,847.899,848.256,NA,NA,NA,NA,NA,NA,NA,TRUE,1,2.689,844.968,847.898,NA,NA,NA,NA,NA,95,40,0,84,84,81,1,2,85,"likert"
"97149AC2E8DA41C593B79D71CA0C1F36",1,"01990a9b-b7e4-716d-a6fd-e9aba7089a93","01990a84-c4ee-73c2-a87b-ff46a7d3dde5","2025-09-02_08h44.58.162",NA,NA,851.243,851.243,851.243,851.571,NA,NA,NA,NA,NA,NA,NA,TRUE,1,2.711,848.256,851.242,NA,NA,NA,NA,NA,150,31,0,85,85,90,1,2,86,"likert"
"97149AC2E8DA41C593B79D71CA0C1F36",1,"01990a9b-b7e4-716d-a6fd-e9aba7089a93","01990a84-c4ee-73c2-a87b-ff46a7d3dde5","2025-09-02_08h44.58.162",NA,NA,854.509,854.509,854.509,855.005,NA,NA,NA,NA,NA,NA,NA,TRUE,1,2.598,851.581,854.509,NA,NA,NA,NA,NA,14,25,0,86,86,18,1,2,87,"likert"
"97149AC2E8DA41C593B79D71CA0C1F36",1,"01990a9b-b7e4-716d-a6fd-e9aba7089a93","01990a84-c4ee-73c2-a87b-ff46a7d3dde5","2025-09-02_08h44.58.162",NA,NA,857.962,857.962,857.962,858.329,NA,NA,NA,NA,NA,NA,NA,TRUE,1,0.01,855.007,857.962,NA,NA,NA,NA,NA,180,27,0,87,87,96,1,2,88,"likert"
"97149AC2E8DA41C593B79D71CA0C1F36",1,"01990a9b-b7e4-716d-a6fd-e9aba7089a93","01990a84-c4ee-73c2-a87b-ff46a7d3dde5","2025-09-02_08h44.58.162",NA,NA,861.198,861.198,861.198,861.68,NA,NA,NA,NA,NA,NA,NA,TRUE,1,0.012,858.332,861.198,NA,NA,NA,NA,NA,10,26,0,88,88,7,1,2,89,"likert"
"97149AC2E8DA41C593B79D71CA0C1F36",1,"01990a9b-b7e4-716d-a6fd-e9aba7089a93","01990a84-c4ee-73c2-a87b-ff46a7d3dde5","2025-09-02_08h44.58.162",NA,NA,864.588,864.588,864.588,865.043,NA,NA,NA,NA,NA,NA,NA,TRUE,1,2.672,861.688,864.588,NA,NA,NA,NA,NA,150,40,0,89,89,93,1,2,90,"likert"
"97149AC2E8DA41C593B79D71CA0C1F36",1,"01990a9b-b7e4-716d-a6fd-e9aba7089a93","01990a84-c4ee-73c2-a87b-ff46a7d3dde5","2025-09-02_08h44.58.162",NA,NA,868.001,868.001,868.001,868.311,NA,NA,NA,NA,NA,NA,NA,TRUE,1,1.396,865.044,868.001,NA,NA,NA,NA,NA,150,33,0,90,90,91,1,2,91,"likert"
"97149AC2E8DA41C593B79D71CA0C1F36",1,"01990a9b-b7e4-716d-a6fd-e9aba7089a93","01990a84-c4ee-73c2-a87b-ff46a7d3dde5","2025-09-02_08h44.58.162",NA,NA,871.398,871.398,871.398,871.746,NA,NA,NA,NA,NA,NA,NA,TRUE,1,0.526,868.319,871.398,NA,NA,NA,NA,NA,60,47,0,91,91,70,1,2,92,"likert"
"97149AC2E8DA41C593B79D71CA0C1F36",1,"01990a9b-b7e4-716d-a6fd-e9aba7089a93","01990a84-c4ee-73c2-a87b-ff46a7d3dde5","2025-09-02_08h44.58.162",NA,NA,874.686,874.686,874.686,875.009,NA,NA,NA,NA,NA,NA,NA,TRUE,1,2.756,871.747,874.686,NA,NA,NA,NA,NA,90,54,0,92,92,77,1,2,93,"likert"
"97149AC2E8DA41C593B79D71CA0C1F36",1,"01990a9b-b7e4-716d-a6fd-e9aba7089a93","01990a84-c4ee-73c2-a87b-ff46a7d3dde5","2025-09-02_08h44.58.162",NA,NA,877.956,877.956,877.956,878.455,NA,NA,NA,NA,NA,NA,NA,TRUE,1,0.208,875.019,877.956,NA,NA,NA,NA,NA,60,54,0,93,93,71,1,2,94,"likert"
"97149AC2E8DA41C593B79D71CA0C1F36",1,"01990a9b-b7e4-716d-a6fd-e9aba7089a93","01990a84-c4ee-73c2-a87b-ff46a7d3dde5","2025-09-02_08h44.58.162",NA,NA,881.417,881.417,881.417,881.721,NA,NA,NA,NA,NA,NA,NA,TRUE,1,0.009,878.455,881.417,NA,NA,NA,NA,NA,25,33,0,94,94,33,1,2,95,"likert"
"97149AC2E8DA41C593B79D71CA0C1F36",1,"01990a9b-b7e4-716d-a6fd-e9aba7089a93","01990a84-c4ee-73c2-a87b-ff46a7d3dde5","2025-09-02_08h44.58.162",NA,NA,884.784,884.784,884.784,885.106,NA,NA,NA,NA,NA,NA,NA,TRUE,1,0.006,881.723,884.784,NA,NA,NA,NA,NA,12,28,0,95,95,14,1,2,96,"likert"
"97149AC2E8DA41C593B79D71CA0C1F36",1,"01990a9b-b7e4-716d-a6fd-e9aba7089a93","01990a84-c4ee-73c2-a87b-ff46a7d3dde5","2025-09-02_08h44.58.162",NA,NA,888.1,888.1,888.1,888.399,NA,NA,NA,NA,NA,NA,NA,TRUE,1,2.738,885.108,888.099,NA,NA,NA,NA,NA,180,39,0,96,96,99,1,2,97,"likert"
"97149AC2E8DA41C593B79D71CA0C1F36",1,"01990a9b-b7e4-716d-a6fd-e9aba7089a93","01990a84-c4ee-73c2-a87b-ff46a7d3dde5","2025-09-02_08h44.58.162",NA,NA,891.454,891.454,891.454,891.787,NA,NA,NA,NA,NA,NA,NA,TRUE,1,0.602,888.407,891.454,NA,NA,NA,NA,NA,90,26,0,97,97,72,1,2,98,"likert"
"97149AC2E8DA41C593B79D71CA0C1F36",1,"01990a9b-b7e4-716d-a6fd-e9aba7089a93","01990a84-c4ee-73c2-a87b-ff46a7d3dde5","2025-09-02_08h44.58.162",NA,NA,894.738,894.738,894.738,895.181,NA,NA,NA,NA,NA,NA,NA,TRUE,1,2.709,891.788,894.737,NA,NA,NA,NA,NA,30,38,0,98,98,47,1,2,99,"likert"
"97149AC2E8DA41C593B79D71CA0C1F36",1,"01990a9b-b7e4-716d-a6fd-e9aba7089a93","01990a84-c4ee-73c2-a87b-ff46a7d3dde5","2025-09-02_08h44.58.162",NA,NA,898.209,898.209,898.209,898.584,NA,NA,NA,NA,NA,NA,NA,TRUE,1,2.612,895.191,898.208,NA,NA,NA,NA,NA,28,28,0,99,99,37,1,2,100,"likert"
"97149AC2E8DA41C593B79D71CA0C1F36",1,"01990a9b-b7e4-716d-a6fd-e9aba7089a93","01990a84-c4ee-73c2-a87b-ff46a7d3dde5","2025-09-02_08h44.58.162",NA,NA,901.514,901.514,901.514,901.85,NA,NA,NA,NA,NA,NA,NA,TRUE,1,2.855,898.587,901.514,NA,NA,NA,NA,NA,7,26,0,100,100,1,1,2,101,"likert"
"97149AC2E8DA41C593B79D71CA0C1F36",1,"01990a9b-b7e4-716d-a6fd-e9aba7089a93","01990a84-c4ee-73c2-a87b-ff46a7d3dde5","2025-09-02_08h44.58.162",NA,NA,904.8,904.8,904.8,905.138,NA,NA,NA,NA,NA,NA,NA,TRUE,1,2.74,901.851,904.8,NA,NA,NA,NA,NA,40,27,0,101,101,48,1,2,102,"likert"
"97149AC2E8DA41C593B79D71CA0C1F36",1,"01990a9b-b7e4-716d-a6fd-e9aba7089a93","01990a84-c4ee-73c2-a87b-ff46a7d3dde5","2025-09-02_08h44.58.162",NA,NA,908.196,908.196,908.196,908.515,NA,NA,NA,NA,NA,NA,NA,TRUE,1,0.012,905.14,908.195,NA,NA,NA,NA,NA,30,26,0,102,102,42,1,2,103,"likert"
"97149AC2E8DA41C593B79D71CA0C1F36",1,"01990a9b-b7e4-716d-a6fd-e9aba7089a93","01990a84-c4ee-73c2-a87b-ff46a7d3dde5","2025-09-02_08h44.58.162",NA,NA,911.429,911.429,911.429,911.815,NA,NA,NA,NA,NA,NA,NA,TRUE,1,2.033,908.516,911.428,NA,NA,NA,NA,NA,60,40,0,103,103,69,1,2,104,"likert"
"97149AC2E8DA41C593B79D71CA0C1F36",1,"01990a9b-b7e4-716d-a6fd-e9aba7089a93","01990a84-c4ee-73c2-a87b-ff46a7d3dde5","2025-09-02_08h44.58.162",NA,NA,914.946,914.946,914.946,915.278,NA,NA,NA,NA,NA,NA,NA,TRUE,1,2.587,911.817,914.945,NA,NA,NA,NA,NA,90,30,0,104,104,73,1,2,105,"likert"
"97149AC2E8DA41C593B79D71CA0C1F36",1,"01990a9b-b7e4-716d-a6fd-e9aba7089a93","01990a84-c4ee-73c2-a87b-ff46a7d3dde5","2025-09-02_08h44.58.162",NA,NA,918.272,918.272,918.272,918.589,NA,NA,NA,NA,NA,NA,NA,TRUE,1,0.006,915.287,918.272,NA,NA,NA,NA,NA,90,33,0,105,105,74,1,2,106,"likert"
"97149AC2E8DA41C593B79D71CA0C1F36",1,"01990a9b-b7e4-716d-a6fd-e9aba7089a93","01990a84-c4ee-73c2-a87b-ff46a7d3dde5","2025-09-02_08h44.58.162",NA,NA,921.535,921.535,921.535,921.867,NA,NA,NA,NA,NA,NA,NA,TRUE,1,0.009,918.591,921.534,NA,NA,NA,NA,NA,200,47,0,106,106,106,1,2,107,"likert"
"97149AC2E8DA41C593B79D71CA0C1F36",1,"01990a9b-b7e4-716d-a6fd-e9aba7089a93","01990a84-c4ee-73c2-a87b-ff46a7d3dde5","2025-09-02_08h44.58.162",NA,NA,924.959,924.959,924.959,925.299,NA,NA,NA,NA,NA,NA,NA,TRUE,1,0.009,921.869,924.959,NA,NA,NA,NA,NA,7,32,0,107,107,4,1,2,108,"likert"
