"participant","session","assignmentId","projectId","date","practiceTrial.started","practiceTrial.stopped","tooLate.started","tooLate.stopped","blank.started","blank.stopped","trials_pract.thisRepN","trials_pract.thisTrialN","trials_pract.thisN","trials_pract.thisIndex","trials_pract.ran","delay_pract","amount_pract","responseMade","key","rt","trial.started","trial.stopped","trials.thisRepN","trials.thisTrialN","trials.thisN","trials.thisIndex","trials.ran","delay","amount","trials_2.thisRepN","trials_2.thisTrialN","trials_2.thisN","trials_2.thisIndex","trials_2.ran","block","trial","taskType"
"9A86A88B229145CA9943EAA00F48703F",1,"01990a97-dc2c-75b8-8876-e5e26662225b","01990a84-c4ee-73c2-a87b-ff46a7d3dde5","2025-09-02_09h23.48.215",64.7256,67.7078,67.7085,67.9569,67.957,68.0569,0,0,0,2,1,14,45,FALSE,NA,NA,NA,NA,NA,NA,NA,NA,NA,NA,NA,NA,NA,NA,NA,NA,0,1,"likert"
"9A86A88B229145CA9943EAA00F48703F",1,"01990a97-dc2c-75b8-8876-e5e26662225b","01990a84-c4ee-73c2-a87b-ff46a7d3dde5","2025-09-02_09h23.48.215",68.059,71.0562,71.0564,71.0565,71.0565,71.4068,0,1,1,0,1,7,30,TRUE,2,2.2961,NA,NA,NA,NA,NA,NA,NA,NA,NA,NA,NA,NA,NA,NA,0,2,"likert"
"9A86A88B229145CA9943EAA00F48703F",1,"01990a97-dc2c-75b8-8876-e5e26662225b","01990a84-c4ee-73c2-a87b-ff46a7d3dde5","2025-09-02_09h23.48.215",71.408,74.406,74.4062,74.4062,74.4062,74.7561,0,2,2,4,1,30,40,TRUE,3,1.9506,NA,NA,NA,NA,NA,NA,NA,NA,NA,NA,NA,NA,NA,NA,0,3,"likert"
"9A86A88B229145CA9943EAA00F48703F",1,"01990a97-dc2c-75b8-8876-e5e26662225b","01990a84-c4ee-73c2-a87b-ff46a7d3dde5","2025-09-02_09h23.48.215",74.7572,77.7555,77.7556,77.7557,77.7558,78.1056,0,3,3,3,1,3,27,TRUE,1,1.3506,NA,NA,NA,NA,NA,NA,NA,NA,NA,NA,NA,NA,NA,NA,0,4,"likert"
"9A86A88B229145CA9943EAA00F48703F",1,"01990a97-dc2c-75b8-8876-e5e26662225b","01990a84-c4ee-73c2-a87b-ff46a7d3dde5","2025-09-02_09h23.48.215",78.1068,81.105,81.1051,81.1052,81.1052,81.4552,0,4,4,1,1,100,50,TRUE,1,1.8148,NA,NA,NA,NA,NA,NA,NA,NA,NA,NA,NA,NA,NA,NA,0,5,"likert"
"9A86A88B229145CA9943EAA00F48703F",1,"01990a97-dc2c-75b8-8876-e5e26662225b","01990a84-c4ee-73c2-a87b-ff46a7d3dde5","2025-09-02_09h23.48.215",NA,NA,120.917,120.9172,120.9172,121.2668,NA,NA,NA,NA,NA,NA,NA,TRUE,1,1.3055,117.9362,120.9167,0,0,0,60,1,50,27,NA,NA,NA,NA,NA,1,1,"likert"
"9A86A88B229145CA9943EAA00F48703F",1,"01990a97-dc2c-75b8-8876-e5e26662225b","01990a84-c4ee-73c2-a87b-ff46a7d3dde5","2025-09-02_09h23.48.215",NA,NA,124.2659,124.2659,124.2659,124.616,NA,NA,NA,NA,NA,NA,NA,TRUE,1,1.9692,121.2682,124.2658,0,1,1,59,1,45,46,NA,NA,NA,NA,NA,1,2,"likert"
"9A86A88B229145CA9943EAA00F48703F",1,"01990a97-dc2c-75b8-8876-e5e26662225b","01990a84-c4ee-73c2-a87b-ff46a7d3dde5","2025-09-02_09h23.48.215",NA,NA,127.6155,127.6156,127.6156,127.9654,NA,NA,NA,NA,NA,NA,NA,TRUE,1,1.3682,124.6171,127.6154,0,2,2,1,1,7,26,NA,NA,NA,NA,NA,1,3,"likert"
"9A86A88B229145CA9943EAA00F48703F",1,"01990a97-dc2c-75b8-8876-e5e26662225b","01990a84-c4ee-73c2-a87b-ff46a7d3dde5","2025-09-02_09h23.48.215",NA,NA,130.9654,130.9655,130.9655,131.3152,NA,NA,NA,NA,NA,NA,NA,TRUE,1,2.2004,127.9671,130.9652,0,3,3,47,1,30,38,NA,NA,NA,NA,NA,1,4,"likert"
"9A86A88B229145CA9943EAA00F48703F",1,"01990a97-dc2c-75b8-8876-e5e26662225b","01990a84-c4ee-73c2-a87b-ff46a7d3dde5","2025-09-02_09h23.48.215",NA,NA,134.3153,134.3154,134.3154,134.6648,NA,NA,NA,NA,NA,NA,NA,TRUE,1,1.6495,131.3164,134.3151,0,4,4,56,1,45,31,NA,NA,NA,NA,NA,1,5,"likert"
"9A86A88B229145CA9943EAA00F48703F",1,"01990a97-dc2c-75b8-8876-e5e26662225b","01990a84-c4ee-73c2-a87b-ff46a7d3dde5","2025-09-02_09h23.48.215",NA,NA,137.6644,137.6644,137.6644,138.0144,NA,NA,NA,NA,NA,NA,NA,TRUE,1,1.4385,134.6659,137.6643,0,5,5,101,1,180,54,NA,NA,NA,NA,NA,1,6,"likert"
"9A86A88B229145CA9943EAA00F48703F",1,"01990a97-dc2c-75b8-8876-e5e26662225b","01990a84-c4ee-73c2-a87b-ff46a7d3dde5","2025-09-02_09h23.48.215",NA,NA,141.0142,141.0142,141.0142,141.364,NA,NA,NA,NA,NA,NA,NA,TRUE,1,2.5421,138.0152,141.0141,0,6,6,27,1,21,30,NA,NA,NA,NA,NA,1,7,"likert"
"9A86A88B229145CA9943EAA00F48703F",1,"01990a97-dc2c-75b8-8876-e5e26662225b","01990a84-c4ee-73c2-a87b-ff46a7d3dde5","2025-09-02_09h23.48.215",NA,NA,144.3636,144.3636,144.3637,144.7133,NA,NA,NA,NA,NA,NA,NA,TRUE,1,2.4545,141.365,144.3634,0,7,7,39,1,28,35,NA,NA,NA,NA,NA,1,8,"likert"
"9A86A88B229145CA9943EAA00F48703F",1,"01990a97-dc2c-75b8-8876-e5e26662225b","01990a84-c4ee-73c2-a87b-ff46a7d3dde5","2025-09-02_09h23.48.215",NA,NA,147.7132,147.9631,147.9632,148.0631,NA,NA,NA,NA,NA,NA,NA,FALSE,NA,NA,144.7142,147.7131,0,8,8,43,1,30,27,NA,NA,NA,NA,NA,1,9,"likert"
"9A86A88B229145CA9943EAA00F48703F",1,"01990a97-dc2c-75b8-8876-e5e26662225b","01990a84-c4ee-73c2-a87b-ff46a7d3dde5","2025-09-02_09h23.48.215",NA,NA,151.0632,151.0632,151.0633,151.4128,NA,NA,NA,NA,NA,NA,NA,TRUE,1,1.3917,148.0641,151.0632,0,9,9,42,1,30,26,NA,NA,NA,NA,NA,1,10,"likert"
"9A86A88B229145CA9943EAA00F48703F",1,"01990a97-dc2c-75b8-8876-e5e26662225b","01990a84-c4ee-73c2-a87b-ff46a7d3dde5","2025-09-02_09h23.48.215",NA,NA,154.4128,154.4128,154.4128,154.762,NA,NA,NA,NA,NA,NA,NA,TRUE,1,1.8997,151.4142,154.4125,0,10,10,80,1,95,35,NA,NA,NA,NA,NA,1,11,"likert"
"9A86A88B229145CA9943EAA00F48703F",1,"01990a97-dc2c-75b8-8876-e5e26662225b","01990a84-c4ee-73c2-a87b-ff46a7d3dde5","2025-09-02_09h23.48.215",NA,NA,157.762,157.762,157.762,158.1117,NA,NA,NA,NA,NA,NA,NA,TRUE,1,2.0955,154.7629,157.7618,0,11,11,12,1,12,25,NA,NA,NA,NA,NA,1,12,"likert"
"9A86A88B229145CA9943EAA00F48703F",1,"01990a97-dc2c-75b8-8876-e5e26662225b","01990a84-c4ee-73c2-a87b-ff46a7d3dde5","2025-09-02_09h23.48.215",NA,NA,161.1113,161.1114,161.1114,161.4614,NA,NA,NA,NA,NA,NA,NA,TRUE,1,1.5826,158.113,161.1112,0,12,12,29,1,21,38,NA,NA,NA,NA,NA,1,13,"likert"
"9A86A88B229145CA9943EAA00F48703F",1,"01990a97-dc2c-75b8-8876-e5e26662225b","01990a84-c4ee-73c2-a87b-ff46a7d3dde5","2025-09-02_09h23.48.215",NA,NA,164.4627,164.4627,164.4627,164.8109,NA,NA,NA,NA,NA,NA,NA,TRUE,1,1.0332,161.4626,164.4626,0,13,13,90,1,150,31,NA,NA,NA,NA,NA,1,14,"likert"
"9A86A88B229145CA9943EAA00F48703F",1,"01990a97-dc2c-75b8-8876-e5e26662225b","01990a84-c4ee-73c2-a87b-ff46a7d3dde5","2025-09-02_09h23.48.215",NA,NA,167.8109,167.811,167.811,168.1603,NA,NA,NA,NA,NA,NA,NA,TRUE,1,1.125,164.8119,167.8108,0,14,14,84,1,100,26,NA,NA,NA,NA,NA,1,15,"likert"
"9A86A88B229145CA9943EAA00F48703F",1,"01990a97-dc2c-75b8-8876-e5e26662225b","01990a84-c4ee-73c2-a87b-ff46a7d3dde5","2025-09-02_09h23.48.215",NA,NA,171.1608,171.1608,171.1608,171.5097,NA,NA,NA,NA,NA,NA,NA,TRUE,1,0.9362,168.1613,171.1607,0,15,15,7,1,10,26,NA,NA,NA,NA,NA,1,16,"likert"
"9A86A88B229145CA9943EAA00F48703F",1,"01990a97-dc2c-75b8-8876-e5e26662225b","01990a84-c4ee-73c2-a87b-ff46a7d3dde5","2025-09-02_09h23.48.215",NA,NA,174.5098,174.5098,174.5099,174.8594,NA,NA,NA,NA,NA,NA,NA,TRUE,1,1.8043,171.5107,174.5097,0,16,16,94,1,150,47,NA,NA,NA,NA,NA,1,17,"likert"
"9A86A88B229145CA9943EAA00F48703F",1,"01990a97-dc2c-75b8-8876-e5e26662225b","01990a84-c4ee-73c2-a87b-ff46a7d3dde5","2025-09-02_09h23.48.215",NA,NA,177.8591,177.8591,177.8591,178.2097,NA,NA,NA,NA,NA,NA,NA,TRUE,1,1.7865,174.8604,177.859,0,17,17,96,1,180,27,NA,NA,NA,NA,NA,1,18,"likert"
"9A86A88B229145CA9943EAA00F48703F",1,"01990a97-dc2c-75b8-8876-e5e26662225b","01990a84-c4ee-73c2-a87b-ff46a7d3dde5","2025-09-02_09h23.48.215",NA,NA,181.2087,181.2087,181.2087,181.5585,NA,NA,NA,NA,NA,NA,NA,TRUE,1,1.8339,178.2107,181.2086,0,18,18,64,1,50,46,NA,NA,NA,NA,NA,1,19,"likert"
"9A86A88B229145CA9943EAA00F48703F",1,"01990a97-dc2c-75b8-8876-e5e26662225b","01990a84-c4ee-73c2-a87b-ff46a7d3dde5","2025-09-02_09h23.48.215",NA,NA,184.5583,184.5583,184.5583,184.9084,NA,NA,NA,NA,NA,NA,NA,TRUE,3,2.2309,181.5593,184.5583,0,19,19,5,1,7,35,NA,NA,NA,NA,NA,1,20,"likert"
"9A86A88B229145CA9943EAA00F48703F",1,"01990a97-dc2c-75b8-8876-e5e26662225b","01990a84-c4ee-73c2-a87b-ff46a7d3dde5","2025-09-02_09h23.48.215",NA,NA,187.9078,187.9078,187.9078,188.2575,NA,NA,NA,NA,NA,NA,NA,TRUE,1,1.7403,184.9091,187.9076,0,20,20,54,1,45,26,NA,NA,NA,NA,NA,1,21,"likert"
"9A86A88B229145CA9943EAA00F48703F",1,"01990a97-dc2c-75b8-8876-e5e26662225b","01990a84-c4ee-73c2-a87b-ff46a7d3dde5","2025-09-02_09h23.48.215",NA,NA,191.2575,191.2575,191.2575,191.6076,NA,NA,NA,NA,NA,NA,NA,TRUE,1,1.4694,188.2584,191.2574,0,21,21,52,1,40,47,NA,NA,NA,NA,NA,1,22,"likert"
"9A86A88B229145CA9943EAA00F48703F",1,"01990a97-dc2c-75b8-8876-e5e26662225b","01990a84-c4ee-73c2-a87b-ff46a7d3dde5","2025-09-02_09h23.48.215",NA,NA,194.607,194.607,194.607,194.9568,NA,NA,NA,NA,NA,NA,NA,TRUE,1,1.3604,191.6082,194.6068,0,22,22,21,1,14,32,NA,NA,NA,NA,NA,1,23,"likert"
"9A86A88B229145CA9943EAA00F48703F",1,"01990a97-dc2c-75b8-8876-e5e26662225b","01990a84-c4ee-73c2-a87b-ff46a7d3dde5","2025-09-02_09h23.48.215",NA,NA,197.9565,197.9565,197.9565,198.3063,NA,NA,NA,NA,NA,NA,NA,TRUE,1,1.4667,194.9575,197.9564,0,23,23,46,1,30,32,NA,NA,NA,NA,NA,1,24,"likert"
"9A86A88B229145CA9943EAA00F48703F",1,"01990a97-dc2c-75b8-8876-e5e26662225b","01990a84-c4ee-73c2-a87b-ff46a7d3dde5","2025-09-02_09h23.48.215",NA,NA,201.306,201.306,201.3061,201.6561,NA,NA,NA,NA,NA,NA,NA,TRUE,1,1.1887,198.3073,201.3059,0,24,24,61,1,50,30,NA,NA,NA,NA,NA,1,25,"likert"
"9A86A88B229145CA9943EAA00F48703F",1,"01990a97-dc2c-75b8-8876-e5e26662225b","01990a84-c4ee-73c2-a87b-ff46a7d3dde5","2025-09-02_09h23.48.215",NA,NA,204.6556,204.6556,204.6556,205.0054,NA,NA,NA,NA,NA,NA,NA,TRUE,1,1.1225,201.6569,204.6554,0,25,25,48,1,40,27,NA,NA,NA,NA,NA,1,26,"likert"
"9A86A88B229145CA9943EAA00F48703F",1,"01990a97-dc2c-75b8-8876-e5e26662225b","01990a84-c4ee-73c2-a87b-ff46a7d3dde5","2025-09-02_09h23.48.215",NA,NA,208.0052,208.0052,208.0052,208.3551,NA,NA,NA,NA,NA,NA,NA,TRUE,1,1.5868,205.0066,208.0051,0,26,26,95,1,150,54,NA,NA,NA,NA,NA,1,27,"likert"
"9A86A88B229145CA9943EAA00F48703F",1,"01990a97-dc2c-75b8-8876-e5e26662225b","01990a84-c4ee-73c2-a87b-ff46a7d3dde5","2025-09-02_09h23.48.215",NA,NA,211.3547,211.3547,211.3548,211.7046,NA,NA,NA,NA,NA,NA,NA,TRUE,1,1.5797,208.3558,211.3546,0,27,27,88,1,100,46,NA,NA,NA,NA,NA,1,28,"likert"
"9A86A88B229145CA9943EAA00F48703F",1,"01990a97-dc2c-75b8-8876-e5e26662225b","01990a84-c4ee-73c2-a87b-ff46a7d3dde5","2025-09-02_09h23.48.215",NA,NA,214.721,214.7211,214.7211,215.0707,NA,NA,NA,NA,NA,NA,NA,TRUE,1,1.7718,211.7057,214.721,0,28,28,53,1,40,54,NA,NA,NA,NA,NA,1,29,"likert"
"9A86A88B229145CA9943EAA00F48703F",1,"01990a97-dc2c-75b8-8876-e5e26662225b","01990a84-c4ee-73c2-a87b-ff46a7d3dde5","2025-09-02_09h23.48.215",NA,NA,218.0705,218.0705,218.0705,218.4205,NA,NA,NA,NA,NA,NA,NA,TRUE,1,1.3351,215.0715,218.0704,0,29,29,89,1,100,54,NA,NA,NA,NA,NA,1,30,"likert"
"9A86A88B229145CA9943EAA00F48703F",1,"01990a97-dc2c-75b8-8876-e5e26662225b","01990a84-c4ee-73c2-a87b-ff46a7d3dde5","2025-09-02_09h23.48.215",NA,NA,221.4202,221.4202,221.4203,221.7699,NA,NA,NA,NA,NA,NA,NA,TRUE,1,1.7113,218.4214,221.4201,0,30,30,36,1,28,26,NA,NA,NA,NA,NA,1,31,"likert"
"9A86A88B229145CA9943EAA00F48703F",1,"01990a97-dc2c-75b8-8876-e5e26662225b","01990a84-c4ee-73c2-a87b-ff46a7d3dde5","2025-09-02_09h23.48.215",NA,NA,224.7695,224.7695,224.7695,225.1195,NA,NA,NA,NA,NA,NA,NA,TRUE,1,1.3866,221.7707,224.7695,0,31,31,19,1,14,26,NA,NA,NA,NA,NA,1,32,"likert"
"9A86A88B229145CA9943EAA00F48703F",1,"01990a97-dc2c-75b8-8876-e5e26662225b","01990a84-c4ee-73c2-a87b-ff46a7d3dde5","2025-09-02_09h23.48.215",NA,NA,228.1192,228.1193,228.1193,228.4691,NA,NA,NA,NA,NA,NA,NA,TRUE,1,1.1544,225.1206,228.1191,0,32,32,72,1,90,26,NA,NA,NA,NA,NA,1,33,"likert"
"9A86A88B229145CA9943EAA00F48703F",1,"01990a97-dc2c-75b8-8876-e5e26662225b","01990a84-c4ee-73c2-a87b-ff46a7d3dde5","2025-09-02_09h23.48.215",NA,NA,231.4688,231.4688,231.4688,231.8185,NA,NA,NA,NA,NA,NA,NA,TRUE,1,1.192,228.4699,231.4687,0,33,33,98,1,180,35,NA,NA,NA,NA,NA,1,34,"likert"
"9A86A88B229145CA9943EAA00F48703F",1,"01990a97-dc2c-75b8-8876-e5e26662225b","01990a84-c4ee-73c2-a87b-ff46a7d3dde5","2025-09-02_09h23.48.215",NA,NA,234.8182,234.8182,234.8182,235.1687,NA,NA,NA,NA,NA,NA,NA,TRUE,1,1.8018,231.8192,234.8182,0,34,34,55,1,45,29,NA,NA,NA,NA,NA,1,35,"likert"
"9A86A88B229145CA9943EAA00F48703F",1,"01990a97-dc2c-75b8-8876-e5e26662225b","01990a84-c4ee-73c2-a87b-ff46a7d3dde5","2025-09-02_09h23.48.215",NA,NA,238.168,238.168,238.168,238.5179,NA,NA,NA,NA,NA,NA,NA,TRUE,1,1.4333,235.1699,238.1679,0,35,35,69,1,60,40,NA,NA,NA,NA,NA,1,36,"likert"
"9A86A88B229145CA9943EAA00F48703F",1,"01990a97-dc2c-75b8-8876-e5e26662225b","01990a84-c4ee-73c2-a87b-ff46a7d3dde5","2025-09-02_09h23.48.215",NA,NA,241.5181,241.5181,241.5181,241.8672,NA,NA,NA,NA,NA,NA,NA,TRUE,1,1.1429,238.519,241.518,0,36,36,68,1,60,35,NA,NA,NA,NA,NA,1,37,"likert"
"9A86A88B229145CA9943EAA00F48703F",1,"01990a97-dc2c-75b8-8876-e5e26662225b","01990a84-c4ee-73c2-a87b-ff46a7d3dde5","2025-09-02_09h23.48.215",NA,NA,244.8669,244.8669,244.8669,245.2167,NA,NA,NA,NA,NA,NA,NA,TRUE,1,1.3034,241.8679,244.8668,0,37,37,44,1,30,29,NA,NA,NA,NA,NA,1,38,"likert"
"9A86A88B229145CA9943EAA00F48703F",1,"01990a97-dc2c-75b8-8876-e5e26662225b","01990a84-c4ee-73c2-a87b-ff46a7d3dde5","2025-09-02_09h23.48.215",NA,NA,248.2166,248.2166,248.2167,248.5666,NA,NA,NA,NA,NA,NA,NA,TRUE,1,1.2937,245.2178,248.2166,0,38,38,82,1,95,47,NA,NA,NA,NA,NA,1,39,"likert"
"9A86A88B229145CA9943EAA00F48703F",1,"01990a97-dc2c-75b8-8876-e5e26662225b","01990a84-c4ee-73c2-a87b-ff46a7d3dde5","2025-09-02_09h23.48.215",NA,NA,251.5662,251.5662,251.5662,251.9159,NA,NA,NA,NA,NA,NA,NA,TRUE,1,1.3971,248.5673,251.5661,0,39,39,0,1,7,25,NA,NA,NA,NA,NA,1,40,"likert"
"9A86A88B229145CA9943EAA00F48703F",1,"01990a97-dc2c-75b8-8876-e5e26662225b","01990a84-c4ee-73c2-a87b-ff46a7d3dde5","2025-09-02_09h23.48.215",NA,NA,254.9157,254.9157,254.9157,255.2655,NA,NA,NA,NA,NA,NA,NA,TRUE,1,1.4741,251.9165,254.9156,0,40,40,37,1,28,28,NA,NA,NA,NA,NA,1,41,"likert"
"9A86A88B229145CA9943EAA00F48703F",1,"01990a97-dc2c-75b8-8876-e5e26662225b","01990a84-c4ee-73c2-a87b-ff46a7d3dde5","2025-09-02_09h23.48.215",NA,NA,258.2653,258.2654,258.2654,258.615,NA,NA,NA,NA,NA,NA,NA,TRUE,1,2.0408,255.2665,258.2653,0,41,41,49,1,40,33,NA,NA,NA,NA,NA,1,42,"likert"
"9A86A88B229145CA9943EAA00F48703F",1,"01990a97-dc2c-75b8-8876-e5e26662225b","01990a84-c4ee-73c2-a87b-ff46a7d3dde5","2025-09-02_09h23.48.215",NA,NA,261.6151,261.6151,261.6151,261.9645,NA,NA,NA,NA,NA,NA,NA,TRUE,1,1.5268,258.6157,261.6151,0,42,42,20,1,14,28,NA,NA,NA,NA,NA,1,43,"likert"
"9A86A88B229145CA9943EAA00F48703F",1,"01990a97-dc2c-75b8-8876-e5e26662225b","01990a84-c4ee-73c2-a87b-ff46a7d3dde5","2025-09-02_09h23.48.215",NA,NA,264.9644,264.9645,264.9645,265.3143,NA,NA,NA,NA,NA,NA,NA,TRUE,1,1.5051,261.9651,264.9643,0,43,43,24,1,21,26,NA,NA,NA,NA,NA,1,44,"likert"
"9A86A88B229145CA9943EAA00F48703F",1,"01990a97-dc2c-75b8-8876-e5e26662225b","01990a84-c4ee-73c2-a87b-ff46a7d3dde5","2025-09-02_09h23.48.215",NA,NA,268.314,268.314,268.314,268.664,NA,NA,NA,NA,NA,NA,NA,TRUE,1,1.0663,265.315,268.3138,0,44,44,50,1,40,35,NA,NA,NA,NA,NA,1,45,"likert"
"9A86A88B229145CA9943EAA00F48703F",1,"01990a97-dc2c-75b8-8876-e5e26662225b","01990a84-c4ee-73c2-a87b-ff46a7d3dde5","2025-09-02_09h23.48.215",NA,NA,271.6637,271.6637,271.6638,272.0133,NA,NA,NA,NA,NA,NA,NA,TRUE,3,2.367,268.6651,271.6635,0,45,45,65,1,50,54,NA,NA,NA,NA,NA,1,46,"likert"
"9A86A88B229145CA9943EAA00F48703F",1,"01990a97-dc2c-75b8-8876-e5e26662225b","01990a84-c4ee-73c2-a87b-ff46a7d3dde5","2025-09-02_09h23.48.215",NA,NA,275.0132,275.0132,275.0132,275.3627,NA,NA,NA,NA,NA,NA,NA,TRUE,1,1.0979,272.0143,275.0131,0,46,46,86,1,100,38,NA,NA,NA,NA,NA,1,47,"likert"
"9A86A88B229145CA9943EAA00F48703F",1,"01990a97-dc2c-75b8-8876-e5e26662225b","01990a84-c4ee-73c2-a87b-ff46a7d3dde5","2025-09-02_09h23.48.215",NA,NA,278.3627,278.3627,278.3627,278.7125,NA,NA,NA,NA,NA,NA,NA,TRUE,1,1.3932,275.3635,278.3626,0,47,47,85,1,100,31,NA,NA,NA,NA,NA,1,48,"likert"
"9A86A88B229145CA9943EAA00F48703F",1,"01990a97-dc2c-75b8-8876-e5e26662225b","01990a84-c4ee-73c2-a87b-ff46a7d3dde5","2025-09-02_09h23.48.215",NA,NA,281.7124,281.7124,281.7124,282.0624,NA,NA,NA,NA,NA,NA,NA,TRUE,1,1.1165,278.7133,281.7123,0,48,48,45,1,30,30,NA,NA,NA,NA,NA,1,49,"likert"
"9A86A88B229145CA9943EAA00F48703F",1,"01990a97-dc2c-75b8-8876-e5e26662225b","01990a84-c4ee-73c2-a87b-ff46a7d3dde5","2025-09-02_09h23.48.215",NA,NA,285.062,285.062,285.062,285.4117,NA,NA,NA,NA,NA,NA,NA,TRUE,1,0.9058,282.0632,285.0619,0,49,49,17,1,12,35,NA,NA,NA,NA,NA,1,50,"likert"
"9A86A88B229145CA9943EAA00F48703F",1,"01990a97-dc2c-75b8-8876-e5e26662225b","01990a84-c4ee-73c2-a87b-ff46a7d3dde5","2025-09-02_09h23.48.215",NA,NA,288.4116,288.4116,288.4116,288.7611,NA,NA,NA,NA,NA,NA,NA,TRUE,1,1.7071,285.4126,288.4115,0,50,50,3,1,7,30,NA,NA,NA,NA,NA,1,51,"likert"
"9A86A88B229145CA9943EAA00F48703F",1,"01990a97-dc2c-75b8-8876-e5e26662225b","01990a84-c4ee-73c2-a87b-ff46a7d3dde5","2025-09-02_09h23.48.215",NA,NA,291.761,291.761,291.761,292.111,NA,NA,NA,NA,NA,NA,NA,TRUE,1,1.2922,288.7619,291.7609,0,51,51,71,1,60,54,NA,NA,NA,NA,NA,1,52,"likert"
"9A86A88B229145CA9943EAA00F48703F",1,"01990a97-dc2c-75b8-8876-e5e26662225b","01990a84-c4ee-73c2-a87b-ff46a7d3dde5","2025-09-02_09h23.48.215",NA,NA,295.1104,295.1104,295.1104,295.4604,NA,NA,NA,NA,NA,NA,NA,TRUE,1,1.0803,292.112,295.1102,0,52,52,106,1,200,47,NA,NA,NA,NA,NA,1,53,"likert"
"9A86A88B229145CA9943EAA00F48703F",1,"01990a97-dc2c-75b8-8876-e5e26662225b","01990a84-c4ee-73c2-a87b-ff46a7d3dde5","2025-09-02_09h23.48.215",NA,NA,298.4603,298.4603,298.4603,298.8099,NA,NA,NA,NA,NA,NA,NA,TRUE,1,0.9513,295.4616,298.4601,0,53,53,107,1,200,54,NA,NA,NA,NA,NA,1,54,"likert"
"9A86A88B229145CA9943EAA00F48703F",1,"01990a97-dc2c-75b8-8876-e5e26662225b","01990a84-c4ee-73c2-a87b-ff46a7d3dde5","2025-09-02_09h23.48.215",NA,NA,301.8095,301.8095,301.8095,302.1594,NA,NA,NA,NA,NA,NA,NA,TRUE,1,1.7084,298.8109,301.8094,0,54,54,35,1,25,46,NA,NA,NA,NA,NA,1,55,"likert"
"9A86A88B229145CA9943EAA00F48703F",1,"01990a97-dc2c-75b8-8876-e5e26662225b","01990a84-c4ee-73c2-a87b-ff46a7d3dde5","2025-09-02_09h23.48.215",NA,NA,305.1591,305.1592,305.1592,305.5093,NA,NA,NA,NA,NA,NA,NA,TRUE,1,1.0787,302.1603,305.159,0,55,55,81,1,95,40,NA,NA,NA,NA,NA,1,56,"likert"
"9A86A88B229145CA9943EAA00F48703F",1,"01990a97-dc2c-75b8-8876-e5e26662225b","01990a84-c4ee-73c2-a87b-ff46a7d3dde5","2025-09-02_09h23.48.215",NA,NA,308.5092,308.5092,308.5092,308.8587,NA,NA,NA,NA,NA,NA,NA,TRUE,1,0.9939,305.5104,308.5092,0,56,56,102,1,200,26,NA,NA,NA,NA,NA,1,57,"likert"
"9A86A88B229145CA9943EAA00F48703F",1,"01990a97-dc2c-75b8-8876-e5e26662225b","01990a84-c4ee-73c2-a87b-ff46a7d3dde5","2025-09-02_09h23.48.215",NA,NA,311.8582,311.8582,311.8583,312.2081,NA,NA,NA,NA,NA,NA,NA,TRUE,1,1.6248,308.8598,311.8582,0,57,57,4,1,7,32,NA,NA,NA,NA,NA,1,58,"likert"
"9A86A88B229145CA9943EAA00F48703F",1,"01990a97-dc2c-75b8-8876-e5e26662225b","01990a84-c4ee-73c2-a87b-ff46a7d3dde5","2025-09-02_09h23.48.215",NA,NA,315.2081,315.2081,315.2082,315.5577,NA,NA,NA,NA,NA,NA,NA,TRUE,1,1.0318,312.2091,315.208,0,58,58,66,1,60,29,NA,NA,NA,NA,NA,1,59,"likert"
"9A86A88B229145CA9943EAA00F48703F",1,"01990a97-dc2c-75b8-8876-e5e26662225b","01990a84-c4ee-73c2-a87b-ff46a7d3dde5","2025-09-02_09h23.48.215",NA,NA,318.5574,318.5574,318.5574,318.9073,NA,NA,NA,NA,NA,NA,NA,TRUE,1,1.2697,315.5586,318.5573,0,59,59,74,1,90,33,NA,NA,NA,NA,NA,1,60,"likert"
"9A86A88B229145CA9943EAA00F48703F",1,"01990a97-dc2c-75b8-8876-e5e26662225b","01990a84-c4ee-73c2-a87b-ff46a7d3dde5","2025-09-02_09h23.48.215",NA,NA,321.907,321.907,321.9071,322.2567,NA,NA,NA,NA,NA,NA,NA,TRUE,1,1.1949,318.9085,321.9069,0,60,60,105,1,200,39,NA,NA,NA,NA,NA,1,61,"likert"
"9A86A88B229145CA9943EAA00F48703F",1,"01990a97-dc2c-75b8-8876-e5e26662225b","01990a84-c4ee-73c2-a87b-ff46a7d3dde5","2025-09-02_09h23.48.215",NA,NA,325.2565,325.2565,325.2565,325.6064,NA,NA,NA,NA,NA,NA,NA,TRUE,1,0.6903,322.2576,325.2564,0,61,61,8,1,10,27,NA,NA,NA,NA,NA,1,62,"likert"
"9A86A88B229145CA9943EAA00F48703F",1,"01990a97-dc2c-75b8-8876-e5e26662225b","01990a84-c4ee-73c2-a87b-ff46a7d3dde5","2025-09-02_09h23.48.215",NA,NA,328.606,328.606,328.606,328.9563,NA,NA,NA,NA,NA,NA,NA,TRUE,1,1.3024,325.6073,328.6059,0,62,62,38,1,28,32,NA,NA,NA,NA,NA,1,63,"likert"
"9A86A88B229145CA9943EAA00F48703F",1,"01990a97-dc2c-75b8-8876-e5e26662225b","01990a84-c4ee-73c2-a87b-ff46a7d3dde5","2025-09-02_09h23.48.215",NA,NA,331.9561,331.9561,331.9561,332.3055,NA,NA,NA,NA,NA,NA,NA,TRUE,1,1.7215,328.9573,331.9559,0,63,63,13,1,12,26,NA,NA,NA,NA,NA,1,64,"likert"
"9A86A88B229145CA9943EAA00F48703F",1,"01990a97-dc2c-75b8-8876-e5e26662225b","01990a84-c4ee-73c2-a87b-ff46a7d3dde5","2025-09-02_09h23.48.215",NA,NA,335.3058,335.3058,335.3058,335.6552,NA,NA,NA,NA,NA,NA,NA,TRUE,1,1.6559,332.3063,335.3057,0,64,64,16,1,12,33,NA,NA,NA,NA,NA,1,65,"likert"
"9A86A88B229145CA9943EAA00F48703F",1,"01990a97-dc2c-75b8-8876-e5e26662225b","01990a84-c4ee-73c2-a87b-ff46a7d3dde5","2025-09-02_09h23.48.215",NA,NA,338.6554,338.6554,338.6554,339.0047,NA,NA,NA,NA,NA,NA,NA,TRUE,1,1.4114,335.6563,338.6552,0,65,65,62,1,50,35,NA,NA,NA,NA,NA,1,66,"likert"
"9A86A88B229145CA9943EAA00F48703F",1,"01990a97-dc2c-75b8-8876-e5e26662225b","01990a84-c4ee-73c2-a87b-ff46a7d3dde5","2025-09-02_09h23.48.215",NA,NA,342.0214,342.0215,342.0215,342.3545,NA,NA,NA,NA,NA,NA,NA,TRUE,1,1.0338,339.0057,342.0212,0,66,66,11,1,10,32,NA,NA,NA,NA,NA,1,67,"likert"
"9A86A88B229145CA9943EAA00F48703F",1,"01990a97-dc2c-75b8-8876-e5e26662225b","01990a84-c4ee-73c2-a87b-ff46a7d3dde5","2025-09-02_09h23.48.215",NA,NA,345.3708,345.3708,345.3709,345.7204,NA,NA,NA,NA,NA,NA,NA,TRUE,1,1.0013,342.3554,345.3708,0,67,67,63,1,50,40,NA,NA,NA,NA,NA,1,68,"likert"
"9A86A88B229145CA9943EAA00F48703F",1,"01990a97-dc2c-75b8-8876-e5e26662225b","01990a84-c4ee-73c2-a87b-ff46a7d3dde5","2025-09-02_09h23.48.215",NA,NA,348.72,348.72,348.72,349.0699,NA,NA,NA,NA,NA,NA,NA,TRUE,1,1.3751,345.7216,348.7199,0,68,68,70,1,60,47,NA,NA,NA,NA,NA,1,69,"likert"
"9A86A88B229145CA9943EAA00F48703F",1,"01990a97-dc2c-75b8-8876-e5e26662225b","01990a84-c4ee-73c2-a87b-ff46a7d3dde5","2025-09-02_09h23.48.215",NA,NA,352.07,352.07,352.07,352.4196,NA,NA,NA,NA,NA,NA,NA,TRUE,1,1.0738,349.0709,352.0699,0,69,69,75,1,90,40,NA,NA,NA,NA,NA,1,70,"likert"
"9A86A88B229145CA9943EAA00F48703F",1,"01990a97-dc2c-75b8-8876-e5e26662225b","01990a84-c4ee-73c2-a87b-ff46a7d3dde5","2025-09-02_09h23.48.215",NA,NA,355.4196,355.4196,355.4196,355.769,NA,NA,NA,NA,NA,NA,NA,TRUE,1,1.2563,352.4204,355.4194,0,70,70,92,1,150,35,NA,NA,NA,NA,NA,1,71,"likert"
"9A86A88B229145CA9943EAA00F48703F",1,"01990a97-dc2c-75b8-8876-e5e26662225b","01990a84-c4ee-73c2-a87b-ff46a7d3dde5","2025-09-02_09h23.48.215",NA,NA,358.7688,358.7688,358.7689,359.119,NA,NA,NA,NA,NA,NA,NA,TRUE,1,0.8783,355.7699,358.7688,0,71,71,100,1,180,46,NA,NA,NA,NA,NA,1,72,"likert"
"9A86A88B229145CA9943EAA00F48703F",1,"01990a97-dc2c-75b8-8876-e5e26662225b","01990a84-c4ee-73c2-a87b-ff46a7d3dde5","2025-09-02_09h23.48.215",NA,NA,362.1186,362.1187,362.1187,362.4681,NA,NA,NA,NA,NA,NA,NA,TRUE,1,1.3427,359.1199,362.1184,0,72,72,40,1,28,39,NA,NA,NA,NA,NA,1,73,"likert"
"9A86A88B229145CA9943EAA00F48703F",1,"01990a97-dc2c-75b8-8876-e5e26662225b","01990a84-c4ee-73c2-a87b-ff46a7d3dde5","2025-09-02_09h23.48.215",NA,NA,365.4686,365.4686,365.4686,365.8178,NA,NA,NA,NA,NA,NA,NA,TRUE,1,1.4127,362.4688,365.4684,0,73,73,26,1,21,29,NA,NA,NA,NA,NA,1,74,"likert"
"9A86A88B229145CA9943EAA00F48703F",1,"01990a97-dc2c-75b8-8876-e5e26662225b","01990a84-c4ee-73c2-a87b-ff46a7d3dde5","2025-09-02_09h23.48.215",NA,NA,368.818,368.818,368.8181,369.1673,NA,NA,NA,NA,NA,NA,NA,TRUE,1,1.3927,365.8188,368.8178,0,74,74,51,1,40,40,NA,NA,NA,NA,NA,1,75,"likert"
"9A86A88B229145CA9943EAA00F48703F",1,"01990a97-dc2c-75b8-8876-e5e26662225b","01990a84-c4ee-73c2-a87b-ff46a7d3dde5","2025-09-02_09h23.48.215",NA,NA,372.1673,372.1674,372.1674,372.5174,NA,NA,NA,NA,NA,NA,NA,TRUE,1,1.3495,369.1681,372.1672,0,75,75,97,1,180,31,NA,NA,NA,NA,NA,1,76,"likert"
"9A86A88B229145CA9943EAA00F48703F",1,"01990a97-dc2c-75b8-8876-e5e26662225b","01990a84-c4ee-73c2-a87b-ff46a7d3dde5","2025-09-02_09h23.48.215",NA,NA,375.5166,375.5166,375.5167,375.8667,NA,NA,NA,NA,NA,NA,NA,TRUE,1,1.0499,372.5183,375.5166,0,76,76,14,1,12,28,NA,NA,NA,NA,NA,1,77,"likert"
"9A86A88B229145CA9943EAA00F48703F",1,"01990a97-dc2c-75b8-8876-e5e26662225b","01990a84-c4ee-73c2-a87b-ff46a7d3dde5","2025-09-02_09h23.48.215",NA,NA,378.8662,378.8662,378.8662,379.216,NA,NA,NA,NA,NA,NA,NA,TRUE,1,1.1995,375.8679,378.8662,0,77,77,77,1,90,54,NA,NA,NA,NA,NA,1,78,"likert"
"9A86A88B229145CA9943EAA00F48703F",1,"01990a97-dc2c-75b8-8876-e5e26662225b","01990a84-c4ee-73c2-a87b-ff46a7d3dde5","2025-09-02_09h23.48.215",NA,NA,382.2158,382.2158,382.2158,382.5661,NA,NA,NA,NA,NA,NA,NA,TRUE,1,1.046,379.2173,382.2157,0,78,78,32,1,25,31,NA,NA,NA,NA,NA,1,79,"likert"
"9A86A88B229145CA9943EAA00F48703F",1,"01990a97-dc2c-75b8-8876-e5e26662225b","01990a84-c4ee-73c2-a87b-ff46a7d3dde5","2025-09-02_09h23.48.215",NA,NA,385.5657,385.5657,385.5657,385.9151,NA,NA,NA,NA,NA,NA,NA,TRUE,1,1.4069,382.5673,385.5655,0,79,79,79,1,95,33,NA,NA,NA,NA,NA,1,80,"likert"
"9A86A88B229145CA9943EAA00F48703F",1,"01990a97-dc2c-75b8-8876-e5e26662225b","01990a84-c4ee-73c2-a87b-ff46a7d3dde5","2025-09-02_09h23.48.215",NA,NA,388.9149,388.915,388.915,389.265,NA,NA,NA,NA,NA,NA,NA,TRUE,1,1.6514,385.916,388.9148,0,80,80,67,1,60,33,NA,NA,NA,NA,NA,1,81,"likert"
"9A86A88B229145CA9943EAA00F48703F",1,"01990a97-dc2c-75b8-8876-e5e26662225b","01990a84-c4ee-73c2-a87b-ff46a7d3dde5","2025-09-02_09h23.48.215",NA,NA,392.2644,392.2644,392.2644,392.6142,NA,NA,NA,NA,NA,NA,NA,TRUE,1,1.3727,389.2662,392.2642,0,81,81,15,1,12,31,NA,NA,NA,NA,NA,1,82,"likert"
"9A86A88B229145CA9943EAA00F48703F",1,"01990a97-dc2c-75b8-8876-e5e26662225b","01990a84-c4ee-73c2-a87b-ff46a7d3dde5","2025-09-02_09h23.48.215",NA,NA,395.614,395.614,395.614,395.9639,NA,NA,NA,NA,NA,NA,NA,TRUE,1,1.0043,392.6149,395.6139,0,82,82,104,1,200,35,NA,NA,NA,NA,NA,1,83,"likert"
"9A86A88B229145CA9943EAA00F48703F",1,"01990a97-dc2c-75b8-8876-e5e26662225b","01990a84-c4ee-73c2-a87b-ff46a7d3dde5","2025-09-02_09h23.48.215",NA,NA,398.9637,398.9637,398.9637,399.3133,NA,NA,NA,NA,NA,NA,NA,TRUE,1,1.0634,395.9648,398.9636,0,83,83,2,1,7,28,NA,NA,NA,NA,NA,1,84,"likert"
"9A86A88B229145CA9943EAA00F48703F",1,"01990a97-dc2c-75b8-8876-e5e26662225b","01990a84-c4ee-73c2-a87b-ff46a7d3dde5","2025-09-02_09h23.48.215",NA,NA,402.3135,402.3135,402.3135,402.663,NA,NA,NA,NA,NA,NA,NA,TRUE,1,0.9336,399.3141,402.3134,0,84,84,18,1,14,25,NA,NA,NA,NA,NA,1,85,"likert"
"9A86A88B229145CA9943EAA00F48703F",1,"01990a97-dc2c-75b8-8876-e5e26662225b","01990a84-c4ee-73c2-a87b-ff46a7d3dde5","2025-09-02_09h23.48.215",NA,NA,405.6633,405.6633,405.6634,406.0126,NA,NA,NA,NA,NA,NA,NA,TRUE,1,1.3967,402.6638,405.6632,0,85,85,103,1,200,28,NA,NA,NA,NA,NA,1,86,"likert"
"9A86A88B229145CA9943EAA00F48703F",1,"01990a97-dc2c-75b8-8876-e5e26662225b","01990a84-c4ee-73c2-a87b-ff46a7d3dde5","2025-09-02_09h23.48.215",NA,NA,409.0122,409.0122,409.0123,409.3624,NA,NA,NA,NA,NA,NA,NA,TRUE,1,0.8925,406.0136,409.0121,0,86,86,41,1,28,46,NA,NA,NA,NA,NA,1,87,"likert"
"9A86A88B229145CA9943EAA00F48703F",1,"01990a97-dc2c-75b8-8876-e5e26662225b","01990a84-c4ee-73c2-a87b-ff46a7d3dde5","2025-09-02_09h23.48.215",NA,NA,412.3623,412.3624,412.3624,412.7119,NA,NA,NA,NA,NA,NA,NA,TRUE,1,1.1087,409.3633,412.3622,0,87,87,25,1,21,27,NA,NA,NA,NA,NA,1,88,"likert"
"9A86A88B229145CA9943EAA00F48703F",1,"01990a97-dc2c-75b8-8876-e5e26662225b","01990a84-c4ee-73c2-a87b-ff46a7d3dde5","2025-09-02_09h23.48.215",NA,NA,415.7145,415.7145,415.7145,416.0611,NA,NA,NA,NA,NA,NA,NA,TRUE,1,0.9077,412.713,415.7144,0,88,88,57,1,45,35,NA,NA,NA,NA,NA,1,89,"likert"
"9A86A88B229145CA9943EAA00F48703F",1,"01990a97-dc2c-75b8-8876-e5e26662225b","01990a84-c4ee-73c2-a87b-ff46a7d3dde5","2025-09-02_09h23.48.215",NA,NA,419.061,419.0611,419.0611,419.411,NA,NA,NA,NA,NA,NA,NA,TRUE,1,0.9783,416.0621,419.0609,0,89,89,28,1,21,32,NA,NA,NA,NA,NA,1,90,"likert"
"9A86A88B229145CA9943EAA00F48703F",1,"01990a97-dc2c-75b8-8876-e5e26662225b","01990a84-c4ee-73c2-a87b-ff46a7d3dde5","2025-09-02_09h23.48.215",NA,NA,422.4106,422.4106,422.4106,422.7602,NA,NA,NA,NA,NA,NA,NA,TRUE,1,0.7685,419.412,422.4104,0,90,90,9,1,10,29,NA,NA,NA,NA,NA,1,91,"likert"
"9A86A88B229145CA9943EAA00F48703F",1,"01990a97-dc2c-75b8-8876-e5e26662225b","01990a84-c4ee-73c2-a87b-ff46a7d3dde5","2025-09-02_09h23.48.215",NA,NA,425.7601,425.7601,425.7601,426.1102,NA,NA,NA,NA,NA,NA,NA,TRUE,1,1.2682,422.7613,425.76,0,91,91,83,1,95,54,NA,NA,NA,NA,NA,1,92,"likert"
"9A86A88B229145CA9943EAA00F48703F",1,"01990a97-dc2c-75b8-8876-e5e26662225b","01990a84-c4ee-73c2-a87b-ff46a7d3dde5","2025-09-02_09h23.48.215",NA,NA,429.1098,429.1099,429.1099,429.4595,NA,NA,NA,NA,NA,NA,NA,TRUE,1,1.0119,426.1112,429.1097,0,92,92,99,1,180,39,NA,NA,NA,NA,NA,1,93,"likert"
"9A86A88B229145CA9943EAA00F48703F",1,"01990a97-dc2c-75b8-8876-e5e26662225b","01990a84-c4ee-73c2-a87b-ff46a7d3dde5","2025-09-02_09h23.48.215",NA,NA,432.4595,432.4595,432.4596,432.8088,NA,NA,NA,NA,NA,NA,NA,TRUE,1,1.0475,429.4603,432.4595,0,93,93,78,1,95,31,NA,NA,NA,NA,NA,1,94,"likert"
"9A86A88B229145CA9943EAA00F48703F",1,"01990a97-dc2c-75b8-8876-e5e26662225b","01990a84-c4ee-73c2-a87b-ff46a7d3dde5","2025-09-02_09h23.48.215",NA,NA,435.8089,435.8089,435.8089,436.1586,NA,NA,NA,NA,NA,NA,NA,TRUE,1,1.2633,432.8096,435.8087,0,94,94,30,1,25,27,NA,NA,NA,NA,NA,1,95,"likert"
"9A86A88B229145CA9943EAA00F48703F",1,"01990a97-dc2c-75b8-8876-e5e26662225b","01990a84-c4ee-73c2-a87b-ff46a7d3dde5","2025-09-02_09h23.48.215",NA,NA,439.1585,439.1585,439.1585,439.5083,NA,NA,NA,NA,NA,NA,NA,TRUE,1,1.2004,436.1593,439.1583,0,95,95,33,1,25,33,NA,NA,NA,NA,NA,1,96,"likert"
"9A86A88B229145CA9943EAA00F48703F",1,"01990a97-dc2c-75b8-8876-e5e26662225b","01990a84-c4ee-73c2-a87b-ff46a7d3dde5","2025-09-02_09h23.48.215",NA,NA,442.5082,442.5082,442.5082,442.8578,NA,NA,NA,NA,NA,NA,NA,TRUE,1,1.4602,439.5092,442.508,0,96,96,23,1,14,39,NA,NA,NA,NA,NA,1,97,"likert"
"9A86A88B229145CA9943EAA00F48703F",1,"01990a97-dc2c-75b8-8876-e5e26662225b","01990a84-c4ee-73c2-a87b-ff46a7d3dde5","2025-09-02_09h23.48.215",NA,NA,445.8573,445.8574,445.8574,446.2076,NA,NA,NA,NA,NA,NA,NA,TRUE,1,1.4515,442.8584,445.8573,0,97,97,73,1,90,30,NA,NA,NA,NA,NA,1,98,"likert"
"9A86A88B229145CA9943EAA00F48703F",1,"01990a97-dc2c-75b8-8876-e5e26662225b","01990a84-c4ee-73c2-a87b-ff46a7d3dde5","2025-09-02_09h23.48.215",NA,NA,449.2072,449.2073,449.2073,449.5575,NA,NA,NA,NA,NA,NA,NA,TRUE,1,1.1974,446.2086,449.2071,0,98,98,10,1,10,30,NA,NA,NA,NA,NA,1,99,"likert"
"9A86A88B229145CA9943EAA00F48703F",1,"01990a97-dc2c-75b8-8876-e5e26662225b","01990a84-c4ee-73c2-a87b-ff46a7d3dde5","2025-09-02_09h23.48.215",NA,NA,452.5566,452.5566,452.5566,452.9064,NA,NA,NA,NA,NA,NA,NA,TRUE,1,1.7181,449.5587,452.5565,0,99,99,22,1,14,35,NA,NA,NA,NA,NA,1,100,"likert"
"9A86A88B229145CA9943EAA00F48703F",1,"01990a97-dc2c-75b8-8876-e5e26662225b","01990a84-c4ee-73c2-a87b-ff46a7d3dde5","2025-09-02_09h23.48.215",NA,NA,455.9061,455.9061,455.9061,456.2559,NA,NA,NA,NA,NA,NA,NA,TRUE,1,1.1235,452.9074,455.9059,0,100,100,34,1,25,35,NA,NA,NA,NA,NA,1,101,"likert"
"9A86A88B229145CA9943EAA00F48703F",1,"01990a97-dc2c-75b8-8876-e5e26662225b","01990a84-c4ee-73c2-a87b-ff46a7d3dde5","2025-09-02_09h23.48.215",NA,NA,459.2558,459.2558,459.2558,459.6057,NA,NA,NA,NA,NA,NA,NA,TRUE,1,1.2742,456.2568,459.2556,0,101,101,6,1,10,25,NA,NA,NA,NA,NA,1,102,"likert"
"9A86A88B229145CA9943EAA00F48703F",1,"01990a97-dc2c-75b8-8876-e5e26662225b","01990a84-c4ee-73c2-a87b-ff46a7d3dde5","2025-09-02_09h23.48.215",NA,NA,462.6055,462.6055,462.6055,462.9554,NA,NA,NA,NA,NA,NA,NA,TRUE,1,1.5466,459.6067,462.6054,0,102,102,87,1,100,39,NA,NA,NA,NA,NA,1,103,"likert"
"9A86A88B229145CA9943EAA00F48703F",1,"01990a97-dc2c-75b8-8876-e5e26662225b","01990a84-c4ee-73c2-a87b-ff46a7d3dde5","2025-09-02_09h23.48.215",NA,NA,465.9715,465.9715,465.9715,466.3049,NA,NA,NA,NA,NA,NA,NA,TRUE,1,1.3356,462.9564,465.9713,0,103,103,58,1,45,40,NA,NA,NA,NA,NA,1,104,"likert"
"9A86A88B229145CA9943EAA00F48703F",1,"01990a97-dc2c-75b8-8876-e5e26662225b","01990a84-c4ee-73c2-a87b-ff46a7d3dde5","2025-09-02_09h23.48.215",NA,NA,469.3218,469.3219,469.3219,469.6549,NA,NA,NA,NA,NA,NA,NA,TRUE,1,1.3838,466.3059,469.3217,0,104,104,76,1,90,46,NA,NA,NA,NA,NA,1,105,"likert"
"9A86A88B229145CA9943EAA00F48703F",1,"01990a97-dc2c-75b8-8876-e5e26662225b","01990a84-c4ee-73c2-a87b-ff46a7d3dde5","2025-09-02_09h23.48.215",NA,NA,472.6708,472.6709,472.6709,473.0206,NA,NA,NA,NA,NA,NA,NA,TRUE,1,1.0264,469.6556,472.6708,0,105,105,91,1,150,33,NA,NA,NA,NA,NA,1,106,"likert"
"9A86A88B229145CA9943EAA00F48703F",1,"01990a97-dc2c-75b8-8876-e5e26662225b","01990a84-c4ee-73c2-a87b-ff46a7d3dde5","2025-09-02_09h23.48.215",NA,NA,476.0203,476.0203,476.0203,476.3702,NA,NA,NA,NA,NA,NA,NA,TRUE,1,1.0051,473.0216,476.0202,0,106,106,93,1,150,40,NA,NA,NA,NA,NA,1,107,"likert"
"9A86A88B229145CA9943EAA00F48703F",1,"01990a97-dc2c-75b8-8876-e5e26662225b","01990a84-c4ee-73c2-a87b-ff46a7d3dde5","2025-09-02_09h23.48.215",NA,NA,479.3701,479.3701,479.3702,479.7194,NA,NA,NA,NA,NA,NA,NA,TRUE,1,0.9664,476.371,479.37,0,107,107,31,1,25,29,NA,NA,NA,NA,NA,1,108,"likert"
"9A86A88B229145CA9943EAA00F48703F",1,"01990a97-dc2c-75b8-8876-e5e26662225b","01990a84-c4ee-73c2-a87b-ff46a7d3dde5","2025-09-02_09h23.48.215",NA,NA,488.3189,488.3189,488.3189,488.6684,NA,NA,NA,NA,NA,NA,NA,TRUE,1,1.1289,485.3419,488.3187,NA,NA,NA,NA,NA,150,33,0,0,0,91,1,2,1,"likert"
"9A86A88B229145CA9943EAA00F48703F",1,"01990a97-dc2c-75b8-8876-e5e26662225b","01990a84-c4ee-73c2-a87b-ff46a7d3dde5","2025-09-02_09h23.48.215",NA,NA,491.6685,491.6686,491.6686,492.0178,NA,NA,NA,NA,NA,NA,NA,TRUE,1,0.7358,488.6691,491.6683,NA,NA,NA,NA,NA,14,26,0,1,1,19,1,2,2,"likert"
"9A86A88B229145CA9943EAA00F48703F",1,"01990a97-dc2c-75b8-8876-e5e26662225b","01990a84-c4ee-73c2-a87b-ff46a7d3dde5","2025-09-02_09h23.48.215",NA,NA,495.0179,495.018,495.018,495.3679,NA,NA,NA,NA,NA,NA,NA,TRUE,1,0.4424,492.0189,495.0178,NA,NA,NA,NA,NA,180,54,0,2,2,101,1,2,3,"likert"
"9A86A88B229145CA9943EAA00F48703F",1,"01990a97-dc2c-75b8-8876-e5e26662225b","01990a84-c4ee-73c2-a87b-ff46a7d3dde5","2025-09-02_09h23.48.215",NA,NA,498.3675,498.3675,498.3675,498.717,NA,NA,NA,NA,NA,NA,NA,TRUE,1,0.7408,495.369,498.3673,NA,NA,NA,NA,NA,7,28,0,3,3,2,1,2,4,"likert"
"9A86A88B229145CA9943EAA00F48703F",1,"01990a97-dc2c-75b8-8876-e5e26662225b","01990a84-c4ee-73c2-a87b-ff46a7d3dde5","2025-09-02_09h23.48.215",NA,NA,501.717,501.717,501.717,502.067,NA,NA,NA,NA,NA,NA,NA,TRUE,1,0.8747,498.7179,501.7169,NA,NA,NA,NA,NA,14,32,0,4,4,21,1,2,5,"likert"
"9A86A88B229145CA9943EAA00F48703F",1,"01990a97-dc2c-75b8-8876-e5e26662225b","01990a84-c4ee-73c2-a87b-ff46a7d3dde5","2025-09-02_09h23.48.215",NA,NA,505.0667,505.0667,505.0667,505.4165,NA,NA,NA,NA,NA,NA,NA,TRUE,1,1.0452,502.068,505.0666,NA,NA,NA,NA,NA,50,54,0,5,5,65,1,2,6,"likert"
"9A86A88B229145CA9943EAA00F48703F",1,"01990a97-dc2c-75b8-8876-e5e26662225b","01990a84-c4ee-73c2-a87b-ff46a7d3dde5","2025-09-02_09h23.48.215",NA,NA,508.4162,508.4162,508.4163,508.7658,NA,NA,NA,NA,NA,NA,NA,TRUE,1,0.8017,505.4174,508.4161,NA,NA,NA,NA,NA,12,31,0,6,6,15,1,2,7,"likert"
"9A86A88B229145CA9943EAA00F48703F",1,"01990a97-dc2c-75b8-8876-e5e26662225b","01990a84-c4ee-73c2-a87b-ff46a7d3dde5","2025-09-02_09h23.48.215",NA,NA,511.7657,511.7657,511.7657,512.1153,NA,NA,NA,NA,NA,NA,NA,TRUE,1,1.1645,508.7665,511.7656,NA,NA,NA,NA,NA,95,31,0,7,7,78,1,2,8,"likert"
"9A86A88B229145CA9943EAA00F48703F",1,"01990a97-dc2c-75b8-8876-e5e26662225b","01990a84-c4ee-73c2-a87b-ff46a7d3dde5","2025-09-02_09h23.48.215",NA,NA,515.1149,515.1149,515.1149,515.4653,NA,NA,NA,NA,NA,NA,NA,TRUE,1,0.8624,512.116,515.1149,NA,NA,NA,NA,NA,25,33,0,8,8,33,1,2,9,"likert"
"9A86A88B229145CA9943EAA00F48703F",1,"01990a97-dc2c-75b8-8876-e5e26662225b","01990a84-c4ee-73c2-a87b-ff46a7d3dde5","2025-09-02_09h23.48.215",NA,NA,518.465,518.465,518.465,518.8147,NA,NA,NA,NA,NA,NA,NA,TRUE,1,0.8553,515.4662,518.4648,NA,NA,NA,NA,NA,45,35,0,9,9,57,1,2,10,"likert"
"9A86A88B229145CA9943EAA00F48703F",1,"01990a97-dc2c-75b8-8876-e5e26662225b","01990a84-c4ee-73c2-a87b-ff46a7d3dde5","2025-09-02_09h23.48.215",NA,NA,521.8145,521.8145,521.8145,522.1644,NA,NA,NA,NA,NA,NA,NA,TRUE,1,0.9251,518.8157,521.8143,NA,NA,NA,NA,NA,30,27,0,10,10,43,1,2,11,"likert"
"9A86A88B229145CA9943EAA00F48703F",1,"01990a97-dc2c-75b8-8876-e5e26662225b","01990a84-c4ee-73c2-a87b-ff46a7d3dde5","2025-09-02_09h23.48.215",NA,NA,525.1639,525.1639,525.164,525.5134,NA,NA,NA,NA,NA,NA,NA,TRUE,1,0.8281,522.1656,525.1638,NA,NA,NA,NA,NA,90,46,0,11,11,76,1,2,12,"likert"
"9A86A88B229145CA9943EAA00F48703F",1,"01990a97-dc2c-75b8-8876-e5e26662225b","01990a84-c4ee-73c2-a87b-ff46a7d3dde5","2025-09-02_09h23.48.215",NA,NA,528.5137,528.5137,528.5137,528.8631,NA,NA,NA,NA,NA,NA,NA,TRUE,1,0.7965,525.5143,528.5135,NA,NA,NA,NA,NA,30,32,0,12,12,46,1,2,13,"likert"
"9A86A88B229145CA9943EAA00F48703F",1,"01990a97-dc2c-75b8-8876-e5e26662225b","01990a84-c4ee-73c2-a87b-ff46a7d3dde5","2025-09-02_09h23.48.215",NA,NA,531.8636,531.8636,531.8636,532.2126,NA,NA,NA,NA,NA,NA,NA,TRUE,1,0.9008,528.8638,531.8635,NA,NA,NA,NA,NA,21,38,0,13,13,29,1,2,14,"likert"
"9A86A88B229145CA9943EAA00F48703F",1,"01990a97-dc2c-75b8-8876-e5e26662225b","01990a84-c4ee-73c2-a87b-ff46a7d3dde5","2025-09-02_09h23.48.215",NA,NA,535.2126,535.2127,535.2127,535.5627,NA,NA,NA,NA,NA,NA,NA,TRUE,1,1.0712,532.2133,535.2126,NA,NA,NA,NA,NA,21,27,0,14,14,25,1,2,15,"likert"
"9A86A88B229145CA9943EAA00F48703F",1,"01990a97-dc2c-75b8-8876-e5e26662225b","01990a84-c4ee-73c2-a87b-ff46a7d3dde5","2025-09-02_09h23.48.215",NA,NA,538.5619,538.5619,538.5619,538.9118,NA,NA,NA,NA,NA,NA,NA,TRUE,1,1.0174,535.5636,538.5618,NA,NA,NA,NA,NA,180,39,0,15,15,99,1,2,16,"likert"
"9A86A88B229145CA9943EAA00F48703F",1,"01990a97-dc2c-75b8-8876-e5e26662225b","01990a84-c4ee-73c2-a87b-ff46a7d3dde5","2025-09-02_09h23.48.215",NA,NA,541.9115,541.9116,541.9116,542.2613,NA,NA,NA,NA,NA,NA,NA,TRUE,1,0.9205,538.9126,541.9114,NA,NA,NA,NA,NA,40,47,0,16,16,52,1,2,17,"likert"
"9A86A88B229145CA9943EAA00F48703F",1,"01990a97-dc2c-75b8-8876-e5e26662225b","01990a84-c4ee-73c2-a87b-ff46a7d3dde5","2025-09-02_09h23.48.215",NA,NA,545.2613,545.2614,545.2614,545.6109,NA,NA,NA,NA,NA,NA,NA,TRUE,1,0.9683,542.2623,545.2612,NA,NA,NA,NA,NA,40,35,0,17,17,50,1,2,18,"likert"
"9A86A88B229145CA9943EAA00F48703F",1,"01990a97-dc2c-75b8-8876-e5e26662225b","01990a84-c4ee-73c2-a87b-ff46a7d3dde5","2025-09-02_09h23.48.215",NA,NA,548.6111,548.6111,548.6111,548.9605,NA,NA,NA,NA,NA,NA,NA,TRUE,1,1.118,545.6118,548.6109,NA,NA,NA,NA,NA,60,54,0,18,18,71,1,2,19,"likert"
"9A86A88B229145CA9943EAA00F48703F",1,"01990a97-dc2c-75b8-8876-e5e26662225b","01990a84-c4ee-73c2-a87b-ff46a7d3dde5","2025-09-02_09h23.48.215",NA,NA,551.9602,551.9602,551.9602,552.31,NA,NA,NA,NA,NA,NA,NA,TRUE,1,0.9513,548.9614,551.9601,NA,NA,NA,NA,NA,30,29,0,19,19,44,1,2,20,"likert"
"9A86A88B229145CA9943EAA00F48703F",1,"01990a97-dc2c-75b8-8876-e5e26662225b","01990a84-c4ee-73c2-a87b-ff46a7d3dde5","2025-09-02_09h23.48.215",NA,NA,555.31,555.31,555.31,555.6596,NA,NA,NA,NA,NA,NA,NA,TRUE,1,0.7505,552.3109,555.3098,NA,NA,NA,NA,NA,90,33,0,20,20,74,1,2,21,"likert"
"9A86A88B229145CA9943EAA00F48703F",1,"01990a97-dc2c-75b8-8876-e5e26662225b","01990a84-c4ee-73c2-a87b-ff46a7d3dde5","2025-09-02_09h23.48.215",NA,NA,558.6594,558.6594,558.6594,559.0091,NA,NA,NA,NA,NA,NA,NA,TRUE,1,0.6763,555.6606,558.6593,NA,NA,NA,NA,NA,60,29,0,21,21,66,1,2,22,"likert"
"9A86A88B229145CA9943EAA00F48703F",1,"01990a97-dc2c-75b8-8876-e5e26662225b","01990a84-c4ee-73c2-a87b-ff46a7d3dde5","2025-09-02_09h23.48.215",NA,NA,562.0089,562.0089,562.0089,562.3587,NA,NA,NA,NA,NA,NA,NA,TRUE,1,0.4435,559.0099,562.0088,NA,NA,NA,NA,NA,10,32,0,22,22,11,1,2,23,"likert"
"9A86A88B229145CA9943EAA00F48703F",1,"01990a97-dc2c-75b8-8876-e5e26662225b","01990a84-c4ee-73c2-a87b-ff46a7d3dde5","2025-09-02_09h23.48.215",NA,NA,565.359,565.359,565.359,565.7082,NA,NA,NA,NA,NA,NA,NA,TRUE,1,0.9626,562.3603,565.3588,NA,NA,NA,NA,NA,7,30,0,23,23,3,1,2,24,"likert"
"9A86A88B229145CA9943EAA00F48703F",1,"01990a97-dc2c-75b8-8876-e5e26662225b","01990a84-c4ee-73c2-a87b-ff46a7d3dde5","2025-09-02_09h23.48.215",NA,NA,568.7082,568.7082,568.7083,569.0579,NA,NA,NA,NA,NA,NA,NA,TRUE,1,1.2142,565.7094,568.7082,NA,NA,NA,NA,NA,150,40,0,24,24,93,1,2,25,"likert"
"9A86A88B229145CA9943EAA00F48703F",1,"01990a97-dc2c-75b8-8876-e5e26662225b","01990a84-c4ee-73c2-a87b-ff46a7d3dde5","2025-09-02_09h23.48.215",NA,NA,572.0576,572.0576,572.0576,572.4074,NA,NA,NA,NA,NA,NA,NA,TRUE,4,2.1738,569.059,572.0575,NA,NA,NA,NA,NA,40,54,0,25,25,53,1,2,26,"likert"
"9A86A88B229145CA9943EAA00F48703F",1,"01990a97-dc2c-75b8-8876-e5e26662225b","01990a84-c4ee-73c2-a87b-ff46a7d3dde5","2025-09-02_09h23.48.215",NA,NA,575.4072,575.4073,575.4073,575.7569,NA,NA,NA,NA,NA,NA,NA,TRUE,1,1.7325,572.4086,575.4071,NA,NA,NA,NA,NA,200,35,0,26,26,104,1,2,27,"likert"
"9A86A88B229145CA9943EAA00F48703F",1,"01990a97-dc2c-75b8-8876-e5e26662225b","01990a84-c4ee-73c2-a87b-ff46a7d3dde5","2025-09-02_09h23.48.215",NA,NA,578.7734,578.7735,578.7735,579.1065,NA,NA,NA,NA,NA,NA,NA,TRUE,1,1.65,575.7578,578.7733,NA,NA,NA,NA,NA,25,29,0,27,27,31,1,2,28,"likert"
"9A86A88B229145CA9943EAA00F48703F",1,"01990a97-dc2c-75b8-8876-e5e26662225b","01990a84-c4ee-73c2-a87b-ff46a7d3dde5","2025-09-02_09h23.48.215",NA,NA,582.123,582.123,582.123,582.4727,NA,NA,NA,NA,NA,NA,NA,TRUE,1,1.0213,579.1077,582.1228,NA,NA,NA,NA,NA,14,28,0,28,28,20,1,2,29,"likert"
"9A86A88B229145CA9943EAA00F48703F",1,"01990a97-dc2c-75b8-8876-e5e26662225b","01990a84-c4ee-73c2-a87b-ff46a7d3dde5","2025-09-02_09h23.48.215",NA,NA,585.4725,585.4725,585.4725,585.8224,NA,NA,NA,NA,NA,NA,NA,TRUE,1,1.4638,582.4736,585.4724,NA,NA,NA,NA,NA,95,54,0,29,29,83,1,2,30,"likert"
"9A86A88B229145CA9943EAA00F48703F",1,"01990a97-dc2c-75b8-8876-e5e26662225b","01990a84-c4ee-73c2-a87b-ff46a7d3dde5","2025-09-02_09h23.48.215",NA,NA,588.822,588.822,588.822,589.1719,NA,NA,NA,NA,NA,NA,NA,TRUE,1,1.3862,585.8234,588.8219,NA,NA,NA,NA,NA,30,26,0,30,30,42,1,2,31,"likert"
"9A86A88B229145CA9943EAA00F48703F",1,"01990a97-dc2c-75b8-8876-e5e26662225b","01990a84-c4ee-73c2-a87b-ff46a7d3dde5","2025-09-02_09h23.48.215",NA,NA,592.1716,592.1717,592.1717,592.5215,NA,NA,NA,NA,NA,NA,NA,TRUE,1,1.8282,589.173,592.1715,NA,NA,NA,NA,NA,28,28,0,31,31,37,1,2,32,"likert"
"9A86A88B229145CA9943EAA00F48703F",1,"01990a97-dc2c-75b8-8876-e5e26662225b","01990a84-c4ee-73c2-a87b-ff46a7d3dde5","2025-09-02_09h23.48.215",NA,NA,595.5215,595.5215,595.5215,595.8711,NA,NA,NA,NA,NA,NA,NA,TRUE,1,1.0666,592.5224,595.5213,NA,NA,NA,NA,NA,60,47,0,32,32,70,1,2,33,"likert"
"9A86A88B229145CA9943EAA00F48703F",1,"01990a97-dc2c-75b8-8876-e5e26662225b","01990a84-c4ee-73c2-a87b-ff46a7d3dde5","2025-09-02_09h23.48.215",NA,NA,598.8708,598.8708,598.8708,599.2206,NA,NA,NA,NA,NA,NA,NA,TRUE,1,0.9456,595.872,598.8707,NA,NA,NA,NA,NA,21,32,0,33,33,28,1,2,34,"likert"
"9A86A88B229145CA9943EAA00F48703F",1,"01990a97-dc2c-75b8-8876-e5e26662225b","01990a84-c4ee-73c2-a87b-ff46a7d3dde5","2025-09-02_09h23.48.215",NA,NA,602.2203,602.2203,602.2203,602.5701,NA,NA,NA,NA,NA,NA,NA,TRUE,1,1.3448,599.2216,602.2202,NA,NA,NA,NA,NA,100,31,0,34,34,85,1,2,35,"likert"
"9A86A88B229145CA9943EAA00F48703F",1,"01990a97-dc2c-75b8-8876-e5e26662225b","01990a84-c4ee-73c2-a87b-ff46a7d3dde5","2025-09-02_09h23.48.215",NA,NA,605.5704,605.5704,605.5704,605.9198,NA,NA,NA,NA,NA,NA,NA,TRUE,1,1.3126,602.571,605.5702,NA,NA,NA,NA,NA,50,27,0,35,35,60,1,2,36,"likert"
"9A86A88B229145CA9943EAA00F48703F",1,"01990a97-dc2c-75b8-8876-e5e26662225b","01990a84-c4ee-73c2-a87b-ff46a7d3dde5","2025-09-02_09h23.48.215",NA,NA,608.9197,608.9197,608.9198,609.2696,NA,NA,NA,NA,NA,NA,NA,TRUE,1,0.9434,605.9208,608.9195,NA,NA,NA,NA,NA,40,27,0,36,36,48,1,2,37,"likert"
"9A86A88B229145CA9943EAA00F48703F",1,"01990a97-dc2c-75b8-8876-e5e26662225b","01990a84-c4ee-73c2-a87b-ff46a7d3dde5","2025-09-02_09h23.48.215",NA,NA,612.2691,612.2691,612.2691,612.6192,NA,NA,NA,NA,NA,NA,NA,TRUE,1,0.8447,609.2704,612.269,NA,NA,NA,NA,NA,200,26,0,37,37,102,1,2,38,"likert"
"9A86A88B229145CA9943EAA00F48703F",1,"01990a97-dc2c-75b8-8876-e5e26662225b","01990a84-c4ee-73c2-a87b-ff46a7d3dde5","2025-09-02_09h23.48.215",NA,NA,615.6185,615.6185,615.6185,615.9683,NA,NA,NA,NA,NA,NA,NA,TRUE,1,1.0171,612.62,615.6185,NA,NA,NA,NA,NA,45,26,0,38,38,54,1,2,39,"likert"
"9A86A88B229145CA9943EAA00F48703F",1,"01990a97-dc2c-75b8-8876-e5e26662225b","01990a84-c4ee-73c2-a87b-ff46a7d3dde5","2025-09-02_09h23.48.215",NA,NA,618.9684,618.9685,618.9685,619.3183,NA,NA,NA,NA,NA,NA,NA,TRUE,1,0.7433,615.969,618.9683,NA,NA,NA,NA,NA,50,35,0,39,39,62,1,2,40,"likert"
"9A86A88B229145CA9943EAA00F48703F",1,"01990a97-dc2c-75b8-8876-e5e26662225b","01990a84-c4ee-73c2-a87b-ff46a7d3dde5","2025-09-02_09h23.48.215",NA,NA,622.3185,622.3185,622.3185,622.6675,NA,NA,NA,NA,NA,NA,NA,TRUE,1,1.0682,619.3193,622.3183,NA,NA,NA,NA,NA,50,46,0,40,40,64,1,2,41,"likert"
"9A86A88B229145CA9943EAA00F48703F",1,"01990a97-dc2c-75b8-8876-e5e26662225b","01990a84-c4ee-73c2-a87b-ff46a7d3dde5","2025-09-02_09h23.48.215",NA,NA,625.6677,625.6678,625.6678,626.0171,NA,NA,NA,NA,NA,NA,NA,TRUE,1,1.54,622.6685,625.6676,NA,NA,NA,NA,NA,95,47,0,41,41,82,1,2,42,"likert"
"9A86A88B229145CA9943EAA00F48703F",1,"01990a97-dc2c-75b8-8876-e5e26662225b","01990a84-c4ee-73c2-a87b-ff46a7d3dde5","2025-09-02_09h23.48.215",NA,NA,629.0173,629.0173,629.0173,629.367,NA,NA,NA,NA,NA,NA,NA,TRUE,1,1.3497,626.0182,629.0171,NA,NA,NA,NA,NA,10,27,0,42,42,8,1,2,43,"likert"
"9A86A88B229145CA9943EAA00F48703F",1,"01990a97-dc2c-75b8-8876-e5e26662225b","01990a84-c4ee-73c2-a87b-ff46a7d3dde5","2025-09-02_09h23.48.215",NA,NA,632.3661,632.3661,632.3662,632.7164,NA,NA,NA,NA,NA,NA,NA,TRUE,1,2.0279,629.3679,632.3661,NA,NA,NA,NA,NA,14,39,0,43,43,23,1,2,44,"likert"
"9A86A88B229145CA9943EAA00F48703F",1,"01990a97-dc2c-75b8-8876-e5e26662225b","01990a84-c4ee-73c2-a87b-ff46a7d3dde5","2025-09-02_09h23.48.215",NA,NA,635.7158,635.7158,635.7158,636.0658,NA,NA,NA,NA,NA,NA,NA,TRUE,1,1.129,632.7174,635.7157,NA,NA,NA,NA,NA,95,33,0,44,44,79,1,2,45,"likert"
"9A86A88B229145CA9943EAA00F48703F",1,"01990a97-dc2c-75b8-8876-e5e26662225b","01990a84-c4ee-73c2-a87b-ff46a7d3dde5","2025-09-02_09h23.48.215",NA,NA,639.0658,639.0658,639.0658,639.416,NA,NA,NA,NA,NA,NA,NA,TRUE,1,1.5941,636.0669,639.0656,NA,NA,NA,NA,NA,21,26,0,45,45,24,1,2,46,"likert"
"9A86A88B229145CA9943EAA00F48703F",1,"01990a97-dc2c-75b8-8876-e5e26662225b","01990a84-c4ee-73c2-a87b-ff46a7d3dde5","2025-09-02_09h23.48.215",NA,NA,642.4155,642.4156,642.4156,642.7654,NA,NA,NA,NA,NA,NA,NA,TRUE,1,1.3957,639.4172,642.4154,NA,NA,NA,NA,NA,7,32,0,46,46,4,1,2,47,"likert"
"9A86A88B229145CA9943EAA00F48703F",1,"01990a97-dc2c-75b8-8876-e5e26662225b","01990a84-c4ee-73c2-a87b-ff46a7d3dde5","2025-09-02_09h23.48.215",NA,NA,645.7647,645.7647,645.7648,646.1148,NA,NA,NA,NA,NA,NA,NA,TRUE,1,1.2062,642.7666,645.7646,NA,NA,NA,NA,NA,90,30,0,47,47,73,1,2,48,"likert"
"9A86A88B229145CA9943EAA00F48703F",1,"01990a97-dc2c-75b8-8876-e5e26662225b","01990a84-c4ee-73c2-a87b-ff46a7d3dde5","2025-09-02_09h23.48.215",NA,NA,649.1143,649.1143,649.1143,649.4643,NA,NA,NA,NA,NA,NA,NA,TRUE,1,1.501,646.1159,649.1141,NA,NA,NA,NA,NA,28,39,0,48,48,40,1,2,49,"likert"
"9A86A88B229145CA9943EAA00F48703F",1,"01990a97-dc2c-75b8-8876-e5e26662225b","01990a84-c4ee-73c2-a87b-ff46a7d3dde5","2025-09-02_09h23.48.215",NA,NA,652.4638,652.4638,652.4638,652.814,NA,NA,NA,NA,NA,NA,NA,TRUE,1,1.1559,649.465,652.4637,NA,NA,NA,NA,NA,14,25,0,49,49,18,1,2,50,"likert"
"9A86A88B229145CA9943EAA00F48703F",1,"01990a97-dc2c-75b8-8876-e5e26662225b","01990a84-c4ee-73c2-a87b-ff46a7d3dde5","2025-09-02_09h23.48.215",NA,NA,655.8137,655.8137,655.8137,656.1632,NA,NA,NA,NA,NA,NA,NA,TRUE,1,1.1244,652.8149,655.8135,NA,NA,NA,NA,NA,10,29,0,50,50,9,1,2,51,"likert"
"9A86A88B229145CA9943EAA00F48703F",1,"01990a97-dc2c-75b8-8876-e5e26662225b","01990a84-c4ee-73c2-a87b-ff46a7d3dde5","2025-09-02_09h23.48.215",NA,NA,659.1632,659.1632,659.1632,659.5127,NA,NA,NA,NA,NA,NA,NA,TRUE,1,0.9344,656.1641,659.1631,NA,NA,NA,NA,NA,180,31,0,51,51,97,1,2,52,"likert"
"9A86A88B229145CA9943EAA00F48703F",1,"01990a97-dc2c-75b8-8876-e5e26662225b","01990a84-c4ee-73c2-a87b-ff46a7d3dde5","2025-09-02_09h23.48.215",NA,NA,662.5123,662.5124,662.5124,662.8625,NA,NA,NA,NA,NA,NA,NA,TRUE,1,1.0298,659.5136,662.5122,NA,NA,NA,NA,NA,40,40,0,52,52,51,1,2,53,"likert"
"9A86A88B229145CA9943EAA00F48703F",1,"01990a97-dc2c-75b8-8876-e5e26662225b","01990a84-c4ee-73c2-a87b-ff46a7d3dde5","2025-09-02_09h23.48.215",NA,NA,665.8623,665.8624,665.8624,666.2123,NA,NA,NA,NA,NA,NA,NA,TRUE,1,0.9665,662.8636,665.8622,NA,NA,NA,NA,NA,45,40,0,53,53,58,1,2,54,"likert"
"9A86A88B229145CA9943EAA00F48703F",1,"01990a97-dc2c-75b8-8876-e5e26662225b","01990a84-c4ee-73c2-a87b-ff46a7d3dde5","2025-09-02_09h23.48.215",NA,NA,669.2124,669.2124,669.2124,669.5615,NA,NA,NA,NA,NA,NA,NA,TRUE,1,1.3731,666.2134,669.2122,NA,NA,NA,NA,NA,150,54,0,54,54,95,1,2,55,"likert"
"9A86A88B229145CA9943EAA00F48703F",1,"01990a97-dc2c-75b8-8876-e5e26662225b","01990a84-c4ee-73c2-a87b-ff46a7d3dde5","2025-09-02_09h23.48.215",NA,NA,672.5615,672.5615,672.5616,672.9112,NA,NA,NA,NA,NA,NA,NA,TRUE,1,0.7679,669.5623,672.5614,NA,NA,NA,NA,NA,60,40,0,55,55,69,1,2,56,"likert"
"9A86A88B229145CA9943EAA00F48703F",1,"01990a97-dc2c-75b8-8876-e5e26662225b","01990a84-c4ee-73c2-a87b-ff46a7d3dde5","2025-09-02_09h23.48.215",NA,NA,675.911,675.911,675.911,676.2605,NA,NA,NA,NA,NA,NA,NA,TRUE,1,1.1307,672.9122,675.9109,NA,NA,NA,NA,NA,150,47,0,56,56,94,1,2,57,"likert"
"9A86A88B229145CA9943EAA00F48703F",1,"01990a97-dc2c-75b8-8876-e5e26662225b","01990a84-c4ee-73c2-a87b-ff46a7d3dde5","2025-09-02_09h23.48.215",NA,NA,679.2602,679.2602,679.2602,679.6105,NA,NA,NA,NA,NA,NA,NA,TRUE,1,1.6614,676.2613,679.2601,NA,NA,NA,NA,NA,12,28,0,57,57,14,1,2,58,"likert"
"9A86A88B229145CA9943EAA00F48703F",1,"01990a97-dc2c-75b8-8876-e5e26662225b","01990a84-c4ee-73c2-a87b-ff46a7d3dde5","2025-09-02_09h23.48.215",NA,NA,682.61,682.61,682.61,682.9596,NA,NA,NA,NA,NA,NA,NA,TRUE,1,1.0016,679.6117,682.6099,NA,NA,NA,NA,NA,28,26,0,58,58,36,1,2,59,"likert"
"9A86A88B229145CA9943EAA00F48703F",1,"01990a97-dc2c-75b8-8876-e5e26662225b","01990a84-c4ee-73c2-a87b-ff46a7d3dde5","2025-09-02_09h23.48.215",NA,NA,685.9597,685.9597,685.9597,686.3099,NA,NA,NA,NA,NA,NA,NA,TRUE,1,0.9021,682.9605,685.9596,NA,NA,NA,NA,NA,90,54,0,59,59,77,1,2,60,"likert"
"9A86A88B229145CA9943EAA00F48703F",1,"01990a97-dc2c-75b8-8876-e5e26662225b","01990a84-c4ee-73c2-a87b-ff46a7d3dde5","2025-09-02_09h23.48.215",NA,NA,689.3098,689.3098,689.3098,689.6589,NA,NA,NA,NA,NA,NA,NA,TRUE,1,1.0643,686.3108,689.3096,NA,NA,NA,NA,NA,180,35,0,60,60,98,1,2,61,"likert"
"9A86A88B229145CA9943EAA00F48703F",1,"01990a97-dc2c-75b8-8876-e5e26662225b","01990a84-c4ee-73c2-a87b-ff46a7d3dde5","2025-09-02_09h23.48.215",NA,NA,692.6586,692.6586,692.6586,693.0086,NA,NA,NA,NA,NA,NA,NA,TRUE,1,1.6517,689.66,692.6585,NA,NA,NA,NA,NA,12,35,0,61,61,17,1,2,62,"likert"
"9A86A88B229145CA9943EAA00F48703F",1,"01990a97-dc2c-75b8-8876-e5e26662225b","01990a84-c4ee-73c2-a87b-ff46a7d3dde5","2025-09-02_09h23.48.215",NA,NA,696.0079,696.0079,696.0079,696.3583,NA,NA,NA,NA,NA,NA,NA,TRUE,1,0.9111,693.0095,696.0078,NA,NA,NA,NA,NA,30,38,0,62,62,47,1,2,63,"likert"
"9A86A88B229145CA9943EAA00F48703F",1,"01990a97-dc2c-75b8-8876-e5e26662225b","01990a84-c4ee-73c2-a87b-ff46a7d3dde5","2025-09-02_09h23.48.215",NA,NA,699.3578,699.3579,699.3579,699.7076,NA,NA,NA,NA,NA,NA,NA,TRUE,1,1.32,696.3593,699.3578,NA,NA,NA,NA,NA,45,29,0,63,63,55,1,2,64,"likert"
"9A86A88B229145CA9943EAA00F48703F",1,"01990a97-dc2c-75b8-8876-e5e26662225b","01990a84-c4ee-73c2-a87b-ff46a7d3dde5","2025-09-02_09h23.48.215",NA,NA,702.7073,702.7073,702.7073,703.0569,NA,NA,NA,NA,NA,NA,NA,TRUE,1,0.9413,699.7086,702.7072,NA,NA,NA,NA,NA,45,46,0,64,64,59,1,2,65,"likert"
"9A86A88B229145CA9943EAA00F48703F",1,"01990a97-dc2c-75b8-8876-e5e26662225b","01990a84-c4ee-73c2-a87b-ff46a7d3dde5","2025-09-02_09h23.48.215",NA,NA,706.0733,706.0734,706.0734,706.4067,NA,NA,NA,NA,NA,NA,NA,TRUE,1,0.7162,703.0577,706.0732,NA,NA,NA,NA,NA,45,31,0,65,65,56,1,2,66,"likert"
"9A86A88B229145CA9943EAA00F48703F",1,"01990a97-dc2c-75b8-8876-e5e26662225b","01990a84-c4ee-73c2-a87b-ff46a7d3dde5","2025-09-02_09h23.48.215",NA,NA,709.423,709.423,709.423,709.773,NA,NA,NA,NA,NA,NA,NA,TRUE,1,1.0837,706.4077,709.4229,NA,NA,NA,NA,NA,90,40,0,66,66,75,1,2,67,"likert"
"9A86A88B229145CA9943EAA00F48703F",1,"01990a97-dc2c-75b8-8876-e5e26662225b","01990a84-c4ee-73c2-a87b-ff46a7d3dde5","2025-09-02_09h23.48.215",NA,NA,712.7727,712.7727,712.7727,713.1225,NA,NA,NA,NA,NA,NA,NA,TRUE,1,1.0611,709.774,712.7726,NA,NA,NA,NA,NA,10,30,0,67,67,10,1,2,68,"likert"
"9A86A88B229145CA9943EAA00F48703F",1,"01990a97-dc2c-75b8-8876-e5e26662225b","01990a84-c4ee-73c2-a87b-ff46a7d3dde5","2025-09-02_09h23.48.215",NA,NA,716.1225,716.1225,716.1225,716.4721,NA,NA,NA,NA,NA,NA,NA,TRUE,1,1.3136,713.1234,716.1223,NA,NA,NA,NA,NA,7,25,0,68,68,0,1,2,69,"likert"
"9A86A88B229145CA9943EAA00F48703F",1,"01990a97-dc2c-75b8-8876-e5e26662225b","01990a84-c4ee-73c2-a87b-ff46a7d3dde5","2025-09-02_09h23.48.215",NA,NA,719.472,719.472,719.472,719.8215,NA,NA,NA,NA,NA,NA,NA,TRUE,1,1.1904,716.4731,719.4718,NA,NA,NA,NA,NA,90,26,0,69,69,72,1,2,70,"likert"
"9A86A88B229145CA9943EAA00F48703F",1,"01990a97-dc2c-75b8-8876-e5e26662225b","01990a84-c4ee-73c2-a87b-ff46a7d3dde5","2025-09-02_09h23.48.215",NA,NA,722.8216,722.8216,722.8217,723.1714,NA,NA,NA,NA,NA,NA,NA,TRUE,1,0.8462,719.8222,722.8216,NA,NA,NA,NA,NA,180,27,0,70,70,96,1,2,71,"likert"
"9A86A88B229145CA9943EAA00F48703F",1,"01990a97-dc2c-75b8-8876-e5e26662225b","01990a84-c4ee-73c2-a87b-ff46a7d3dde5","2025-09-02_09h23.48.215",NA,NA,726.1709,726.1709,726.1709,726.5207,NA,NA,NA,NA,NA,NA,NA,TRUE,1,0.7235,723.1721,726.1707,NA,NA,NA,NA,NA,40,33,0,71,71,49,1,2,72,"likert"
"9A86A88B229145CA9943EAA00F48703F",1,"01990a97-dc2c-75b8-8876-e5e26662225b","01990a84-c4ee-73c2-a87b-ff46a7d3dde5","2025-09-02_09h23.48.215",NA,NA,729.5203,729.5204,729.5204,729.8703,NA,NA,NA,NA,NA,NA,NA,TRUE,1,0.7482,726.5216,729.5203,NA,NA,NA,NA,NA,21,29,0,72,72,26,1,2,73,"likert"
"9A86A88B229145CA9943EAA00F48703F",1,"01990a97-dc2c-75b8-8876-e5e26662225b","01990a84-c4ee-73c2-a87b-ff46a7d3dde5","2025-09-02_09h23.48.215",NA,NA,732.87,732.8701,732.8701,733.2197,NA,NA,NA,NA,NA,NA,NA,TRUE,1,0.7956,729.8711,732.8699,NA,NA,NA,NA,NA,100,38,0,73,73,86,1,2,74,"likert"
"9A86A88B229145CA9943EAA00F48703F",1,"01990a97-dc2c-75b8-8876-e5e26662225b","01990a84-c4ee-73c2-a87b-ff46a7d3dde5","2025-09-02_09h23.48.215",NA,NA,736.2197,736.2197,736.2197,736.5694,NA,NA,NA,NA,NA,NA,NA,TRUE,1,1.0467,733.2207,736.2196,NA,NA,NA,NA,NA,25,35,0,74,74,34,1,2,75,"likert"
"9A86A88B229145CA9943EAA00F48703F",1,"01990a97-dc2c-75b8-8876-e5e26662225b","01990a84-c4ee-73c2-a87b-ff46a7d3dde5","2025-09-02_09h23.48.215",NA,NA,739.5691,739.5691,739.5691,739.9191,NA,NA,NA,NA,NA,NA,NA,TRUE,1,1.2509,736.5705,739.569,NA,NA,NA,NA,NA,200,47,0,75,75,106,1,2,76,"likert"
"9A86A88B229145CA9943EAA00F48703F",1,"01990a97-dc2c-75b8-8876-e5e26662225b","01990a84-c4ee-73c2-a87b-ff46a7d3dde5","2025-09-02_09h23.48.215",NA,NA,742.9188,742.9188,742.9188,743.2685,NA,NA,NA,NA,NA,NA,NA,TRUE,1,0.7029,739.9201,742.9186,NA,NA,NA,NA,NA,150,35,0,76,76,92,1,2,77,"likert"
"9A86A88B229145CA9943EAA00F48703F",1,"01990a97-dc2c-75b8-8876-e5e26662225b","01990a84-c4ee-73c2-a87b-ff46a7d3dde5","2025-09-02_09h23.48.215",NA,NA,746.2686,746.2686,746.2687,746.6181,NA,NA,NA,NA,NA,NA,NA,TRUE,1,0.7848,743.2693,746.2685,NA,NA,NA,NA,NA,28,32,0,77,77,38,1,2,78,"likert"
"9A86A88B229145CA9943EAA00F48703F",1,"01990a97-dc2c-75b8-8876-e5e26662225b","01990a84-c4ee-73c2-a87b-ff46a7d3dde5","2025-09-02_09h23.48.215",NA,NA,749.6178,749.6178,749.6178,749.9677,NA,NA,NA,NA,NA,NA,NA,TRUE,1,1.0252,746.6192,749.6177,NA,NA,NA,NA,NA,100,46,0,78,78,88,1,2,79,"likert"
"9A86A88B229145CA9943EAA00F48703F",1,"01990a97-dc2c-75b8-8876-e5e26662225b","01990a84-c4ee-73c2-a87b-ff46a7d3dde5","2025-09-02_09h23.48.215",NA,NA,752.9677,752.9677,752.9677,753.3171,NA,NA,NA,NA,NA,NA,NA,TRUE,1,1.4499,749.9685,752.9676,NA,NA,NA,NA,NA,100,39,0,79,79,87,1,2,80,"likert"
"9A86A88B229145CA9943EAA00F48703F",1,"01990a97-dc2c-75b8-8876-e5e26662225b","01990a84-c4ee-73c2-a87b-ff46a7d3dde5","2025-09-02_09h23.48.215",NA,NA,756.3171,756.3172,756.3172,756.667,NA,NA,NA,NA,NA,NA,NA,TRUE,1,1.037,753.3182,756.3171,NA,NA,NA,NA,NA,12,26,0,80,80,13,1,2,81,"likert"
"9A86A88B229145CA9943EAA00F48703F",1,"01990a97-dc2c-75b8-8876-e5e26662225b","01990a84-c4ee-73c2-a87b-ff46a7d3dde5","2025-09-02_09h23.48.215",NA,NA,759.6666,759.6666,759.6667,760.0163,NA,NA,NA,NA,NA,NA,NA,TRUE,1,0.817,756.6677,759.6666,NA,NA,NA,NA,NA,50,30,0,81,81,61,1,2,82,"likert"
"9A86A88B229145CA9943EAA00F48703F",1,"01990a97-dc2c-75b8-8876-e5e26662225b","01990a84-c4ee-73c2-a87b-ff46a7d3dde5","2025-09-02_09h23.48.215",NA,NA,763.016,763.016,763.016,763.3657,NA,NA,NA,NA,NA,NA,NA,TRUE,1,1.1673,760.0172,763.0159,NA,NA,NA,NA,NA,10,25,0,82,82,6,1,2,83,"likert"
"9A86A88B229145CA9943EAA00F48703F",1,"01990a97-dc2c-75b8-8876-e5e26662225b","01990a84-c4ee-73c2-a87b-ff46a7d3dde5","2025-09-02_09h23.48.215",NA,NA,766.3655,766.3655,766.3655,766.7153,NA,NA,NA,NA,NA,NA,NA,TRUE,1,1.7418,763.3666,766.3654,NA,NA,NA,NA,NA,25,46,0,83,83,35,1,2,84,"likert"
"9A86A88B229145CA9943EAA00F48703F",1,"01990a97-dc2c-75b8-8876-e5e26662225b","01990a84-c4ee-73c2-a87b-ff46a7d3dde5","2025-09-02_09h23.48.215",NA,NA,769.7151,769.7152,769.7152,770.0651,NA,NA,NA,NA,NA,NA,NA,TRUE,1,2.0053,766.7161,769.715,NA,NA,NA,NA,NA,28,46,0,84,84,41,1,2,85,"likert"
"9A86A88B229145CA9943EAA00F48703F",1,"01990a97-dc2c-75b8-8876-e5e26662225b","01990a84-c4ee-73c2-a87b-ff46a7d3dde5","2025-09-02_09h23.48.215",NA,NA,773.0647,773.0647,773.0647,773.4145,NA,NA,NA,NA,NA,NA,NA,TRUE,1,1.3332,770.0658,773.0646,NA,NA,NA,NA,NA,12,25,0,85,85,12,1,2,86,"likert"
"9A86A88B229145CA9943EAA00F48703F",1,"01990a97-dc2c-75b8-8876-e5e26662225b","01990a84-c4ee-73c2-a87b-ff46a7d3dde5","2025-09-02_09h23.48.215",NA,NA,776.4142,776.4142,776.4142,776.7641,NA,NA,NA,NA,NA,NA,NA,TRUE,1,1.2464,773.4156,776.4141,NA,NA,NA,NA,NA,180,46,0,86,86,100,1,2,87,"likert"
"9A86A88B229145CA9943EAA00F48703F",1,"01990a97-dc2c-75b8-8876-e5e26662225b","01990a84-c4ee-73c2-a87b-ff46a7d3dde5","2025-09-02_09h23.48.215",NA,NA,779.7639,779.7639,779.7639,780.1136,NA,NA,NA,NA,NA,NA,NA,TRUE,1,1.0124,776.7651,779.7638,NA,NA,NA,NA,NA,60,35,0,87,87,68,1,2,88,"likert"
"9A86A88B229145CA9943EAA00F48703F",1,"01990a97-dc2c-75b8-8876-e5e26662225b","01990a84-c4ee-73c2-a87b-ff46a7d3dde5","2025-09-02_09h23.48.215",NA,NA,783.1133,783.1133,783.1133,783.4631,NA,NA,NA,NA,NA,NA,NA,TRUE,1,1.5002,780.1143,783.1132,NA,NA,NA,NA,NA,21,30,0,88,88,27,1,2,89,"likert"
"9A86A88B229145CA9943EAA00F48703F",1,"01990a97-dc2c-75b8-8876-e5e26662225b","01990a84-c4ee-73c2-a87b-ff46a7d3dde5","2025-09-02_09h23.48.215",NA,NA,786.4631,786.4631,786.4632,786.8126,NA,NA,NA,NA,NA,NA,NA,TRUE,1,1.1331,783.464,786.463,NA,NA,NA,NA,NA,60,33,0,89,89,67,1,2,90,"likert"
"9A86A88B229145CA9943EAA00F48703F",1,"01990a97-dc2c-75b8-8876-e5e26662225b","01990a84-c4ee-73c2-a87b-ff46a7d3dde5","2025-09-02_09h23.48.215",NA,NA,789.8124,789.8124,789.8124,790.1623,NA,NA,NA,NA,NA,NA,NA,TRUE,1,0.7541,786.8133,789.8123,NA,NA,NA,NA,NA,150,31,0,90,90,90,1,2,91,"likert"
"9A86A88B229145CA9943EAA00F48703F",1,"01990a97-dc2c-75b8-8876-e5e26662225b","01990a84-c4ee-73c2-a87b-ff46a7d3dde5","2025-09-02_09h23.48.215",NA,NA,793.1621,793.1621,793.1621,793.5118,NA,NA,NA,NA,NA,NA,NA,TRUE,1,0.9899,790.163,793.162,NA,NA,NA,NA,NA,28,35,0,91,91,39,1,2,92,"likert"
"9A86A88B229145CA9943EAA00F48703F",1,"01990a97-dc2c-75b8-8876-e5e26662225b","01990a84-c4ee-73c2-a87b-ff46a7d3dde5","2025-09-02_09h23.48.215",NA,NA,796.5113,796.5114,796.5114,796.8613,NA,NA,NA,NA,NA,NA,NA,TRUE,1,1.2624,793.5128,796.5113,NA,NA,NA,NA,NA,100,54,0,92,92,89,1,2,93,"likert"
"9A86A88B229145CA9943EAA00F48703F",1,"01990a97-dc2c-75b8-8876-e5e26662225b","01990a84-c4ee-73c2-a87b-ff46a7d3dde5","2025-09-02_09h23.48.215",NA,NA,799.8613,799.8613,799.8613,800.2109,NA,NA,NA,NA,NA,NA,NA,TRUE,1,1.2767,796.8625,799.8611,NA,NA,NA,NA,NA,25,27,0,93,93,30,1,2,94,"likert"
"9A86A88B229145CA9943EAA00F48703F",1,"01990a97-dc2c-75b8-8876-e5e26662225b","01990a84-c4ee-73c2-a87b-ff46a7d3dde5","2025-09-02_09h23.48.215",NA,NA,803.2108,803.2108,803.2108,803.5606,NA,NA,NA,NA,NA,NA,NA,TRUE,1,1.0772,800.2116,803.2107,NA,NA,NA,NA,NA,200,28,0,94,94,103,1,2,95,"likert"
"9A86A88B229145CA9943EAA00F48703F",1,"01990a97-dc2c-75b8-8876-e5e26662225b","01990a84-c4ee-73c2-a87b-ff46a7d3dde5","2025-09-02_09h23.48.215",NA,NA,806.5604,806.5604,806.5604,806.9102,NA,NA,NA,NA,NA,NA,NA,TRUE,1,1.1157,803.5615,806.5603,NA,NA,NA,NA,NA,30,30,0,95,95,45,1,2,96,"likert"
"9A86A88B229145CA9943EAA00F48703F",1,"01990a97-dc2c-75b8-8876-e5e26662225b","01990a84-c4ee-73c2-a87b-ff46a7d3dde5","2025-09-02_09h23.48.215",NA,NA,809.9102,809.9103,809.9103,810.2599,NA,NA,NA,NA,NA,NA,NA,TRUE,1,2.3211,806.911,809.9101,NA,NA,NA,NA,NA,100,26,0,96,96,84,1,2,97,"likert"
"9A86A88B229145CA9943EAA00F48703F",1,"01990a97-dc2c-75b8-8876-e5e26662225b","01990a84-c4ee-73c2-a87b-ff46a7d3dde5","2025-09-02_09h23.48.215",NA,NA,813.2593,813.2593,813.2594,813.6091,NA,NA,NA,NA,NA,NA,NA,TRUE,1,1.4678,810.2606,813.2592,NA,NA,NA,NA,NA,7,26,0,97,97,1,1,2,98,"likert"
"9A86A88B229145CA9943EAA00F48703F",1,"01990a97-dc2c-75b8-8876-e5e26662225b","01990a84-c4ee-73c2-a87b-ff46a7d3dde5","2025-09-02_09h23.48.215",NA,NA,816.6091,816.6091,816.6091,816.9589,NA,NA,NA,NA,NA,NA,NA,TRUE,1,1.0676,813.6099,816.6091,NA,NA,NA,NA,NA,200,54,0,98,98,107,1,2,99,"likert"
"9A86A88B229145CA9943EAA00F48703F",1,"01990a97-dc2c-75b8-8876-e5e26662225b","01990a84-c4ee-73c2-a87b-ff46a7d3dde5","2025-09-02_09h23.48.215",NA,NA,819.9584,819.9584,819.9584,820.3083,NA,NA,NA,NA,NA,NA,NA,TRUE,1,0.7327,816.9599,819.9583,NA,NA,NA,NA,NA,12,33,0,99,99,16,1,2,100,"likert"
"9A86A88B229145CA9943EAA00F48703F",1,"01990a97-dc2c-75b8-8876-e5e26662225b","01990a84-c4ee-73c2-a87b-ff46a7d3dde5","2025-09-02_09h23.48.215",NA,NA,823.308,823.308,823.308,823.6579,NA,NA,NA,NA,NA,NA,NA,TRUE,1,1.5325,820.3093,823.3079,NA,NA,NA,NA,NA,14,35,0,100,100,22,1,2,101,"likert"
"9A86A88B229145CA9943EAA00F48703F",1,"01990a97-dc2c-75b8-8876-e5e26662225b","01990a84-c4ee-73c2-a87b-ff46a7d3dde5","2025-09-02_09h23.48.215",NA,NA,826.6577,826.6577,826.6577,827.0076,NA,NA,NA,NA,NA,NA,NA,TRUE,1,1.0516,823.6586,826.6576,NA,NA,NA,NA,NA,200,39,0,101,101,105,1,2,102,"likert"
"9A86A88B229145CA9943EAA00F48703F",1,"01990a97-dc2c-75b8-8876-e5e26662225b","01990a84-c4ee-73c2-a87b-ff46a7d3dde5","2025-09-02_09h23.48.215",NA,NA,830.0073,830.0073,830.0073,830.3569,NA,NA,NA,NA,NA,NA,NA,TRUE,1,0.9298,827.0085,830.0072,NA,NA,NA,NA,NA,10,26,0,102,102,7,1,2,103,"likert"
"9A86A88B229145CA9943EAA00F48703F",1,"01990a97-dc2c-75b8-8876-e5e26662225b","01990a84-c4ee-73c2-a87b-ff46a7d3dde5","2025-09-02_09h23.48.215",NA,NA,833.3568,833.3568,833.3568,833.7232,NA,NA,NA,NA,NA,NA,NA,TRUE,1,1.2919,830.3578,833.3567,NA,NA,NA,NA,NA,50,40,0,103,103,63,1,2,104,"likert"
"9A86A88B229145CA9943EAA00F48703F",1,"01990a97-dc2c-75b8-8876-e5e26662225b","01990a84-c4ee-73c2-a87b-ff46a7d3dde5","2025-09-02_09h23.48.215",NA,NA,836.7232,836.7233,836.7233,837.073,NA,NA,NA,NA,NA,NA,NA,TRUE,1,1.3541,833.724,836.7232,NA,NA,NA,NA,NA,95,35,0,104,104,80,1,2,105,"likert"
"9A86A88B229145CA9943EAA00F48703F",1,"01990a97-dc2c-75b8-8876-e5e26662225b","01990a84-c4ee-73c2-a87b-ff46a7d3dde5","2025-09-02_09h23.48.215",NA,NA,840.0725,840.0725,840.0725,840.4225,NA,NA,NA,NA,NA,NA,NA,TRUE,1,0.8501,837.0741,840.0723,NA,NA,NA,NA,NA,7,35,0,105,105,5,1,2,106,"likert"
"9A86A88B229145CA9943EAA00F48703F",1,"01990a97-dc2c-75b8-8876-e5e26662225b","01990a84-c4ee-73c2-a87b-ff46a7d3dde5","2025-09-02_09h23.48.215",NA,NA,843.4225,843.4225,843.4225,843.7721,NA,NA,NA,NA,NA,NA,NA,TRUE,1,0.6839,840.4231,843.4224,NA,NA,NA,NA,NA,95,40,0,106,106,81,1,2,107,"likert"
"9A86A88B229145CA9943EAA00F48703F",1,"01990a97-dc2c-75b8-8876-e5e26662225b","01990a84-c4ee-73c2-a87b-ff46a7d3dde5","2025-09-02_09h23.48.215",NA,NA,846.7717,846.7717,846.7717,847.1216,NA,NA,NA,NA,NA,NA,NA,TRUE,1,0.7423,843.7728,846.7716,NA,NA,NA,NA,NA,25,31,0,107,107,32,1,2,108,"likert"
