"participant","session","assignmentId","projectId","date","practiceTrial.started","practiceTrial.stopped","tooLate.started","tooLate.stopped","blank.started","blank.stopped","trials_pract.thisRepN","trials_pract.thisTrialN","trials_pract.thisN","trials_pract.thisIndex","trials_pract.ran","delay_pract","amount_pract","responseMade","key","rt","trial.started","trial.stopped","trials.thisRepN","trials.thisTrialN","trials.thisN","trials.thisIndex","trials.ran","delay","amount","trials_2.thisRepN","trials_2.thisTrialN","trials_2.thisN","trials_2.thisIndex","trials_2.ran","block","trial","taskType"
"9E60D384294A4390A567618D0B1BC407",1,"01990a98-9360-719a-a203-5f72e82d3eff","01990a84-c4ee-73c2-a87b-ff46a7d3dde5","2025-09-02_07h06.49.209",31.9736,34.8648,34.8652,34.8653,34.8654,35.2487,0,0,0,0,1,7,30,TRUE,5,1.6867,NA,NA,NA,NA,NA,NA,NA,NA,NA,NA,NA,NA,NA,NA,0,1,"likert"
"9E60D384294A4390A567618D0B1BC407",1,"01990a98-9360-719a-a203-5f72e82d3eff","01990a84-c4ee-73c2-a87b-ff46a7d3dde5","2025-09-02_07h06.49.209",35.2496,38.0242,38.0248,38.0248,38.0249,38.766,0,1,1,4,1,30,40,TRUE,4,0.0089,NA,NA,NA,NA,NA,NA,NA,NA,NA,NA,NA,NA,NA,NA,0,2,"likert"
"9E60D384294A4390A567618D0B1BC407",1,"01990a98-9360-719a-a203-5f72e82d3eff","01990a84-c4ee-73c2-a87b-ff46a7d3dde5","2025-09-02_07h06.49.209",38.7673,41.5747,41.5749,41.9448,41.9448,41.9449,0,2,2,3,1,3,27,FALSE,NA,NA,NA,NA,NA,NA,NA,NA,NA,NA,NA,NA,NA,NA,NA,NA,0,3,"likert"
"9E60D384294A4390A567618D0B1BC407",1,"01990a98-9360-719a-a203-5f72e82d3eff","01990a84-c4ee-73c2-a87b-ff46a7d3dde5","2025-09-02_07h06.49.209",41.9456,45.1411,45.1413,45.1413,45.1413,45.538,0,3,3,2,1,14,45,TRUE,4,0.8148,NA,NA,NA,NA,NA,NA,NA,NA,NA,NA,NA,NA,NA,NA,0,4,"likert"
"9E60D384294A4390A567618D0B1BC407",1,"01990a98-9360-719a-a203-5f72e82d3eff","01990a84-c4ee-73c2-a87b-ff46a7d3dde5","2025-09-02_07h06.49.209",45.5388,48.285,48.2852,48.2852,48.2853,48.6747,0,4,4,1,1,100,50,TRUE,5,2.3957,NA,NA,NA,NA,NA,NA,NA,NA,NA,NA,NA,NA,NA,NA,0,5,"likert"
"9E60D384294A4390A567618D0B1BC407",1,"01990a98-9360-719a-a203-5f72e82d3eff","01990a84-c4ee-73c2-a87b-ff46a7d3dde5","2025-09-02_07h06.49.209",NA,NA,107.4072,107.4073,107.4073,107.7595,NA,NA,NA,NA,NA,NA,NA,TRUE,5,1.6736,104.5148,107.407,0,0,0,92,1,150,35,NA,NA,NA,NA,NA,1,1,"likert"
"9E60D384294A4390A567618D0B1BC407",1,"01990a98-9360-719a-a203-5f72e82d3eff","01990a84-c4ee-73c2-a87b-ff46a7d3dde5","2025-09-02_07h06.49.209",NA,NA,110.5281,110.5281,110.5281,111.2518,NA,NA,NA,NA,NA,NA,NA,TRUE,4,1.2108,107.7602,110.528,0,1,1,90,1,150,31,NA,NA,NA,NA,NA,1,2,"likert"
"9E60D384294A4390A567618D0B1BC407",1,"01990a98-9360-719a-a203-5f72e82d3eff","01990a84-c4ee-73c2-a87b-ff46a7d3dde5","2025-09-02_07h06.49.209",NA,NA,114.0351,114.0351,114.0351,114.7912,NA,NA,NA,NA,NA,NA,NA,TRUE,3,1.6383,111.2528,114.0348,0,2,2,67,1,60,33,NA,NA,NA,NA,NA,1,3,"likert"
"9E60D384294A4390A567618D0B1BC407",1,"01990a98-9360-719a-a203-5f72e82d3eff","01990a84-c4ee-73c2-a87b-ff46a7d3dde5","2025-09-02_07h06.49.209",NA,NA,117.218,117.6306,117.6307,117.9942,NA,NA,NA,NA,NA,NA,NA,FALSE,NA,NA,114.7987,117.2178,0,3,3,101,1,180,54,NA,NA,NA,NA,NA,1,4,"likert"
"9E60D384294A4390A567618D0B1BC407",1,"01990a98-9360-719a-a203-5f72e82d3eff","01990a84-c4ee-73c2-a87b-ff46a7d3dde5","2025-09-02_07h06.49.209",NA,NA,120.7827,121.1451,121.1451,121.1451,NA,NA,NA,NA,NA,NA,NA,FALSE,NA,NA,117.995,120.7824,0,4,4,12,1,12,25,NA,NA,NA,NA,NA,1,5,"likert"
"9E60D384294A4390A567618D0B1BC407",1,"01990a98-9360-719a-a203-5f72e82d3eff","01990a84-c4ee-73c2-a87b-ff46a7d3dde5","2025-09-02_07h06.49.209",NA,NA,124.0652,124.0652,124.0652,124.7873,NA,NA,NA,NA,NA,NA,NA,TRUE,4,1.3505,121.1457,124.065,0,5,5,107,1,200,54,NA,NA,NA,NA,NA,1,6,"likert"
"9E60D384294A4390A567618D0B1BC407",1,"01990a98-9360-719a-a203-5f72e82d3eff","01990a84-c4ee-73c2-a87b-ff46a7d3dde5","2025-09-02_07h06.49.209",NA,NA,127.5446,127.5447,127.5447,127.918,NA,NA,NA,NA,NA,NA,NA,TRUE,3,1.1784,124.788,127.5444,0,6,6,103,1,200,28,NA,NA,NA,NA,NA,1,7,"likert"
"9E60D384294A4390A567618D0B1BC407",1,"01990a98-9360-719a-a203-5f72e82d3eff","01990a84-c4ee-73c2-a87b-ff46a7d3dde5","2025-09-02_07h06.49.209",NA,NA,130.814,130.8141,130.8142,131.195,NA,NA,NA,NA,NA,NA,NA,TRUE,3,1.2092,127.9187,130.8138,0,7,7,0,1,7,25,NA,NA,NA,NA,NA,1,8,"likert"
"9E60D384294A4390A567618D0B1BC407",1,"01990a98-9360-719a-a203-5f72e82d3eff","01990a84-c4ee-73c2-a87b-ff46a7d3dde5","2025-09-02_07h06.49.209",NA,NA,134.1543,134.1544,134.1544,134.5523,NA,NA,NA,NA,NA,NA,NA,TRUE,1,2.1345,131.1957,134.1542,0,8,8,63,1,50,40,NA,NA,NA,NA,NA,1,9,"likert"
"9E60D384294A4390A567618D0B1BC407",1,"01990a98-9360-719a-a203-5f72e82d3eff","01990a84-c4ee-73c2-a87b-ff46a7d3dde5","2025-09-02_07h06.49.209",NA,NA,137.3088,137.6812,137.6812,138.07,NA,NA,NA,NA,NA,NA,NA,FALSE,NA,NA,134.5532,137.3085,0,9,9,23,1,14,39,NA,NA,NA,NA,NA,1,10,"likert"
"9E60D384294A4390A567618D0B1BC407",1,"01990a98-9360-719a-a203-5f72e82d3eff","01990a84-c4ee-73c2-a87b-ff46a7d3dde5","2025-09-02_07h06.49.209",NA,NA,140.9622,140.9622,140.9622,141.3269,NA,NA,NA,NA,NA,NA,NA,TRUE,5,1.656,138.0707,140.9619,0,10,10,36,1,28,26,NA,NA,NA,NA,NA,1,11,"likert"
"9E60D384294A4390A567618D0B1BC407",1,"01990a98-9360-719a-a203-5f72e82d3eff","01990a84-c4ee-73c2-a87b-ff46a7d3dde5","2025-09-02_07h06.49.209",NA,NA,144.1,144.1,144.1,144.9459,NA,NA,NA,NA,NA,NA,NA,TRUE,5,1.9586,141.3277,144.0998,0,11,11,9,1,10,29,NA,NA,NA,NA,NA,1,12,"likert"
"9E60D384294A4390A567618D0B1BC407",1,"01990a98-9360-719a-a203-5f72e82d3eff","01990a84-c4ee-73c2-a87b-ff46a7d3dde5","2025-09-02_07h06.49.209",NA,NA,147.7044,147.7044,147.7044,148.0799,NA,NA,NA,NA,NA,NA,NA,TRUE,5,1.9689,144.9482,147.7041,0,12,12,27,1,21,30,NA,NA,NA,NA,NA,1,13,"likert"
"9E60D384294A4390A567618D0B1BC407",1,"01990a98-9360-719a-a203-5f72e82d3eff","01990a84-c4ee-73c2-a87b-ff46a7d3dde5","2025-09-02_07h06.49.209",NA,NA,150.9496,150.9496,150.9496,151.2979,NA,NA,NA,NA,NA,NA,NA,TRUE,4,1.2346,148.0807,150.9494,0,13,13,52,1,40,47,NA,NA,NA,NA,NA,1,14,"likert"
"9E60D384294A4390A567618D0B1BC407",1,"01990a98-9360-719a-a203-5f72e82d3eff","01990a84-c4ee-73c2-a87b-ff46a7d3dde5","2025-09-02_07h06.49.209",NA,NA,154.4995,154.4996,154.4996,154.8563,NA,NA,NA,NA,NA,NA,NA,TRUE,4,2.0765,151.2987,154.4994,0,14,14,30,1,25,27,NA,NA,NA,NA,NA,1,15,"likert"
"9E60D384294A4390A567618D0B1BC407",1,"01990a98-9360-719a-a203-5f72e82d3eff","01990a84-c4ee-73c2-a87b-ff46a7d3dde5","2025-09-02_07h06.49.209",NA,NA,157.6415,157.6415,157.6415,158.0321,NA,NA,NA,NA,NA,NA,NA,TRUE,3,2.0074,154.8569,157.6413,0,15,15,68,1,60,35,NA,NA,NA,NA,NA,1,16,"likert"
"9E60D384294A4390A567618D0B1BC407",1,"01990a98-9360-719a-a203-5f72e82d3eff","01990a84-c4ee-73c2-a87b-ff46a7d3dde5","2025-09-02_07h06.49.209",NA,NA,160.888,160.888,160.888,161.6356,NA,NA,NA,NA,NA,NA,NA,TRUE,3,1.6716,158.0327,160.8878,0,16,16,51,1,40,40,NA,NA,NA,NA,NA,1,17,"likert"
"9E60D384294A4390A567618D0B1BC407",1,"01990a98-9360-719a-a203-5f72e82d3eff","01990a84-c4ee-73c2-a87b-ff46a7d3dde5","2025-09-02_07h06.49.209",NA,NA,164.0084,164.0084,164.0084,164.7619,NA,NA,NA,NA,NA,NA,NA,TRUE,4,1.5817,161.6363,164.0082,0,17,17,91,1,150,33,NA,NA,NA,NA,NA,1,18,"likert"
"9E60D384294A4390A567618D0B1BC407",1,"01990a98-9360-719a-a203-5f72e82d3eff","01990a84-c4ee-73c2-a87b-ff46a7d3dde5","2025-09-02_07h06.49.209",NA,NA,167.966,167.966,167.966,168.3381,NA,NA,NA,NA,NA,NA,NA,FALSE,NA,NA,164.7631,167.9659,0,18,18,37,1,28,28,NA,NA,NA,NA,NA,1,19,"likert"
"9E60D384294A4390A567618D0B1BC407",1,"01990a98-9360-719a-a203-5f72e82d3eff","01990a84-c4ee-73c2-a87b-ff46a7d3dde5","2025-09-02_07h06.49.209",NA,NA,171.2591,171.2591,171.2591,171.6329,NA,NA,NA,NA,NA,NA,NA,TRUE,2,2.5193,168.3392,171.2589,0,19,19,11,1,10,32,NA,NA,NA,NA,NA,1,20,"likert"
"9E60D384294A4390A567618D0B1BC407",1,"01990a98-9360-719a-a203-5f72e82d3eff","01990a84-c4ee-73c2-a87b-ff46a7d3dde5","2025-09-02_07h06.49.209",NA,NA,174.4257,174.4257,174.4257,174.8039,NA,NA,NA,NA,NA,NA,NA,TRUE,3,1.9993,171.6336,174.4255,0,20,20,71,1,60,54,NA,NA,NA,NA,NA,1,21,"likert"
"9E60D384294A4390A567618D0B1BC407",1,"01990a98-9360-719a-a203-5f72e82d3eff","01990a84-c4ee-73c2-a87b-ff46a7d3dde5","2025-09-02_07h06.49.209",NA,NA,178.0466,178.0466,178.0466,178.4075,NA,NA,NA,NA,NA,NA,NA,FALSE,NA,NA,174.8046,178.0464,0,21,21,2,1,7,28,NA,NA,NA,NA,NA,1,22,"likert"
"9E60D384294A4390A567618D0B1BC407",1,"01990a98-9360-719a-a203-5f72e82d3eff","01990a84-c4ee-73c2-a87b-ff46a7d3dde5","2025-09-02_07h06.49.209",NA,NA,180.831,180.831,180.831,181.5861,NA,NA,NA,NA,NA,NA,NA,TRUE,3,0.8087,178.4082,180.8308,0,22,22,50,1,40,35,NA,NA,NA,NA,NA,1,23,"likert"
"9E60D384294A4390A567618D0B1BC407",1,"01990a98-9360-719a-a203-5f72e82d3eff","01990a84-c4ee-73c2-a87b-ff46a7d3dde5","2025-09-02_07h06.49.209",NA,NA,184.4384,184.4384,184.4384,184.8057,NA,NA,NA,NA,NA,NA,NA,TRUE,5,0.8954,181.5869,184.4382,0,23,23,69,1,60,40,NA,NA,NA,NA,NA,1,24,"likert"
"9E60D384294A4390A567618D0B1BC407",1,"01990a98-9360-719a-a203-5f72e82d3eff","01990a84-c4ee-73c2-a87b-ff46a7d3dde5","2025-09-02_07h06.49.209",NA,NA,187.5624,187.5624,187.5624,188.3766,NA,NA,NA,NA,NA,NA,NA,TRUE,4,2.4702,184.8063,187.5622,0,24,24,59,1,45,46,NA,NA,NA,NA,NA,1,25,"likert"
"9E60D384294A4390A567618D0B1BC407",1,"01990a98-9360-719a-a203-5f72e82d3eff","01990a84-c4ee-73c2-a87b-ff46a7d3dde5","2025-09-02_07h06.49.209",NA,NA,191.4826,191.4827,191.4827,191.8647,NA,NA,NA,NA,NA,NA,NA,TRUE,5,1.9874,188.3773,191.4825,0,25,25,93,1,150,40,NA,NA,NA,NA,NA,1,26,"likert"
"9E60D384294A4390A567618D0B1BC407",1,"01990a98-9360-719a-a203-5f72e82d3eff","01990a84-c4ee-73c2-a87b-ff46a7d3dde5","2025-09-02_07h06.49.209",NA,NA,194.6308,194.6308,194.6308,195.0298,NA,NA,NA,NA,NA,NA,NA,TRUE,5,0.8115,191.8655,194.6306,0,26,26,85,1,100,31,NA,NA,NA,NA,NA,1,27,"likert"
"9E60D384294A4390A567618D0B1BC407",1,"01990a98-9360-719a-a203-5f72e82d3eff","01990a84-c4ee-73c2-a87b-ff46a7d3dde5","2025-09-02_07h06.49.209",NA,NA,197.4276,197.4276,197.4276,198.5481,NA,NA,NA,NA,NA,NA,NA,TRUE,3,0.0079,195.0307,197.4273,0,27,27,79,1,95,33,NA,NA,NA,NA,NA,1,28,"likert"
"9E60D384294A4390A567618D0B1BC407",1,"01990a98-9360-719a-a203-5f72e82d3eff","01990a84-c4ee-73c2-a87b-ff46a7d3dde5","2025-09-02_07h06.49.209",NA,NA,201.3234,201.3234,201.3234,201.6722,NA,NA,NA,NA,NA,NA,NA,TRUE,3,0.0072,198.5488,201.3232,0,28,28,47,1,30,38,NA,NA,NA,NA,NA,1,29,"likert"
"9E60D384294A4390A567618D0B1BC407",1,"01990a98-9360-719a-a203-5f72e82d3eff","01990a84-c4ee-73c2-a87b-ff46a7d3dde5","2025-09-02_07h06.49.209",NA,NA,204.8601,204.8602,204.8602,205.2405,NA,NA,NA,NA,NA,NA,NA,TRUE,4,0.0071,201.6729,204.86,0,29,29,7,1,10,26,NA,NA,NA,NA,NA,1,30,"likert"
"9E60D384294A4390A567618D0B1BC407",1,"01990a98-9360-719a-a203-5f72e82d3eff","01990a84-c4ee-73c2-a87b-ff46a7d3dde5","2025-09-02_07h06.49.209",NA,NA,208.0572,208.0573,208.0573,208.4055,NA,NA,NA,NA,NA,NA,NA,FALSE,NA,NA,205.2412,208.0571,0,30,30,15,1,12,31,NA,NA,NA,NA,NA,1,31,"likert"
"9E60D384294A4390A567618D0B1BC407",1,"01990a98-9360-719a-a203-5f72e82d3eff","01990a84-c4ee-73c2-a87b-ff46a7d3dde5","2025-09-02_07h06.49.209",NA,NA,211.1717,211.5567,211.5567,211.9211,NA,NA,NA,NA,NA,NA,NA,FALSE,NA,NA,208.406,211.1715,0,31,31,44,1,30,29,NA,NA,NA,NA,NA,1,32,"likert"
"9E60D384294A4390A567618D0B1BC407",1,"01990a98-9360-719a-a203-5f72e82d3eff","01990a84-c4ee-73c2-a87b-ff46a7d3dde5","2025-09-02_07h06.49.209",NA,NA,214.6668,214.6669,214.6669,215.0401,NA,NA,NA,NA,NA,NA,NA,TRUE,3,1.9344,211.9218,214.6667,0,32,32,14,1,12,28,NA,NA,NA,NA,NA,1,33,"likert"
"9E60D384294A4390A567618D0B1BC407",1,"01990a98-9360-719a-a203-5f72e82d3eff","01990a84-c4ee-73c2-a87b-ff46a7d3dde5","2025-09-02_07h06.49.209",NA,NA,217.5526,218.4336,218.4337,218.4337,NA,NA,NA,NA,NA,NA,NA,FALSE,NA,NA,215.0561,217.5525,0,33,33,54,1,45,26,NA,NA,NA,NA,NA,1,34,"likert"
"9E60D384294A4390A567618D0B1BC407",1,"01990a98-9360-719a-a203-5f72e82d3eff","01990a84-c4ee-73c2-a87b-ff46a7d3dde5","2025-09-02_07h06.49.209",NA,NA,221.1272,221.1272,221.1272,221.8667,NA,NA,NA,NA,NA,NA,NA,TRUE,2,2.2869,218.4343,221.1267,0,34,34,99,1,180,39,NA,NA,NA,NA,NA,1,35,"likert"
"9E60D384294A4390A567618D0B1BC407",1,"01990a98-9360-719a-a203-5f72e82d3eff","01990a84-c4ee-73c2-a87b-ff46a7d3dde5","2025-09-02_07h06.49.209",NA,NA,224.6389,224.6389,224.6389,225.0004,NA,NA,NA,NA,NA,NA,NA,TRUE,3,1.6082,221.8673,224.6388,0,35,35,105,1,200,39,NA,NA,NA,NA,NA,1,36,"likert"
"9E60D384294A4390A567618D0B1BC407",1,"01990a98-9360-719a-a203-5f72e82d3eff","01990a84-c4ee-73c2-a87b-ff46a7d3dde5","2025-09-02_07h06.49.209",NA,NA,227.7538,228.53,228.53,228.53,NA,NA,NA,NA,NA,NA,NA,FALSE,NA,NA,225.0011,227.7536,0,36,36,19,1,14,26,NA,NA,NA,NA,NA,1,37,"likert"
"9E60D384294A4390A567618D0B1BC407",1,"01990a98-9360-719a-a203-5f72e82d3eff","01990a84-c4ee-73c2-a87b-ff46a7d3dde5","2025-09-02_07h06.49.209",NA,NA,231.2756,231.2756,231.2756,232.0592,NA,NA,NA,NA,NA,NA,NA,TRUE,2,1.5753,228.5305,231.2755,0,37,37,64,1,50,46,NA,NA,NA,NA,NA,1,38,"likert"
"9E60D384294A4390A567618D0B1BC407",1,"01990a98-9360-719a-a203-5f72e82d3eff","01990a84-c4ee-73c2-a87b-ff46a7d3dde5","2025-09-02_07h06.49.209",NA,NA,234.8292,234.8292,234.8292,235.2059,NA,NA,NA,NA,NA,NA,NA,TRUE,2,1.2196,232.0597,234.829,0,38,38,87,1,100,39,NA,NA,NA,NA,NA,1,39,"likert"
"9E60D384294A4390A567618D0B1BC407",1,"01990a98-9360-719a-a203-5f72e82d3eff","01990a84-c4ee-73c2-a87b-ff46a7d3dde5","2025-09-02_07h06.49.209",NA,NA,237.9969,237.9969,237.9969,238.7156,NA,NA,NA,NA,NA,NA,NA,TRUE,4,0.4376,235.2065,237.9966,0,39,39,70,1,60,47,NA,NA,NA,NA,NA,1,40,"likert"
"9E60D384294A4390A567618D0B1BC407",1,"01990a98-9360-719a-a203-5f72e82d3eff","01990a84-c4ee-73c2-a87b-ff46a7d3dde5","2025-09-02_07h06.49.209",NA,NA,241.4552,241.4552,241.4552,241.8504,NA,NA,NA,NA,NA,NA,NA,TRUE,1,0.0066,238.7161,241.455,0,40,40,3,1,7,30,NA,NA,NA,NA,NA,1,41,"likert"
"9E60D384294A4390A567618D0B1BC407",1,"01990a98-9360-719a-a203-5f72e82d3eff","01990a84-c4ee-73c2-a87b-ff46a7d3dde5","2025-09-02_07h06.49.209",NA,NA,244.5194,244.5195,244.5195,245.2716,NA,NA,NA,NA,NA,NA,NA,TRUE,4,2.3654,241.8511,244.5194,0,41,41,58,1,45,40,NA,NA,NA,NA,NA,1,42,"likert"
"9E60D384294A4390A567618D0B1BC407",1,"01990a98-9360-719a-a203-5f72e82d3eff","01990a84-c4ee-73c2-a87b-ff46a7d3dde5","2025-09-02_07h06.49.209",NA,NA,248.3669,248.3669,248.3669,248.7612,NA,NA,NA,NA,NA,NA,NA,TRUE,1,2.2471,245.2722,248.3667,0,42,42,48,1,40,27,NA,NA,NA,NA,NA,1,43,"likert"
"9E60D384294A4390A567618D0B1BC407",1,"01990a98-9360-719a-a203-5f72e82d3eff","01990a84-c4ee-73c2-a87b-ff46a7d3dde5","2025-09-02_07h06.49.209",NA,NA,251.5513,251.5513,251.5513,251.8994,NA,NA,NA,NA,NA,NA,NA,TRUE,4,0.3993,248.7622,251.5511,0,43,43,57,1,45,35,NA,NA,NA,NA,NA,1,44,"likert"
"9E60D384294A4390A567618D0B1BC407",1,"01990a98-9360-719a-a203-5f72e82d3eff","01990a84-c4ee-73c2-a87b-ff46a7d3dde5","2025-09-02_07h06.49.209",NA,NA,254.8033,254.8033,254.8033,255.1863,NA,NA,NA,NA,NA,NA,NA,TRUE,2,2.528,251.8999,254.8031,0,44,44,25,1,21,27,NA,NA,NA,NA,NA,1,45,"likert"
"9E60D384294A4390A567618D0B1BC407",1,"01990a98-9360-719a-a203-5f72e82d3eff","01990a84-c4ee-73c2-a87b-ff46a7d3dde5","2025-09-02_07h06.49.209",NA,NA,257.9821,257.9821,257.9821,258.7465,NA,NA,NA,NA,NA,NA,NA,TRUE,3,0.4195,255.1869,257.982,0,45,45,10,1,10,30,NA,NA,NA,NA,NA,1,46,"likert"
"9E60D384294A4390A567618D0B1BC407",1,"01990a98-9360-719a-a203-5f72e82d3eff","01990a84-c4ee-73c2-a87b-ff46a7d3dde5","2025-09-02_07h06.49.209",NA,NA,261.4406,261.4406,261.4406,262.1934,NA,NA,NA,NA,NA,NA,NA,TRUE,4,0.0066,258.7471,261.4404,0,46,46,13,1,12,26,NA,NA,NA,NA,NA,1,47,"likert"
"9E60D384294A4390A567618D0B1BC407",1,"01990a98-9360-719a-a203-5f72e82d3eff","01990a84-c4ee-73c2-a87b-ff46a7d3dde5","2025-09-02_07h06.49.209",NA,NA,265.0179,265.0179,265.0179,265.379,NA,NA,NA,NA,NA,NA,NA,TRUE,3,2.3052,262.1943,265.0178,0,47,47,77,1,90,54,NA,NA,NA,NA,NA,1,48,"likert"
"9E60D384294A4390A567618D0B1BC407",1,"01990a98-9360-719a-a203-5f72e82d3eff","01990a84-c4ee-73c2-a87b-ff46a7d3dde5","2025-09-02_07h06.49.209",NA,NA,268.164,268.164,268.164,268.8862,NA,NA,NA,NA,NA,NA,NA,TRUE,3,1.9898,265.3796,268.1638,0,48,48,106,1,200,47,NA,NA,NA,NA,NA,1,49,"likert"
"9E60D384294A4390A567618D0B1BC407",1,"01990a98-9360-719a-a203-5f72e82d3eff","01990a84-c4ee-73c2-a87b-ff46a7d3dde5","2025-09-02_07h06.49.209",NA,NA,271.2526,271.2526,271.2526,271.9722,NA,NA,NA,NA,NA,NA,NA,TRUE,3,0.0069,268.8868,271.2525,0,49,49,22,1,14,35,NA,NA,NA,NA,NA,1,50,"likert"
"9E60D384294A4390A567618D0B1BC407",1,"01990a98-9360-719a-a203-5f72e82d3eff","01990a84-c4ee-73c2-a87b-ff46a7d3dde5","2025-09-02_07h06.49.209",NA,NA,275.1414,275.1414,275.1414,275.535,NA,NA,NA,NA,NA,NA,NA,FALSE,NA,NA,271.973,275.1412,0,50,50,98,1,180,35,NA,NA,NA,NA,NA,1,51,"likert"
"9E60D384294A4390A567618D0B1BC407",1,"01990a98-9360-719a-a203-5f72e82d3eff","01990a84-c4ee-73c2-a87b-ff46a7d3dde5","2025-09-02_07h06.49.209",NA,NA,277.9311,277.9312,277.9312,278.6948,NA,NA,NA,NA,NA,NA,NA,TRUE,3,0.0076,275.5451,277.931,0,51,51,20,1,14,28,NA,NA,NA,NA,NA,1,52,"likert"
"9E60D384294A4390A567618D0B1BC407",1,"01990a98-9360-719a-a203-5f72e82d3eff","01990a84-c4ee-73c2-a87b-ff46a7d3dde5","2025-09-02_07h06.49.209",NA,NA,281.8589,281.8589,281.8589,282.2125,NA,NA,NA,NA,NA,NA,NA,TRUE,4,1.1738,278.6956,281.8585,0,52,52,6,1,10,25,NA,NA,NA,NA,NA,1,53,"likert"
"9E60D384294A4390A567618D0B1BC407",1,"01990a98-9360-719a-a203-5f72e82d3eff","01990a84-c4ee-73c2-a87b-ff46a7d3dde5","2025-09-02_07h06.49.209",NA,NA,285.2865,285.2866,285.2866,285.6602,NA,NA,NA,NA,NA,NA,NA,TRUE,5,0.7627,282.2131,285.2864,0,53,53,97,1,180,31,NA,NA,NA,NA,NA,1,54,"likert"
"9E60D384294A4390A567618D0B1BC407",1,"01990a98-9360-719a-a203-5f72e82d3eff","01990a84-c4ee-73c2-a87b-ff46a7d3dde5","2025-09-02_07h06.49.209",NA,NA,288.4351,288.4352,288.4352,288.7874,NA,NA,NA,NA,NA,NA,NA,TRUE,4,2.7044,285.6607,288.435,0,54,54,80,1,95,35,NA,NA,NA,NA,NA,1,55,"likert"
"9E60D384294A4390A567618D0B1BC407",1,"01990a98-9360-719a-a203-5f72e82d3eff","01990a84-c4ee-73c2-a87b-ff46a7d3dde5","2025-09-02_07h06.49.209",NA,NA,291.5939,291.5939,291.5939,292.333,NA,NA,NA,NA,NA,NA,NA,TRUE,3,0.4391,288.7881,291.5937,0,55,55,31,1,25,29,NA,NA,NA,NA,NA,1,56,"likert"
"9E60D384294A4390A567618D0B1BC407",1,"01990a98-9360-719a-a203-5f72e82d3eff","01990a84-c4ee-73c2-a87b-ff46a7d3dde5","2025-09-02_07h06.49.209",NA,NA,295.1861,295.1861,295.1861,295.5944,NA,NA,NA,NA,NA,NA,NA,TRUE,5,0.0134,292.3339,295.1859,0,56,56,55,1,45,29,NA,NA,NA,NA,NA,1,57,"likert"
"9E60D384294A4390A567618D0B1BC407",1,"01990a98-9360-719a-a203-5f72e82d3eff","01990a84-c4ee-73c2-a87b-ff46a7d3dde5","2025-09-02_07h06.49.209",NA,NA,298.3989,298.3989,298.3989,298.7517,NA,NA,NA,NA,NA,NA,NA,TRUE,5,0.8511,295.5956,298.3987,0,57,57,75,1,90,40,NA,NA,NA,NA,NA,1,58,"likert"
"9E60D384294A4390A567618D0B1BC407",1,"01990a98-9360-719a-a203-5f72e82d3eff","01990a84-c4ee-73c2-a87b-ff46a7d3dde5","2025-09-02_07h06.49.209",NA,NA,301.4823,301.8368,301.8369,302.2487,NA,NA,NA,NA,NA,NA,NA,FALSE,NA,NA,298.7528,301.4822,0,58,58,38,1,28,32,NA,NA,NA,NA,NA,1,59,"likert"
"9E60D384294A4390A567618D0B1BC407",1,"01990a98-9360-719a-a203-5f72e82d3eff","01990a84-c4ee-73c2-a87b-ff46a7d3dde5","2025-09-02_07h06.49.209",NA,NA,305.0547,305.0547,305.0547,305.4135,NA,NA,NA,NA,NA,NA,NA,TRUE,4,2.023,302.2495,305.0546,0,59,59,74,1,90,33,NA,NA,NA,NA,NA,1,60,"likert"
"9E60D384294A4390A567618D0B1BC407",1,"01990a98-9360-719a-a203-5f72e82d3eff","01990a84-c4ee-73c2-a87b-ff46a7d3dde5","2025-09-02_07h06.49.209",NA,NA,308.5716,308.5716,308.5716,308.9323,NA,NA,NA,NA,NA,NA,NA,TRUE,4,2.399,305.4143,308.5715,0,60,60,5,1,7,35,NA,NA,NA,NA,NA,1,61,"likert"
"9E60D384294A4390A567618D0B1BC407",1,"01990a98-9360-719a-a203-5f72e82d3eff","01990a84-c4ee-73c2-a87b-ff46a7d3dde5","2025-09-02_07h06.49.209",NA,NA,311.7747,311.7748,311.7748,312.132,NA,NA,NA,NA,NA,NA,NA,TRUE,5,0.0065,308.9329,311.7744,0,61,61,83,1,95,54,NA,NA,NA,NA,NA,1,62,"likert"
"9E60D384294A4390A567618D0B1BC407",1,"01990a98-9360-719a-a203-5f72e82d3eff","01990a84-c4ee-73c2-a87b-ff46a7d3dde5","2025-09-02_07h06.49.209",NA,NA,314.938,314.938,314.938,315.686,NA,NA,NA,NA,NA,NA,NA,TRUE,5,0.7957,312.1326,314.9379,0,62,62,33,1,25,33,NA,NA,NA,NA,NA,1,63,"likert"
"9E60D384294A4390A567618D0B1BC407",1,"01990a98-9360-719a-a203-5f72e82d3eff","01990a84-c4ee-73c2-a87b-ff46a7d3dde5","2025-09-02_07h06.49.209",NA,NA,318.4622,318.4622,318.4622,318.8718,NA,NA,NA,NA,NA,NA,NA,TRUE,3,2.0063,315.6865,318.462,0,63,63,35,1,25,46,NA,NA,NA,NA,NA,1,64,"likert"
"9E60D384294A4390A567618D0B1BC407",1,"01990a98-9360-719a-a203-5f72e82d3eff","01990a84-c4ee-73c2-a87b-ff46a7d3dde5","2025-09-02_07h06.49.209",NA,NA,321.6034,321.6034,321.6034,322.3369,NA,NA,NA,NA,NA,NA,NA,TRUE,4,1.2142,318.8725,321.6032,0,64,64,4,1,7,32,NA,NA,NA,NA,NA,1,65,"likert"
"9E60D384294A4390A567618D0B1BC407",1,"01990a98-9360-719a-a203-5f72e82d3eff","01990a84-c4ee-73c2-a87b-ff46a7d3dde5","2025-09-02_07h06.49.209",NA,NA,325.2084,325.2084,325.2084,325.5888,NA,NA,NA,NA,NA,NA,NA,TRUE,4,0.0068,322.3376,325.2083,0,65,65,8,1,10,27,NA,NA,NA,NA,NA,1,66,"likert"
"9E60D384294A4390A567618D0B1BC407",1,"01990a98-9360-719a-a203-5f72e82d3eff","01990a84-c4ee-73c2-a87b-ff46a7d3dde5","2025-09-02_07h06.49.209",NA,NA,328.7234,328.7234,328.7235,329.1077,NA,NA,NA,NA,NA,NA,NA,FALSE,NA,NA,325.5895,328.7232,0,66,66,104,1,200,35,NA,NA,NA,NA,NA,1,67,"likert"
"9E60D384294A4390A567618D0B1BC407",1,"01990a98-9360-719a-a203-5f72e82d3eff","01990a84-c4ee-73c2-a87b-ff46a7d3dde5","2025-09-02_07h06.49.209",NA,NA,331.562,332.2964,332.2964,332.2964,NA,NA,NA,NA,NA,NA,NA,FALSE,NA,NA,329.1086,331.5618,0,67,67,102,1,200,26,NA,NA,NA,NA,NA,1,68,"likert"
"9E60D384294A4390A567618D0B1BC407",1,"01990a98-9360-719a-a203-5f72e82d3eff","01990a84-c4ee-73c2-a87b-ff46a7d3dde5","2025-09-02_07h06.49.209",NA,NA,335.073,335.073,335.073,335.8691,NA,NA,NA,NA,NA,NA,NA,TRUE,5,2.0155,332.297,335.0728,0,68,68,61,1,50,30,NA,NA,NA,NA,NA,1,69,"likert"
"9E60D384294A4390A567618D0B1BC407",1,"01990a98-9360-719a-a203-5f72e82d3eff","01990a84-c4ee-73c2-a87b-ff46a7d3dde5","2025-09-02_07h06.49.209",NA,NA,338.2905,338.2905,338.2905,339.0394,NA,NA,NA,NA,NA,NA,NA,TRUE,5,1.6457,335.8697,338.2903,0,69,69,45,1,30,30,NA,NA,NA,NA,NA,1,70,"likert"
"9E60D384294A4390A567618D0B1BC407",1,"01990a98-9360-719a-a203-5f72e82d3eff","01990a84-c4ee-73c2-a87b-ff46a7d3dde5","2025-09-02_07h06.49.209",NA,NA,341.5296,341.5296,341.5297,342.3109,NA,NA,NA,NA,NA,NA,NA,TRUE,5,1.7062,339.0401,341.5294,0,70,70,39,1,28,35,NA,NA,NA,NA,NA,1,71,"likert"
"9E60D384294A4390A567618D0B1BC407",1,"01990a98-9360-719a-a203-5f72e82d3eff","01990a84-c4ee-73c2-a87b-ff46a7d3dde5","2025-09-02_07h06.49.209",NA,NA,345.5418,345.5419,345.5419,345.9703,NA,NA,NA,NA,NA,NA,NA,TRUE,5,2.4307,342.3115,345.5416,0,71,71,21,1,14,32,NA,NA,NA,NA,NA,1,72,"likert"
"9E60D384294A4390A567618D0B1BC407",1,"01990a98-9360-719a-a203-5f72e82d3eff","01990a84-c4ee-73c2-a87b-ff46a7d3dde5","2025-09-02_07h06.49.209",NA,NA,348.7765,348.7765,348.7765,349.1535,NA,NA,NA,NA,NA,NA,NA,TRUE,5,1.6067,345.971,348.7763,0,72,72,43,1,30,27,NA,NA,NA,NA,NA,1,73,"likert"
"9E60D384294A4390A567618D0B1BC407",1,"01990a98-9360-719a-a203-5f72e82d3eff","01990a84-c4ee-73c2-a87b-ff46a7d3dde5","2025-09-02_07h06.49.209",NA,NA,352.0238,352.0238,352.0238,352.3787,NA,NA,NA,NA,NA,NA,NA,TRUE,2,2.0796,349.1543,352.0236,0,73,73,88,1,100,46,NA,NA,NA,NA,NA,1,74,"likert"
"9E60D384294A4390A567618D0B1BC407",1,"01990a98-9360-719a-a203-5f72e82d3eff","01990a84-c4ee-73c2-a87b-ff46a7d3dde5","2025-09-02_07h06.49.209",NA,NA,355.0677,355.4585,355.4586,355.8369,NA,NA,NA,NA,NA,NA,NA,FALSE,NA,NA,352.3793,355.0674,0,74,74,34,1,25,35,NA,NA,NA,NA,NA,1,75,"likert"
"9E60D384294A4390A567618D0B1BC407",1,"01990a98-9360-719a-a203-5f72e82d3eff","01990a84-c4ee-73c2-a87b-ff46a7d3dde5","2025-09-02_07h06.49.209",NA,NA,358.5977,358.5977,358.5977,359.3123,NA,NA,NA,NA,NA,NA,NA,TRUE,2,2.3621,355.8375,358.5975,0,75,75,24,1,21,26,NA,NA,NA,NA,NA,1,76,"likert"
"9E60D384294A4390A567618D0B1BC407",1,"01990a98-9360-719a-a203-5f72e82d3eff","01990a84-c4ee-73c2-a87b-ff46a7d3dde5","2025-09-02_07h06.49.209",NA,NA,362.1274,362.1275,362.1275,362.5048,NA,NA,NA,NA,NA,NA,NA,FALSE,NA,NA,359.3132,362.1273,0,76,76,78,1,95,31,NA,NA,NA,NA,NA,1,77,"likert"
"9E60D384294A4390A567618D0B1BC407",1,"01990a98-9360-719a-a203-5f72e82d3eff","01990a84-c4ee-73c2-a87b-ff46a7d3dde5","2025-09-02_07h06.49.209",NA,NA,365.2442,365.6202,365.6202,365.9846,NA,NA,NA,NA,NA,NA,NA,FALSE,NA,NA,362.5055,365.244,0,77,77,56,1,45,31,NA,NA,NA,NA,NA,1,78,"likert"
"9E60D384294A4390A567618D0B1BC407",1,"01990a98-9360-719a-a203-5f72e82d3eff","01990a84-c4ee-73c2-a87b-ff46a7d3dde5","2025-09-02_07h06.49.209",NA,NA,368.4502,369.187,369.187,369.1871,NA,NA,NA,NA,NA,NA,NA,FALSE,NA,NA,365.9853,368.45,0,78,78,29,1,21,38,NA,NA,NA,NA,NA,1,79,"likert"
"9E60D384294A4390A567618D0B1BC407",1,"01990a98-9360-719a-a203-5f72e82d3eff","01990a84-c4ee-73c2-a87b-ff46a7d3dde5","2025-09-02_07h06.49.209",NA,NA,372.0932,372.0932,372.0932,372.4709,NA,NA,NA,NA,NA,NA,NA,TRUE,2,2.5233,369.1878,372.0931,0,79,79,84,1,100,26,NA,NA,NA,NA,NA,1,80,"likert"
"9E60D384294A4390A567618D0B1BC407",1,"01990a98-9360-719a-a203-5f72e82d3eff","01990a84-c4ee-73c2-a87b-ff46a7d3dde5","2025-09-02_07h06.49.209",NA,NA,375.2971,375.7096,375.7096,376.0676,NA,NA,NA,NA,NA,NA,NA,FALSE,NA,NA,372.4714,375.2969,0,80,80,89,1,100,54,NA,NA,NA,NA,NA,1,81,"likert"
"9E60D384294A4390A567618D0B1BC407",1,"01990a98-9360-719a-a203-5f72e82d3eff","01990a84-c4ee-73c2-a87b-ff46a7d3dde5","2025-09-02_07h06.49.209",NA,NA,378.413,378.413,378.413,379.1217,NA,NA,NA,NA,NA,NA,NA,TRUE,5,0.0071,376.0681,378.4128,0,81,81,95,1,150,54,NA,NA,NA,NA,NA,1,82,"likert"
"9E60D384294A4390A567618D0B1BC407",1,"01990a98-9360-719a-a203-5f72e82d3eff","01990a84-c4ee-73c2-a87b-ff46a7d3dde5","2025-09-02_07h06.49.209",NA,NA,381.902,382.2591,382.2591,382.6097,NA,NA,NA,NA,NA,NA,NA,FALSE,NA,NA,379.1223,381.9018,0,82,82,41,1,28,46,NA,NA,NA,NA,NA,1,83,"likert"
"9E60D384294A4390A567618D0B1BC407",1,"01990a98-9360-719a-a203-5f72e82d3eff","01990a84-c4ee-73c2-a87b-ff46a7d3dde5","2025-09-02_07h06.49.209",NA,NA,385.3701,385.3701,385.3701,386.1095,NA,NA,NA,NA,NA,NA,NA,TRUE,2,0.3921,382.6104,385.3698,0,83,83,32,1,25,31,NA,NA,NA,NA,NA,1,84,"likert"
"9E60D384294A4390A567618D0B1BC407",1,"01990a98-9360-719a-a203-5f72e82d3eff","01990a84-c4ee-73c2-a87b-ff46a7d3dde5","2025-09-02_07h06.49.209",NA,NA,388.802,388.802,388.802,389.2201,NA,NA,NA,NA,NA,NA,NA,TRUE,5,0.4079,386.1102,388.8019,0,84,84,17,1,12,35,NA,NA,NA,NA,NA,1,85,"likert"
"9E60D384294A4390A567618D0B1BC407",1,"01990a98-9360-719a-a203-5f72e82d3eff","01990a84-c4ee-73c2-a87b-ff46a7d3dde5","2025-09-02_07h06.49.209",NA,NA,392.3417,392.3418,392.3418,392.7082,NA,NA,NA,NA,NA,NA,NA,FALSE,NA,NA,389.2206,392.3415,0,85,85,82,1,95,47,NA,NA,NA,NA,NA,1,86,"likert"
"9E60D384294A4390A567618D0B1BC407",1,"01990a98-9360-719a-a203-5f72e82d3eff","01990a84-c4ee-73c2-a87b-ff46a7d3dde5","2025-09-02_07h06.49.209",NA,NA,395.6726,395.6726,395.6726,396.037,NA,NA,NA,NA,NA,NA,NA,FALSE,NA,NA,392.7088,395.6725,0,86,86,66,1,60,29,NA,NA,NA,NA,NA,1,87,"likert"
"9E60D384294A4390A567618D0B1BC407",1,"01990a98-9360-719a-a203-5f72e82d3eff","01990a84-c4ee-73c2-a87b-ff46a7d3dde5","2025-09-02_07h06.49.209",NA,NA,399.2285,399.2285,399.2285,399.2285,NA,NA,NA,NA,NA,NA,NA,FALSE,NA,NA,396.0376,399.2283,0,87,87,94,1,150,47,NA,NA,NA,NA,NA,1,88,"likert"
"9E60D384294A4390A567618D0B1BC407",1,"01990a98-9360-719a-a203-5f72e82d3eff","01990a84-c4ee-73c2-a87b-ff46a7d3dde5","2025-09-02_07h06.49.209",NA,NA,401.8324,402.6107,402.6108,402.6108,NA,NA,NA,NA,NA,NA,NA,FALSE,NA,NA,399.2291,401.8322,0,88,88,60,1,50,27,NA,NA,NA,NA,NA,1,89,"likert"
"9E60D384294A4390A567618D0B1BC407",1,"01990a98-9360-719a-a203-5f72e82d3eff","01990a84-c4ee-73c2-a87b-ff46a7d3dde5","2025-09-02_07h06.49.209",NA,NA,405.4199,405.8008,405.8008,406.1577,NA,NA,NA,NA,NA,NA,NA,FALSE,NA,NA,402.6116,405.4198,0,89,89,76,1,90,46,NA,NA,NA,NA,NA,1,90,"likert"
"9E60D384294A4390A567618D0B1BC407",1,"01990a98-9360-719a-a203-5f72e82d3eff","01990a84-c4ee-73c2-a87b-ff46a7d3dde5","2025-09-02_07h06.49.209",NA,NA,408.5799,409.342,409.342,409.342,NA,NA,NA,NA,NA,NA,NA,FALSE,NA,NA,406.1583,408.5797,0,90,90,1,1,7,26,NA,NA,NA,NA,NA,1,91,"likert"
"9E60D384294A4390A567618D0B1BC407",1,"01990a98-9360-719a-a203-5f72e82d3eff","01990a84-c4ee-73c2-a87b-ff46a7d3dde5","2025-09-02_07h06.49.209",NA,NA,412.1444,412.5037,412.504,412.8707,NA,NA,NA,NA,NA,NA,NA,FALSE,NA,NA,409.3427,412.1442,0,91,91,81,1,95,40,NA,NA,NA,NA,NA,1,92,"likert"
"9E60D384294A4390A567618D0B1BC407",1,"01990a98-9360-719a-a203-5f72e82d3eff","01990a84-c4ee-73c2-a87b-ff46a7d3dde5","2025-09-02_07h06.49.209",NA,NA,415.6236,416.0177,416.0177,416.0178,NA,NA,NA,NA,NA,NA,NA,FALSE,NA,NA,412.8712,415.6234,0,92,92,16,1,12,33,NA,NA,NA,NA,NA,1,93,"likert"
"9E60D384294A4390A567618D0B1BC407",1,"01990a98-9360-719a-a203-5f72e82d3eff","01990a84-c4ee-73c2-a87b-ff46a7d3dde5","2025-09-02_07h06.49.209",NA,NA,443.4285,443.4285,443.4285,443.4285,NA,NA,NA,NA,NA,NA,NA,FALSE,NA,NA,416.0185,443.4284,0,93,93,40,1,28,39,NA,NA,NA,NA,NA,1,94,"likert"
"9E60D384294A4390A567618D0B1BC407",1,"01990a98-9360-719a-a203-5f72e82d3eff","01990a84-c4ee-73c2-a87b-ff46a7d3dde5","2025-09-02_07h06.49.209",NA,NA,443.4292,443.4292,443.4292,443.4292,NA,NA,NA,NA,NA,NA,NA,FALSE,NA,NA,443.4289,443.4292,0,94,94,46,1,30,32,NA,NA,NA,NA,NA,1,95,"likert"
"9E60D384294A4390A567618D0B1BC407",1,"01990a98-9360-719a-a203-5f72e82d3eff","01990a84-c4ee-73c2-a87b-ff46a7d3dde5","2025-09-02_07h06.49.209",NA,NA,443.4296,443.4296,443.4296,443.4296,NA,NA,NA,NA,NA,NA,NA,FALSE,NA,NA,443.4294,443.4295,0,95,95,73,1,90,30,NA,NA,NA,NA,NA,1,96,"likert"
"9E60D384294A4390A567618D0B1BC407",1,"01990a98-9360-719a-a203-5f72e82d3eff","01990a84-c4ee-73c2-a87b-ff46a7d3dde5","2025-09-02_07h06.49.209",NA,NA,443.4299,443.4299,443.4299,443.4299,NA,NA,NA,NA,NA,NA,NA,FALSE,NA,NA,443.4297,443.4299,0,96,96,49,1,40,33,NA,NA,NA,NA,NA,1,97,"likert"
"9E60D384294A4390A567618D0B1BC407",1,"01990a98-9360-719a-a203-5f72e82d3eff","01990a84-c4ee-73c2-a87b-ff46a7d3dde5","2025-09-02_07h06.49.209",NA,NA,443.4304,443.4304,443.4304,443.4305,NA,NA,NA,NA,NA,NA,NA,FALSE,NA,NA,443.4301,443.4304,0,97,97,86,1,100,38,NA,NA,NA,NA,NA,1,98,"likert"
"9E60D384294A4390A567618D0B1BC407",1,"01990a98-9360-719a-a203-5f72e82d3eff","01990a84-c4ee-73c2-a87b-ff46a7d3dde5","2025-09-02_07h06.49.209",NA,NA,443.4308,443.4308,443.4308,443.4308,NA,NA,NA,NA,NA,NA,NA,FALSE,NA,NA,443.4306,443.4308,0,98,98,96,1,180,27,NA,NA,NA,NA,NA,1,99,"likert"
"9E60D384294A4390A567618D0B1BC407",1,"01990a98-9360-719a-a203-5f72e82d3eff","01990a84-c4ee-73c2-a87b-ff46a7d3dde5","2025-09-02_07h06.49.209",NA,NA,443.4311,443.4311,443.4311,443.4311,NA,NA,NA,NA,NA,NA,NA,FALSE,NA,NA,443.4309,443.4311,0,99,99,100,1,180,46,NA,NA,NA,NA,NA,1,100,"likert"
"9E60D384294A4390A567618D0B1BC407",1,"01990a98-9360-719a-a203-5f72e82d3eff","01990a84-c4ee-73c2-a87b-ff46a7d3dde5","2025-09-02_07h06.49.209",NA,NA,443.4314,443.4314,443.4314,443.4314,NA,NA,NA,NA,NA,NA,NA,FALSE,NA,NA,443.4313,443.4314,0,100,100,28,1,21,32,NA,NA,NA,NA,NA,1,101,"likert"
"9E60D384294A4390A567618D0B1BC407",1,"01990a98-9360-719a-a203-5f72e82d3eff","01990a84-c4ee-73c2-a87b-ff46a7d3dde5","2025-09-02_07h06.49.209",NA,NA,443.8427,446.1146,446.1146,446.1147,NA,NA,NA,NA,NA,NA,NA,FALSE,NA,NA,443.4316,443.8426,0,101,101,53,1,40,54,NA,NA,NA,NA,NA,1,102,"likert"
"9E60D384294A4390A567618D0B1BC407",1,"01990a98-9360-719a-a203-5f72e82d3eff","01990a84-c4ee-73c2-a87b-ff46a7d3dde5","2025-09-02_07h06.49.209",NA,NA,448.966,449.3282,449.3282,449.6908,NA,NA,NA,NA,NA,NA,NA,FALSE,NA,NA,446.1153,448.9658,0,102,102,65,1,50,54,NA,NA,NA,NA,NA,1,103,"likert"
"9E60D384294A4390A567618D0B1BC407",1,"01990a98-9360-719a-a203-5f72e82d3eff","01990a84-c4ee-73c2-a87b-ff46a7d3dde5","2025-09-02_07h06.49.209",NA,NA,452.4946,452.859,452.859,452.859,NA,NA,NA,NA,NA,NA,NA,FALSE,NA,NA,449.6918,452.4944,0,103,103,18,1,14,25,NA,NA,NA,NA,NA,1,104,"likert"
"9E60D384294A4390A567618D0B1BC407",1,"01990a98-9360-719a-a203-5f72e82d3eff","01990a84-c4ee-73c2-a87b-ff46a7d3dde5","2025-09-02_07h06.49.209",NA,NA,456.0163,456.0164,456.0164,456.3759,NA,NA,NA,NA,NA,NA,NA,FALSE,NA,NA,452.8596,456.0161,0,104,104,72,1,90,26,NA,NA,NA,NA,NA,1,105,"likert"
"9E60D384294A4390A567618D0B1BC407",1,"01990a98-9360-719a-a203-5f72e82d3eff","01990a84-c4ee-73c2-a87b-ff46a7d3dde5","2025-09-02_07h06.49.209",NA,NA,459.1412,459.1412,459.1412,459.5701,NA,NA,NA,NA,NA,NA,NA,TRUE,2,1.2292,456.3766,459.1411,0,105,105,42,1,30,26,NA,NA,NA,NA,NA,1,106,"likert"
"9E60D384294A4390A567618D0B1BC407",1,"01990a98-9360-719a-a203-5f72e82d3eff","01990a84-c4ee-73c2-a87b-ff46a7d3dde5","2025-09-02_07h06.49.209",NA,NA,462.7859,462.7859,462.7859,463.1633,NA,NA,NA,NA,NA,NA,NA,TRUE,1,0.4601,459.5712,462.7858,0,106,106,62,1,50,35,NA,NA,NA,NA,NA,1,107,"likert"
"9E60D384294A4390A567618D0B1BC407",1,"01990a98-9360-719a-a203-5f72e82d3eff","01990a84-c4ee-73c2-a87b-ff46a7d3dde5","2025-09-02_07h06.49.209",NA,NA,465.6144,465.6144,465.6145,466.3889,NA,NA,NA,NA,NA,NA,NA,TRUE,1,1.718,463.1639,465.6143,0,107,107,26,1,21,29,NA,NA,NA,NA,NA,1,108,"likert"
"9E60D384294A4390A567618D0B1BC407",1,"01990a98-9360-719a-a203-5f72e82d3eff","01990a84-c4ee-73c2-a87b-ff46a7d3dde5","2025-09-02_07h06.49.209",NA,NA,474.0966,474.0966,474.0966,474.8132,NA,NA,NA,NA,NA,NA,NA,TRUE,1,2.0598,471.2648,474.0964,NA,NA,NA,NA,NA,90,40,0,0,0,75,1,2,1,"likert"
"9E60D384294A4390A567618D0B1BC407",1,"01990a98-9360-719a-a203-5f72e82d3eff","01990a84-c4ee-73c2-a87b-ff46a7d3dde5","2025-09-02_07h06.49.209",NA,NA,477.2991,477.2991,477.2991,477.9997,NA,NA,NA,NA,NA,NA,NA,TRUE,3,2.446,474.814,477.299,NA,NA,NA,NA,NA,25,31,0,1,1,32,1,2,2,"likert"
"9E60D384294A4390A567618D0B1BC407",1,"01990a98-9360-719a-a203-5f72e82d3eff","01990a84-c4ee-73c2-a87b-ff46a7d3dde5","2025-09-02_07h06.49.209",NA,NA,480.8212,481.1818,481.1818,481.565,NA,NA,NA,NA,NA,NA,NA,FALSE,NA,NA,478.0003,480.821,NA,NA,NA,NA,NA,7,35,0,2,2,5,1,2,3,"likert"
"9E60D384294A4390A567618D0B1BC407",1,"01990a98-9360-719a-a203-5f72e82d3eff","01990a84-c4ee-73c2-a87b-ff46a7d3dde5","2025-09-02_07h06.49.209",NA,NA,484.0616,484.0616,484.0616,484.7142,NA,NA,NA,NA,NA,NA,NA,TRUE,4,2.0928,481.5658,484.0614,NA,NA,NA,NA,NA,30,32,0,3,3,46,1,2,4,"likert"
"9E60D384294A4390A567618D0B1BC407",1,"01990a98-9360-719a-a203-5f72e82d3eff","01990a84-c4ee-73c2-a87b-ff46a7d3dde5","2025-09-02_07h06.49.209",NA,NA,487.5138,487.8317,487.8318,488.1428,NA,NA,NA,NA,NA,NA,NA,FALSE,NA,NA,484.7146,487.5136,NA,NA,NA,NA,NA,21,27,0,4,4,25,1,2,5,"likert"
"9E60D384294A4390A567618D0B1BC407",1,"01990a98-9360-719a-a203-5f72e82d3eff","01990a84-c4ee-73c2-a87b-ff46a7d3dde5","2025-09-02_07h06.49.209",NA,NA,490.9988,490.9988,490.9988,491.3203,NA,NA,NA,NA,NA,NA,NA,FALSE,NA,NA,488.1436,490.9986,NA,NA,NA,NA,NA,30,26,0,5,5,42,1,2,6,"likert"
"9E60D384294A4390A567618D0B1BC407",1,"01990a98-9360-719a-a203-5f72e82d3eff","01990a84-c4ee-73c2-a87b-ff46a7d3dde5","2025-09-02_07h06.49.209",NA,NA,494.2443,494.5632,494.5632,494.8852,NA,NA,NA,NA,NA,NA,NA,FALSE,NA,NA,491.3212,494.2442,NA,NA,NA,NA,NA,14,32,0,6,6,21,1,2,7,"likert"
"9E60D384294A4390A567618D0B1BC407",1,"01990a98-9360-719a-a203-5f72e82d3eff","01990a84-c4ee-73c2-a87b-ff46a7d3dde5","2025-09-02_07h06.49.209",NA,NA,499.8192,499.8192,499.8192,499.8193,NA,NA,NA,NA,NA,NA,NA,TRUE,4,0.036,494.8859,499.8191,NA,NA,NA,NA,NA,100,46,0,7,7,88,1,2,8,"likert"
"9E60D384294A4390A567618D0B1BC407",1,"01990a98-9360-719a-a203-5f72e82d3eff","01990a84-c4ee-73c2-a87b-ff46a7d3dde5","2025-09-02_07h06.49.209",NA,NA,500.2121,501.1906,501.1906,501.5173,NA,NA,NA,NA,NA,NA,NA,FALSE,NA,NA,499.8198,500.2119,NA,NA,NA,NA,NA,45,26,0,8,8,54,1,2,9,"likert"
"9E60D384294A4390A567618D0B1BC407",1,"01990a98-9360-719a-a203-5f72e82d3eff","01990a84-c4ee-73c2-a87b-ff46a7d3dde5","2025-09-02_07h06.49.209",NA,NA,504.3572,504.6669,504.667,504.667,NA,NA,NA,NA,NA,NA,NA,FALSE,NA,NA,501.5182,504.357,NA,NA,NA,NA,NA,90,26,0,9,9,72,1,2,10,"likert"
"9E60D384294A4390A567618D0B1BC407",1,"01990a98-9360-719a-a203-5f72e82d3eff","01990a84-c4ee-73c2-a87b-ff46a7d3dde5","2025-09-02_07h06.49.209",NA,NA,507.7826,507.7826,507.7826,508.1443,NA,NA,NA,NA,NA,NA,NA,TRUE,3,0.0071,504.6676,507.7824,NA,NA,NA,NA,NA,60,35,0,10,10,68,1,2,11,"likert"
"9E60D384294A4390A567618D0B1BC407",1,"01990a98-9360-719a-a203-5f72e82d3eff","01990a84-c4ee-73c2-a87b-ff46a7d3dde5","2025-09-02_07h06.49.209",NA,NA,510.7692,510.7692,510.7692,511.4996,NA,NA,NA,NA,NA,NA,NA,TRUE,2,0.2231,508.1447,510.7691,NA,NA,NA,NA,NA,10,25,0,11,11,6,1,2,12,"likert"
"9E60D384294A4390A567618D0B1BC407",1,"01990a98-9360-719a-a203-5f72e82d3eff","01990a84-c4ee-73c2-a87b-ff46a7d3dde5","2025-09-02_07h06.49.209",NA,NA,514.4406,514.4406,514.4406,514.8233,NA,NA,NA,NA,NA,NA,NA,TRUE,1,0.4306,511.5003,514.4403,NA,NA,NA,NA,NA,180,31,0,12,12,97,1,2,13,"likert"
"9E60D384294A4390A567618D0B1BC407",1,"01990a98-9360-719a-a203-5f72e82d3eff","01990a84-c4ee-73c2-a87b-ff46a7d3dde5","2025-09-02_07h06.49.209",NA,NA,517.6731,517.6731,517.6731,518.0511,NA,NA,NA,NA,NA,NA,NA,TRUE,4,1.2125,514.8246,517.673,NA,NA,NA,NA,NA,180,27,0,13,13,96,1,2,14,"likert"
"9E60D384294A4390A567618D0B1BC407",1,"01990a98-9360-719a-a203-5f72e82d3eff","01990a84-c4ee-73c2-a87b-ff46a7d3dde5","2025-09-02_07h06.49.209",NA,NA,520.9497,521.3176,521.3176,521.6897,NA,NA,NA,NA,NA,NA,NA,FALSE,NA,NA,518.0517,520.9496,NA,NA,NA,NA,NA,40,40,0,14,14,51,1,2,15,"likert"
"9E60D384294A4390A567618D0B1BC407",1,"01990a98-9360-719a-a203-5f72e82d3eff","01990a84-c4ee-73c2-a87b-ff46a7d3dde5","2025-09-02_07h06.49.209",NA,NA,524.0615,524.0615,524.0615,524.8171,NA,NA,NA,NA,NA,NA,NA,TRUE,3,1.6042,521.6904,524.0614,NA,NA,NA,NA,NA,21,30,0,15,15,27,1,2,16,"likert"
"9E60D384294A4390A567618D0B1BC407",1,"01990a98-9360-719a-a203-5f72e82d3eff","01990a84-c4ee-73c2-a87b-ff46a7d3dde5","2025-09-02_07h06.49.209",NA,NA,527.5493,527.5493,527.5493,528.381,NA,NA,NA,NA,NA,NA,NA,TRUE,5,0.0066,524.8177,527.5491,NA,NA,NA,NA,NA,150,31,0,16,16,90,1,2,17,"likert"
"9E60D384294A4390A567618D0B1BC407",1,"01990a98-9360-719a-a203-5f72e82d3eff","01990a84-c4ee-73c2-a87b-ff46a7d3dde5","2025-09-02_07h06.49.209",NA,NA,531.1566,531.1566,531.1566,531.5197,NA,NA,NA,NA,NA,NA,NA,TRUE,3,1.9893,528.3818,531.1564,NA,NA,NA,NA,NA,40,54,0,17,17,53,1,2,18,"likert"
"9E60D384294A4390A567618D0B1BC407",1,"01990a98-9360-719a-a203-5f72e82d3eff","01990a84-c4ee-73c2-a87b-ff46a7d3dde5","2025-09-02_07h06.49.209",NA,NA,534.2626,534.2626,534.2626,534.9872,NA,NA,NA,NA,NA,NA,NA,TRUE,3,0.0146,531.5203,534.2624,NA,NA,NA,NA,NA,14,26,0,18,18,19,1,2,19,"likert"
"9E60D384294A4390A567618D0B1BC407",1,"01990a98-9360-719a-a203-5f72e82d3eff","01990a84-c4ee-73c2-a87b-ff46a7d3dde5","2025-09-02_07h06.49.209",NA,NA,537.8674,537.8674,537.8674,538.2413,NA,NA,NA,NA,NA,NA,NA,TRUE,3,1.9868,534.9879,537.8672,NA,NA,NA,NA,NA,150,47,0,19,19,94,1,2,20,"likert"
"9E60D384294A4390A567618D0B1BC407",1,"01990a98-9360-719a-a203-5f72e82d3eff","01990a84-c4ee-73c2-a87b-ff46a7d3dde5","2025-09-02_07h06.49.209",NA,NA,541.1081,541.1081,541.1082,541.529,NA,NA,NA,NA,NA,NA,NA,TRUE,5,0.8519,538.2418,541.108,NA,NA,NA,NA,NA,60,33,0,20,20,67,1,2,21,"likert"
"9E60D384294A4390A567618D0B1BC407",1,"01990a98-9360-719a-a203-5f72e82d3eff","01990a84-c4ee-73c2-a87b-ff46a7d3dde5","2025-09-02_07h06.49.209",NA,NA,544.5911,544.5911,544.5911,544.9375,NA,NA,NA,NA,NA,NA,NA,TRUE,3,2.4722,541.5296,544.5909,NA,NA,NA,NA,NA,45,31,0,21,21,56,1,2,22,"likert"
"9E60D384294A4390A567618D0B1BC407",1,"01990a98-9360-719a-a203-5f72e82d3eff","01990a84-c4ee-73c2-a87b-ff46a7d3dde5","2025-09-02_07h06.49.209",NA,NA,547.6988,547.6988,547.6988,548.4365,NA,NA,NA,NA,NA,NA,NA,TRUE,3,0.007,544.9381,547.6986,NA,NA,NA,NA,NA,50,46,0,22,22,64,1,2,23,"likert"
"9E60D384294A4390A567618D0B1BC407",1,"01990a98-9360-719a-a203-5f72e82d3eff","01990a84-c4ee-73c2-a87b-ff46a7d3dde5","2025-09-02_07h06.49.209",NA,NA,551.2081,551.2081,551.2081,551.5893,NA,NA,NA,NA,NA,NA,NA,TRUE,3,2.386,548.4371,551.2079,NA,NA,NA,NA,NA,100,38,0,23,23,86,1,2,24,"likert"
"9E60D384294A4390A567618D0B1BC407",1,"01990a98-9360-719a-a203-5f72e82d3eff","01990a84-c4ee-73c2-a87b-ff46a7d3dde5","2025-09-02_07h06.49.209",NA,NA,554.3791,554.3791,554.3791,555.1029,NA,NA,NA,NA,NA,NA,NA,TRUE,3,0.0072,551.5899,554.379,NA,NA,NA,NA,NA,60,40,0,24,24,69,1,2,25,"likert"
"9E60D384294A4390A567618D0B1BC407",1,"01990a98-9360-719a-a203-5f72e82d3eff","01990a84-c4ee-73c2-a87b-ff46a7d3dde5","2025-09-02_07h06.49.209",NA,NA,557.9388,557.9388,557.9388,558.3264,NA,NA,NA,NA,NA,NA,NA,TRUE,3,0.0077,555.1044,557.9387,NA,NA,NA,NA,NA,150,40,0,25,25,93,1,2,26,"likert"
"9E60D384294A4390A567618D0B1BC407",1,"01990a98-9360-719a-a203-5f72e82d3eff","01990a84-c4ee-73c2-a87b-ff46a7d3dde5","2025-09-02_07h06.49.209",NA,NA,561.4937,561.4938,561.4938,561.8604,NA,NA,NA,NA,NA,NA,NA,TRUE,2,1.5839,558.3278,561.4935,NA,NA,NA,NA,NA,150,54,0,26,26,95,1,2,27,"likert"
"9E60D384294A4390A567618D0B1BC407",1,"01990a98-9360-719a-a203-5f72e82d3eff","01990a84-c4ee-73c2-a87b-ff46a7d3dde5","2025-09-02_07h06.49.209",NA,NA,564.5931,564.5931,564.5931,564.9719,NA,NA,NA,NA,NA,NA,NA,TRUE,2,1.5907,561.861,564.5929,NA,NA,NA,NA,NA,90,33,0,27,27,74,1,2,28,"likert"
"9E60D384294A4390A567618D0B1BC407",1,"01990a98-9360-719a-a203-5f72e82d3eff","01990a84-c4ee-73c2-a87b-ff46a7d3dde5","2025-09-02_07h06.49.209",NA,NA,567.7862,567.7862,567.7862,568.549,NA,NA,NA,NA,NA,NA,NA,TRUE,4,0.4423,564.9731,567.786,NA,NA,NA,NA,NA,25,33,0,28,28,33,1,2,29,"likert"
"9E60D384294A4390A567618D0B1BC407",1,"01990a98-9360-719a-a203-5f72e82d3eff","01990a84-c4ee-73c2-a87b-ff46a7d3dde5","2025-09-02_07h06.49.209",NA,NA,571.3018,571.3018,571.3018,571.6639,NA,NA,NA,NA,NA,NA,NA,TRUE,3,1.9648,568.5496,571.3016,NA,NA,NA,NA,NA,10,30,0,29,29,10,1,2,30,"likert"
"9E60D384294A4390A567618D0B1BC407",1,"01990a98-9360-719a-a203-5f72e82d3eff","01990a84-c4ee-73c2-a87b-ff46a7d3dde5","2025-09-02_07h06.49.209",NA,NA,574.3848,574.3848,574.3848,575.0889,NA,NA,NA,NA,NA,NA,NA,TRUE,4,2.3406,571.6645,574.3847,NA,NA,NA,NA,NA,150,33,0,30,30,91,1,2,31,"likert"
"9E60D384294A4390A567618D0B1BC407",1,"01990a98-9360-719a-a203-5f72e82d3eff","01990a84-c4ee-73c2-a87b-ff46a7d3dde5","2025-09-02_07h06.49.209",NA,NA,578.2498,578.2498,578.2498,578.6339,NA,NA,NA,NA,NA,NA,NA,TRUE,4,0.0071,575.0895,578.2496,NA,NA,NA,NA,NA,10,32,0,31,31,11,1,2,32,"likert"
"9E60D384294A4390A567618D0B1BC407",1,"01990a98-9360-719a-a203-5f72e82d3eff","01990a84-c4ee-73c2-a87b-ff46a7d3dde5","2025-09-02_07h06.49.209",NA,NA,581.1787,581.1787,581.1787,581.9276,NA,NA,NA,NA,NA,NA,NA,TRUE,4,1.2973,578.6596,581.1785,NA,NA,NA,NA,NA,7,30,0,32,32,3,1,2,33,"likert"
"9E60D384294A4390A567618D0B1BC407",1,"01990a98-9360-719a-a203-5f72e82d3eff","01990a84-c4ee-73c2-a87b-ff46a7d3dde5","2025-09-02_07h06.49.209",NA,NA,584.7258,584.7258,584.7258,585.1442,NA,NA,NA,NA,NA,NA,NA,TRUE,2,2.124,581.9283,584.7257,NA,NA,NA,NA,NA,40,47,0,33,33,52,1,2,34,"likert"
"9E60D384294A4390A567618D0B1BC407",1,"01990a98-9360-719a-a203-5f72e82d3eff","01990a84-c4ee-73c2-a87b-ff46a7d3dde5","2025-09-02_07h06.49.209",NA,NA,587.9192,587.9192,587.9192,588.6734,NA,NA,NA,NA,NA,NA,NA,TRUE,2,1.5858,585.1448,587.9191,NA,NA,NA,NA,NA,95,40,0,34,34,81,1,2,35,"likert"
"9E60D384294A4390A567618D0B1BC407",1,"01990a98-9360-719a-a203-5f72e82d3eff","01990a84-c4ee-73c2-a87b-ff46a7d3dde5","2025-09-02_07h06.49.209",NA,NA,591.1908,591.1908,591.1908,591.9437,NA,NA,NA,NA,NA,NA,NA,TRUE,5,0.4222,588.6741,591.1906,NA,NA,NA,NA,NA,10,27,0,35,35,8,1,2,36,"likert"
"9E60D384294A4390A567618D0B1BC407",1,"01990a98-9360-719a-a203-5f72e82d3eff","01990a84-c4ee-73c2-a87b-ff46a7d3dde5","2025-09-02_07h06.49.209",NA,NA,595.0553,595.0553,595.0553,595.4084,NA,NA,NA,NA,NA,NA,NA,TRUE,5,0.7942,591.9446,595.0552,NA,NA,NA,NA,NA,100,39,0,36,36,87,1,2,37,"likert"
"9E60D384294A4390A567618D0B1BC407",1,"01990a98-9360-719a-a203-5f72e82d3eff","01990a84-c4ee-73c2-a87b-ff46a7d3dde5","2025-09-02_07h06.49.209",NA,NA,598.1965,598.1965,598.1965,598.5705,NA,NA,NA,NA,NA,NA,NA,TRUE,3,2.6983,595.4089,598.1964,NA,NA,NA,NA,NA,60,29,0,37,37,66,1,2,38,"likert"
"9E60D384294A4390A567618D0B1BC407",1,"01990a98-9360-719a-a203-5f72e82d3eff","01990a84-c4ee-73c2-a87b-ff46a7d3dde5","2025-09-02_07h06.49.209",NA,NA,601.4309,601.4309,601.4309,601.8102,NA,NA,NA,NA,NA,NA,NA,TRUE,5,2.3295,598.5714,601.4307,NA,NA,NA,NA,NA,28,39,0,38,38,40,1,2,39,"likert"
"9E60D384294A4390A567618D0B1BC407",1,"01990a98-9360-719a-a203-5f72e82d3eff","01990a84-c4ee-73c2-a87b-ff46a7d3dde5","2025-09-02_07h06.49.209",NA,NA,604.5919,604.5919,604.5919,605.3416,NA,NA,NA,NA,NA,NA,NA,TRUE,5,1.1751,601.8108,604.5915,NA,NA,NA,NA,NA,45,35,0,39,39,57,1,2,40,"likert"
"9E60D384294A4390A567618D0B1BC407",1,"01990a98-9360-719a-a203-5f72e82d3eff","01990a84-c4ee-73c2-a87b-ff46a7d3dde5","2025-09-02_07h06.49.209",NA,NA,608.1416,608.1416,608.1416,608.512,NA,NA,NA,NA,NA,NA,NA,TRUE,5,1.1836,605.3423,608.1414,NA,NA,NA,NA,NA,95,35,0,40,40,80,1,2,41,"likert"
"9E60D384294A4390A567618D0B1BC407",1,"01990a98-9360-719a-a203-5f72e82d3eff","01990a84-c4ee-73c2-a87b-ff46a7d3dde5","2025-09-02_07h06.49.209",NA,NA,611.384,611.384,611.384,612.2171,NA,NA,NA,NA,NA,NA,NA,TRUE,5,0.4431,608.5126,611.3838,NA,NA,NA,NA,NA,90,54,0,41,41,77,1,2,42,"likert"
"9E60D384294A4390A567618D0B1BC407",1,"01990a98-9360-719a-a203-5f72e82d3eff","01990a84-c4ee-73c2-a87b-ff46a7d3dde5","2025-09-02_07h06.49.209",NA,NA,614.6556,614.6556,614.6556,615.4142,NA,NA,NA,NA,NA,NA,NA,TRUE,4,2.0952,612.2179,614.6555,NA,NA,NA,NA,NA,200,26,0,42,42,102,1,2,43,"likert"
"9E60D384294A4390A567618D0B1BC407",1,"01990a98-9360-719a-a203-5f72e82d3eff","01990a84-c4ee-73c2-a87b-ff46a7d3dde5","2025-09-02_07h06.49.209",NA,NA,618.2058,618.2058,618.2058,618.596,NA,NA,NA,NA,NA,NA,NA,TRUE,3,1.5862,615.415,618.2056,NA,NA,NA,NA,NA,95,31,0,43,43,78,1,2,44,"likert"
"9E60D384294A4390A567618D0B1BC407",1,"01990a98-9360-719a-a203-5f72e82d3eff","01990a84-c4ee-73c2-a87b-ff46a7d3dde5","2025-09-02_07h06.49.209",NA,NA,621.4621,621.4622,621.4622,622.1911,NA,NA,NA,NA,NA,NA,NA,TRUE,5,0.0087,618.5967,621.4619,NA,NA,NA,NA,NA,45,40,0,44,44,58,1,2,45,"likert"
"9E60D384294A4390A567618D0B1BC407",1,"01990a98-9360-719a-a203-5f72e82d3eff","01990a84-c4ee-73c2-a87b-ff46a7d3dde5","2025-09-02_07h06.49.209",NA,NA,624.9585,625.3424,625.3424,625.3425,NA,NA,NA,NA,NA,NA,NA,FALSE,NA,NA,622.1917,624.9583,NA,NA,NA,NA,NA,21,32,0,45,45,28,1,2,46,"likert"
"9E60D384294A4390A567618D0B1BC407",1,"01990a98-9360-719a-a203-5f72e82d3eff","01990a84-c4ee-73c2-a87b-ff46a7d3dde5","2025-09-02_07h06.49.209",NA,NA,628.4762,628.4762,628.4762,628.8781,NA,NA,NA,NA,NA,NA,NA,TRUE,3,1.9622,625.343,628.476,NA,NA,NA,NA,NA,30,29,0,46,46,44,1,2,47,"likert"
"9E60D384294A4390A567618D0B1BC407",1,"01990a98-9360-719a-a203-5f72e82d3eff","01990a84-c4ee-73c2-a87b-ff46a7d3dde5","2025-09-02_07h06.49.209",NA,NA,631.767,631.767,631.767,632.1279,NA,NA,NA,NA,NA,NA,NA,FALSE,NA,NA,628.8788,631.7668,NA,NA,NA,NA,NA,200,54,0,47,47,107,1,2,48,"likert"
"9E60D384294A4390A567618D0B1BC407",1,"01990a98-9360-719a-a203-5f72e82d3eff","01990a84-c4ee-73c2-a87b-ff46a7d3dde5","2025-09-02_07h06.49.209",NA,NA,634.8774,634.8774,634.8774,635.5779,NA,NA,NA,NA,NA,NA,NA,TRUE,2,0.389,632.1284,634.8772,NA,NA,NA,NA,NA,7,32,0,48,48,4,1,2,49,"likert"
"9E60D384294A4390A567618D0B1BC407",1,"01990a98-9360-719a-a203-5f72e82d3eff","01990a84-c4ee-73c2-a87b-ff46a7d3dde5","2025-09-02_07h06.49.209",NA,NA,638.2889,638.6438,638.6438,639.0195,NA,NA,NA,NA,NA,NA,NA,FALSE,NA,NA,635.5786,638.2886,NA,NA,NA,NA,NA,45,29,0,49,49,55,1,2,50,"likert"
"9E60D384294A4390A567618D0B1BC407",1,"01990a98-9360-719a-a203-5f72e82d3eff","01990a84-c4ee-73c2-a87b-ff46a7d3dde5","2025-09-02_07h06.49.209",NA,NA,641.9031,641.9031,641.9031,642.2916,NA,NA,NA,NA,NA,NA,NA,FALSE,NA,NA,639.0201,641.903,NA,NA,NA,NA,NA,200,35,0,50,50,104,1,2,51,"likert"
"9E60D384294A4390A567618D0B1BC407",1,"01990a98-9360-719a-a203-5f72e82d3eff","01990a84-c4ee-73c2-a87b-ff46a7d3dde5","2025-09-02_07h06.49.209",NA,NA,645.0992,645.0992,645.0992,645.4851,NA,NA,NA,NA,NA,NA,NA,FALSE,NA,NA,642.2921,645.0991,NA,NA,NA,NA,NA,7,25,0,51,51,0,1,2,52,"likert"
"9E60D384294A4390A567618D0B1BC407",1,"01990a98-9360-719a-a203-5f72e82d3eff","01990a84-c4ee-73c2-a87b-ff46a7d3dde5","2025-09-02_07h06.49.209",NA,NA,648.2465,648.2465,648.2465,648.9785,NA,NA,NA,NA,NA,NA,NA,TRUE,5,0.0069,645.4858,648.2464,NA,NA,NA,NA,NA,90,30,0,52,52,73,1,2,53,"likert"
"9E60D384294A4390A567618D0B1BC407",1,"01990a98-9360-719a-a203-5f72e82d3eff","01990a84-c4ee-73c2-a87b-ff46a7d3dde5","2025-09-02_07h06.49.209",NA,NA,651.7782,652.1577,652.1577,652.1577,NA,NA,NA,NA,NA,NA,NA,FALSE,NA,NA,648.9795,651.7781,NA,NA,NA,NA,NA,21,29,0,53,53,26,1,2,54,"likert"
"9E60D384294A4390A567618D0B1BC407",1,"01990a98-9360-719a-a203-5f72e82d3eff","01990a84-c4ee-73c2-a87b-ff46a7d3dde5","2025-09-02_07h06.49.209",NA,NA,654.9209,654.9209,654.9209,655.7188,NA,NA,NA,NA,NA,NA,NA,TRUE,5,1.9988,652.1584,654.9207,NA,NA,NA,NA,NA,7,26,0,54,54,1,1,2,55,"likert"
"9E60D384294A4390A567618D0B1BC407",1,"01990a98-9360-719a-a203-5f72e82d3eff","01990a84-c4ee-73c2-a87b-ff46a7d3dde5","2025-09-02_07h06.49.209",NA,NA,658.0965,658.0965,658.0965,658.8372,NA,NA,NA,NA,NA,NA,NA,TRUE,1,2.0001,655.7197,658.0963,NA,NA,NA,NA,NA,95,54,0,55,55,83,1,2,56,"likert"
"9E60D384294A4390A567618D0B1BC407",1,"01990a98-9360-719a-a203-5f72e82d3eff","01990a84-c4ee-73c2-a87b-ff46a7d3dde5","2025-09-02_07h06.49.209",NA,NA,661.6818,662.0829,662.083,662.4668,NA,NA,NA,NA,NA,NA,NA,FALSE,NA,NA,658.8379,661.6815,NA,NA,NA,NA,NA,21,38,0,56,56,29,1,2,57,"likert"
"9E60D384294A4390A567618D0B1BC407",1,"01990a98-9360-719a-a203-5f72e82d3eff","01990a84-c4ee-73c2-a87b-ff46a7d3dde5","2025-09-02_07h06.49.209",NA,NA,664.8432,665.5671,665.5672,665.5673,NA,NA,NA,NA,NA,NA,NA,FALSE,NA,NA,662.4675,664.8429,NA,NA,NA,NA,NA,10,26,0,57,57,7,1,2,58,"likert"
"9E60D384294A4390A567618D0B1BC407",1,"01990a98-9360-719a-a203-5f72e82d3eff","01990a84-c4ee-73c2-a87b-ff46a7d3dde5","2025-09-02_07h06.49.209",NA,NA,668.3637,668.3637,668.3637,669.0668,NA,NA,NA,NA,NA,NA,NA,TRUE,5,1.5963,665.5679,668.3636,NA,NA,NA,NA,NA,28,46,0,58,58,41,1,2,59,"likert"
"9E60D384294A4390A567618D0B1BC407",1,"01990a98-9360-719a-a203-5f72e82d3eff","01990a84-c4ee-73c2-a87b-ff46a7d3dde5","2025-09-02_07h06.49.209",NA,NA,671.924,671.924,671.924,672.3003,NA,NA,NA,NA,NA,NA,NA,TRUE,1,2.3955,669.0675,671.9239,NA,NA,NA,NA,NA,28,26,0,59,59,36,1,2,60,"likert"
"9E60D384294A4390A567618D0B1BC407",1,"01990a98-9360-719a-a203-5f72e82d3eff","01990a84-c4ee-73c2-a87b-ff46a7d3dde5","2025-09-02_07h06.49.209",NA,NA,675.0446,675.4214,675.4215,675.8065,NA,NA,NA,NA,NA,NA,NA,FALSE,NA,NA,672.3009,675.0444,NA,NA,NA,NA,NA,25,35,0,60,60,34,1,2,61,"likert"
"9E60D384294A4390A567618D0B1BC407",1,"01990a98-9360-719a-a203-5f72e82d3eff","01990a84-c4ee-73c2-a87b-ff46a7d3dde5","2025-09-02_07h06.49.209",NA,NA,678.2542,678.6246,678.6246,679.0141,NA,NA,NA,NA,NA,NA,NA,FALSE,NA,NA,675.8072,678.254,NA,NA,NA,NA,NA,12,33,0,61,61,16,1,2,62,"likert"
"9E60D384294A4390A567618D0B1BC407",1,"01990a98-9360-719a-a203-5f72e82d3eff","01990a84-c4ee-73c2-a87b-ff46a7d3dde5","2025-09-02_07h06.49.209",NA,NA,681.8428,681.8428,681.8428,682.2264,NA,NA,NA,NA,NA,NA,NA,TRUE,1,2.4268,679.0148,681.8427,NA,NA,NA,NA,NA,12,28,0,62,62,14,1,2,63,"likert"
"9E60D384294A4390A567618D0B1BC407",1,"01990a98-9360-719a-a203-5f72e82d3eff","01990a84-c4ee-73c2-a87b-ff46a7d3dde5","2025-09-02_07h06.49.209",NA,NA,685.0932,685.458,685.458,685.8422,NA,NA,NA,NA,NA,NA,NA,FALSE,NA,NA,682.2271,685.0931,NA,NA,NA,NA,NA,180,35,0,63,63,98,1,2,64,"likert"
"9E60D384294A4390A567618D0B1BC407",1,"01990a98-9360-719a-a203-5f72e82d3eff","01990a84-c4ee-73c2-a87b-ff46a7d3dde5","2025-09-02_07h06.49.209",NA,NA,688.3518,688.7182,688.7183,689.0909,NA,NA,NA,NA,NA,NA,NA,FALSE,NA,NA,685.8427,688.3516,NA,NA,NA,NA,NA,30,30,0,64,64,45,1,2,65,"likert"
"9E60D384294A4390A567618D0B1BC407",1,"01990a98-9360-719a-a203-5f72e82d3eff","01990a84-c4ee-73c2-a87b-ff46a7d3dde5","2025-09-02_07h06.49.209",NA,NA,691.8722,692.2422,692.2422,692.2422,NA,NA,NA,NA,NA,NA,NA,FALSE,NA,NA,689.0917,691.872,NA,NA,NA,NA,NA,100,54,0,65,65,89,1,2,66,"likert"
"9E60D384294A4390A567618D0B1BC407",1,"01990a98-9360-719a-a203-5f72e82d3eff","01990a84-c4ee-73c2-a87b-ff46a7d3dde5","2025-09-02_07h06.49.209",NA,NA,695.4327,695.4327,695.4327,695.8226,NA,NA,NA,NA,NA,NA,NA,TRUE,1,1.2541,692.2428,695.4324,NA,NA,NA,NA,NA,28,32,0,66,66,38,1,2,67,"likert"
"9E60D384294A4390A567618D0B1BC407",1,"01990a98-9360-719a-a203-5f72e82d3eff","01990a84-c4ee-73c2-a87b-ff46a7d3dde5","2025-09-02_07h06.49.209",NA,NA,698.5725,698.5725,698.5725,698.9945,NA,NA,NA,NA,NA,NA,NA,TRUE,3,1.956,695.8233,698.5722,NA,NA,NA,NA,NA,180,39,0,67,67,99,1,2,68,"likert"
"9E60D384294A4390A567618D0B1BC407",1,"01990a98-9360-719a-a203-5f72e82d3eff","01990a84-c4ee-73c2-a87b-ff46a7d3dde5","2025-09-02_07h06.49.209",NA,NA,702.0826,702.0826,702.0826,702.4339,NA,NA,NA,NA,NA,NA,NA,TRUE,4,2.3489,698.995,702.0824,NA,NA,NA,NA,NA,30,38,0,68,68,47,1,2,69,"likert"
"9E60D384294A4390A567618D0B1BC407",1,"01990a98-9360-719a-a203-5f72e82d3eff","01990a84-c4ee-73c2-a87b-ff46a7d3dde5","2025-09-02_07h06.49.209",NA,NA,705.2366,705.2366,705.2366,705.9959,NA,NA,NA,NA,NA,NA,NA,TRUE,5,0.0137,702.4345,705.2364,NA,NA,NA,NA,NA,45,46,0,69,69,59,1,2,70,"likert"
"9E60D384294A4390A567618D0B1BC407",1,"01990a98-9360-719a-a203-5f72e82d3eff","01990a84-c4ee-73c2-a87b-ff46a7d3dde5","2025-09-02_07h06.49.209",NA,NA,708.6818,708.6819,708.6819,709.0397,NA,NA,NA,NA,NA,NA,NA,TRUE,4,0.007,705.9964,708.6818,NA,NA,NA,NA,NA,21,26,0,70,70,24,1,2,71,"likert"
"9E60D384294A4390A567618D0B1BC407",1,"01990a98-9360-719a-a203-5f72e82d3eff","01990a84-c4ee-73c2-a87b-ff46a7d3dde5","2025-09-02_07h06.49.209",NA,NA,711.7541,711.7541,711.7542,712.4731,NA,NA,NA,NA,NA,NA,NA,TRUE,5,2.2949,709.0402,711.754,NA,NA,NA,NA,NA,12,35,0,71,71,17,1,2,72,"likert"
"9E60D384294A4390A567618D0B1BC407",1,"01990a98-9360-719a-a203-5f72e82d3eff","01990a84-c4ee-73c2-a87b-ff46a7d3dde5","2025-09-02_07h06.49.209",NA,NA,715.3326,715.3326,715.3326,715.7612,NA,NA,NA,NA,NA,NA,NA,TRUE,5,1.9277,712.4738,715.3324,NA,NA,NA,NA,NA,50,27,0,72,72,60,1,2,73,"likert"
"9E60D384294A4390A567618D0B1BC407",1,"01990a98-9360-719a-a203-5f72e82d3eff","01990a84-c4ee-73c2-a87b-ff46a7d3dde5","2025-09-02_07h06.49.209",NA,NA,718.494,718.494,718.494,719.2458,NA,NA,NA,NA,NA,NA,NA,TRUE,2,2.4742,715.7621,718.4938,NA,NA,NA,NA,NA,14,35,0,73,73,22,1,2,74,"likert"
"9E60D384294A4390A567618D0B1BC407",1,"01990a98-9360-719a-a203-5f72e82d3eff","01990a84-c4ee-73c2-a87b-ff46a7d3dde5","2025-09-02_07h06.49.209",NA,NA,722.3842,722.3842,722.3842,722.7603,NA,NA,NA,NA,NA,NA,NA,TRUE,3,0.4073,719.2464,722.3841,NA,NA,NA,NA,NA,40,35,0,74,74,50,1,2,75,"likert"
"9E60D384294A4390A567618D0B1BC407",1,"01990a98-9360-719a-a203-5f72e82d3eff","01990a84-c4ee-73c2-a87b-ff46a7d3dde5","2025-09-02_07h06.49.209",NA,NA,725.4433,725.4433,725.4433,725.8623,NA,NA,NA,NA,NA,NA,NA,TRUE,1,2.743,722.7609,725.4432,NA,NA,NA,NA,NA,200,47,0,75,75,106,1,2,76,"likert"
"9E60D384294A4390A567618D0B1BC407",1,"01990a98-9360-719a-a203-5f72e82d3eff","01990a84-c4ee-73c2-a87b-ff46a7d3dde5","2025-09-02_07h06.49.209",NA,NA,728.7035,728.7035,728.7035,729.455,NA,NA,NA,NA,NA,NA,NA,TRUE,1,1.2192,725.8631,728.7033,NA,NA,NA,NA,NA,200,28,0,76,76,103,1,2,77,"likert"
"9E60D384294A4390A567618D0B1BC407",1,"01990a98-9360-719a-a203-5f72e82d3eff","01990a84-c4ee-73c2-a87b-ff46a7d3dde5","2025-09-02_07h06.49.209",NA,NA,732.2884,732.2884,732.2884,732.656,NA,NA,NA,NA,NA,NA,NA,TRUE,4,1.2283,729.4556,732.2883,NA,NA,NA,NA,NA,90,46,0,77,77,76,1,2,78,"likert"
"9E60D384294A4390A567618D0B1BC407",1,"01990a98-9360-719a-a203-5f72e82d3eff","01990a84-c4ee-73c2-a87b-ff46a7d3dde5","2025-09-02_07h06.49.209",NA,NA,735.4288,735.4288,735.4288,735.7983,NA,NA,NA,NA,NA,NA,NA,TRUE,1,1.9983,732.6566,735.4287,NA,NA,NA,NA,NA,14,39,0,78,78,23,1,2,79,"likert"
"9E60D384294A4390A567618D0B1BC407",1,"01990a98-9360-719a-a203-5f72e82d3eff","01990a84-c4ee-73c2-a87b-ff46a7d3dde5","2025-09-02_07h06.49.209",NA,NA,738.6248,739.0271,739.0271,739.4119,NA,NA,NA,NA,NA,NA,NA,FALSE,NA,NA,735.799,738.6246,NA,NA,NA,NA,NA,60,54,0,79,79,71,1,2,80,"likert"
"9E60D384294A4390A567618D0B1BC407",1,"01990a98-9360-719a-a203-5f72e82d3eff","01990a84-c4ee-73c2-a87b-ff46a7d3dde5","2025-09-02_07h06.49.209",NA,NA,741.7901,741.7901,741.7901,742.5639,NA,NA,NA,NA,NA,NA,NA,TRUE,5,2.011,739.4126,741.7899,NA,NA,NA,NA,NA,25,27,0,80,80,30,1,2,81,"likert"
"9E60D384294A4390A567618D0B1BC407",1,"01990a98-9360-719a-a203-5f72e82d3eff","01990a84-c4ee-73c2-a87b-ff46a7d3dde5","2025-09-02_07h06.49.209",NA,NA,745.3206,745.3206,745.3206,746.0567,NA,NA,NA,NA,NA,NA,NA,TRUE,5,1.9975,742.5646,745.3205,NA,NA,NA,NA,NA,12,31,0,81,81,15,1,2,82,"likert"
"9E60D384294A4390A567618D0B1BC407",1,"01990a98-9360-719a-a203-5f72e82d3eff","01990a84-c4ee-73c2-a87b-ff46a7d3dde5","2025-09-02_07h06.49.209",NA,NA,748.7717,748.7717,748.7717,749.5616,NA,NA,NA,NA,NA,NA,NA,TRUE,5,2.3246,746.0573,748.7715,NA,NA,NA,NA,NA,30,27,0,82,82,43,1,2,83,"likert"
"9E60D384294A4390A567618D0B1BC407",1,"01990a98-9360-719a-a203-5f72e82d3eff","01990a84-c4ee-73c2-a87b-ff46a7d3dde5","2025-09-02_07h06.49.209",NA,NA,752.3993,752.3993,752.3993,752.7671,NA,NA,NA,NA,NA,NA,NA,TRUE,5,2.0107,749.5622,752.3991,NA,NA,NA,NA,NA,12,26,0,83,83,13,1,2,84,"likert"
"9E60D384294A4390A567618D0B1BC407",1,"01990a98-9360-719a-a203-5f72e82d3eff","01990a84-c4ee-73c2-a87b-ff46a7d3dde5","2025-09-02_07h06.49.209",NA,NA,755.5638,755.5638,755.5638,755.9423,NA,NA,NA,NA,NA,NA,NA,TRUE,5,1.9679,752.7677,755.5635,NA,NA,NA,NA,NA,28,28,0,84,84,37,1,2,85,"likert"
"9E60D384294A4390A567618D0B1BC407",1,"01990a98-9360-719a-a203-5f72e82d3eff","01990a84-c4ee-73c2-a87b-ff46a7d3dde5","2025-09-02_07h06.49.209",NA,NA,758.8139,758.8139,758.8139,759.5789,NA,NA,NA,NA,NA,NA,NA,TRUE,5,2.0733,755.9431,758.8138,NA,NA,NA,NA,NA,14,28,0,85,85,20,1,2,86,"likert"
"9E60D384294A4390A567618D0B1BC407",1,"01990a98-9360-719a-a203-5f72e82d3eff","01990a84-c4ee-73c2-a87b-ff46a7d3dde5","2025-09-02_07h06.49.209",NA,NA,762.3766,762.3766,762.3766,762.7617,NA,NA,NA,NA,NA,NA,NA,TRUE,5,2.0215,759.5796,762.3764,NA,NA,NA,NA,NA,25,29,0,86,86,31,1,2,87,"likert"
"9E60D384294A4390A567618D0B1BC407",1,"01990a98-9360-719a-a203-5f72e82d3eff","01990a84-c4ee-73c2-a87b-ff46a7d3dde5","2025-09-02_07h06.49.209",NA,NA,765.5482,765.9109,765.9109,766.2924,NA,NA,NA,NA,NA,NA,NA,FALSE,NA,NA,762.7623,765.548,NA,NA,NA,NA,NA,50,30,0,87,87,61,1,2,88,"likert"
"9E60D384294A4390A567618D0B1BC407",1,"01990a98-9360-719a-a203-5f72e82d3eff","01990a84-c4ee-73c2-a87b-ff46a7d3dde5","2025-09-02_07h06.49.209",NA,NA,768.6733,769.4362,769.4362,769.4362,NA,NA,NA,NA,NA,NA,NA,FALSE,NA,NA,766.293,768.6731,NA,NA,NA,NA,NA,50,35,0,88,88,62,1,2,89,"likert"
"9E60D384294A4390A567618D0B1BC407",1,"01990a98-9360-719a-a203-5f72e82d3eff","01990a84-c4ee-73c2-a87b-ff46a7d3dde5","2025-09-02_07h06.49.209",NA,NA,772.2207,772.5948,772.5949,772.9718,NA,NA,NA,NA,NA,NA,NA,FALSE,NA,NA,769.4371,772.2205,NA,NA,NA,NA,NA,150,35,0,89,89,92,1,2,90,"likert"
"9E60D384294A4390A567618D0B1BC407",1,"01990a98-9360-719a-a203-5f72e82d3eff","01990a84-c4ee-73c2-a87b-ff46a7d3dde5","2025-09-02_07h06.49.209",NA,NA,775.7573,775.7573,775.7573,776.2631,NA,NA,NA,NA,NA,NA,NA,FALSE,NA,NA,772.9724,775.7571,NA,NA,NA,NA,NA,200,39,0,90,90,105,1,2,91,"likert"
"9E60D384294A4390A567618D0B1BC407",1,"01990a98-9360-719a-a203-5f72e82d3eff","01990a84-c4ee-73c2-a87b-ff46a7d3dde5","2025-09-02_07h06.49.209",NA,NA,779.03,779.03,779.03,779.457,NA,NA,NA,NA,NA,NA,NA,TRUE,1,1.9997,776.2637,779.0298,NA,NA,NA,NA,NA,180,46,0,91,91,100,1,2,92,"likert"
"9E60D384294A4390A567618D0B1BC407",1,"01990a98-9360-719a-a203-5f72e82d3eff","01990a84-c4ee-73c2-a87b-ff46a7d3dde5","2025-09-02_07h06.49.209",NA,NA,782.2763,782.2763,782.2763,783.0045,NA,NA,NA,NA,NA,NA,NA,TRUE,1,2.3945,779.4577,782.2762,NA,NA,NA,NA,NA,95,47,0,92,92,82,1,2,93,"likert"
"9E60D384294A4390A567618D0B1BC407",1,"01990a98-9360-719a-a203-5f72e82d3eff","01990a84-c4ee-73c2-a87b-ff46a7d3dde5","2025-09-02_07h06.49.209",NA,NA,785.8202,786.1951,786.1952,786.1952,NA,NA,NA,NA,NA,NA,NA,FALSE,NA,NA,783.0055,785.82,NA,NA,NA,NA,NA,95,33,0,93,93,79,1,2,94,"likert"
"9E60D384294A4390A567618D0B1BC407",1,"01990a98-9360-719a-a203-5f72e82d3eff","01990a84-c4ee-73c2-a87b-ff46a7d3dde5","2025-09-02_07h06.49.209",NA,NA,789.0769,789.0769,789.0769,789.4294,NA,NA,NA,NA,NA,NA,NA,TRUE,1,1.6995,786.1958,789.0767,NA,NA,NA,NA,NA,100,26,0,94,94,84,1,2,95,"likert"
"9E60D384294A4390A567618D0B1BC407",1,"01990a98-9360-719a-a203-5f72e82d3eff","01990a84-c4ee-73c2-a87b-ff46a7d3dde5","2025-09-02_07h06.49.209",NA,NA,792.3456,792.7204,792.7205,793.0848,NA,NA,NA,NA,NA,NA,NA,FALSE,NA,NA,789.4302,792.3454,NA,NA,NA,NA,NA,40,27,0,95,95,48,1,2,96,"likert"
"9E60D384294A4390A567618D0B1BC407",1,"01990a98-9360-719a-a203-5f72e82d3eff","01990a84-c4ee-73c2-a87b-ff46a7d3dde5","2025-09-02_07h06.49.209",NA,NA,795.886,795.886,795.886,796.2813,NA,NA,NA,NA,NA,NA,NA,FALSE,NA,NA,793.0854,795.8858,NA,NA,NA,NA,NA,180,54,0,96,96,101,1,2,97,"likert"
"9E60D384294A4390A567618D0B1BC407",1,"01990a98-9360-719a-a203-5f72e82d3eff","01990a84-c4ee-73c2-a87b-ff46a7d3dde5","2025-09-02_07h06.49.209",NA,NA,799.0564,799.0564,799.0564,799.8427,NA,NA,NA,NA,NA,NA,NA,TRUE,1,2.3967,796.282,799.0562,NA,NA,NA,NA,NA,12,25,0,97,97,12,1,2,98,"likert"
"9E60D384294A4390A567618D0B1BC407",1,"01990a98-9360-719a-a203-5f72e82d3eff","01990a84-c4ee-73c2-a87b-ff46a7d3dde5","2025-09-02_07h06.49.209",NA,NA,802.2516,803.0005,803.0005,803.0005,NA,NA,NA,NA,NA,NA,NA,FALSE,NA,NA,799.8436,802.2514,NA,NA,NA,NA,NA,40,33,0,98,98,49,1,2,99,"likert"
"9E60D384294A4390A567618D0B1BC407",1,"01990a98-9360-719a-a203-5f72e82d3eff","01990a84-c4ee-73c2-a87b-ff46a7d3dde5","2025-09-02_07h06.49.209",NA,NA,805.9953,805.9953,805.9953,806.3554,NA,NA,NA,NA,NA,NA,NA,TRUE,5,1.5058,803.0011,805.9952,NA,NA,NA,NA,NA,14,25,0,99,99,18,1,2,100,"likert"
"9E60D384294A4390A567618D0B1BC407",1,"01990a98-9360-719a-a203-5f72e82d3eff","01990a84-c4ee-73c2-a87b-ff46a7d3dde5","2025-09-02_07h06.49.209",NA,NA,809.2072,809.2072,809.2072,809.5564,NA,NA,NA,NA,NA,NA,NA,TRUE,5,2.4295,806.356,809.207,NA,NA,NA,NA,NA,25,46,0,100,100,35,1,2,101,"likert"
"9E60D384294A4390A567618D0B1BC407",1,"01990a98-9360-719a-a203-5f72e82d3eff","01990a84-c4ee-73c2-a87b-ff46a7d3dde5","2025-09-02_07h06.49.209",NA,NA,812.7326,812.7326,812.7326,813.0944,NA,NA,NA,NA,NA,NA,NA,TRUE,5,1.6566,809.5569,812.7324,NA,NA,NA,NA,NA,10,29,0,101,101,9,1,2,102,"likert"
"9E60D384294A4390A567618D0B1BC407",1,"01990a98-9360-719a-a203-5f72e82d3eff","01990a84-c4ee-73c2-a87b-ff46a7d3dde5","2025-09-02_07h06.49.209",NA,NA,815.8719,815.8719,815.8719,816.2399,NA,NA,NA,NA,NA,NA,NA,TRUE,1,1.9942,813.0952,815.8717,NA,NA,NA,NA,NA,100,31,0,102,102,85,1,2,103,"likert"
"9E60D384294A4390A567618D0B1BC407",1,"01990a98-9360-719a-a203-5f72e82d3eff","01990a84-c4ee-73c2-a87b-ff46a7d3dde5","2025-09-02_07h06.49.209",NA,NA,818.9576,819.6808,819.6808,819.6809,NA,NA,NA,NA,NA,NA,NA,FALSE,NA,NA,816.2405,818.9574,NA,NA,NA,NA,NA,28,35,0,103,103,39,1,2,104,"likert"
"9E60D384294A4390A567618D0B1BC407",1,"01990a98-9360-719a-a203-5f72e82d3eff","01990a84-c4ee-73c2-a87b-ff46a7d3dde5","2025-09-02_07h06.49.209",NA,NA,822.5177,822.5177,822.5177,823.2289,NA,NA,NA,NA,NA,NA,NA,TRUE,5,2.0842,819.6814,822.5176,NA,NA,NA,NA,NA,50,40,0,104,104,63,1,2,105,"likert"
"9E60D384294A4390A567618D0B1BC407",1,"01990a98-9360-719a-a203-5f72e82d3eff","01990a84-c4ee-73c2-a87b-ff46a7d3dde5","2025-09-02_07h06.49.209",NA,NA,825.6824,826.4194,826.4194,826.4194,NA,NA,NA,NA,NA,NA,NA,FALSE,NA,NA,823.2296,825.6823,NA,NA,NA,NA,NA,50,54,0,105,105,65,1,2,106,"likert"
"9E60D384294A4390A567618D0B1BC407",1,"01990a98-9360-719a-a203-5f72e82d3eff","01990a84-c4ee-73c2-a87b-ff46a7d3dde5","2025-09-02_07h06.49.209",NA,NA,829.1881,829.1881,829.1881,829.8978,NA,NA,NA,NA,NA,NA,NA,TRUE,5,2.0001,826.42,829.1878,NA,NA,NA,NA,NA,7,28,0,106,106,2,1,2,107,"likert"
"9E60D384294A4390A567618D0B1BC407",1,"01990a98-9360-719a-a203-5f72e82d3eff","01990a84-c4ee-73c2-a87b-ff46a7d3dde5","2025-09-02_07h06.49.209",NA,NA,832.3722,832.3722,832.3722,833.1229,NA,NA,NA,NA,NA,NA,NA,TRUE,5,2.1069,829.8983,832.372,NA,NA,NA,NA,NA,60,47,0,107,107,70,1,2,108,"likert"
