"participant","session","assignmentId","projectId","date","practiceTrial.started","practiceTrial.stopped","tooLate.started","tooLate.stopped","blank.started","blank.stopped","trials_pract.thisRepN","trials_pract.thisTrialN","trials_pract.thisN","trials_pract.thisIndex","trials_pract.ran","delay_pract","amount_pract","responseMade","key","rt","trial.started","trial.stopped","trials.thisRepN","trials.thisTrialN","trials.thisN","trials.thisIndex","trials.ran","delay","amount","trials_2.thisRepN","trials_2.thisTrialN","trials_2.thisN","trials_2.thisIndex","trials_2.ran","block","trial","taskType"
"A9CEA77863774ACFAE514BF52A8485AE",1,"01990a98-f06d-7bba-a35e-8f81b4b84148","01990a84-c4ee-73c2-a87b-ff46a7d3dde5","2025-09-02_09h48.28.035",65.2528,68.1676,68.1693,68.4172,68.4176,68.5174,0,0,0,2,1,14,45,FALSE,NA,NA,NA,NA,NA,NA,NA,NA,NA,NA,NA,NA,NA,NA,NA,NA,0,1,"likert"
"A9CEA77863774ACFAE514BF52A8485AE",1,"01990a98-f06d-7bba-a35e-8f81b4b84148","01990a84-c4ee-73c2-a87b-ff46a7d3dde5","2025-09-02_09h48.28.035",68.5249,71.5174,71.5181,71.7662,71.7665,71.8665,0,1,1,3,1,3,27,FALSE,NA,NA,NA,NA,NA,NA,NA,NA,NA,NA,NA,NA,NA,NA,NA,NA,0,2,"likert"
"A9CEA77863774ACFAE514BF52A8485AE",1,"01990a98-f06d-7bba-a35e-8f81b4b84148","01990a84-c4ee-73c2-a87b-ff46a7d3dde5","2025-09-02_09h48.28.035",71.8711,74.8668,74.8682,74.8683,74.8684,75.2168,0,2,2,1,1,100,50,TRUE,1,2.2617,NA,NA,NA,NA,NA,NA,NA,NA,NA,NA,NA,NA,NA,NA,0,3,"likert"
"A9CEA77863774ACFAE514BF52A8485AE",1,"01990a98-f06d-7bba-a35e-8f81b4b84148","01990a84-c4ee-73c2-a87b-ff46a7d3dde5","2025-09-02_09h48.28.035",75.2209,78.2176,78.2181,78.466,78.4662,78.5664,0,3,3,0,1,7,30,FALSE,NA,NA,NA,NA,NA,NA,NA,NA,NA,NA,NA,NA,NA,NA,NA,NA,0,4,"likert"
"A9CEA77863774ACFAE514BF52A8485AE",1,"01990a98-f06d-7bba-a35e-8f81b4b84148","01990a84-c4ee-73c2-a87b-ff46a7d3dde5","2025-09-02_09h48.28.035",78.5707,81.5664,81.5674,81.8172,81.8173,81.916,0,4,4,4,1,30,40,FALSE,NA,NA,NA,NA,NA,NA,NA,NA,NA,NA,NA,NA,NA,NA,NA,NA,0,5,"likert"
"A9CEA77863774ACFAE514BF52A8485AE",1,"01990a98-f06d-7bba-a35e-8f81b4b84148","01990a84-c4ee-73c2-a87b-ff46a7d3dde5","2025-09-02_09h48.28.035",NA,NA,144.2152,144.2157,144.2162,144.5635,NA,NA,NA,NA,NA,NA,NA,TRUE,1,1.8157,141.2833,144.2139,0,0,0,45,1,30,30,NA,NA,NA,NA,NA,1,1,"likert"
"A9CEA77863774ACFAE514BF52A8485AE",1,"01990a98-f06d-7bba-a35e-8f81b4b84148","01990a84-c4ee-73c2-a87b-ff46a7d3dde5","2025-09-02_09h48.28.035",NA,NA,147.5642,147.5645,147.5646,147.9124,NA,NA,NA,NA,NA,NA,NA,TRUE,1,1.7502,144.5677,147.5634,0,1,1,95,1,150,54,NA,NA,NA,NA,NA,1,2,"likert"
"A9CEA77863774ACFAE514BF52A8485AE",1,"01990a98-f06d-7bba-a35e-8f81b4b84148","01990a84-c4ee-73c2-a87b-ff46a7d3dde5","2025-09-02_09h48.28.035",NA,NA,150.9132,150.9135,150.9136,151.2621,NA,NA,NA,NA,NA,NA,NA,TRUE,1,1.7393,147.9161,150.9123,0,2,2,30,1,25,27,NA,NA,NA,NA,NA,1,3,"likert"
"A9CEA77863774ACFAE514BF52A8485AE",1,"01990a98-f06d-7bba-a35e-8f81b4b84148","01990a84-c4ee-73c2-a87b-ff46a7d3dde5","2025-09-02_09h48.28.035",NA,NA,154.2655,154.2658,154.2659,154.6119,NA,NA,NA,NA,NA,NA,NA,TRUE,1,1.812,151.2673,154.2648,0,3,3,47,1,30,38,NA,NA,NA,NA,NA,1,4,"likert"
"A9CEA77863774ACFAE514BF52A8485AE",1,"01990a98-f06d-7bba-a35e-8f81b4b84148","01990a84-c4ee-73c2-a87b-ff46a7d3dde5","2025-09-02_09h48.28.035",NA,NA,157.613,157.6131,157.6132,157.9617,NA,NA,NA,NA,NA,NA,NA,TRUE,5,2.7989,154.617,157.6124,0,4,4,81,1,95,40,NA,NA,NA,NA,NA,1,5,"likert"
"A9CEA77863774ACFAE514BF52A8485AE",1,"01990a98-f06d-7bba-a35e-8f81b4b84148","01990a84-c4ee-73c2-a87b-ff46a7d3dde5","2025-09-02_09h48.28.035",NA,NA,160.963,160.9633,160.9633,161.3113,NA,NA,NA,NA,NA,NA,NA,TRUE,1,2.7966,157.9661,160.9617,0,5,5,15,1,12,31,NA,NA,NA,NA,NA,1,6,"likert"
"A9CEA77863774ACFAE514BF52A8485AE",1,"01990a98-f06d-7bba-a35e-8f81b4b84148","01990a84-c4ee-73c2-a87b-ff46a7d3dde5","2025-09-02_09h48.28.035",NA,NA,164.3126,164.3128,164.3129,164.6618,NA,NA,NA,NA,NA,NA,NA,TRUE,1,1.5148,161.3154,164.3115,0,6,6,17,1,12,35,NA,NA,NA,NA,NA,1,7,"likert"
"A9CEA77863774ACFAE514BF52A8485AE",1,"01990a98-f06d-7bba-a35e-8f81b4b84148","01990a84-c4ee-73c2-a87b-ff46a7d3dde5","2025-09-02_09h48.28.035",NA,NA,167.6627,167.9111,167.9115,168.0112,NA,NA,NA,NA,NA,NA,NA,FALSE,NA,NA,164.6658,167.6619,0,7,7,12,1,12,25,NA,NA,NA,NA,NA,1,8,"likert"
"A9CEA77863774ACFAE514BF52A8485AE",1,"01990a98-f06d-7bba-a35e-8f81b4b84148","01990a84-c4ee-73c2-a87b-ff46a7d3dde5","2025-09-02_09h48.28.035",NA,NA,171.0121,171.0123,171.0123,171.3614,NA,NA,NA,NA,NA,NA,NA,TRUE,1,0.4994,168.015,171.0113,0,8,8,99,1,180,39,NA,NA,NA,NA,NA,1,9,"likert"
"A9CEA77863774ACFAE514BF52A8485AE",1,"01990a98-f06d-7bba-a35e-8f81b4b84148","01990a84-c4ee-73c2-a87b-ff46a7d3dde5","2025-09-02_09h48.28.035",NA,NA,174.3617,174.3618,174.3619,174.7107,NA,NA,NA,NA,NA,NA,NA,TRUE,5,2.3518,171.3654,174.3611,0,9,9,62,1,50,35,NA,NA,NA,NA,NA,1,10,"likert"
"A9CEA77863774ACFAE514BF52A8485AE",1,"01990a98-f06d-7bba-a35e-8f81b4b84148","01990a84-c4ee-73c2-a87b-ff46a7d3dde5","2025-09-02_09h48.28.035",NA,NA,177.7126,177.7127,177.7129,178.0612,NA,NA,NA,NA,NA,NA,NA,TRUE,1,2.6064,174.7152,177.7115,0,10,10,13,1,12,26,NA,NA,NA,NA,NA,1,11,"likert"
"A9CEA77863774ACFAE514BF52A8485AE",1,"01990a98-f06d-7bba-a35e-8f81b4b84148","01990a84-c4ee-73c2-a87b-ff46a7d3dde5","2025-09-02_09h48.28.035",NA,NA,181.0612,181.0613,181.0614,181.4102,NA,NA,NA,NA,NA,NA,NA,TRUE,5,2.4455,178.0649,181.0606,0,11,11,56,1,45,31,NA,NA,NA,NA,NA,1,12,"likert"
"A9CEA77863774ACFAE514BF52A8485AE",1,"01990a98-f06d-7bba-a35e-8f81b4b84148","01990a84-c4ee-73c2-a87b-ff46a7d3dde5","2025-09-02_09h48.28.035",NA,NA,184.4114,184.6608,184.6608,184.7602,NA,NA,NA,NA,NA,NA,NA,FALSE,NA,NA,181.4147,184.4108,0,12,12,18,1,14,25,NA,NA,NA,NA,NA,1,13,"likert"
"A9CEA77863774ACFAE514BF52A8485AE",1,"01990a98-f06d-7bba-a35e-8f81b4b84148","01990a84-c4ee-73c2-a87b-ff46a7d3dde5","2025-09-02_09h48.28.035",NA,NA,187.761,187.7613,187.7613,188.1105,NA,NA,NA,NA,NA,NA,NA,TRUE,1,2.5696,184.7643,187.7605,0,13,13,98,1,180,35,NA,NA,NA,NA,NA,1,14,"likert"
"A9CEA77863774ACFAE514BF52A8485AE",1,"01990a98-f06d-7bba-a35e-8f81b4b84148","01990a84-c4ee-73c2-a87b-ff46a7d3dde5","2025-09-02_09h48.28.035",NA,NA,191.111,191.1112,191.1112,191.4601,NA,NA,NA,NA,NA,NA,NA,TRUE,1,2.0374,188.1145,191.1104,0,14,14,88,1,100,46,NA,NA,NA,NA,NA,1,15,"likert"
"A9CEA77863774ACFAE514BF52A8485AE",1,"01990a98-f06d-7bba-a35e-8f81b4b84148","01990a84-c4ee-73c2-a87b-ff46a7d3dde5","2025-09-02_09h48.28.035",NA,NA,194.4605,194.4606,194.4607,194.81,NA,NA,NA,NA,NA,NA,NA,TRUE,1,0.6372,191.4639,194.4597,0,15,15,105,1,200,39,NA,NA,NA,NA,NA,1,16,"likert"
"A9CEA77863774ACFAE514BF52A8485AE",1,"01990a98-f06d-7bba-a35e-8f81b4b84148","01990a84-c4ee-73c2-a87b-ff46a7d3dde5","2025-09-02_09h48.28.035",NA,NA,197.8107,197.8108,197.8109,198.1594,NA,NA,NA,NA,NA,NA,NA,TRUE,1,0.5747,194.8143,197.8101,0,16,16,101,1,180,54,NA,NA,NA,NA,NA,1,17,"likert"
"A9CEA77863774ACFAE514BF52A8485AE",1,"01990a98-f06d-7bba-a35e-8f81b4b84148","01990a84-c4ee-73c2-a87b-ff46a7d3dde5","2025-09-02_09h48.28.035",NA,NA,201.1605,201.1607,201.1607,201.5091,NA,NA,NA,NA,NA,NA,NA,TRUE,1,1.2061,198.1634,201.1596,0,17,17,19,1,14,26,NA,NA,NA,NA,NA,1,18,"likert"
"A9CEA77863774ACFAE514BF52A8485AE",1,"01990a98-f06d-7bba-a35e-8f81b4b84148","01990a84-c4ee-73c2-a87b-ff46a7d3dde5","2025-09-02_09h48.28.035",NA,NA,204.5112,204.5114,204.5114,204.8593,NA,NA,NA,NA,NA,NA,NA,TRUE,1,1.6985,201.5134,204.5106,0,18,18,82,1,95,47,NA,NA,NA,NA,NA,1,19,"likert"
"A9CEA77863774ACFAE514BF52A8485AE",1,"01990a98-f06d-7bba-a35e-8f81b4b84148","01990a84-c4ee-73c2-a87b-ff46a7d3dde5","2025-09-02_09h48.28.035",NA,NA,207.8598,207.86,207.86,208.2093,NA,NA,NA,NA,NA,NA,NA,TRUE,1,1.2731,204.8633,207.8592,0,19,19,46,1,30,32,NA,NA,NA,NA,NA,1,20,"likert"
"A9CEA77863774ACFAE514BF52A8485AE",1,"01990a98-f06d-7bba-a35e-8f81b4b84148","01990a84-c4ee-73c2-a87b-ff46a7d3dde5","2025-09-02_09h48.28.035",NA,NA,211.2097,211.2098,211.21,211.5588,NA,NA,NA,NA,NA,NA,NA,TRUE,1,0.378,208.2132,211.2091,0,20,20,44,1,30,29,NA,NA,NA,NA,NA,1,21,"likert"
"A9CEA77863774ACFAE514BF52A8485AE",1,"01990a98-f06d-7bba-a35e-8f81b4b84148","01990a84-c4ee-73c2-a87b-ff46a7d3dde5","2025-09-02_09h48.28.035",NA,NA,214.5596,214.5597,214.5598,214.9089,NA,NA,NA,NA,NA,NA,NA,TRUE,1,0.836,211.5632,214.5589,0,21,21,33,1,25,33,NA,NA,NA,NA,NA,1,22,"likert"
"A9CEA77863774ACFAE514BF52A8485AE",1,"01990a98-f06d-7bba-a35e-8f81b4b84148","01990a84-c4ee-73c2-a87b-ff46a7d3dde5","2025-09-02_09h48.28.035",NA,NA,217.9095,217.9096,217.9096,218.2586,NA,NA,NA,NA,NA,NA,NA,TRUE,1,0.3116,214.9128,217.9089,0,22,22,92,1,150,35,NA,NA,NA,NA,NA,1,23,"likert"
"A9CEA77863774ACFAE514BF52A8485AE",1,"01990a98-f06d-7bba-a35e-8f81b4b84148","01990a84-c4ee-73c2-a87b-ff46a7d3dde5","2025-09-02_09h48.28.035",NA,NA,221.2593,221.2595,221.2595,221.6083,NA,NA,NA,NA,NA,NA,NA,TRUE,1,0.2904,218.2632,221.2587,0,23,23,29,1,21,38,NA,NA,NA,NA,NA,1,24,"likert"
"A9CEA77863774ACFAE514BF52A8485AE",1,"01990a98-f06d-7bba-a35e-8f81b4b84148","01990a84-c4ee-73c2-a87b-ff46a7d3dde5","2025-09-02_09h48.28.035",NA,NA,224.6091,224.6092,224.6093,224.9584,NA,NA,NA,NA,NA,NA,NA,TRUE,1,0.5233,221.6121,224.6084,0,24,24,107,1,200,54,NA,NA,NA,NA,NA,1,25,"likert"
"A9CEA77863774ACFAE514BF52A8485AE",1,"01990a98-f06d-7bba-a35e-8f81b4b84148","01990a84-c4ee-73c2-a87b-ff46a7d3dde5","2025-09-02_09h48.28.035",NA,NA,227.9589,227.9591,227.9592,228.308,NA,NA,NA,NA,NA,NA,NA,TRUE,1,0.2957,224.9625,227.9582,0,25,25,49,1,40,33,NA,NA,NA,NA,NA,1,26,"likert"
"A9CEA77863774ACFAE514BF52A8485AE",1,"01990a98-f06d-7bba-a35e-8f81b4b84148","01990a84-c4ee-73c2-a87b-ff46a7d3dde5","2025-09-02_09h48.28.035",NA,NA,231.3094,231.3095,231.3096,231.658,NA,NA,NA,NA,NA,NA,NA,TRUE,1,0.5603,228.3117,231.3087,0,26,26,96,1,180,27,NA,NA,NA,NA,NA,1,27,"likert"
"A9CEA77863774ACFAE514BF52A8485AE",1,"01990a98-f06d-7bba-a35e-8f81b4b84148","01990a84-c4ee-73c2-a87b-ff46a7d3dde5","2025-09-02_09h48.28.035",NA,NA,234.6586,234.6587,234.6588,235.0073,NA,NA,NA,NA,NA,NA,NA,TRUE,1,0.2418,231.6618,234.6579,0,27,27,75,1,90,40,NA,NA,NA,NA,NA,1,28,"likert"
"A9CEA77863774ACFAE514BF52A8485AE",1,"01990a98-f06d-7bba-a35e-8f81b4b84148","01990a84-c4ee-73c2-a87b-ff46a7d3dde5","2025-09-02_09h48.28.035",NA,NA,238.0085,238.0086,238.0086,238.3568,NA,NA,NA,NA,NA,NA,NA,TRUE,1,0.2397,235.0113,238.0077,0,28,28,53,1,40,54,NA,NA,NA,NA,NA,1,29,"likert"
"A9CEA77863774ACFAE514BF52A8485AE",1,"01990a98-f06d-7bba-a35e-8f81b4b84148","01990a84-c4ee-73c2-a87b-ff46a7d3dde5","2025-09-02_09h48.28.035",NA,NA,241.358,241.358,241.358,241.707,NA,NA,NA,NA,NA,NA,NA,TRUE,1,0.6885,238.361,241.3574,0,29,29,60,1,50,27,NA,NA,NA,NA,NA,1,30,"likert"
"A9CEA77863774ACFAE514BF52A8485AE",1,"01990a98-f06d-7bba-a35e-8f81b4b84148","01990a84-c4ee-73c2-a87b-ff46a7d3dde5","2025-09-02_09h48.28.035",NA,NA,244.708,244.7081,244.7081,245.0569,NA,NA,NA,NA,NA,NA,NA,TRUE,1,1.178,241.7108,244.7072,0,30,30,24,1,21,26,NA,NA,NA,NA,NA,1,31,"likert"
"A9CEA77863774ACFAE514BF52A8485AE",1,"01990a98-f06d-7bba-a35e-8f81b4b84148","01990a84-c4ee-73c2-a87b-ff46a7d3dde5","2025-09-02_09h48.28.035",NA,NA,248.0575,248.0576,248.0576,248.406,NA,NA,NA,NA,NA,NA,NA,TRUE,1,0.6114,245.0609,248.057,0,31,31,93,1,150,40,NA,NA,NA,NA,NA,1,32,"likert"
"A9CEA77863774ACFAE514BF52A8485AE",1,"01990a98-f06d-7bba-a35e-8f81b4b84148","01990a84-c4ee-73c2-a87b-ff46a7d3dde5","2025-09-02_09h48.28.035",NA,NA,251.4075,251.4076,251.4076,251.7565,NA,NA,NA,NA,NA,NA,NA,TRUE,1,0.3016,248.4086,251.4068,0,32,32,86,1,100,38,NA,NA,NA,NA,NA,1,33,"likert"
"A9CEA77863774ACFAE514BF52A8485AE",1,"01990a98-f06d-7bba-a35e-8f81b4b84148","01990a84-c4ee-73c2-a87b-ff46a7d3dde5","2025-09-02_09h48.28.035",NA,NA,254.7571,254.7573,254.7573,255.1067,NA,NA,NA,NA,NA,NA,NA,TRUE,1,0.6279,251.7606,254.7564,0,33,33,35,1,25,46,NA,NA,NA,NA,NA,1,34,"likert"
"A9CEA77863774ACFAE514BF52A8485AE",1,"01990a98-f06d-7bba-a35e-8f81b4b84148","01990a84-c4ee-73c2-a87b-ff46a7d3dde5","2025-09-02_09h48.28.035",NA,NA,258.1071,258.1073,258.1073,258.4564,NA,NA,NA,NA,NA,NA,NA,TRUE,1,0.4709,255.1105,258.1065,0,34,34,2,1,7,28,NA,NA,NA,NA,NA,1,35,"likert"
"A9CEA77863774ACFAE514BF52A8485AE",1,"01990a98-f06d-7bba-a35e-8f81b4b84148","01990a84-c4ee-73c2-a87b-ff46a7d3dde5","2025-09-02_09h48.28.035",NA,NA,261.4573,261.4574,261.4575,261.806,NA,NA,NA,NA,NA,NA,NA,TRUE,1,1.1329,258.4606,261.456,0,35,35,32,1,25,31,NA,NA,NA,NA,NA,1,36,"likert"
"A9CEA77863774ACFAE514BF52A8485AE",1,"01990a98-f06d-7bba-a35e-8f81b4b84148","01990a84-c4ee-73c2-a87b-ff46a7d3dde5","2025-09-02_09h48.28.035",NA,NA,264.8067,264.8068,264.8068,265.1562,NA,NA,NA,NA,NA,NA,NA,TRUE,1,1.2294,261.8098,264.806,0,36,36,48,1,40,27,NA,NA,NA,NA,NA,1,37,"likert"
"A9CEA77863774ACFAE514BF52A8485AE",1,"01990a98-f06d-7bba-a35e-8f81b4b84148","01990a84-c4ee-73c2-a87b-ff46a7d3dde5","2025-09-02_09h48.28.035",NA,NA,268.1568,268.157,268.1572,268.506,NA,NA,NA,NA,NA,NA,NA,TRUE,1,0.5906,265.1611,268.1559,0,37,37,38,1,28,32,NA,NA,NA,NA,NA,1,38,"likert"
"A9CEA77863774ACFAE514BF52A8485AE",1,"01990a98-f06d-7bba-a35e-8f81b4b84148","01990a84-c4ee-73c2-a87b-ff46a7d3dde5","2025-09-02_09h48.28.035",NA,NA,271.5063,271.5064,271.5065,271.8555,NA,NA,NA,NA,NA,NA,NA,TRUE,1,0.4783,268.5099,271.5057,0,38,38,42,1,30,26,NA,NA,NA,NA,NA,1,39,"likert"
"A9CEA77863774ACFAE514BF52A8485AE",1,"01990a98-f06d-7bba-a35e-8f81b4b84148","01990a84-c4ee-73c2-a87b-ff46a7d3dde5","2025-09-02_09h48.28.035",NA,NA,274.856,274.8562,274.8562,275.2052,NA,NA,NA,NA,NA,NA,NA,TRUE,1,0.6761,271.8597,274.8554,0,39,39,16,1,12,33,NA,NA,NA,NA,NA,1,40,"likert"
"A9CEA77863774ACFAE514BF52A8485AE",1,"01990a98-f06d-7bba-a35e-8f81b4b84148","01990a84-c4ee-73c2-a87b-ff46a7d3dde5","2025-09-02_09h48.28.035",NA,NA,278.2056,278.2057,278.2057,278.555,NA,NA,NA,NA,NA,NA,NA,TRUE,1,0.5541,275.2094,278.2055,0,40,40,34,1,25,35,NA,NA,NA,NA,NA,1,41,"likert"
"A9CEA77863774ACFAE514BF52A8485AE",1,"01990a98-f06d-7bba-a35e-8f81b4b84148","01990a84-c4ee-73c2-a87b-ff46a7d3dde5","2025-09-02_09h48.28.035",NA,NA,281.5559,281.556,281.5561,281.9047,NA,NA,NA,NA,NA,NA,NA,TRUE,1,0.2661,278.559,281.5553,0,41,41,10,1,10,30,NA,NA,NA,NA,NA,1,42,"likert"
"A9CEA77863774ACFAE514BF52A8485AE",1,"01990a98-f06d-7bba-a35e-8f81b4b84148","01990a84-c4ee-73c2-a87b-ff46a7d3dde5","2025-09-02_09h48.28.035",NA,NA,284.9056,284.9057,284.9059,285.2544,NA,NA,NA,NA,NA,NA,NA,TRUE,1,0.8951,281.9084,284.905,0,42,42,85,1,100,31,NA,NA,NA,NA,NA,1,43,"likert"
"A9CEA77863774ACFAE514BF52A8485AE",1,"01990a98-f06d-7bba-a35e-8f81b4b84148","01990a84-c4ee-73c2-a87b-ff46a7d3dde5","2025-09-02_09h48.28.035",NA,NA,288.2556,288.2557,288.2559,288.6047,NA,NA,NA,NA,NA,NA,NA,TRUE,1,0.2957,285.2587,288.2548,0,43,43,51,1,40,40,NA,NA,NA,NA,NA,1,44,"likert"
"A9CEA77863774ACFAE514BF52A8485AE",1,"01990a98-f06d-7bba-a35e-8f81b4b84148","01990a84-c4ee-73c2-a87b-ff46a7d3dde5","2025-09-02_09h48.28.035",NA,NA,291.6059,291.606,291.6062,291.9546,NA,NA,NA,NA,NA,NA,NA,TRUE,1,0.259,288.6088,291.6052,0,44,44,1,1,7,26,NA,NA,NA,NA,NA,1,45,"likert"
"A9CEA77863774ACFAE514BF52A8485AE",1,"01990a98-f06d-7bba-a35e-8f81b4b84148","01990a84-c4ee-73c2-a87b-ff46a7d3dde5","2025-09-02_09h48.28.035",NA,NA,294.9544,294.9545,294.9545,295.3039,NA,NA,NA,NA,NA,NA,NA,TRUE,1,0.5216,291.9592,294.954,0,45,45,25,1,21,27,NA,NA,NA,NA,NA,1,46,"likert"
"A9CEA77863774ACFAE514BF52A8485AE",1,"01990a98-f06d-7bba-a35e-8f81b4b84148","01990a84-c4ee-73c2-a87b-ff46a7d3dde5","2025-09-02_09h48.28.035",NA,NA,298.3048,298.3049,298.3049,298.6542,NA,NA,NA,NA,NA,NA,NA,TRUE,1,0.2763,295.307,298.3042,0,46,46,5,1,7,35,NA,NA,NA,NA,NA,1,47,"likert"
"A9CEA77863774ACFAE514BF52A8485AE",1,"01990a98-f06d-7bba-a35e-8f81b4b84148","01990a84-c4ee-73c2-a87b-ff46a7d3dde5","2025-09-02_09h48.28.035",NA,NA,301.6548,301.6549,301.6549,302.0039,NA,NA,NA,NA,NA,NA,NA,TRUE,1,0.231,298.658,301.6541,0,47,47,59,1,45,46,NA,NA,NA,NA,NA,1,48,"likert"
"A9CEA77863774ACFAE514BF52A8485AE",1,"01990a98-f06d-7bba-a35e-8f81b4b84148","01990a84-c4ee-73c2-a87b-ff46a7d3dde5","2025-09-02_09h48.28.035",NA,NA,305.0046,305.0047,305.0048,305.3538,NA,NA,NA,NA,NA,NA,NA,TRUE,1,0.2739,302.0077,305.0039,0,48,48,43,1,30,27,NA,NA,NA,NA,NA,1,49,"likert"
"A9CEA77863774ACFAE514BF52A8485AE",1,"01990a98-f06d-7bba-a35e-8f81b4b84148","01990a84-c4ee-73c2-a87b-ff46a7d3dde5","2025-09-02_09h48.28.035",NA,NA,308.3546,308.3548,308.3549,308.7036,NA,NA,NA,NA,NA,NA,NA,TRUE,1,0.2537,305.3577,308.3539,0,49,49,90,1,150,31,NA,NA,NA,NA,NA,1,50,"likert"
"A9CEA77863774ACFAE514BF52A8485AE",1,"01990a98-f06d-7bba-a35e-8f81b4b84148","01990a84-c4ee-73c2-a87b-ff46a7d3dde5","2025-09-02_09h48.28.035",NA,NA,311.7043,311.7044,311.7045,312.0533,NA,NA,NA,NA,NA,NA,NA,TRUE,1,0.1908,308.7075,311.7037,0,50,50,39,1,28,35,NA,NA,NA,NA,NA,1,51,"likert"
"A9CEA77863774ACFAE514BF52A8485AE",1,"01990a98-f06d-7bba-a35e-8f81b4b84148","01990a84-c4ee-73c2-a87b-ff46a7d3dde5","2025-09-02_09h48.28.035",NA,NA,315.0543,315.0545,315.0546,315.4028,NA,NA,NA,NA,NA,NA,NA,TRUE,1,0.2487,312.0577,315.0537,0,51,51,7,1,10,26,NA,NA,NA,NA,NA,1,52,"likert"
"A9CEA77863774ACFAE514BF52A8485AE",1,"01990a98-f06d-7bba-a35e-8f81b4b84148","01990a84-c4ee-73c2-a87b-ff46a7d3dde5","2025-09-02_09h48.28.035",NA,NA,318.4035,318.4036,318.4038,318.7532,NA,NA,NA,NA,NA,NA,NA,TRUE,1,0.4723,315.407,318.4027,0,52,52,20,1,14,28,NA,NA,NA,NA,NA,1,53,"likert"
"A9CEA77863774ACFAE514BF52A8485AE",1,"01990a98-f06d-7bba-a35e-8f81b4b84148","01990a84-c4ee-73c2-a87b-ff46a7d3dde5","2025-09-02_09h48.28.035",NA,NA,321.7523,321.7524,321.7524,322.1019,NA,NA,NA,NA,NA,NA,NA,TRUE,1,0.29,318.7572,321.7521,0,53,53,57,1,45,35,NA,NA,NA,NA,NA,1,54,"likert"
"A9CEA77863774ACFAE514BF52A8485AE",1,"01990a98-f06d-7bba-a35e-8f81b4b84148","01990a84-c4ee-73c2-a87b-ff46a7d3dde5","2025-09-02_09h48.28.035",NA,NA,325.1023,325.1025,325.1025,325.4514,NA,NA,NA,NA,NA,NA,NA,TRUE,1,0.2419,322.1053,325.102,0,54,54,87,1,100,39,NA,NA,NA,NA,NA,1,55,"likert"
"A9CEA77863774ACFAE514BF52A8485AE",1,"01990a98-f06d-7bba-a35e-8f81b4b84148","01990a84-c4ee-73c2-a87b-ff46a7d3dde5","2025-09-02_09h48.28.035",NA,NA,328.4529,328.4531,328.4531,328.8023,NA,NA,NA,NA,NA,NA,NA,TRUE,1,0.5239,325.4537,328.4522,0,55,55,40,1,28,39,NA,NA,NA,NA,NA,1,56,"likert"
"A9CEA77863774ACFAE514BF52A8485AE",1,"01990a98-f06d-7bba-a35e-8f81b4b84148","01990a84-c4ee-73c2-a87b-ff46a7d3dde5","2025-09-02_09h48.28.035",NA,NA,331.8028,331.8029,331.803,332.1525,NA,NA,NA,NA,NA,NA,NA,TRUE,1,0.0464,328.8062,331.8021,0,56,56,103,1,200,28,NA,NA,NA,NA,NA,1,57,"likert"
"A9CEA77863774ACFAE514BF52A8485AE",1,"01990a98-f06d-7bba-a35e-8f81b4b84148","01990a84-c4ee-73c2-a87b-ff46a7d3dde5","2025-09-02_09h48.28.035",NA,NA,335.1533,335.1535,335.1535,335.5019,NA,NA,NA,NA,NA,NA,NA,TRUE,1,0.023,332.1571,335.1524,0,57,57,50,1,40,35,NA,NA,NA,NA,NA,1,58,"likert"
"A9CEA77863774ACFAE514BF52A8485AE",1,"01990a98-f06d-7bba-a35e-8f81b4b84148","01990a84-c4ee-73c2-a87b-ff46a7d3dde5","2025-09-02_09h48.28.035",NA,NA,338.5031,338.5031,338.5032,338.8517,NA,NA,NA,NA,NA,NA,NA,TRUE,1,0.2781,335.5063,338.5024,0,58,58,54,1,45,26,NA,NA,NA,NA,NA,1,59,"likert"
"A9CEA77863774ACFAE514BF52A8485AE",1,"01990a98-f06d-7bba-a35e-8f81b4b84148","01990a84-c4ee-73c2-a87b-ff46a7d3dde5","2025-09-02_09h48.28.035",NA,NA,341.8686,341.8688,341.8689,342.218,NA,NA,NA,NA,NA,NA,NA,TRUE,1,0.2416,338.8565,341.8679,0,59,59,27,1,21,30,NA,NA,NA,NA,NA,1,60,"likert"
"A9CEA77863774ACFAE514BF52A8485AE",1,"01990a98-f06d-7bba-a35e-8f81b4b84148","01990a84-c4ee-73c2-a87b-ff46a7d3dde5","2025-09-02_09h48.28.035",NA,NA,345.2194,345.2195,345.2196,345.568,NA,NA,NA,NA,NA,NA,NA,TRUE,1,0.2384,342.2221,345.2187,0,60,60,79,1,95,33,NA,NA,NA,NA,NA,1,61,"likert"
"A9CEA77863774ACFAE514BF52A8485AE",1,"01990a98-f06d-7bba-a35e-8f81b4b84148","01990a84-c4ee-73c2-a87b-ff46a7d3dde5","2025-09-02_09h48.28.035",NA,NA,348.5692,348.5695,348.5695,348.9179,NA,NA,NA,NA,NA,NA,NA,TRUE,1,0.2196,345.5717,348.5685,0,61,61,3,1,7,30,NA,NA,NA,NA,NA,1,62,"likert"
"A9CEA77863774ACFAE514BF52A8485AE",1,"01990a98-f06d-7bba-a35e-8f81b4b84148","01990a84-c4ee-73c2-a87b-ff46a7d3dde5","2025-09-02_09h48.28.035",NA,NA,351.9024,351.9026,351.9026,352.2679,NA,NA,NA,NA,NA,NA,NA,TRUE,1,0.0874,348.9225,351.9017,0,62,62,23,1,14,39,NA,NA,NA,NA,NA,1,63,"likert"
"A9CEA77863774ACFAE514BF52A8485AE",1,"01990a98-f06d-7bba-a35e-8f81b4b84148","01990a84-c4ee-73c2-a87b-ff46a7d3dde5","2025-09-02_09h48.28.035",NA,NA,355.2684,355.2686,355.2687,355.6175,NA,NA,NA,NA,NA,NA,NA,TRUE,1,0.0704,352.2717,355.2677,0,63,63,68,1,60,35,NA,NA,NA,NA,NA,1,64,"likert"
"A9CEA77863774ACFAE514BF52A8485AE",1,"01990a98-f06d-7bba-a35e-8f81b4b84148","01990a84-c4ee-73c2-a87b-ff46a7d3dde5","2025-09-02_09h48.28.035",NA,NA,358.6178,358.6179,358.6181,358.9673,NA,NA,NA,NA,NA,NA,NA,TRUE,1,0.2498,355.6218,358.6172,0,64,64,100,1,180,46,NA,NA,NA,NA,NA,1,65,"likert"
"A9CEA77863774ACFAE514BF52A8485AE",1,"01990a98-f06d-7bba-a35e-8f81b4b84148","01990a84-c4ee-73c2-a87b-ff46a7d3dde5","2025-09-02_09h48.28.035",NA,NA,361.9675,361.9678,361.968,362.3169,NA,NA,NA,NA,NA,NA,NA,TRUE,1,0.3527,358.9712,361.9668,0,65,65,106,1,200,47,NA,NA,NA,NA,NA,1,66,"likert"
"A9CEA77863774ACFAE514BF52A8485AE",1,"01990a98-f06d-7bba-a35e-8f81b4b84148","01990a84-c4ee-73c2-a87b-ff46a7d3dde5","2025-09-02_09h48.28.035",NA,NA,365.3181,365.3183,365.3183,365.6668,NA,NA,NA,NA,NA,NA,NA,TRUE,1,0.2323,362.3223,365.3173,0,66,66,78,1,95,31,NA,NA,NA,NA,NA,1,67,"likert"
"A9CEA77863774ACFAE514BF52A8485AE",1,"01990a98-f06d-7bba-a35e-8f81b4b84148","01990a84-c4ee-73c2-a87b-ff46a7d3dde5","2025-09-02_09h48.28.035",NA,NA,368.6678,368.668,368.668,369.0165,NA,NA,NA,NA,NA,NA,NA,TRUE,1,0.2693,365.6708,368.667,0,67,67,104,1,200,35,NA,NA,NA,NA,NA,1,68,"likert"
"A9CEA77863774ACFAE514BF52A8485AE",1,"01990a98-f06d-7bba-a35e-8f81b4b84148","01990a84-c4ee-73c2-a87b-ff46a7d3dde5","2025-09-02_09h48.28.035",NA,NA,372.0176,372.0178,372.0179,372.3666,NA,NA,NA,NA,NA,NA,NA,TRUE,1,1.4695,369.0205,372.017,0,68,68,70,1,60,47,NA,NA,NA,NA,NA,1,69,"likert"
"A9CEA77863774ACFAE514BF52A8485AE",1,"01990a98-f06d-7bba-a35e-8f81b4b84148","01990a84-c4ee-73c2-a87b-ff46a7d3dde5","2025-09-02_09h48.28.035",NA,NA,375.3671,375.3674,375.3675,375.7165,NA,NA,NA,NA,NA,NA,NA,TRUE,1,0.4517,372.3707,375.3666,0,69,69,4,1,7,32,NA,NA,NA,NA,NA,1,70,"likert"
"A9CEA77863774ACFAE514BF52A8485AE",1,"01990a98-f06d-7bba-a35e-8f81b4b84148","01990a84-c4ee-73c2-a87b-ff46a7d3dde5","2025-09-02_09h48.28.035",NA,NA,378.7175,378.7177,378.7179,379.0661,NA,NA,NA,NA,NA,NA,NA,TRUE,1,0.2867,375.7207,378.7168,0,70,70,41,1,28,46,NA,NA,NA,NA,NA,1,71,"likert"
"A9CEA77863774ACFAE514BF52A8485AE",1,"01990a98-f06d-7bba-a35e-8f81b4b84148","01990a84-c4ee-73c2-a87b-ff46a7d3dde5","2025-09-02_09h48.28.035",NA,NA,382.0667,382.0668,382.067,382.4151,NA,NA,NA,NA,NA,NA,NA,TRUE,1,0.255,379.0703,382.066,0,71,71,94,1,150,47,NA,NA,NA,NA,NA,1,72,"likert"
"A9CEA77863774ACFAE514BF52A8485AE",1,"01990a98-f06d-7bba-a35e-8f81b4b84148","01990a84-c4ee-73c2-a87b-ff46a7d3dde5","2025-09-02_09h48.28.035",NA,NA,385.4169,385.4172,385.4172,385.7657,NA,NA,NA,NA,NA,NA,NA,TRUE,1,0.3305,382.4185,385.4163,0,72,72,65,1,50,54,NA,NA,NA,NA,NA,1,73,"likert"
"A9CEA77863774ACFAE514BF52A8485AE",1,"01990a98-f06d-7bba-a35e-8f81b4b84148","01990a84-c4ee-73c2-a87b-ff46a7d3dde5","2025-09-02_09h48.28.035",NA,NA,388.7665,388.7667,388.7668,389.1158,NA,NA,NA,NA,NA,NA,NA,TRUE,1,0.5522,385.7697,388.7658,0,73,73,28,1,21,32,NA,NA,NA,NA,NA,1,74,"likert"
"A9CEA77863774ACFAE514BF52A8485AE",1,"01990a98-f06d-7bba-a35e-8f81b4b84148","01990a84-c4ee-73c2-a87b-ff46a7d3dde5","2025-09-02_09h48.28.035",NA,NA,392.1165,392.1168,392.1169,392.4653,NA,NA,NA,NA,NA,NA,NA,TRUE,1,0.2414,389.1195,392.1156,0,74,74,52,1,40,47,NA,NA,NA,NA,NA,1,75,"likert"
"A9CEA77863774ACFAE514BF52A8485AE",1,"01990a98-f06d-7bba-a35e-8f81b4b84148","01990a84-c4ee-73c2-a87b-ff46a7d3dde5","2025-09-02_09h48.28.035",NA,NA,395.4664,395.4666,395.4667,395.8153,NA,NA,NA,NA,NA,NA,NA,TRUE,1,0.2541,392.4691,395.4658,0,75,75,37,1,28,28,NA,NA,NA,NA,NA,1,76,"likert"
"A9CEA77863774ACFAE514BF52A8485AE",1,"01990a98-f06d-7bba-a35e-8f81b4b84148","01990a84-c4ee-73c2-a87b-ff46a7d3dde5","2025-09-02_09h48.28.035",NA,NA,398.8145,398.8146,398.8147,399.164,NA,NA,NA,NA,NA,NA,NA,TRUE,1,0.2751,395.8192,398.8143,0,76,76,66,1,60,29,NA,NA,NA,NA,NA,1,77,"likert"
"A9CEA77863774ACFAE514BF52A8485AE",1,"01990a98-f06d-7bba-a35e-8f81b4b84148","01990a84-c4ee-73c2-a87b-ff46a7d3dde5","2025-09-02_09h48.28.035",NA,NA,402.1651,402.1653,402.1654,402.5146,NA,NA,NA,NA,NA,NA,NA,TRUE,1,0.2652,399.1664,402.1646,0,77,77,83,1,95,54,NA,NA,NA,NA,NA,1,78,"likert"
"A9CEA77863774ACFAE514BF52A8485AE",1,"01990a98-f06d-7bba-a35e-8f81b4b84148","01990a84-c4ee-73c2-a87b-ff46a7d3dde5","2025-09-02_09h48.28.035",NA,NA,405.5154,405.5157,405.5157,405.8647,NA,NA,NA,NA,NA,NA,NA,TRUE,1,0.1747,402.5188,405.5148,0,78,78,63,1,50,40,NA,NA,NA,NA,NA,1,79,"likert"
"A9CEA77863774ACFAE514BF52A8485AE",1,"01990a98-f06d-7bba-a35e-8f81b4b84148","01990a84-c4ee-73c2-a87b-ff46a7d3dde5","2025-09-02_09h48.28.035",NA,NA,408.8651,408.8653,408.8653,409.2146,NA,NA,NA,NA,NA,NA,NA,TRUE,1,0.4496,405.8693,408.8644,0,79,79,102,1,200,26,NA,NA,NA,NA,NA,1,80,"likert"
"A9CEA77863774ACFAE514BF52A8485AE",1,"01990a98-f06d-7bba-a35e-8f81b4b84148","01990a84-c4ee-73c2-a87b-ff46a7d3dde5","2025-09-02_09h48.28.035",NA,NA,412.215,412.2151,412.2152,412.5644,NA,NA,NA,NA,NA,NA,NA,TRUE,1,0.5203,409.2187,412.2143,0,80,80,74,1,90,33,NA,NA,NA,NA,NA,1,81,"likert"
"A9CEA77863774ACFAE514BF52A8485AE",1,"01990a98-f06d-7bba-a35e-8f81b4b84148","01990a84-c4ee-73c2-a87b-ff46a7d3dde5","2025-09-02_09h48.28.035",NA,NA,415.5649,415.5653,415.5656,415.914,NA,NA,NA,NA,NA,NA,NA,TRUE,1,0.6796,412.5685,415.5644,0,81,81,76,1,90,46,NA,NA,NA,NA,NA,1,82,"likert"
"A9CEA77863774ACFAE514BF52A8485AE",1,"01990a98-f06d-7bba-a35e-8f81b4b84148","01990a84-c4ee-73c2-a87b-ff46a7d3dde5","2025-09-02_09h48.28.035",NA,NA,418.9146,418.9148,418.9149,419.2636,NA,NA,NA,NA,NA,NA,NA,TRUE,1,0.7892,415.918,418.914,0,82,82,26,1,21,29,NA,NA,NA,NA,NA,1,83,"likert"
"A9CEA77863774ACFAE514BF52A8485AE",1,"01990a98-f06d-7bba-a35e-8f81b4b84148","01990a84-c4ee-73c2-a87b-ff46a7d3dde5","2025-09-02_09h48.28.035",NA,NA,422.2644,422.2646,422.2647,422.6134,NA,NA,NA,NA,NA,NA,NA,TRUE,1,0.229,419.268,422.2637,0,83,83,58,1,45,40,NA,NA,NA,NA,NA,1,84,"likert"
"A9CEA77863774ACFAE514BF52A8485AE",1,"01990a98-f06d-7bba-a35e-8f81b4b84148","01990a84-c4ee-73c2-a87b-ff46a7d3dde5","2025-09-02_09h48.28.035",NA,NA,425.6146,425.6147,425.6148,425.964,NA,NA,NA,NA,NA,NA,NA,TRUE,1,0.2943,422.6172,425.6141,0,84,84,91,1,150,33,NA,NA,NA,NA,NA,1,85,"likert"
"A9CEA77863774ACFAE514BF52A8485AE",1,"01990a98-f06d-7bba-a35e-8f81b4b84148","01990a84-c4ee-73c2-a87b-ff46a7d3dde5","2025-09-02_09h48.28.035",NA,NA,428.9644,428.9646,428.9646,429.3134,NA,NA,NA,NA,NA,NA,NA,TRUE,1,0.8159,425.9683,428.9638,0,85,85,64,1,50,46,NA,NA,NA,NA,NA,1,86,"likert"
"A9CEA77863774ACFAE514BF52A8485AE",1,"01990a98-f06d-7bba-a35e-8f81b4b84148","01990a84-c4ee-73c2-a87b-ff46a7d3dde5","2025-09-02_09h48.28.035",NA,NA,432.3136,432.3138,432.3138,432.6634,NA,NA,NA,NA,NA,NA,NA,TRUE,1,0.3379,429.3178,432.3131,0,86,86,80,1,95,35,NA,NA,NA,NA,NA,1,87,"likert"
"A9CEA77863774ACFAE514BF52A8485AE",1,"01990a98-f06d-7bba-a35e-8f81b4b84148","01990a84-c4ee-73c2-a87b-ff46a7d3dde5","2025-09-02_09h48.28.035",NA,NA,435.6639,435.6641,435.6641,436.0128,NA,NA,NA,NA,NA,NA,NA,TRUE,1,0.8764,432.6677,435.6633,0,87,87,22,1,14,35,NA,NA,NA,NA,NA,1,88,"likert"
"A9CEA77863774ACFAE514BF52A8485AE",1,"01990a98-f06d-7bba-a35e-8f81b4b84148","01990a84-c4ee-73c2-a87b-ff46a7d3dde5","2025-09-02_09h48.28.035",NA,NA,439.0136,439.0138,439.0138,439.3629,NA,NA,NA,NA,NA,NA,NA,TRUE,1,0.3042,436.0166,439.013,0,88,88,0,1,7,25,NA,NA,NA,NA,NA,1,89,"likert"
"A9CEA77863774ACFAE514BF52A8485AE",1,"01990a98-f06d-7bba-a35e-8f81b4b84148","01990a84-c4ee-73c2-a87b-ff46a7d3dde5","2025-09-02_09h48.28.035",NA,NA,442.3637,442.3638,442.364,442.7129,NA,NA,NA,NA,NA,NA,NA,TRUE,1,0.4936,439.367,442.3633,0,89,89,72,1,90,26,NA,NA,NA,NA,NA,1,90,"likert"
"A9CEA77863774ACFAE514BF52A8485AE",1,"01990a98-f06d-7bba-a35e-8f81b4b84148","01990a84-c4ee-73c2-a87b-ff46a7d3dde5","2025-09-02_09h48.28.035",NA,NA,445.7131,445.7132,445.7132,446.0627,NA,NA,NA,NA,NA,NA,NA,TRUE,1,0.2373,442.7169,445.7124,0,90,90,8,1,10,27,NA,NA,NA,NA,NA,1,91,"likert"
"A9CEA77863774ACFAE514BF52A8485AE",1,"01990a98-f06d-7bba-a35e-8f81b4b84148","01990a84-c4ee-73c2-a87b-ff46a7d3dde5","2025-09-02_09h48.28.035",NA,NA,449.0633,449.0634,449.0634,449.4125,NA,NA,NA,NA,NA,NA,NA,TRUE,1,0.0936,446.0665,449.0626,0,91,91,97,1,180,31,NA,NA,NA,NA,NA,1,92,"likert"
"A9CEA77863774ACFAE514BF52A8485AE",1,"01990a98-f06d-7bba-a35e-8f81b4b84148","01990a84-c4ee-73c2-a87b-ff46a7d3dde5","2025-09-02_09h48.28.035",NA,NA,452.413,452.4131,452.4132,452.7633,NA,NA,NA,NA,NA,NA,NA,TRUE,1,0.1334,449.4171,452.4123,0,92,92,61,1,50,30,NA,NA,NA,NA,NA,1,93,"likert"
"A9CEA77863774ACFAE514BF52A8485AE",1,"01990a98-f06d-7bba-a35e-8f81b4b84148","01990a84-c4ee-73c2-a87b-ff46a7d3dde5","2025-09-02_09h48.28.035",NA,NA,455.7626,455.7628,455.7628,456.112,NA,NA,NA,NA,NA,NA,NA,TRUE,1,0.0695,452.7672,455.7619,0,93,93,21,1,14,32,NA,NA,NA,NA,NA,1,94,"likert"
"A9CEA77863774ACFAE514BF52A8485AE",1,"01990a98-f06d-7bba-a35e-8f81b4b84148","01990a84-c4ee-73c2-a87b-ff46a7d3dde5","2025-09-02_09h48.28.035",NA,NA,459.1125,459.1125,459.1126,459.4616,NA,NA,NA,NA,NA,NA,NA,TRUE,1,0.6527,456.1159,459.1118,0,94,94,67,1,60,33,NA,NA,NA,NA,NA,1,95,"likert"
"A9CEA77863774ACFAE514BF52A8485AE",1,"01990a98-f06d-7bba-a35e-8f81b4b84148","01990a84-c4ee-73c2-a87b-ff46a7d3dde5","2025-09-02_09h48.28.035",NA,NA,462.4627,462.7113,462.7114,462.8119,NA,NA,NA,NA,NA,NA,NA,FALSE,NA,NA,459.4656,462.462,0,95,95,9,1,10,29,NA,NA,NA,NA,NA,1,96,"likert"
"A9CEA77863774ACFAE514BF52A8485AE",1,"01990a98-f06d-7bba-a35e-8f81b4b84148","01990a84-c4ee-73c2-a87b-ff46a7d3dde5","2025-09-02_09h48.28.035",NA,NA,465.8126,465.8127,465.8127,466.1617,NA,NA,NA,NA,NA,NA,NA,TRUE,1,0.4257,462.8156,465.8116,0,96,96,11,1,10,32,NA,NA,NA,NA,NA,1,97,"likert"
"A9CEA77863774ACFAE514BF52A8485AE",1,"01990a98-f06d-7bba-a35e-8f81b4b84148","01990a84-c4ee-73c2-a87b-ff46a7d3dde5","2025-09-02_09h48.28.035",NA,NA,469.1619,469.1621,469.1623,469.5116,NA,NA,NA,NA,NA,NA,NA,TRUE,1,0.4474,466.1669,469.1611,0,97,97,69,1,60,40,NA,NA,NA,NA,NA,1,98,"likert"
"A9CEA77863774ACFAE514BF52A8485AE",1,"01990a98-f06d-7bba-a35e-8f81b4b84148","01990a84-c4ee-73c2-a87b-ff46a7d3dde5","2025-09-02_09h48.28.035",NA,NA,472.5115,472.5116,472.5117,472.8611,NA,NA,NA,NA,NA,NA,NA,TRUE,1,0.2712,469.516,472.5109,0,98,98,55,1,45,29,NA,NA,NA,NA,NA,1,99,"likert"
"A9CEA77863774ACFAE514BF52A8485AE",1,"01990a98-f06d-7bba-a35e-8f81b4b84148","01990a84-c4ee-73c2-a87b-ff46a7d3dde5","2025-09-02_09h48.28.035",NA,NA,475.8624,475.8624,475.8624,476.2107,NA,NA,NA,NA,NA,NA,NA,TRUE,1,0.3081,472.8651,475.8617,0,99,99,77,1,90,54,NA,NA,NA,NA,NA,1,100,"likert"
"A9CEA77863774ACFAE514BF52A8485AE",1,"01990a98-f06d-7bba-a35e-8f81b4b84148","01990a84-c4ee-73c2-a87b-ff46a7d3dde5","2025-09-02_09h48.28.035",NA,NA,479.2114,479.2114,479.2115,479.5607,NA,NA,NA,NA,NA,NA,NA,TRUE,1,0.2208,476.2147,479.2107,0,100,100,36,1,28,26,NA,NA,NA,NA,NA,1,101,"likert"
"A9CEA77863774ACFAE514BF52A8485AE",1,"01990a98-f06d-7bba-a35e-8f81b4b84148","01990a84-c4ee-73c2-a87b-ff46a7d3dde5","2025-09-02_09h48.28.035",NA,NA,482.5611,482.5613,482.5613,482.9104,NA,NA,NA,NA,NA,NA,NA,TRUE,1,0.4701,479.5642,482.5604,0,101,101,71,1,60,54,NA,NA,NA,NA,NA,1,102,"likert"
"A9CEA77863774ACFAE514BF52A8485AE",1,"01990a98-f06d-7bba-a35e-8f81b4b84148","01990a84-c4ee-73c2-a87b-ff46a7d3dde5","2025-09-02_09h48.28.035",NA,NA,485.9116,485.9117,485.9117,486.2603,NA,NA,NA,NA,NA,NA,NA,TRUE,1,0.4415,482.9147,485.9109,0,102,102,89,1,100,54,NA,NA,NA,NA,NA,1,103,"likert"
"A9CEA77863774ACFAE514BF52A8485AE",1,"01990a98-f06d-7bba-a35e-8f81b4b84148","01990a84-c4ee-73c2-a87b-ff46a7d3dde5","2025-09-02_09h48.28.035",NA,NA,489.261,489.261,489.2611,489.6101,NA,NA,NA,NA,NA,NA,NA,TRUE,1,0.0743,486.264,489.2603,0,103,103,14,1,12,28,NA,NA,NA,NA,NA,1,104,"likert"
"A9CEA77863774ACFAE514BF52A8485AE",1,"01990a98-f06d-7bba-a35e-8f81b4b84148","01990a84-c4ee-73c2-a87b-ff46a7d3dde5","2025-09-02_09h48.28.035",NA,NA,492.6108,492.6109,492.6109,492.9596,NA,NA,NA,NA,NA,NA,NA,TRUE,1,0.218,489.6144,492.61,0,104,104,73,1,90,30,NA,NA,NA,NA,NA,1,105,"likert"
"A9CEA77863774ACFAE514BF52A8485AE",1,"01990a98-f06d-7bba-a35e-8f81b4b84148","01990a84-c4ee-73c2-a87b-ff46a7d3dde5","2025-09-02_09h48.28.035",NA,NA,495.9604,495.9605,495.9605,496.3095,NA,NA,NA,NA,NA,NA,NA,TRUE,1,0.7032,492.9639,495.9598,0,105,105,6,1,10,25,NA,NA,NA,NA,NA,1,106,"likert"
"A9CEA77863774ACFAE514BF52A8485AE",1,"01990a98-f06d-7bba-a35e-8f81b4b84148","01990a84-c4ee-73c2-a87b-ff46a7d3dde5","2025-09-02_09h48.28.035",NA,NA,499.311,499.3112,499.3112,499.6594,NA,NA,NA,NA,NA,NA,NA,TRUE,1,0.1403,496.3136,499.3102,0,106,106,31,1,25,29,NA,NA,NA,NA,NA,1,107,"likert"
"A9CEA77863774ACFAE514BF52A8485AE",1,"01990a98-f06d-7bba-a35e-8f81b4b84148","01990a84-c4ee-73c2-a87b-ff46a7d3dde5","2025-09-02_09h48.28.035",NA,NA,502.6598,502.6598,502.6599,503.0094,NA,NA,NA,NA,NA,NA,NA,TRUE,1,0.0889,499.6631,502.659,0,107,107,84,1,100,26,NA,NA,NA,NA,NA,1,108,"likert"
"A9CEA77863774ACFAE514BF52A8485AE",1,"01990a98-f06d-7bba-a35e-8f81b4b84148","01990a84-c4ee-73c2-a87b-ff46a7d3dde5","2025-09-02_09h48.28.035",NA,NA,510.8431,510.8435,510.8436,511.1918,NA,NA,NA,NA,NA,NA,NA,TRUE,1,1.28,507.9054,510.8422,NA,NA,NA,NA,NA,100,54,0,0,0,89,1,2,1,"likert"
"A9CEA77863774ACFAE514BF52A8485AE",1,"01990a98-f06d-7bba-a35e-8f81b4b84148","01990a84-c4ee-73c2-a87b-ff46a7d3dde5","2025-09-02_09h48.28.035",NA,NA,514.195,514.1953,514.1953,514.5415,NA,NA,NA,NA,NA,NA,NA,TRUE,1,0.8616,511.1963,514.1943,NA,NA,NA,NA,NA,60,40,0,1,1,69,1,2,2,"likert"
"A9CEA77863774ACFAE514BF52A8485AE",1,"01990a98-f06d-7bba-a35e-8f81b4b84148","01990a84-c4ee-73c2-a87b-ff46a7d3dde5","2025-09-02_09h48.28.035",NA,NA,517.543,517.5435,517.5435,517.8917,NA,NA,NA,NA,NA,NA,NA,TRUE,1,0.2538,514.5456,517.5419,NA,NA,NA,NA,NA,95,47,0,2,2,82,1,2,3,"likert"
"A9CEA77863774ACFAE514BF52A8485AE",1,"01990a98-f06d-7bba-a35e-8f81b4b84148","01990a84-c4ee-73c2-a87b-ff46a7d3dde5","2025-09-02_09h48.28.035",NA,NA,520.8962,520.8966,520.8967,521.2414,NA,NA,NA,NA,NA,NA,NA,TRUE,1,0.0515,517.8957,520.8956,NA,NA,NA,NA,NA,12,31,0,3,3,15,1,2,4,"likert"
"A9CEA77863774ACFAE514BF52A8485AE",1,"01990a98-f06d-7bba-a35e-8f81b4b84148","01990a84-c4ee-73c2-a87b-ff46a7d3dde5","2025-09-02_09h48.28.035",NA,NA,524.2426,524.2429,524.243,524.5912,NA,NA,NA,NA,NA,NA,NA,TRUE,1,0.0269,521.2456,524.2411,NA,NA,NA,NA,NA,150,47,0,4,4,94,1,2,5,"likert"
"A9CEA77863774ACFAE514BF52A8485AE",1,"01990a98-f06d-7bba-a35e-8f81b4b84148","01990a84-c4ee-73c2-a87b-ff46a7d3dde5","2025-09-02_09h48.28.035",NA,NA,527.5917,527.5917,527.5918,527.9403,NA,NA,NA,NA,NA,NA,NA,TRUE,1,0.1875,524.5951,527.5904,NA,NA,NA,NA,NA,7,30,0,5,5,3,1,2,6,"likert"
"A9CEA77863774ACFAE514BF52A8485AE",1,"01990a98-f06d-7bba-a35e-8f81b4b84148","01990a84-c4ee-73c2-a87b-ff46a7d3dde5","2025-09-02_09h48.28.035",NA,NA,530.944,530.9443,530.9444,531.2908,NA,NA,NA,NA,NA,NA,NA,TRUE,1,0.1973,527.9424,530.943,NA,NA,NA,NA,NA,30,26,0,6,6,42,1,2,7,"likert"
"A9CEA77863774ACFAE514BF52A8485AE",1,"01990a98-f06d-7bba-a35e-8f81b4b84148","01990a84-c4ee-73c2-a87b-ff46a7d3dde5","2025-09-02_09h48.28.035",NA,NA,534.2925,534.2926,534.2928,534.6404,NA,NA,NA,NA,NA,NA,NA,TRUE,1,0.3307,531.2952,534.2911,NA,NA,NA,NA,NA,45,35,0,7,7,57,1,2,8,"likert"
"A9CEA77863774ACFAE514BF52A8485AE",1,"01990a98-f06d-7bba-a35e-8f81b4b84148","01990a84-c4ee-73c2-a87b-ff46a7d3dde5","2025-09-02_09h48.28.035",NA,NA,537.6413,537.6415,537.6417,537.9912,NA,NA,NA,NA,NA,NA,NA,TRUE,1,1.3702,534.6445,537.6404,NA,NA,NA,NA,NA,28,32,0,8,8,38,1,2,9,"likert"
"A9CEA77863774ACFAE514BF52A8485AE",1,"01990a98-f06d-7bba-a35e-8f81b4b84148","01990a84-c4ee-73c2-a87b-ff46a7d3dde5","2025-09-02_09h48.28.035",NA,NA,540.9914,540.9916,540.9917,541.34,NA,NA,NA,NA,NA,NA,NA,TRUE,1,0.2933,537.9951,540.9903,NA,NA,NA,NA,NA,25,29,0,9,9,31,1,2,10,"likert"
"A9CEA77863774ACFAE514BF52A8485AE",1,"01990a98-f06d-7bba-a35e-8f81b4b84148","01990a84-c4ee-73c2-a87b-ff46a7d3dde5","2025-09-02_09h48.28.035",NA,NA,544.3416,544.3421,544.3422,544.69,NA,NA,NA,NA,NA,NA,NA,TRUE,1,1.1265,541.3439,544.3402,NA,NA,NA,NA,NA,40,35,0,10,10,50,1,2,11,"likert"
"A9CEA77863774ACFAE514BF52A8485AE",1,"01990a98-f06d-7bba-a35e-8f81b4b84148","01990a84-c4ee-73c2-a87b-ff46a7d3dde5","2025-09-02_09h48.28.035",NA,NA,547.6905,547.6906,547.6906,548.0389,NA,NA,NA,NA,NA,NA,NA,TRUE,1,0.084,544.6946,547.6891,NA,NA,NA,NA,NA,14,25,0,11,11,18,1,2,12,"likert"
"A9CEA77863774ACFAE514BF52A8485AE",1,"01990a98-f06d-7bba-a35e-8f81b4b84148","01990a84-c4ee-73c2-a87b-ff46a7d3dde5","2025-09-02_09h48.28.035",NA,NA,551.0407,551.0408,551.0408,551.3889,NA,NA,NA,NA,NA,NA,NA,TRUE,1,0.1327,548.0415,551.0402,NA,NA,NA,NA,NA,28,35,0,12,12,39,1,2,13,"likert"
"A9CEA77863774ACFAE514BF52A8485AE",1,"01990a98-f06d-7bba-a35e-8f81b4b84148","01990a84-c4ee-73c2-a87b-ff46a7d3dde5","2025-09-02_09h48.28.035",NA,NA,554.3902,554.3903,554.3904,554.7397,NA,NA,NA,NA,NA,NA,NA,TRUE,1,2.9531,551.3915,554.3896,NA,NA,NA,NA,NA,10,25,0,13,13,6,1,2,14,"likert"
"A9CEA77863774ACFAE514BF52A8485AE",1,"01990a98-f06d-7bba-a35e-8f81b4b84148","01990a84-c4ee-73c2-a87b-ff46a7d3dde5","2025-09-02_09h48.28.035",NA,NA,557.7403,557.7404,557.7405,558.0894,NA,NA,NA,NA,NA,NA,NA,TRUE,1,0.3035,554.7426,557.7397,NA,NA,NA,NA,NA,150,31,0,14,14,90,1,2,15,"likert"
"A9CEA77863774ACFAE514BF52A8485AE",1,"01990a98-f06d-7bba-a35e-8f81b4b84148","01990a84-c4ee-73c2-a87b-ff46a7d3dde5","2025-09-02_09h48.28.035",NA,NA,561.0903,561.0906,561.0906,561.4392,NA,NA,NA,NA,NA,NA,NA,TRUE,1,1.8196,558.0936,561.0896,NA,NA,NA,NA,NA,95,35,0,15,15,80,1,2,16,"likert"
"A9CEA77863774ACFAE514BF52A8485AE",1,"01990a98-f06d-7bba-a35e-8f81b4b84148","01990a84-c4ee-73c2-a87b-ff46a7d3dde5","2025-09-02_09h48.28.035",NA,NA,564.4382,564.4382,564.4382,564.7891,NA,NA,NA,NA,NA,NA,NA,TRUE,1,0.1093,561.443,564.4381,NA,NA,NA,NA,NA,7,26,0,16,16,1,1,2,17,"likert"
"A9CEA77863774ACFAE514BF52A8485AE",1,"01990a98-f06d-7bba-a35e-8f81b4b84148","01990a84-c4ee-73c2-a87b-ff46a7d3dde5","2025-09-02_09h48.28.035",NA,NA,567.7897,567.7899,567.7899,568.139,NA,NA,NA,NA,NA,NA,NA,TRUE,1,0.4543,564.7933,567.7891,NA,NA,NA,NA,NA,30,27,0,17,17,43,1,2,18,"likert"
"A9CEA77863774ACFAE514BF52A8485AE",1,"01990a98-f06d-7bba-a35e-8f81b4b84148","01990a84-c4ee-73c2-a87b-ff46a7d3dde5","2025-09-02_09h48.28.035",NA,NA,571.1398,571.1399,571.14,571.4886,NA,NA,NA,NA,NA,NA,NA,TRUE,1,0.5067,568.143,571.1388,NA,NA,NA,NA,NA,7,35,0,18,18,5,1,2,19,"likert"
"A9CEA77863774ACFAE514BF52A8485AE",1,"01990a98-f06d-7bba-a35e-8f81b4b84148","01990a84-c4ee-73c2-a87b-ff46a7d3dde5","2025-09-02_09h48.28.035",NA,NA,574.4899,574.4899,574.49,574.8386,NA,NA,NA,NA,NA,NA,NA,TRUE,1,0.4943,571.4927,574.4887,NA,NA,NA,NA,NA,21,26,0,19,19,24,1,2,20,"likert"
"A9CEA77863774ACFAE514BF52A8485AE",1,"01990a98-f06d-7bba-a35e-8f81b4b84148","01990a84-c4ee-73c2-a87b-ff46a7d3dde5","2025-09-02_09h48.28.035",NA,NA,577.8394,577.8395,577.8396,578.188,NA,NA,NA,NA,NA,NA,NA,TRUE,1,0.3535,574.8428,577.8387,NA,NA,NA,NA,NA,10,29,0,20,20,9,1,2,21,"likert"
"A9CEA77863774ACFAE514BF52A8485AE",1,"01990a98-f06d-7bba-a35e-8f81b4b84148","01990a84-c4ee-73c2-a87b-ff46a7d3dde5","2025-09-02_09h48.28.035",NA,NA,581.189,581.1891,581.1891,581.5381,NA,NA,NA,NA,NA,NA,NA,TRUE,1,0.256,578.192,581.1883,NA,NA,NA,NA,NA,200,54,0,21,21,107,1,2,22,"likert"
"A9CEA77863774ACFAE514BF52A8485AE",1,"01990a98-f06d-7bba-a35e-8f81b4b84148","01990a84-c4ee-73c2-a87b-ff46a7d3dde5","2025-09-02_09h48.28.035",NA,NA,584.5386,584.5386,584.5387,584.8881,NA,NA,NA,NA,NA,NA,NA,TRUE,1,0.0228,581.5418,584.5379,NA,NA,NA,NA,NA,21,27,0,22,22,25,1,2,23,"likert"
"A9CEA77863774ACFAE514BF52A8485AE",1,"01990a98-f06d-7bba-a35e-8f81b4b84148","01990a84-c4ee-73c2-a87b-ff46a7d3dde5","2025-09-02_09h48.28.035",NA,NA,587.8885,587.8886,587.8886,588.2377,NA,NA,NA,NA,NA,NA,NA,TRUE,1,0.4052,584.8924,587.8878,NA,NA,NA,NA,NA,150,35,0,23,23,92,1,2,24,"likert"
"A9CEA77863774ACFAE514BF52A8485AE",1,"01990a98-f06d-7bba-a35e-8f81b4b84148","01990a84-c4ee-73c2-a87b-ff46a7d3dde5","2025-09-02_09h48.28.035",NA,NA,591.2384,591.2385,591.2385,591.5874,NA,NA,NA,NA,NA,NA,NA,TRUE,1,0.294,588.2412,591.2377,NA,NA,NA,NA,NA,180,54,0,24,24,101,1,2,25,"likert"
"A9CEA77863774ACFAE514BF52A8485AE",1,"01990a98-f06d-7bba-a35e-8f81b4b84148","01990a84-c4ee-73c2-a87b-ff46a7d3dde5","2025-09-02_09h48.28.035",NA,NA,594.5882,594.5884,594.5885,594.9374,NA,NA,NA,NA,NA,NA,NA,TRUE,1,0.3135,591.5914,594.5876,NA,NA,NA,NA,NA,95,33,0,25,25,79,1,2,26,"likert"
"A9CEA77863774ACFAE514BF52A8485AE",1,"01990a98-f06d-7bba-a35e-8f81b4b84148","01990a84-c4ee-73c2-a87b-ff46a7d3dde5","2025-09-02_09h48.28.035",NA,NA,597.9378,597.9379,597.9381,598.2873,NA,NA,NA,NA,NA,NA,NA,TRUE,1,0.214,594.9416,597.9373,NA,NA,NA,NA,NA,180,27,0,26,26,96,1,2,27,"likert"
"A9CEA77863774ACFAE514BF52A8485AE",1,"01990a98-f06d-7bba-a35e-8f81b4b84148","01990a84-c4ee-73c2-a87b-ff46a7d3dde5","2025-09-02_09h48.28.035",NA,NA,601.2876,601.2877,601.2878,601.637,NA,NA,NA,NA,NA,NA,NA,TRUE,1,0.3257,598.2917,601.2871,NA,NA,NA,NA,NA,12,35,0,27,27,17,1,2,28,"likert"
"A9CEA77863774ACFAE514BF52A8485AE",1,"01990a98-f06d-7bba-a35e-8f81b4b84148","01990a84-c4ee-73c2-a87b-ff46a7d3dde5","2025-09-02_09h48.28.035",NA,NA,604.6377,604.6378,604.6378,604.987,NA,NA,NA,NA,NA,NA,NA,TRUE,1,0.2054,601.6417,604.637,NA,NA,NA,NA,NA,150,54,0,28,28,95,1,2,29,"likert"
"A9CEA77863774ACFAE514BF52A8485AE",1,"01990a98-f06d-7bba-a35e-8f81b4b84148","01990a84-c4ee-73c2-a87b-ff46a7d3dde5","2025-09-02_09h48.28.035",NA,NA,607.9875,607.9877,607.9877,608.3366,NA,NA,NA,NA,NA,NA,NA,TRUE,1,0.289,604.9912,607.9868,NA,NA,NA,NA,NA,14,26,0,29,29,19,1,2,30,"likert"
"A9CEA77863774ACFAE514BF52A8485AE",1,"01990a98-f06d-7bba-a35e-8f81b4b84148","01990a84-c4ee-73c2-a87b-ff46a7d3dde5","2025-09-02_09h48.28.035",NA,NA,611.3376,611.3377,611.3377,611.6865,NA,NA,NA,NA,NA,NA,NA,TRUE,1,0.2739,608.3404,611.337,NA,NA,NA,NA,NA,50,35,0,30,30,62,1,2,31,"likert"
"A9CEA77863774ACFAE514BF52A8485AE",1,"01990a98-f06d-7bba-a35e-8f81b4b84148","01990a84-c4ee-73c2-a87b-ff46a7d3dde5","2025-09-02_09h48.28.035",NA,NA,614.6873,614.6876,614.6876,615.0364,NA,NA,NA,NA,NA,NA,NA,TRUE,1,0.3221,611.6914,614.6866,NA,NA,NA,NA,NA,200,39,0,31,31,105,1,2,32,"likert"
"A9CEA77863774ACFAE514BF52A8485AE",1,"01990a98-f06d-7bba-a35e-8f81b4b84148","01990a84-c4ee-73c2-a87b-ff46a7d3dde5","2025-09-02_09h48.28.035",NA,NA,618.0373,618.0374,618.0375,618.3857,NA,NA,NA,NA,NA,NA,NA,TRUE,1,0.0737,615.0405,618.0367,NA,NA,NA,NA,NA,10,26,0,32,32,7,1,2,33,"likert"
"A9CEA77863774ACFAE514BF52A8485AE",1,"01990a98-f06d-7bba-a35e-8f81b4b84148","01990a84-c4ee-73c2-a87b-ff46a7d3dde5","2025-09-02_09h48.28.035",NA,NA,621.3864,621.3866,621.3866,621.7366,NA,NA,NA,NA,NA,NA,NA,TRUE,1,0.2732,618.3904,621.3859,NA,NA,NA,NA,NA,90,30,0,33,33,73,1,2,34,"likert"
"A9CEA77863774ACFAE514BF52A8485AE",1,"01990a98-f06d-7bba-a35e-8f81b4b84148","01990a84-c4ee-73c2-a87b-ff46a7d3dde5","2025-09-02_09h48.28.035",NA,NA,624.7365,624.7365,624.7366,625.0854,NA,NA,NA,NA,NA,NA,NA,TRUE,1,0.3227,621.7406,624.7357,NA,NA,NA,NA,NA,50,46,0,34,34,64,1,2,35,"likert"
"A9CEA77863774ACFAE514BF52A8485AE",1,"01990a98-f06d-7bba-a35e-8f81b4b84148","01990a84-c4ee-73c2-a87b-ff46a7d3dde5","2025-09-02_09h48.28.035",NA,NA,628.0862,628.0863,628.0863,628.4353,NA,NA,NA,NA,NA,NA,NA,TRUE,1,0.3733,625.0896,628.0856,NA,NA,NA,NA,NA,25,27,0,35,35,30,1,2,36,"likert"
"A9CEA77863774ACFAE514BF52A8485AE",1,"01990a98-f06d-7bba-a35e-8f81b4b84148","01990a84-c4ee-73c2-a87b-ff46a7d3dde5","2025-09-02_09h48.28.035",NA,NA,631.4359,631.4361,631.4361,631.7849,NA,NA,NA,NA,NA,NA,NA,TRUE,1,0.0137,628.4389,631.4352,NA,NA,NA,NA,NA,40,33,0,36,36,49,1,2,37,"likert"
"A9CEA77863774ACFAE514BF52A8485AE",1,"01990a98-f06d-7bba-a35e-8f81b4b84148","01990a84-c4ee-73c2-a87b-ff46a7d3dde5","2025-09-02_09h48.28.035",NA,NA,634.7863,634.7863,634.7864,635.1352,NA,NA,NA,NA,NA,NA,NA,TRUE,1,0.6067,631.7894,634.7857,NA,NA,NA,NA,NA,40,27,0,37,37,48,1,2,38,"likert"
"A9CEA77863774ACFAE514BF52A8485AE",1,"01990a98-f06d-7bba-a35e-8f81b4b84148","01990a84-c4ee-73c2-a87b-ff46a7d3dde5","2025-09-02_09h48.28.035",NA,NA,638.1363,638.1365,638.1366,638.4847,NA,NA,NA,NA,NA,NA,NA,TRUE,1,0.0403,635.1395,638.1354,NA,NA,NA,NA,NA,14,32,0,38,38,21,1,2,39,"likert"
"A9CEA77863774ACFAE514BF52A8485AE",1,"01990a98-f06d-7bba-a35e-8f81b4b84148","01990a84-c4ee-73c2-a87b-ff46a7d3dde5","2025-09-02_09h48.28.035",NA,NA,641.4859,641.4859,641.4859,641.8348,NA,NA,NA,NA,NA,NA,NA,TRUE,1,0.474,638.4886,641.4852,NA,NA,NA,NA,NA,200,28,0,39,39,103,1,2,40,"likert"
"A9CEA77863774ACFAE514BF52A8485AE",1,"01990a98-f06d-7bba-a35e-8f81b4b84148","01990a84-c4ee-73c2-a87b-ff46a7d3dde5","2025-09-02_09h48.28.035",NA,NA,644.8356,644.8358,644.8358,645.1842,NA,NA,NA,NA,NA,NA,NA,TRUE,1,0.2751,641.8384,644.835,NA,NA,NA,NA,NA,28,26,0,40,40,36,1,2,41,"likert"
"A9CEA77863774ACFAE514BF52A8485AE",1,"01990a98-f06d-7bba-a35e-8f81b4b84148","01990a84-c4ee-73c2-a87b-ff46a7d3dde5","2025-09-02_09h48.28.035",NA,NA,648.1849,648.185,648.1851,648.5335,NA,NA,NA,NA,NA,NA,NA,TRUE,1,0.7893,645.1882,648.1844,NA,NA,NA,NA,NA,28,39,0,41,41,40,1,2,42,"likert"
"A9CEA77863774ACFAE514BF52A8485AE",1,"01990a98-f06d-7bba-a35e-8f81b4b84148","01990a84-c4ee-73c2-a87b-ff46a7d3dde5","2025-09-02_09h48.28.035",NA,NA,651.5351,651.5352,651.5352,651.8841,NA,NA,NA,NA,NA,NA,NA,TRUE,1,0.0838,648.5361,651.5344,NA,NA,NA,NA,NA,30,29,0,42,42,44,1,2,43,"likert"
"A9CEA77863774ACFAE514BF52A8485AE",1,"01990a98-f06d-7bba-a35e-8f81b4b84148","01990a84-c4ee-73c2-a87b-ff46a7d3dde5","2025-09-02_09h48.28.035",NA,NA,654.8844,654.8845,654.8846,655.2337,NA,NA,NA,NA,NA,NA,NA,TRUE,1,0.4278,651.8881,654.8838,NA,NA,NA,NA,NA,28,46,0,43,43,41,1,2,44,"likert"
"A9CEA77863774ACFAE514BF52A8485AE",1,"01990a98-f06d-7bba-a35e-8f81b4b84148","01990a84-c4ee-73c2-a87b-ff46a7d3dde5","2025-09-02_09h48.28.035",NA,NA,658.2344,658.484,658.4841,658.5843,NA,NA,NA,NA,NA,NA,NA,FALSE,NA,NA,655.2379,658.2337,NA,NA,NA,NA,NA,21,30,0,44,44,27,1,2,45,"likert"
"A9CEA77863774ACFAE514BF52A8485AE",1,"01990a98-f06d-7bba-a35e-8f81b4b84148","01990a84-c4ee-73c2-a87b-ff46a7d3dde5","2025-09-02_09h48.28.035",NA,NA,661.5841,661.5842,661.5843,661.9334,NA,NA,NA,NA,NA,NA,NA,TRUE,1,0.3726,658.588,661.5834,NA,NA,NA,NA,NA,100,39,0,45,45,87,1,2,46,"likert"
"A9CEA77863774ACFAE514BF52A8485AE",1,"01990a98-f06d-7bba-a35e-8f81b4b84148","01990a84-c4ee-73c2-a87b-ff46a7d3dde5","2025-09-02_09h48.28.035",NA,NA,664.9342,664.9344,664.9344,665.2837,NA,NA,NA,NA,NA,NA,NA,TRUE,1,0.4428,661.9378,664.9336,NA,NA,NA,NA,NA,90,33,0,46,46,74,1,2,47,"likert"
"A9CEA77863774ACFAE514BF52A8485AE",1,"01990a98-f06d-7bba-a35e-8f81b4b84148","01990a84-c4ee-73c2-a87b-ff46a7d3dde5","2025-09-02_09h48.28.035",NA,NA,668.284,668.2842,668.2842,668.633,NA,NA,NA,NA,NA,NA,NA,TRUE,1,0.2553,665.2876,668.2833,NA,NA,NA,NA,NA,45,29,0,47,47,55,1,2,48,"likert"
"A9CEA77863774ACFAE514BF52A8485AE",1,"01990a98-f06d-7bba-a35e-8f81b4b84148","01990a84-c4ee-73c2-a87b-ff46a7d3dde5","2025-09-02_09h48.28.035",NA,NA,671.6337,671.6337,671.6338,671.9828,NA,NA,NA,NA,NA,NA,NA,TRUE,1,0.2837,668.6373,671.633,NA,NA,NA,NA,NA,200,35,0,48,48,104,1,2,49,"likert"
"A9CEA77863774ACFAE514BF52A8485AE",1,"01990a98-f06d-7bba-a35e-8f81b4b84148","01990a84-c4ee-73c2-a87b-ff46a7d3dde5","2025-09-02_09h48.28.035",NA,NA,674.9838,674.984,674.9841,675.3328,NA,NA,NA,NA,NA,NA,NA,TRUE,1,0.7405,671.9868,674.9834,NA,NA,NA,NA,NA,60,33,0,49,49,67,1,2,50,"likert"
"A9CEA77863774ACFAE514BF52A8485AE",1,"01990a98-f06d-7bba-a35e-8f81b4b84148","01990a84-c4ee-73c2-a87b-ff46a7d3dde5","2025-09-02_09h48.28.035",NA,NA,678.3332,678.3333,678.3334,678.6826,NA,NA,NA,NA,NA,NA,NA,TRUE,1,0.3898,675.3365,678.3326,NA,NA,NA,NA,NA,30,38,0,50,50,47,1,2,51,"likert"
"A9CEA77863774ACFAE514BF52A8485AE",1,"01990a98-f06d-7bba-a35e-8f81b4b84148","01990a84-c4ee-73c2-a87b-ff46a7d3dde5","2025-09-02_09h48.28.035",NA,NA,681.6832,681.6834,681.6834,682.0325,NA,NA,NA,NA,NA,NA,NA,TRUE,1,0.227,678.6863,681.6826,NA,NA,NA,NA,NA,7,32,0,51,51,4,1,2,52,"likert"
"A9CEA77863774ACFAE514BF52A8485AE",1,"01990a98-f06d-7bba-a35e-8f81b4b84148","01990a84-c4ee-73c2-a87b-ff46a7d3dde5","2025-09-02_09h48.28.035",NA,NA,685.0329,685.033,685.033,685.3823,NA,NA,NA,NA,NA,NA,NA,TRUE,1,0.3038,682.0363,685.0323,NA,NA,NA,NA,NA,14,35,0,52,52,22,1,2,53,"likert"
"A9CEA77863774ACFAE514BF52A8485AE",1,"01990a98-f06d-7bba-a35e-8f81b4b84148","01990a84-c4ee-73c2-a87b-ff46a7d3dde5","2025-09-02_09h48.28.035",NA,NA,688.3829,688.383,688.383,688.7324,NA,NA,NA,NA,NA,NA,NA,TRUE,1,0.6003,685.3863,688.3822,NA,NA,NA,NA,NA,150,33,0,53,53,91,1,2,54,"likert"
"A9CEA77863774ACFAE514BF52A8485AE",1,"01990a98-f06d-7bba-a35e-8f81b4b84148","01990a84-c4ee-73c2-a87b-ff46a7d3dde5","2025-09-02_09h48.28.035",NA,NA,691.733,691.7332,691.7334,692.0819,NA,NA,NA,NA,NA,NA,NA,TRUE,1,0.7965,688.7363,691.7322,NA,NA,NA,NA,NA,95,40,0,54,54,81,1,2,55,"likert"
"A9CEA77863774ACFAE514BF52A8485AE",1,"01990a98-f06d-7bba-a35e-8f81b4b84148","01990a84-c4ee-73c2-a87b-ff46a7d3dde5","2025-09-02_09h48.28.035",NA,NA,695.0826,695.0827,695.0827,695.4317,NA,NA,NA,NA,NA,NA,NA,TRUE,1,0.347,692.0859,695.082,NA,NA,NA,NA,NA,12,28,0,55,55,14,1,2,56,"likert"
"A9CEA77863774ACFAE514BF52A8485AE",1,"01990a98-f06d-7bba-a35e-8f81b4b84148","01990a84-c4ee-73c2-a87b-ff46a7d3dde5","2025-09-02_09h48.28.035",NA,NA,698.4309,698.4309,698.4309,698.7806,NA,NA,NA,NA,NA,NA,NA,TRUE,1,0.0906,695.436,698.4306,NA,NA,NA,NA,NA,200,47,0,56,56,106,1,2,57,"likert"
"A9CEA77863774ACFAE514BF52A8485AE",1,"01990a98-f06d-7bba-a35e-8f81b4b84148","01990a84-c4ee-73c2-a87b-ff46a7d3dde5","2025-09-02_09h48.28.035",NA,NA,701.7824,701.7825,701.7825,702.1316,NA,NA,NA,NA,NA,NA,NA,TRUE,1,0.2472,698.7833,701.7814,NA,NA,NA,NA,NA,21,29,0,57,57,26,1,2,58,"likert"
"A9CEA77863774ACFAE514BF52A8485AE",1,"01990a98-f06d-7bba-a35e-8f81b4b84148","01990a84-c4ee-73c2-a87b-ff46a7d3dde5","2025-09-02_09h48.28.035",NA,NA,705.1318,705.1319,705.1319,705.4809,NA,NA,NA,NA,NA,NA,NA,TRUE,1,0.4215,702.1359,705.1312,NA,NA,NA,NA,NA,40,40,0,58,58,51,1,2,59,"likert"
"A9CEA77863774ACFAE514BF52A8485AE",1,"01990a98-f06d-7bba-a35e-8f81b4b84148","01990a84-c4ee-73c2-a87b-ff46a7d3dde5","2025-09-02_09h48.28.035",NA,NA,708.4818,708.482,708.4821,708.8311,NA,NA,NA,NA,NA,NA,NA,TRUE,1,0.287,705.485,708.4812,NA,NA,NA,NA,NA,12,33,0,59,59,16,1,2,60,"likert"
"A9CEA77863774ACFAE514BF52A8485AE",1,"01990a98-f06d-7bba-a35e-8f81b4b84148","01990a84-c4ee-73c2-a87b-ff46a7d3dde5","2025-09-02_09h48.28.035",NA,NA,711.832,711.832,711.8321,712.1965,NA,NA,NA,NA,NA,NA,NA,TRUE,1,0.0741,708.8346,711.8313,NA,NA,NA,NA,NA,100,31,0,60,60,85,1,2,61,"likert"
"A9CEA77863774ACFAE514BF52A8485AE",1,"01990a98-f06d-7bba-a35e-8f81b4b84148","01990a84-c4ee-73c2-a87b-ff46a7d3dde5","2025-09-02_09h48.28.035",NA,NA,715.1816,715.1816,715.1816,715.5463,NA,NA,NA,NA,NA,NA,NA,TRUE,1,0.2927,712.1997,715.1807,NA,NA,NA,NA,NA,21,32,0,61,61,28,1,2,62,"likert"
"A9CEA77863774ACFAE514BF52A8485AE",1,"01990a98-f06d-7bba-a35e-8f81b4b84148","01990a84-c4ee-73c2-a87b-ff46a7d3dde5","2025-09-02_09h48.28.035",NA,NA,718.548,718.5482,718.5483,718.8971,NA,NA,NA,NA,NA,NA,NA,TRUE,1,0.0727,715.549,718.5467,NA,NA,NA,NA,NA,25,31,0,62,62,32,1,2,63,"likert"
"A9CEA77863774ACFAE514BF52A8485AE",1,"01990a98-f06d-7bba-a35e-8f81b4b84148","01990a84-c4ee-73c2-a87b-ff46a7d3dde5","2025-09-02_09h48.28.035",NA,NA,721.898,721.8983,721.8984,722.2463,NA,NA,NA,NA,NA,NA,NA,TRUE,1,0.2172,718.9011,721.8964,NA,NA,NA,NA,NA,25,46,0,63,63,35,1,2,64,"likert"
"A9CEA77863774ACFAE514BF52A8485AE",1,"01990a98-f06d-7bba-a35e-8f81b4b84148","01990a84-c4ee-73c2-a87b-ff46a7d3dde5","2025-09-02_09h48.28.035",NA,NA,725.2479,725.2483,725.2484,725.5969,NA,NA,NA,NA,NA,NA,NA,TRUE,1,0.3638,722.2506,725.2471,NA,NA,NA,NA,NA,10,30,0,64,64,10,1,2,65,"likert"
"A9CEA77863774ACFAE514BF52A8485AE",1,"01990a98-f06d-7bba-a35e-8f81b4b84148","01990a84-c4ee-73c2-a87b-ff46a7d3dde5","2025-09-02_09h48.28.035",NA,NA,728.5976,728.5978,728.5979,728.9464,NA,NA,NA,NA,NA,NA,NA,TRUE,1,0.3314,725.6001,728.5962,NA,NA,NA,NA,NA,40,47,0,65,65,52,1,2,66,"likert"
"A9CEA77863774ACFAE514BF52A8485AE",1,"01990a98-f06d-7bba-a35e-8f81b4b84148","01990a84-c4ee-73c2-a87b-ff46a7d3dde5","2025-09-02_09h48.28.035",NA,NA,731.9473,731.9475,731.9476,732.2963,NA,NA,NA,NA,NA,NA,NA,TRUE,1,0.1956,728.9509,731.9464,NA,NA,NA,NA,NA,50,27,0,66,66,60,1,2,67,"likert"
"A9CEA77863774ACFAE514BF52A8485AE",1,"01990a98-f06d-7bba-a35e-8f81b4b84148","01990a84-c4ee-73c2-a87b-ff46a7d3dde5","2025-09-02_09h48.28.035",NA,NA,735.2834,735.2836,735.2836,735.6461,NA,NA,NA,NA,NA,NA,NA,TRUE,1,0.2951,732.3002,735.2829,NA,NA,NA,NA,NA,30,32,0,67,67,46,1,2,68,"likert"
"A9CEA77863774ACFAE514BF52A8485AE",1,"01990a98-f06d-7bba-a35e-8f81b4b84148","01990a84-c4ee-73c2-a87b-ff46a7d3dde5","2025-09-02_09h48.28.035",NA,NA,738.6465,738.6469,738.647,738.9957,NA,NA,NA,NA,NA,NA,NA,TRUE,1,0.0018,735.6499,738.6456,NA,NA,NA,NA,NA,45,26,0,68,68,54,1,2,69,"likert"
"A9CEA77863774ACFAE514BF52A8485AE",1,"01990a98-f06d-7bba-a35e-8f81b4b84148","01990a84-c4ee-73c2-a87b-ff46a7d3dde5","2025-09-02_09h48.28.035",NA,NA,741.9972,741.9977,741.9978,742.3454,NA,NA,NA,NA,NA,NA,NA,TRUE,1,1.3175,739,741.9957,NA,NA,NA,NA,NA,180,46,0,69,69,100,1,2,70,"likert"
"A9CEA77863774ACFAE514BF52A8485AE",1,"01990a98-f06d-7bba-a35e-8f81b4b84148","01990a84-c4ee-73c2-a87b-ff46a7d3dde5","2025-09-02_09h48.28.035",NA,NA,745.3471,745.3473,745.3474,745.6955,NA,NA,NA,NA,NA,NA,NA,TRUE,1,0.3944,742.3497,745.3457,NA,NA,NA,NA,NA,180,31,0,70,70,97,1,2,71,"likert"
"A9CEA77863774ACFAE514BF52A8485AE",1,"01990a98-f06d-7bba-a35e-8f81b4b84148","01990a84-c4ee-73c2-a87b-ff46a7d3dde5","2025-09-02_09h48.28.035",NA,NA,748.6962,748.6965,748.6965,749.0452,NA,NA,NA,NA,NA,NA,NA,TRUE,1,0.3938,745.6995,748.695,NA,NA,NA,NA,NA,50,54,0,71,71,65,1,2,72,"likert"
"A9CEA77863774ACFAE514BF52A8485AE",1,"01990a98-f06d-7bba-a35e-8f81b4b84148","01990a84-c4ee-73c2-a87b-ff46a7d3dde5","2025-09-02_09h48.28.035",NA,NA,752.0463,752.0466,752.0467,752.395,NA,NA,NA,NA,NA,NA,NA,TRUE,1,0.2664,749.049,752.0451,NA,NA,NA,NA,NA,30,30,0,72,72,45,1,2,73,"likert"
"A9CEA77863774ACFAE514BF52A8485AE",1,"01990a98-f06d-7bba-a35e-8f81b4b84148","01990a84-c4ee-73c2-a87b-ff46a7d3dde5","2025-09-02_09h48.28.035",NA,NA,755.3961,755.3965,755.3967,755.7448,NA,NA,NA,NA,NA,NA,NA,TRUE,1,0.5199,752.3989,755.3953,NA,NA,NA,NA,NA,40,54,0,73,73,53,1,2,74,"likert"
"A9CEA77863774ACFAE514BF52A8485AE",1,"01990a98-f06d-7bba-a35e-8f81b4b84148","01990a84-c4ee-73c2-a87b-ff46a7d3dde5","2025-09-02_09h48.28.035",NA,NA,758.7459,758.7464,758.7464,759.0942,NA,NA,NA,NA,NA,NA,NA,TRUE,1,0.3271,755.7487,758.7449,NA,NA,NA,NA,NA,90,46,0,74,74,76,1,2,75,"likert"
"A9CEA77863774ACFAE514BF52A8485AE",1,"01990a98-f06d-7bba-a35e-8f81b4b84148","01990a84-c4ee-73c2-a87b-ff46a7d3dde5","2025-09-02_09h48.28.035",NA,NA,762.0961,762.0964,762.0965,762.4445,NA,NA,NA,NA,NA,NA,NA,TRUE,1,0.2596,759.0989,762.0952,NA,NA,NA,NA,NA,60,47,0,75,75,70,1,2,76,"likert"
"A9CEA77863774ACFAE514BF52A8485AE",1,"01990a98-f06d-7bba-a35e-8f81b4b84148","01990a84-c4ee-73c2-a87b-ff46a7d3dde5","2025-09-02_09h48.28.035",NA,NA,765.4453,765.4456,765.4457,765.7941,NA,NA,NA,NA,NA,NA,NA,TRUE,1,0.2263,762.4481,765.4444,NA,NA,NA,NA,NA,14,28,0,76,76,20,1,2,77,"likert"
"A9CEA77863774ACFAE514BF52A8485AE",1,"01990a98-f06d-7bba-a35e-8f81b4b84148","01990a84-c4ee-73c2-a87b-ff46a7d3dde5","2025-09-02_09h48.28.035",NA,NA,768.7952,768.7955,768.7956,769.1439,NA,NA,NA,NA,NA,NA,NA,TRUE,1,0.6165,765.7983,768.7941,NA,NA,NA,NA,NA,45,40,0,77,77,58,1,2,78,"likert"
"A9CEA77863774ACFAE514BF52A8485AE",1,"01990a98-f06d-7bba-a35e-8f81b4b84148","01990a84-c4ee-73c2-a87b-ff46a7d3dde5","2025-09-02_09h48.28.035",NA,NA,772.1455,772.1457,772.1458,772.4937,NA,NA,NA,NA,NA,NA,NA,TRUE,1,0.2798,769.1482,772.1438,NA,NA,NA,NA,NA,21,38,0,78,78,29,1,2,79,"likert"
"A9CEA77863774ACFAE514BF52A8485AE",1,"01990a98-f06d-7bba-a35e-8f81b4b84148","01990a84-c4ee-73c2-a87b-ff46a7d3dde5","2025-09-02_09h48.28.035",NA,NA,775.4954,775.4957,775.4958,775.8439,NA,NA,NA,NA,NA,NA,NA,TRUE,1,0.014,772.4978,775.4942,NA,NA,NA,NA,NA,100,46,0,79,79,88,1,2,80,"likert"
"A9CEA77863774ACFAE514BF52A8485AE",1,"01990a98-f06d-7bba-a35e-8f81b4b84148","01990a84-c4ee-73c2-a87b-ff46a7d3dde5","2025-09-02_09h48.28.035",NA,NA,778.8447,778.845,778.8451,779.1807,NA,NA,NA,NA,NA,NA,NA,TRUE,1,2.3103,775.8477,778.8435,NA,NA,NA,NA,NA,95,31,0,80,80,78,1,2,81,"likert"
"A9CEA77863774ACFAE514BF52A8485AE",1,"01990a98-f06d-7bba-a35e-8f81b4b84148","01990a84-c4ee-73c2-a87b-ff46a7d3dde5","2025-09-02_09h48.28.035",NA,NA,782.194,782.1947,782.1949,782.5431,NA,NA,NA,NA,NA,NA,NA,TRUE,1,0.238,779.1836,782.1931,NA,NA,NA,NA,NA,90,40,0,81,81,75,1,2,82,"likert"
"A9CEA77863774ACFAE514BF52A8485AE",1,"01990a98-f06d-7bba-a35e-8f81b4b84148","01990a84-c4ee-73c2-a87b-ff46a7d3dde5","2025-09-02_09h48.28.035",NA,NA,785.5446,785.5448,785.5449,785.8935,NA,NA,NA,NA,NA,NA,NA,TRUE,1,0.8834,782.547,785.5434,NA,NA,NA,NA,NA,12,26,0,82,82,13,1,2,83,"likert"
"A9CEA77863774ACFAE514BF52A8485AE",1,"01990a98-f06d-7bba-a35e-8f81b4b84148","01990a84-c4ee-73c2-a87b-ff46a7d3dde5","2025-09-02_09h48.28.035",NA,NA,788.8947,789.143,789.1432,789.2432,NA,NA,NA,NA,NA,NA,NA,FALSE,NA,NA,785.8973,788.8936,NA,NA,NA,NA,NA,100,38,0,83,83,86,1,2,84,"likert"
"A9CEA77863774ACFAE514BF52A8485AE",1,"01990a98-f06d-7bba-a35e-8f81b4b84148","01990a84-c4ee-73c2-a87b-ff46a7d3dde5","2025-09-02_09h48.28.035",NA,NA,792.2436,792.2441,792.2442,792.5927,NA,NA,NA,NA,NA,NA,NA,TRUE,1,0.1998,789.2468,792.2426,NA,NA,NA,NA,NA,90,54,0,84,84,77,1,2,85,"likert"
"A9CEA77863774ACFAE514BF52A8485AE",1,"01990a98-f06d-7bba-a35e-8f81b4b84148","01990a84-c4ee-73c2-a87b-ff46a7d3dde5","2025-09-02_09h48.28.035",NA,NA,795.5943,795.5946,795.5946,795.9426,NA,NA,NA,NA,NA,NA,NA,TRUE,1,0.4312,792.5966,795.5935,NA,NA,NA,NA,NA,45,46,0,85,85,59,1,2,86,"likert"
"A9CEA77863774ACFAE514BF52A8485AE",1,"01990a98-f06d-7bba-a35e-8f81b4b84148","01990a84-c4ee-73c2-a87b-ff46a7d3dde5","2025-09-02_09h48.28.035",NA,NA,798.9438,798.9441,798.9441,799.2925,NA,NA,NA,NA,NA,NA,NA,TRUE,1,0.0289,795.9466,798.9426,NA,NA,NA,NA,NA,25,33,0,86,86,33,1,2,87,"likert"
"A9CEA77863774ACFAE514BF52A8485AE",1,"01990a98-f06d-7bba-a35e-8f81b4b84148","01990a84-c4ee-73c2-a87b-ff46a7d3dde5","2025-09-02_09h48.28.035",NA,NA,802.2933,802.2939,802.294,802.6422,NA,NA,NA,NA,NA,NA,NA,TRUE,1,0.0079,799.2968,802.2923,NA,NA,NA,NA,NA,60,54,0,87,87,71,1,2,88,"likert"
"A9CEA77863774ACFAE514BF52A8485AE",1,"01990a98-f06d-7bba-a35e-8f81b4b84148","01990a84-c4ee-73c2-a87b-ff46a7d3dde5","2025-09-02_09h48.28.035",NA,NA,805.6432,805.6436,805.6437,805.9922,NA,NA,NA,NA,NA,NA,NA,TRUE,1,0.0334,802.646,805.642,NA,NA,NA,NA,NA,10,27,0,88,88,8,1,2,89,"likert"
"A9CEA77863774ACFAE514BF52A8485AE",1,"01990a98-f06d-7bba-a35e-8f81b4b84148","01990a84-c4ee-73c2-a87b-ff46a7d3dde5","2025-09-02_09h48.28.035",NA,NA,808.9953,808.9955,808.9956,809.3416,NA,NA,NA,NA,NA,NA,NA,TRUE,1,0.2187,805.9961,808.9946,NA,NA,NA,NA,NA,10,32,0,89,89,11,1,2,90,"likert"
"A9CEA77863774ACFAE514BF52A8485AE",1,"01990a98-f06d-7bba-a35e-8f81b4b84148","01990a84-c4ee-73c2-a87b-ff46a7d3dde5","2025-09-02_09h48.28.035",NA,NA,812.3449,812.3452,812.3453,812.6917,NA,NA,NA,NA,NA,NA,NA,TRUE,1,1.5777,809.3455,812.3443,NA,NA,NA,NA,NA,180,35,0,90,90,98,1,2,91,"likert"
"A9CEA77863774ACFAE514BF52A8485AE",1,"01990a98-f06d-7bba-a35e-8f81b4b84148","01990a84-c4ee-73c2-a87b-ff46a7d3dde5","2025-09-02_09h48.28.035",NA,NA,815.6972,815.6974,815.6974,816.0416,NA,NA,NA,NA,NA,NA,NA,TRUE,1,0.0428,812.6958,815.6962,NA,NA,NA,NA,NA,12,25,0,91,91,12,1,2,92,"likert"
"A9CEA77863774ACFAE514BF52A8485AE",1,"01990a98-f06d-7bba-a35e-8f81b4b84148","01990a84-c4ee-73c2-a87b-ff46a7d3dde5","2025-09-02_09h48.28.035",NA,NA,819.0449,819.0453,819.0453,819.3916,NA,NA,NA,NA,NA,NA,NA,TRUE,1,0.0354,816.0463,819.044,NA,NA,NA,NA,NA,25,35,0,92,92,34,1,2,93,"likert"
"A9CEA77863774ACFAE514BF52A8485AE",1,"01990a98-f06d-7bba-a35e-8f81b4b84148","01990a84-c4ee-73c2-a87b-ff46a7d3dde5","2025-09-02_09h48.28.035",NA,NA,822.3929,822.3932,822.3933,822.741,NA,NA,NA,NA,NA,NA,NA,TRUE,1,0.2881,819.3953,822.3917,NA,NA,NA,NA,NA,45,31,0,93,93,56,1,2,94,"likert"
"A9CEA77863774ACFAE514BF52A8485AE",1,"01990a98-f06d-7bba-a35e-8f81b4b84148","01990a84-c4ee-73c2-a87b-ff46a7d3dde5","2025-09-02_09h48.28.035",NA,NA,825.7422,825.7424,825.7425,826.0909,NA,NA,NA,NA,NA,NA,NA,TRUE,1,0.0016,822.7448,825.7409,NA,NA,NA,NA,NA,50,40,0,94,94,63,1,2,95,"likert"
"A9CEA77863774ACFAE514BF52A8485AE",1,"01990a98-f06d-7bba-a35e-8f81b4b84148","01990a84-c4ee-73c2-a87b-ff46a7d3dde5","2025-09-02_09h48.28.035",NA,NA,829.0921,829.0924,829.0924,829.4407,NA,NA,NA,NA,NA,NA,NA,TRUE,1,0.2474,826.0949,829.091,NA,NA,NA,NA,NA,150,40,0,95,95,93,1,2,96,"likert"
"A9CEA77863774ACFAE514BF52A8485AE",1,"01990a98-f06d-7bba-a35e-8f81b4b84148","01990a84-c4ee-73c2-a87b-ff46a7d3dde5","2025-09-02_09h48.28.035",NA,NA,832.4419,832.442,832.4421,832.7904,NA,NA,NA,NA,NA,NA,NA,TRUE,1,0.21,829.4458,832.4408,NA,NA,NA,NA,NA,200,26,0,96,96,102,1,2,97,"likert"
"A9CEA77863774ACFAE514BF52A8485AE",1,"01990a98-f06d-7bba-a35e-8f81b4b84148","01990a84-c4ee-73c2-a87b-ff46a7d3dde5","2025-09-02_09h48.28.035",NA,NA,835.7915,835.7916,835.7916,836.1406,NA,NA,NA,NA,NA,NA,NA,TRUE,1,0.2465,832.7943,835.7908,NA,NA,NA,NA,NA,90,26,0,97,97,72,1,2,98,"likert"
"A9CEA77863774ACFAE514BF52A8485AE",1,"01990a98-f06d-7bba-a35e-8f81b4b84148","01990a84-c4ee-73c2-a87b-ff46a7d3dde5","2025-09-02_09h48.28.035",NA,NA,839.141,839.1411,839.1412,839.4897,NA,NA,NA,NA,NA,NA,NA,TRUE,1,0.0017,836.1446,839.1402,NA,NA,NA,NA,NA,95,54,0,98,98,83,1,2,99,"likert"
"A9CEA77863774ACFAE514BF52A8485AE",1,"01990a98-f06d-7bba-a35e-8f81b4b84148","01990a84-c4ee-73c2-a87b-ff46a7d3dde5","2025-09-02_09h48.28.035",NA,NA,842.4911,842.4912,842.4914,842.84,NA,NA,NA,NA,NA,NA,NA,TRUE,1,0.8259,839.4943,842.4903,NA,NA,NA,NA,NA,7,28,0,99,99,2,1,2,100,"likert"
"A9CEA77863774ACFAE514BF52A8485AE",1,"01990a98-f06d-7bba-a35e-8f81b4b84148","01990a84-c4ee-73c2-a87b-ff46a7d3dde5","2025-09-02_09h48.28.035",NA,NA,845.841,845.8411,845.8411,846.1895,NA,NA,NA,NA,NA,NA,NA,TRUE,1,0.0247,842.8441,845.8402,NA,NA,NA,NA,NA,180,39,0,100,100,99,1,2,101,"likert"
"A9CEA77863774ACFAE514BF52A8485AE",1,"01990a98-f06d-7bba-a35e-8f81b4b84148","01990a84-c4ee-73c2-a87b-ff46a7d3dde5","2025-09-02_09h48.28.035",NA,NA,849.1904,849.1905,849.1905,849.5397,NA,NA,NA,NA,NA,NA,NA,TRUE,1,0.2647,846.194,849.1901,NA,NA,NA,NA,NA,7,25,0,101,101,0,1,2,102,"likert"
"A9CEA77863774ACFAE514BF52A8485AE",1,"01990a98-f06d-7bba-a35e-8f81b4b84148","01990a84-c4ee-73c2-a87b-ff46a7d3dde5","2025-09-02_09h48.28.035",NA,NA,852.5404,852.5405,852.5405,852.8894,NA,NA,NA,NA,NA,NA,NA,TRUE,1,0.0639,849.543,852.5397,NA,NA,NA,NA,NA,28,28,0,102,102,37,1,2,103,"likert"
"A9CEA77863774ACFAE514BF52A8485AE",1,"01990a98-f06d-7bba-a35e-8f81b4b84148","01990a84-c4ee-73c2-a87b-ff46a7d3dde5","2025-09-02_09h48.28.035",NA,NA,855.8903,855.8904,855.8904,856.2389,NA,NA,NA,NA,NA,NA,NA,TRUE,1,0.305,852.8932,855.8895,NA,NA,NA,NA,NA,14,39,0,103,103,23,1,2,104,"likert"
"A9CEA77863774ACFAE514BF52A8485AE",1,"01990a98-f06d-7bba-a35e-8f81b4b84148","01990a84-c4ee-73c2-a87b-ff46a7d3dde5","2025-09-02_09h48.28.035",NA,NA,859.24,859.2402,859.2402,859.5893,NA,NA,NA,NA,NA,NA,NA,TRUE,1,0.4434,856.2429,859.2395,NA,NA,NA,NA,NA,60,29,0,104,104,66,1,2,105,"likert"
"A9CEA77863774ACFAE514BF52A8485AE",1,"01990a98-f06d-7bba-a35e-8f81b4b84148","01990a84-c4ee-73c2-a87b-ff46a7d3dde5","2025-09-02_09h48.28.035",NA,NA,862.5897,862.5898,862.59,862.939,NA,NA,NA,NA,NA,NA,NA,TRUE,1,0.3701,859.5935,862.5891,NA,NA,NA,NA,NA,60,35,0,105,105,68,1,2,106,"likert"
"A9CEA77863774ACFAE514BF52A8485AE",1,"01990a98-f06d-7bba-a35e-8f81b4b84148","01990a84-c4ee-73c2-a87b-ff46a7d3dde5","2025-09-02_09h48.28.035",NA,NA,865.9397,865.9397,865.9398,866.289,NA,NA,NA,NA,NA,NA,NA,TRUE,1,0.3027,862.9427,865.9389,NA,NA,NA,NA,NA,100,26,0,106,106,84,1,2,107,"likert"
"A9CEA77863774ACFAE514BF52A8485AE",1,"01990a98-f06d-7bba-a35e-8f81b4b84148","01990a84-c4ee-73c2-a87b-ff46a7d3dde5","2025-09-02_09h48.28.035",NA,NA,869.2894,869.2896,869.2897,869.6386,NA,NA,NA,NA,NA,NA,NA,TRUE,1,0.4499,866.2937,869.2887,NA,NA,NA,NA,NA,50,30,0,107,107,61,1,2,108,"likert"
