"participant","session","assignmentId","projectId","date","practiceTrial.started","practiceTrial.stopped","tooLate.started","tooLate.stopped","blank.started","blank.stopped","trials_pract.thisRepN","trials_pract.thisTrialN","trials_pract.thisN","trials_pract.thisIndex","trials_pract.ran","delay_pract","amount_pract","responseMade","key","rt","trial.started","trial.stopped","trials.thisRepN","trials.thisTrialN","trials.thisN","trials.thisIndex","trials.ran","delay","amount","trials_2.thisRepN","trials_2.thisTrialN","trials_2.thisN","trials_2.thisIndex","trials_2.ran","block","trial","taskType"
"AAE6A7BF55A54CA29822014110DEFF70",1,"01990a98-117f-7cf3-a320-8acba61326a3","01990a84-c4ee-73c2-a87b-ff46a7d3dde5","2025-09-02_09h21.51.513",12.3826,15.3579,15.3584,15.6078,15.6079,15.7079,0,0,0,2,1,14,45,FALSE,NA,NA,NA,NA,NA,NA,NA,NA,NA,NA,NA,NA,NA,NA,NA,NA,0,1,"likert"
"AAE6A7BF55A54CA29822014110DEFF70",1,"01990a98-117f-7cf3-a320-8acba61326a3","01990a84-c4ee-73c2-a87b-ff46a7d3dde5","2025-09-02_09h21.51.513",15.7097,18.6982,18.6983,18.6983,18.6983,19.0486,0,1,1,4,1,30,40,TRUE,4,1.3782,NA,NA,NA,NA,NA,NA,NA,NA,NA,NA,NA,NA,NA,NA,0,2,"likert"
"AAE6A7BF55A54CA29822014110DEFF70",1,"01990a98-117f-7cf3-a320-8acba61326a3","01990a84-c4ee-73c2-a87b-ff46a7d3dde5","2025-09-02_09h21.51.513",19.0494,22.0662,22.0665,22.0666,22.0666,22.4099,0,2,2,0,1,7,30,TRUE,1,0.884,NA,NA,NA,NA,NA,NA,NA,NA,NA,NA,NA,NA,NA,NA,0,3,"likert"
"AAE6A7BF55A54CA29822014110DEFF70",1,"01990a98-117f-7cf3-a320-8acba61326a3","01990a84-c4ee-73c2-a87b-ff46a7d3dde5","2025-09-02_09h21.51.513",22.4108,25.395,25.3952,25.3953,25.3953,25.7448,0,3,3,3,1,3,27,TRUE,4,1.1702,NA,NA,NA,NA,NA,NA,NA,NA,NA,NA,NA,NA,NA,NA,0,4,"likert"
"AAE6A7BF55A54CA29822014110DEFF70",1,"01990a98-117f-7cf3-a320-8acba61326a3","01990a84-c4ee-73c2-a87b-ff46a7d3dde5","2025-09-02_09h21.51.513",25.7468,28.7457,28.7458,28.7458,28.7458,29.0961,0,4,4,1,1,100,50,TRUE,1,1.5341,NA,NA,NA,NA,NA,NA,NA,NA,NA,NA,NA,NA,NA,NA,0,5,"likert"
"AAE6A7BF55A54CA29822014110DEFF70",1,"01990a98-117f-7cf3-a320-8acba61326a3","01990a84-c4ee-73c2-a87b-ff46a7d3dde5","2025-09-02_09h21.51.513",NA,NA,64.8428,64.843,64.8431,65.193,NA,NA,NA,NA,NA,NA,NA,TRUE,1,1.1944,61.8617,64.8426,0,0,0,106,1,200,47,NA,NA,NA,NA,NA,1,1,"likert"
"AAE6A7BF55A54CA29822014110DEFF70",1,"01990a98-117f-7cf3-a320-8acba61326a3","01990a84-c4ee-73c2-a87b-ff46a7d3dde5","2025-09-02_09h21.51.513",NA,NA,68.1938,68.1939,68.1939,68.544,NA,NA,NA,NA,NA,NA,NA,TRUE,1,1.3603,65.1947,68.1937,0,1,1,23,1,14,39,NA,NA,NA,NA,NA,1,2,"likert"
"AAE6A7BF55A54CA29822014110DEFF70",1,"01990a98-117f-7cf3-a320-8acba61326a3","01990a84-c4ee-73c2-a87b-ff46a7d3dde5","2025-09-02_09h21.51.513",NA,NA,71.5454,71.5455,71.5455,71.8951,NA,NA,NA,NA,NA,NA,NA,TRUE,1,1.1673,68.5447,71.5452,0,2,2,27,1,21,30,NA,NA,NA,NA,NA,1,3,"likert"
"AAE6A7BF55A54CA29822014110DEFF70",1,"01990a98-117f-7cf3-a320-8acba61326a3","01990a84-c4ee-73c2-a87b-ff46a7d3dde5","2025-09-02_09h21.51.513",NA,NA,74.8799,74.88,74.88,75.2296,NA,NA,NA,NA,NA,NA,NA,TRUE,1,0.6596,71.8963,74.8798,0,3,3,105,1,200,39,NA,NA,NA,NA,NA,1,4,"likert"
"AAE6A7BF55A54CA29822014110DEFF70",1,"01990a98-117f-7cf3-a320-8acba61326a3","01990a84-c4ee-73c2-a87b-ff46a7d3dde5","2025-09-02_09h21.51.513",NA,NA,78.2309,78.231,78.231,78.5811,NA,NA,NA,NA,NA,NA,NA,TRUE,1,1.7079,75.2306,78.2308,0,4,4,15,1,12,31,NA,NA,NA,NA,NA,1,5,"likert"
"AAE6A7BF55A54CA29822014110DEFF70",1,"01990a98-117f-7cf3-a320-8acba61326a3","01990a84-c4ee-73c2-a87b-ff46a7d3dde5","2025-09-02_09h21.51.513",NA,NA,81.5858,81.5858,81.5858,81.9321,NA,NA,NA,NA,NA,NA,NA,TRUE,1,1.303,78.5821,81.5858,0,5,5,17,1,12,35,NA,NA,NA,NA,NA,1,6,"likert"
"AAE6A7BF55A54CA29822014110DEFF70",1,"01990a98-117f-7cf3-a320-8acba61326a3","01990a84-c4ee-73c2-a87b-ff46a7d3dde5","2025-09-02_09h21.51.513",NA,NA,84.9339,84.9339,84.9341,85.2837,NA,NA,NA,NA,NA,NA,NA,TRUE,1,0.8768,81.9329,84.9337,0,6,6,62,1,50,35,NA,NA,NA,NA,NA,1,7,"likert"
"AAE6A7BF55A54CA29822014110DEFF70",1,"01990a98-117f-7cf3-a320-8acba61326a3","01990a84-c4ee-73c2-a87b-ff46a7d3dde5","2025-09-02_09h21.51.513",NA,NA,88.2846,88.2846,88.2847,88.6346,NA,NA,NA,NA,NA,NA,NA,TRUE,1,0.7677,85.2852,88.2845,0,7,7,81,1,95,40,NA,NA,NA,NA,NA,1,8,"likert"
"AAE6A7BF55A54CA29822014110DEFF70",1,"01990a98-117f-7cf3-a320-8acba61326a3","01990a84-c4ee-73c2-a87b-ff46a7d3dde5","2025-09-02_09h21.51.513",NA,NA,91.6364,91.6366,91.6366,91.986,NA,NA,NA,NA,NA,NA,NA,TRUE,1,1.0839,88.6357,91.6361,0,8,8,24,1,21,26,NA,NA,NA,NA,NA,1,9,"likert"
"AAE6A7BF55A54CA29822014110DEFF70",1,"01990a98-117f-7cf3-a320-8acba61326a3","01990a84-c4ee-73c2-a87b-ff46a7d3dde5","2025-09-02_09h21.51.513",NA,NA,94.9876,94.9876,94.9877,95.3374,NA,NA,NA,NA,NA,NA,NA,TRUE,1,0.7581,91.9867,94.9873,0,9,9,67,1,60,33,NA,NA,NA,NA,NA,1,10,"likert"
"AAE6A7BF55A54CA29822014110DEFF70",1,"01990a98-117f-7cf3-a320-8acba61326a3","01990a84-c4ee-73c2-a87b-ff46a7d3dde5","2025-09-02_09h21.51.513",NA,NA,98.3385,98.3386,98.3386,98.6888,NA,NA,NA,NA,NA,NA,NA,TRUE,1,1.4565,95.3392,98.3383,0,10,10,22,1,14,35,NA,NA,NA,NA,NA,1,11,"likert"
"AAE6A7BF55A54CA29822014110DEFF70",1,"01990a98-117f-7cf3-a320-8acba61326a3","01990a84-c4ee-73c2-a87b-ff46a7d3dde5","2025-09-02_09h21.51.513",NA,NA,101.6898,101.6898,101.6898,102.0406,NA,NA,NA,NA,NA,NA,NA,TRUE,1,0.8761,98.6899,101.6897,0,11,11,21,1,14,32,NA,NA,NA,NA,NA,1,12,"likert"
"AAE6A7BF55A54CA29822014110DEFF70",1,"01990a98-117f-7cf3-a320-8acba61326a3","01990a84-c4ee-73c2-a87b-ff46a7d3dde5","2025-09-02_09h21.51.513",NA,NA,105.0409,105.041,105.041,105.3908,NA,NA,NA,NA,NA,NA,NA,TRUE,1,1.1997,102.0431,105.0408,0,12,12,6,1,10,25,NA,NA,NA,NA,NA,1,13,"likert"
"AAE6A7BF55A54CA29822014110DEFF70",1,"01990a98-117f-7cf3-a320-8acba61326a3","01990a84-c4ee-73c2-a87b-ff46a7d3dde5","2025-09-02_09h21.51.513",NA,NA,108.3924,108.3925,108.3925,108.7424,NA,NA,NA,NA,NA,NA,NA,TRUE,1,0.8911,105.3917,108.3922,0,13,13,46,1,30,32,NA,NA,NA,NA,NA,1,14,"likert"
"AAE6A7BF55A54CA29822014110DEFF70",1,"01990a98-117f-7cf3-a320-8acba61326a3","01990a84-c4ee-73c2-a87b-ff46a7d3dde5","2025-09-02_09h21.51.513",NA,NA,111.7437,111.7437,111.7437,112.0936,NA,NA,NA,NA,NA,NA,NA,TRUE,1,0.7341,108.7434,111.7435,0,14,14,100,1,180,46,NA,NA,NA,NA,NA,1,15,"likert"
"AAE6A7BF55A54CA29822014110DEFF70",1,"01990a98-117f-7cf3-a320-8acba61326a3","01990a84-c4ee-73c2-a87b-ff46a7d3dde5","2025-09-02_09h21.51.513",NA,NA,115.0946,115.0947,115.0947,115.4448,NA,NA,NA,NA,NA,NA,NA,TRUE,1,0.7725,112.095,115.0945,0,15,15,68,1,60,35,NA,NA,NA,NA,NA,1,16,"likert"
"AAE6A7BF55A54CA29822014110DEFF70",1,"01990a98-117f-7cf3-a320-8acba61326a3","01990a84-c4ee-73c2-a87b-ff46a7d3dde5","2025-09-02_09h21.51.513",NA,NA,118.4462,118.4462,118.4462,118.7958,NA,NA,NA,NA,NA,NA,NA,TRUE,1,0.8012,115.4457,118.446,0,16,16,82,1,95,47,NA,NA,NA,NA,NA,1,17,"likert"
"AAE6A7BF55A54CA29822014110DEFF70",1,"01990a98-117f-7cf3-a320-8acba61326a3","01990a84-c4ee-73c2-a87b-ff46a7d3dde5","2025-09-02_09h21.51.513",NA,NA,121.7807,121.7808,121.7808,122.1305,NA,NA,NA,NA,NA,NA,NA,TRUE,1,0.6896,118.7967,121.7806,0,17,17,93,1,150,40,NA,NA,NA,NA,NA,1,18,"likert"
"AAE6A7BF55A54CA29822014110DEFF70",1,"01990a98-117f-7cf3-a320-8acba61326a3","01990a84-c4ee-73c2-a87b-ff46a7d3dde5","2025-09-02_09h21.51.513",NA,NA,125.1317,125.1317,125.1317,125.4819,NA,NA,NA,NA,NA,NA,NA,TRUE,1,0.7173,122.1316,125.1316,0,18,18,45,1,30,30,NA,NA,NA,NA,NA,1,19,"likert"
"AAE6A7BF55A54CA29822014110DEFF70",1,"01990a98-117f-7cf3-a320-8acba61326a3","01990a84-c4ee-73c2-a87b-ff46a7d3dde5","2025-09-02_09h21.51.513",NA,NA,128.4834,128.4834,128.4835,128.833,NA,NA,NA,NA,NA,NA,NA,TRUE,1,0.6506,125.4829,128.4832,0,19,19,83,1,95,54,NA,NA,NA,NA,NA,1,20,"likert"
"AAE6A7BF55A54CA29822014110DEFF70",1,"01990a98-117f-7cf3-a320-8acba61326a3","01990a84-c4ee-73c2-a87b-ff46a7d3dde5","2025-09-02_09h21.51.513",NA,NA,131.8348,131.8349,131.8349,132.1842,NA,NA,NA,NA,NA,NA,NA,TRUE,1,1.5016,128.8339,131.8345,0,20,20,53,1,40,54,NA,NA,NA,NA,NA,1,21,"likert"
"AAE6A7BF55A54CA29822014110DEFF70",1,"01990a98-117f-7cf3-a320-8acba61326a3","01990a84-c4ee-73c2-a87b-ff46a7d3dde5","2025-09-02_09h21.51.513",NA,NA,135.1855,135.1856,135.1857,135.5355,NA,NA,NA,NA,NA,NA,NA,TRUE,1,0.9503,132.185,135.1854,0,21,21,0,1,7,25,NA,NA,NA,NA,NA,1,22,"likert"
"AAE6A7BF55A54CA29822014110DEFF70",1,"01990a98-117f-7cf3-a320-8acba61326a3","01990a84-c4ee-73c2-a87b-ff46a7d3dde5","2025-09-02_09h21.51.513",NA,NA,138.5369,138.5369,138.537,138.8867,NA,NA,NA,NA,NA,NA,NA,TRUE,1,1.4173,135.5369,138.5367,0,22,22,39,1,28,35,NA,NA,NA,NA,NA,1,23,"likert"
"AAE6A7BF55A54CA29822014110DEFF70",1,"01990a98-117f-7cf3-a320-8acba61326a3","01990a84-c4ee-73c2-a87b-ff46a7d3dde5","2025-09-02_09h21.51.513",NA,NA,141.8884,141.8884,141.8884,142.2394,NA,NA,NA,NA,NA,NA,NA,TRUE,1,0.9184,138.8874,141.8882,0,23,23,11,1,10,32,NA,NA,NA,NA,NA,1,24,"likert"
"AAE6A7BF55A54CA29822014110DEFF70",1,"01990a98-117f-7cf3-a320-8acba61326a3","01990a84-c4ee-73c2-a87b-ff46a7d3dde5","2025-09-02_09h21.51.513",NA,NA,145.2393,145.2393,145.2393,145.5894,NA,NA,NA,NA,NA,NA,NA,TRUE,1,0.9507,142.2404,145.2392,0,24,24,103,1,200,28,NA,NA,NA,NA,NA,1,25,"likert"
"AAE6A7BF55A54CA29822014110DEFF70",1,"01990a98-117f-7cf3-a320-8acba61326a3","01990a84-c4ee-73c2-a87b-ff46a7d3dde5","2025-09-02_09h21.51.513",NA,NA,148.5905,148.5906,148.5906,148.9404,NA,NA,NA,NA,NA,NA,NA,TRUE,1,1.0674,145.5902,148.5905,0,25,25,52,1,40,47,NA,NA,NA,NA,NA,1,26,"likert"
"AAE6A7BF55A54CA29822014110DEFF70",1,"01990a98-117f-7cf3-a320-8acba61326a3","01990a84-c4ee-73c2-a87b-ff46a7d3dde5","2025-09-02_09h21.51.513",NA,NA,151.9416,151.9416,151.9417,152.281,NA,NA,NA,NA,NA,NA,NA,TRUE,1,0.9568,148.9412,151.9415,0,26,26,16,1,12,33,NA,NA,NA,NA,NA,1,27,"likert"
"AAE6A7BF55A54CA29822014110DEFF70",1,"01990a98-117f-7cf3-a320-8acba61326a3","01990a84-c4ee-73c2-a87b-ff46a7d3dde5","2025-09-02_09h21.51.513",NA,NA,155.2929,155.2929,155.2929,155.6431,NA,NA,NA,NA,NA,NA,NA,TRUE,1,0.7576,152.2818,155.2928,0,27,27,19,1,14,26,NA,NA,NA,NA,NA,1,28,"likert"
"AAE6A7BF55A54CA29822014110DEFF70",1,"01990a98-117f-7cf3-a320-8acba61326a3","01990a84-c4ee-73c2-a87b-ff46a7d3dde5","2025-09-02_09h21.51.513",NA,NA,158.6443,158.6444,158.6444,158.9941,NA,NA,NA,NA,NA,NA,NA,TRUE,1,0.6358,155.6442,158.6442,0,28,28,48,1,40,27,NA,NA,NA,NA,NA,1,29,"likert"
"AAE6A7BF55A54CA29822014110DEFF70",1,"01990a98-117f-7cf3-a320-8acba61326a3","01990a84-c4ee-73c2-a87b-ff46a7d3dde5","2025-09-02_09h21.51.513",NA,NA,161.9958,161.9958,161.9959,162.3348,NA,NA,NA,NA,NA,NA,NA,TRUE,1,0.7173,158.9949,161.9956,0,29,29,71,1,60,54,NA,NA,NA,NA,NA,1,30,"likert"
"AAE6A7BF55A54CA29822014110DEFF70",1,"01990a98-117f-7cf3-a320-8acba61326a3","01990a84-c4ee-73c2-a87b-ff46a7d3dde5","2025-09-02_09h21.51.513",NA,NA,165.3303,165.3303,165.3303,165.68,NA,NA,NA,NA,NA,NA,NA,TRUE,1,0.7356,162.3357,165.3301,0,30,30,79,1,95,33,NA,NA,NA,NA,NA,1,31,"likert"
"AAE6A7BF55A54CA29822014110DEFF70",1,"01990a98-117f-7cf3-a320-8acba61326a3","01990a84-c4ee-73c2-a87b-ff46a7d3dde5","2025-09-02_09h21.51.513",NA,NA,168.6817,168.6817,168.6817,169.0323,NA,NA,NA,NA,NA,NA,NA,TRUE,1,0.6006,165.6809,168.6815,0,31,31,49,1,40,33,NA,NA,NA,NA,NA,1,32,"likert"
"AAE6A7BF55A54CA29822014110DEFF70",1,"01990a98-117f-7cf3-a320-8acba61326a3","01990a84-c4ee-73c2-a87b-ff46a7d3dde5","2025-09-02_09h21.51.513",NA,NA,172.0326,172.0326,172.0326,172.3889,NA,NA,NA,NA,NA,NA,NA,TRUE,1,1.0357,169.0346,172.0326,0,32,32,34,1,25,35,NA,NA,NA,NA,NA,1,33,"likert"
"AAE6A7BF55A54CA29822014110DEFF70",1,"01990a98-117f-7cf3-a320-8acba61326a3","01990a84-c4ee-73c2-a87b-ff46a7d3dde5","2025-09-02_09h21.51.513",NA,NA,175.3839,175.384,175.384,175.7339,NA,NA,NA,NA,NA,NA,NA,TRUE,1,0.7506,172.3899,175.3837,0,33,33,30,1,25,27,NA,NA,NA,NA,NA,1,34,"likert"
"AAE6A7BF55A54CA29822014110DEFF70",1,"01990a98-117f-7cf3-a320-8acba61326a3","01990a84-c4ee-73c2-a87b-ff46a7d3dde5","2025-09-02_09h21.51.513",NA,NA,178.7353,178.7353,178.7353,179.0849,NA,NA,NA,NA,NA,NA,NA,TRUE,1,1.0175,175.7346,178.7351,0,34,34,25,1,21,27,NA,NA,NA,NA,NA,1,35,"likert"
"AAE6A7BF55A54CA29822014110DEFF70",1,"01990a98-117f-7cf3-a320-8acba61326a3","01990a84-c4ee-73c2-a87b-ff46a7d3dde5","2025-09-02_09h21.51.513",NA,NA,182.0863,182.0863,182.0863,182.4362,NA,NA,NA,NA,NA,NA,NA,TRUE,1,1.0898,179.086,182.0861,0,35,35,20,1,14,28,NA,NA,NA,NA,NA,1,36,"likert"
"AAE6A7BF55A54CA29822014110DEFF70",1,"01990a98-117f-7cf3-a320-8acba61326a3","01990a84-c4ee-73c2-a87b-ff46a7d3dde5","2025-09-02_09h21.51.513",NA,NA,185.4376,185.4376,185.4376,185.7878,NA,NA,NA,NA,NA,NA,NA,TRUE,1,1.0943,182.4373,185.4375,0,36,36,47,1,30,38,NA,NA,NA,NA,NA,1,37,"likert"
"AAE6A7BF55A54CA29822014110DEFF70",1,"01990a98-117f-7cf3-a320-8acba61326a3","01990a84-c4ee-73c2-a87b-ff46a7d3dde5","2025-09-02_09h21.51.513",NA,NA,188.7891,188.7891,188.7891,189.1391,NA,NA,NA,NA,NA,NA,NA,TRUE,1,1.0838,185.7888,188.7889,0,37,37,50,1,40,35,NA,NA,NA,NA,NA,1,38,"likert"
"AAE6A7BF55A54CA29822014110DEFF70",1,"01990a98-117f-7cf3-a320-8acba61326a3","01990a84-c4ee-73c2-a87b-ff46a7d3dde5","2025-09-02_09h21.51.513",NA,NA,192.1434,192.1435,192.1435,192.4903,NA,NA,NA,NA,NA,NA,NA,TRUE,1,1.3051,189.1406,192.1434,0,38,38,29,1,21,38,NA,NA,NA,NA,NA,1,39,"likert"
"AAE6A7BF55A54CA29822014110DEFF70",1,"01990a98-117f-7cf3-a320-8acba61326a3","01990a84-c4ee-73c2-a87b-ff46a7d3dde5","2025-09-02_09h21.51.513",NA,NA,195.4914,195.4914,195.4914,195.8412,NA,NA,NA,NA,NA,NA,NA,TRUE,1,0.8574,192.4912,195.4912,0,39,39,51,1,40,40,NA,NA,NA,NA,NA,1,40,"likert"
"AAE6A7BF55A54CA29822014110DEFF70",1,"01990a98-117f-7cf3-a320-8acba61326a3","01990a84-c4ee-73c2-a87b-ff46a7d3dde5","2025-09-02_09h21.51.513",NA,NA,198.8428,198.8428,198.8428,199.1925,NA,NA,NA,NA,NA,NA,NA,TRUE,1,0.7199,195.842,198.8426,0,40,40,8,1,10,27,NA,NA,NA,NA,NA,1,41,"likert"
"AAE6A7BF55A54CA29822014110DEFF70",1,"01990a98-117f-7cf3-a320-8acba61326a3","01990a84-c4ee-73c2-a87b-ff46a7d3dde5","2025-09-02_09h21.51.513",NA,NA,202.1937,202.1938,202.1938,202.5333,NA,NA,NA,NA,NA,NA,NA,TRUE,1,0.7268,199.1933,202.1936,0,41,41,84,1,100,26,NA,NA,NA,NA,NA,1,42,"likert"
"AAE6A7BF55A54CA29822014110DEFF70",1,"01990a98-117f-7cf3-a320-8acba61326a3","01990a84-c4ee-73c2-a87b-ff46a7d3dde5","2025-09-02_09h21.51.513",NA,NA,205.5453,205.5454,205.5454,205.8951,NA,NA,NA,NA,NA,NA,NA,TRUE,1,0.6175,202.5341,205.5451,0,42,42,70,1,60,47,NA,NA,NA,NA,NA,1,43,"likert"
"AAE6A7BF55A54CA29822014110DEFF70",1,"01990a98-117f-7cf3-a320-8acba61326a3","01990a84-c4ee-73c2-a87b-ff46a7d3dde5","2025-09-02_09h21.51.513",NA,NA,208.8799,208.8799,208.8799,209.2296,NA,NA,NA,NA,NA,NA,NA,TRUE,1,0.6173,205.8958,208.8797,0,43,43,99,1,180,39,NA,NA,NA,NA,NA,1,44,"likert"
"AAE6A7BF55A54CA29822014110DEFF70",1,"01990a98-117f-7cf3-a320-8acba61326a3","01990a84-c4ee-73c2-a87b-ff46a7d3dde5","2025-09-02_09h21.51.513",NA,NA,212.2308,212.2308,212.2308,212.5811,NA,NA,NA,NA,NA,NA,NA,TRUE,1,0.7848,209.2317,212.2307,0,44,44,12,1,12,25,NA,NA,NA,NA,NA,1,45,"likert"
"AAE6A7BF55A54CA29822014110DEFF70",1,"01990a98-117f-7cf3-a320-8acba61326a3","01990a84-c4ee-73c2-a87b-ff46a7d3dde5","2025-09-02_09h21.51.513",NA,NA,215.5822,215.5823,215.5824,215.9324,NA,NA,NA,NA,NA,NA,NA,TRUE,1,0.6911,212.5825,215.5821,0,45,45,33,1,25,33,NA,NA,NA,NA,NA,1,46,"likert"
"AAE6A7BF55A54CA29822014110DEFF70",1,"01990a98-117f-7cf3-a320-8acba61326a3","01990a84-c4ee-73c2-a87b-ff46a7d3dde5","2025-09-02_09h21.51.513",NA,NA,218.9336,218.9336,218.9336,219.2833,NA,NA,NA,NA,NA,NA,NA,TRUE,1,0.9171,215.9331,218.9334,0,46,46,13,1,12,26,NA,NA,NA,NA,NA,1,47,"likert"
"AAE6A7BF55A54CA29822014110DEFF70",1,"01990a98-117f-7cf3-a320-8acba61326a3","01990a84-c4ee-73c2-a87b-ff46a7d3dde5","2025-09-02_09h21.51.513",NA,NA,222.2848,222.2849,222.2849,222.6348,NA,NA,NA,NA,NA,NA,NA,TRUE,1,1.7921,219.2846,222.2847,0,47,47,92,1,150,35,NA,NA,NA,NA,NA,1,48,"likert"
"AAE6A7BF55A54CA29822014110DEFF70",1,"01990a98-117f-7cf3-a320-8acba61326a3","01990a84-c4ee-73c2-a87b-ff46a7d3dde5","2025-09-02_09h21.51.513",NA,NA,225.6362,225.6362,225.6362,225.9859,NA,NA,NA,NA,NA,NA,NA,TRUE,1,0.8506,222.6356,225.6361,0,48,48,56,1,45,31,NA,NA,NA,NA,NA,1,49,"likert"
"AAE6A7BF55A54CA29822014110DEFF70",1,"01990a98-117f-7cf3-a320-8acba61326a3","01990a84-c4ee-73c2-a87b-ff46a7d3dde5","2025-09-02_09h21.51.513",NA,NA,228.9874,228.9874,228.9874,229.3371,NA,NA,NA,NA,NA,NA,NA,TRUE,1,0.51,225.9869,228.9872,0,49,49,32,1,25,31,NA,NA,NA,NA,NA,1,50,"likert"
"AAE6A7BF55A54CA29822014110DEFF70",1,"01990a98-117f-7cf3-a320-8acba61326a3","01990a84-c4ee-73c2-a87b-ff46a7d3dde5","2025-09-02_09h21.51.513",NA,NA,232.3383,232.3383,232.3383,232.6886,NA,NA,NA,NA,NA,NA,NA,TRUE,1,0.7338,229.3379,232.3382,0,50,50,97,1,180,31,NA,NA,NA,NA,NA,1,51,"likert"
"AAE6A7BF55A54CA29822014110DEFF70",1,"01990a98-117f-7cf3-a320-8acba61326a3","01990a84-c4ee-73c2-a87b-ff46a7d3dde5","2025-09-02_09h21.51.513",NA,NA,235.69,235.69,235.69,236.0401,NA,NA,NA,NA,NA,NA,NA,TRUE,1,0.7876,232.6896,235.6898,0,51,51,55,1,45,29,NA,NA,NA,NA,NA,1,52,"likert"
"AAE6A7BF55A54CA29822014110DEFF70",1,"01990a98-117f-7cf3-a320-8acba61326a3","01990a84-c4ee-73c2-a87b-ff46a7d3dde5","2025-09-02_09h21.51.513",NA,NA,239.041,239.0411,239.0411,239.3907,NA,NA,NA,NA,NA,NA,NA,TRUE,1,0.6835,236.0426,239.0408,0,52,52,31,1,25,29,NA,NA,NA,NA,NA,1,53,"likert"
"AAE6A7BF55A54CA29822014110DEFF70",1,"01990a98-117f-7cf3-a320-8acba61326a3","01990a84-c4ee-73c2-a87b-ff46a7d3dde5","2025-09-02_09h21.51.513",NA,NA,242.3805,242.3805,242.3805,242.742,NA,NA,NA,NA,NA,NA,NA,TRUE,1,0.934,239.3917,242.3804,0,53,53,3,1,7,30,NA,NA,NA,NA,NA,1,54,"likert"
"AAE6A7BF55A54CA29822014110DEFF70",1,"01990a98-117f-7cf3-a320-8acba61326a3","01990a84-c4ee-73c2-a87b-ff46a7d3dde5","2025-09-02_09h21.51.513",NA,NA,245.7434,245.7434,245.7434,246.0936,NA,NA,NA,NA,NA,NA,NA,TRUE,1,0.8176,242.7428,245.7432,0,54,54,73,1,90,30,NA,NA,NA,NA,NA,1,55,"likert"
"AAE6A7BF55A54CA29822014110DEFF70",1,"01990a98-117f-7cf3-a320-8acba61326a3","01990a84-c4ee-73c2-a87b-ff46a7d3dde5","2025-09-02_09h21.51.513",NA,NA,249.0946,249.0946,249.0946,249.4447,NA,NA,NA,NA,NA,NA,NA,TRUE,1,0.6508,246.0947,249.0945,0,55,55,54,1,45,26,NA,NA,NA,NA,NA,1,56,"likert"
"AAE6A7BF55A54CA29822014110DEFF70",1,"01990a98-117f-7cf3-a320-8acba61326a3","01990a84-c4ee-73c2-a87b-ff46a7d3dde5","2025-09-02_09h21.51.513",NA,NA,252.446,252.4461,252.4461,252.7958,NA,NA,NA,NA,NA,NA,NA,TRUE,1,0.6842,249.4454,252.4458,0,56,56,37,1,28,28,NA,NA,NA,NA,NA,1,57,"likert"
"AAE6A7BF55A54CA29822014110DEFF70",1,"01990a98-117f-7cf3-a320-8acba61326a3","01990a84-c4ee-73c2-a87b-ff46a7d3dde5","2025-09-02_09h21.51.513",NA,NA,255.7807,255.7808,255.7808,256.1304,NA,NA,NA,NA,NA,NA,NA,TRUE,1,0.5432,252.7965,255.7806,0,57,57,90,1,150,31,NA,NA,NA,NA,NA,1,58,"likert"
"AAE6A7BF55A54CA29822014110DEFF70",1,"01990a98-117f-7cf3-a320-8acba61326a3","01990a84-c4ee-73c2-a87b-ff46a7d3dde5","2025-09-02_09h21.51.513",NA,NA,259.132,259.132,259.132,259.4819,NA,NA,NA,NA,NA,NA,NA,TRUE,1,0.7054,256.1326,259.1318,0,58,58,57,1,45,35,NA,NA,NA,NA,NA,1,59,"likert"
"AAE6A7BF55A54CA29822014110DEFF70",1,"01990a98-117f-7cf3-a320-8acba61326a3","01990a84-c4ee-73c2-a87b-ff46a7d3dde5","2025-09-02_09h21.51.513",NA,NA,262.4829,262.4829,262.4829,262.8331,NA,NA,NA,NA,NA,NA,NA,TRUE,1,0.9201,259.4831,262.4828,0,59,59,65,1,50,54,NA,NA,NA,NA,NA,1,60,"likert"
"AAE6A7BF55A54CA29822014110DEFF70",1,"01990a98-117f-7cf3-a320-8acba61326a3","01990a84-c4ee-73c2-a87b-ff46a7d3dde5","2025-09-02_09h21.51.513",NA,NA,265.8345,265.8345,265.8345,266.1842,NA,NA,NA,NA,NA,NA,NA,TRUE,1,1.5688,262.8342,265.8343,0,60,60,43,1,30,27,NA,NA,NA,NA,NA,1,61,"likert"
"AAE6A7BF55A54CA29822014110DEFF70",1,"01990a98-117f-7cf3-a320-8acba61326a3","01990a84-c4ee-73c2-a87b-ff46a7d3dde5","2025-09-02_09h21.51.513",NA,NA,269.1854,269.1854,269.1854,269.5356,NA,NA,NA,NA,NA,NA,NA,TRUE,1,0.9966,266.185,269.1852,0,61,61,77,1,90,54,NA,NA,NA,NA,NA,1,62,"likert"
"AAE6A7BF55A54CA29822014110DEFF70",1,"01990a98-117f-7cf3-a320-8acba61326a3","01990a84-c4ee-73c2-a87b-ff46a7d3dde5","2025-09-02_09h21.51.513",NA,NA,272.5368,272.5368,272.5368,272.8867,NA,NA,NA,NA,NA,NA,NA,TRUE,1,1.8223,269.5368,272.5367,0,62,62,78,1,95,31,NA,NA,NA,NA,NA,1,63,"likert"
"AAE6A7BF55A54CA29822014110DEFF70",1,"01990a98-117f-7cf3-a320-8acba61326a3","01990a84-c4ee-73c2-a87b-ff46a7d3dde5","2025-09-02_09h21.51.513",NA,NA,275.8881,275.8882,275.8882,276.238,NA,NA,NA,NA,NA,NA,NA,TRUE,1,0.7173,272.8874,275.888,0,63,63,88,1,100,46,NA,NA,NA,NA,NA,1,64,"likert"
"AAE6A7BF55A54CA29822014110DEFF70",1,"01990a98-117f-7cf3-a320-8acba61326a3","01990a84-c4ee-73c2-a87b-ff46a7d3dde5","2025-09-02_09h21.51.513",NA,NA,279.2391,279.2391,279.2391,279.5892,NA,NA,NA,NA,NA,NA,NA,TRUE,1,2.0187,276.239,279.239,0,64,64,58,1,45,40,NA,NA,NA,NA,NA,1,65,"likert"
"AAE6A7BF55A54CA29822014110DEFF70",1,"01990a98-117f-7cf3-a320-8acba61326a3","01990a84-c4ee-73c2-a87b-ff46a7d3dde5","2025-09-02_09h21.51.513",NA,NA,282.5906,282.5907,282.5907,282.9404,NA,NA,NA,NA,NA,NA,NA,TRUE,1,1.4535,279.59,282.5905,0,65,65,64,1,50,46,NA,NA,NA,NA,NA,1,66,"likert"
"AAE6A7BF55A54CA29822014110DEFF70",1,"01990a98-117f-7cf3-a320-8acba61326a3","01990a84-c4ee-73c2-a87b-ff46a7d3dde5","2025-09-02_09h21.51.513",NA,NA,285.9417,285.9417,285.9417,286.2917,NA,NA,NA,NA,NA,NA,NA,TRUE,1,0.7172,282.9411,285.9416,0,66,66,35,1,25,46,NA,NA,NA,NA,NA,1,67,"likert"
"AAE6A7BF55A54CA29822014110DEFF70",1,"01990a98-117f-7cf3-a320-8acba61326a3","01990a84-c4ee-73c2-a87b-ff46a7d3dde5","2025-09-02_09h21.51.513",NA,NA,289.2929,289.293,289.293,289.6435,NA,NA,NA,NA,NA,NA,NA,TRUE,1,0.9503,286.293,289.2929,0,67,67,95,1,150,54,NA,NA,NA,NA,NA,1,68,"likert"
"AAE6A7BF55A54CA29822014110DEFF70",1,"01990a98-117f-7cf3-a320-8acba61326a3","01990a84-c4ee-73c2-a87b-ff46a7d3dde5","2025-09-02_09h21.51.513",NA,NA,292.6339,292.634,292.6341,292.9941,NA,NA,NA,NA,NA,NA,NA,TRUE,1,0.8105,289.6444,292.6338,0,68,68,91,1,150,33,NA,NA,NA,NA,NA,1,69,"likert"
"AAE6A7BF55A54CA29822014110DEFF70",1,"01990a98-117f-7cf3-a320-8acba61326a3","01990a84-c4ee-73c2-a87b-ff46a7d3dde5","2025-09-02_09h21.51.513",NA,NA,295.9954,295.9954,295.9954,296.3456,NA,NA,NA,NA,NA,NA,NA,TRUE,1,1.1419,292.9957,295.9953,0,69,69,18,1,14,25,NA,NA,NA,NA,NA,1,70,"likert"
"AAE6A7BF55A54CA29822014110DEFF70",1,"01990a98-117f-7cf3-a320-8acba61326a3","01990a84-c4ee-73c2-a87b-ff46a7d3dde5","2025-09-02_09h21.51.513",NA,NA,299.33,299.33,299.33,299.68,NA,NA,NA,NA,NA,NA,NA,TRUE,1,0.5337,296.3468,299.3299,0,70,70,28,1,21,32,NA,NA,NA,NA,NA,1,71,"likert"
"AAE6A7BF55A54CA29822014110DEFF70",1,"01990a98-117f-7cf3-a320-8acba61326a3","01990a84-c4ee-73c2-a87b-ff46a7d3dde5","2025-09-02_09h21.51.513",NA,NA,302.6876,302.6876,302.6877,303.0384,NA,NA,NA,NA,NA,NA,NA,TRUE,1,0.7565,299.6807,302.6874,0,71,71,74,1,90,33,NA,NA,NA,NA,NA,1,72,"likert"
"AAE6A7BF55A54CA29822014110DEFF70",1,"01990a98-117f-7cf3-a320-8acba61326a3","01990a84-c4ee-73c2-a87b-ff46a7d3dde5","2025-09-02_09h21.51.513",NA,NA,306.0327,306.0328,306.0328,306.3828,NA,NA,NA,NA,NA,NA,NA,TRUE,1,1.0147,303.0405,306.0326,0,72,72,36,1,28,26,NA,NA,NA,NA,NA,1,73,"likert"
"AAE6A7BF55A54CA29822014110DEFF70",1,"01990a98-117f-7cf3-a320-8acba61326a3","01990a84-c4ee-73c2-a87b-ff46a7d3dde5","2025-09-02_09h21.51.513",NA,NA,309.3838,309.3839,309.3839,309.7337,NA,NA,NA,NA,NA,NA,NA,TRUE,1,1.6371,306.3841,309.3837,0,73,73,5,1,7,35,NA,NA,NA,NA,NA,1,74,"likert"
"AAE6A7BF55A54CA29822014110DEFF70",1,"01990a98-117f-7cf3-a320-8acba61326a3","01990a84-c4ee-73c2-a87b-ff46a7d3dde5","2025-09-02_09h21.51.513",NA,NA,312.7354,312.7354,312.7354,313.0852,NA,NA,NA,NA,NA,NA,NA,TRUE,1,0.7106,309.7345,312.7352,0,74,74,80,1,95,35,NA,NA,NA,NA,NA,1,75,"likert"
"AAE6A7BF55A54CA29822014110DEFF70",1,"01990a98-117f-7cf3-a320-8acba61326a3","01990a84-c4ee-73c2-a87b-ff46a7d3dde5","2025-09-02_09h21.51.513",NA,NA,316.0863,316.0864,316.0864,316.4364,NA,NA,NA,NA,NA,NA,NA,TRUE,1,0.4598,313.0863,316.0861,0,75,75,89,1,100,54,NA,NA,NA,NA,NA,1,76,"likert"
"AAE6A7BF55A54CA29822014110DEFF70",1,"01990a98-117f-7cf3-a320-8acba61326a3","01990a84-c4ee-73c2-a87b-ff46a7d3dde5","2025-09-02_09h21.51.513",NA,NA,319.4376,319.4377,319.4377,319.7875,NA,NA,NA,NA,NA,NA,NA,TRUE,1,0.5505,316.4377,319.4375,0,76,76,10,1,10,30,NA,NA,NA,NA,NA,1,77,"likert"
"AAE6A7BF55A54CA29822014110DEFF70",1,"01990a98-117f-7cf3-a320-8acba61326a3","01990a84-c4ee-73c2-a87b-ff46a7d3dde5","2025-09-02_09h21.51.513",NA,NA,322.789,322.7891,322.7891,323.1386,NA,NA,NA,NA,NA,NA,NA,TRUE,1,0.517,319.7883,322.7888,0,77,77,61,1,50,30,NA,NA,NA,NA,NA,1,78,"likert"
"AAE6A7BF55A54CA29822014110DEFF70",1,"01990a98-117f-7cf3-a320-8acba61326a3","01990a84-c4ee-73c2-a87b-ff46a7d3dde5","2025-09-02_09h21.51.513",NA,NA,326.1401,326.1401,326.1401,326.49,NA,NA,NA,NA,NA,NA,NA,TRUE,1,0.6846,323.1399,326.1398,0,78,78,38,1,28,32,NA,NA,NA,NA,NA,1,79,"likert"
"AAE6A7BF55A54CA29822014110DEFF70",1,"01990a98-117f-7cf3-a320-8acba61326a3","01990a84-c4ee-73c2-a87b-ff46a7d3dde5","2025-09-02_09h21.51.513",NA,NA,329.4913,329.4914,329.4914,329.8414,NA,NA,NA,NA,NA,NA,NA,TRUE,1,1.0104,326.4907,329.4912,0,79,79,2,1,7,28,NA,NA,NA,NA,NA,1,80,"likert"
"AAE6A7BF55A54CA29822014110DEFF70",1,"01990a98-117f-7cf3-a320-8acba61326a3","01990a84-c4ee-73c2-a87b-ff46a7d3dde5","2025-09-02_09h21.51.513",NA,NA,332.8427,332.8428,332.8428,333.1928,NA,NA,NA,NA,NA,NA,NA,TRUE,1,0.5837,329.8422,332.8426,0,80,80,102,1,200,26,NA,NA,NA,NA,NA,1,81,"likert"
"AAE6A7BF55A54CA29822014110DEFF70",1,"01990a98-117f-7cf3-a320-8acba61326a3","01990a84-c4ee-73c2-a87b-ff46a7d3dde5","2025-09-02_09h21.51.513",NA,NA,336.1937,336.1937,336.1937,336.544,NA,NA,NA,NA,NA,NA,NA,TRUE,1,0.668,333.1942,336.1936,0,81,81,14,1,12,28,NA,NA,NA,NA,NA,1,82,"likert"
"AAE6A7BF55A54CA29822014110DEFF70",1,"01990a98-117f-7cf3-a320-8acba61326a3","01990a84-c4ee-73c2-a87b-ff46a7d3dde5","2025-09-02_09h21.51.513",NA,NA,339.5321,339.5322,339.5322,339.8949,NA,NA,NA,NA,NA,NA,NA,TRUE,1,1.2517,336.5449,339.532,0,82,82,44,1,30,29,NA,NA,NA,NA,NA,1,83,"likert"
"AAE6A7BF55A54CA29822014110DEFF70",1,"01990a98-117f-7cf3-a320-8acba61326a3","01990a84-c4ee-73c2-a87b-ff46a7d3dde5","2025-09-02_09h21.51.513",NA,NA,342.8796,342.8796,342.8796,343.2296,NA,NA,NA,NA,NA,NA,NA,TRUE,1,0.734,339.896,342.8795,0,83,83,75,1,90,40,NA,NA,NA,NA,NA,1,84,"likert"
"AAE6A7BF55A54CA29822014110DEFF70",1,"01990a98-117f-7cf3-a320-8acba61326a3","01990a84-c4ee-73c2-a87b-ff46a7d3dde5","2025-09-02_09h21.51.513",NA,NA,346.2308,346.2308,346.2308,346.5808,NA,NA,NA,NA,NA,NA,NA,TRUE,1,1.7078,343.2303,346.2307,0,84,84,101,1,180,54,NA,NA,NA,NA,NA,1,85,"likert"
"AAE6A7BF55A54CA29822014110DEFF70",1,"01990a98-117f-7cf3-a320-8acba61326a3","01990a84-c4ee-73c2-a87b-ff46a7d3dde5","2025-09-02_09h21.51.513",NA,NA,349.5823,349.5823,349.5823,349.932,NA,NA,NA,NA,NA,NA,NA,TRUE,1,0.5877,346.5815,349.5822,0,85,85,85,1,100,31,NA,NA,NA,NA,NA,1,86,"likert"
"AAE6A7BF55A54CA29822014110DEFF70",1,"01990a98-117f-7cf3-a320-8acba61326a3","01990a84-c4ee-73c2-a87b-ff46a7d3dde5","2025-09-02_09h21.51.513",NA,NA,352.9334,352.9334,352.9334,353.2835,NA,NA,NA,NA,NA,NA,NA,TRUE,1,0.9341,349.9329,352.9332,0,86,86,7,1,10,26,NA,NA,NA,NA,NA,1,87,"likert"
"AAE6A7BF55A54CA29822014110DEFF70",1,"01990a98-117f-7cf3-a320-8acba61326a3","01990a84-c4ee-73c2-a87b-ff46a7d3dde5","2025-09-02_09h21.51.513",NA,NA,356.2847,356.2847,356.2848,356.6346,NA,NA,NA,NA,NA,NA,NA,TRUE,1,0.8283,353.2846,356.2846,0,87,87,69,1,60,40,NA,NA,NA,NA,NA,1,88,"likert"
"AAE6A7BF55A54CA29822014110DEFF70",1,"01990a98-117f-7cf3-a320-8acba61326a3","01990a84-c4ee-73c2-a87b-ff46a7d3dde5","2025-09-02_09h21.51.513",NA,NA,359.636,359.636,359.636,359.9857,NA,NA,NA,NA,NA,NA,NA,TRUE,1,0.7246,356.6355,359.6359,0,88,88,72,1,90,26,NA,NA,NA,NA,NA,1,89,"likert"
"AAE6A7BF55A54CA29822014110DEFF70",1,"01990a98-117f-7cf3-a320-8acba61326a3","01990a84-c4ee-73c2-a87b-ff46a7d3dde5","2025-09-02_09h21.51.513",NA,NA,362.9872,362.9872,362.9872,363.3371,NA,NA,NA,NA,NA,NA,NA,TRUE,1,0.6055,359.9865,362.987,0,89,89,76,1,90,46,NA,NA,NA,NA,NA,1,90,"likert"
"AAE6A7BF55A54CA29822014110DEFF70",1,"01990a98-117f-7cf3-a320-8acba61326a3","01990a84-c4ee-73c2-a87b-ff46a7d3dde5","2025-09-02_09h21.51.513",NA,NA,366.3383,366.3383,366.3383,366.6885,NA,NA,NA,NA,NA,NA,NA,TRUE,1,0.5026,363.3384,366.3381,0,90,90,60,1,50,27,NA,NA,NA,NA,NA,1,91,"likert"
"AAE6A7BF55A54CA29822014110DEFF70",1,"01990a98-117f-7cf3-a320-8acba61326a3","01990a84-c4ee-73c2-a87b-ff46a7d3dde5","2025-09-02_09h21.51.513",NA,NA,369.6896,369.6896,369.6897,370.0395,NA,NA,NA,NA,NA,NA,NA,TRUE,1,0.6752,366.6893,369.6895,0,91,91,59,1,45,46,NA,NA,NA,NA,NA,1,92,"likert"
"AAE6A7BF55A54CA29822014110DEFF70",1,"01990a98-117f-7cf3-a320-8acba61326a3","01990a84-c4ee-73c2-a87b-ff46a7d3dde5","2025-09-02_09h21.51.513",NA,NA,373.0412,373.0412,373.0412,373.3908,NA,NA,NA,NA,NA,NA,NA,TRUE,1,0.6053,370.0404,373.0411,0,92,92,104,1,200,35,NA,NA,NA,NA,NA,1,93,"likert"
"AAE6A7BF55A54CA29822014110DEFF70",1,"01990a98-117f-7cf3-a320-8acba61326a3","01990a84-c4ee-73c2-a87b-ff46a7d3dde5","2025-09-02_09h21.51.513",NA,NA,376.392,376.3921,376.3921,376.7422,NA,NA,NA,NA,NA,NA,NA,TRUE,1,0.6228,373.3919,376.392,0,93,93,41,1,28,46,NA,NA,NA,NA,NA,1,94,"likert"
"AAE6A7BF55A54CA29822014110DEFF70",1,"01990a98-117f-7cf3-a320-8acba61326a3","01990a84-c4ee-73c2-a87b-ff46a7d3dde5","2025-09-02_09h21.51.513",NA,NA,379.7437,379.7438,379.7438,380.0933,NA,NA,NA,NA,NA,NA,NA,TRUE,1,0.5851,376.7431,379.7435,0,94,94,86,1,100,38,NA,NA,NA,NA,NA,1,95,"likert"
"AAE6A7BF55A54CA29822014110DEFF70",1,"01990a98-117f-7cf3-a320-8acba61326a3","01990a84-c4ee-73c2-a87b-ff46a7d3dde5","2025-09-02_09h21.51.513",NA,NA,383.0945,383.0945,383.0946,383.4448,NA,NA,NA,NA,NA,NA,NA,TRUE,1,0.5817,380.0944,383.0944,0,95,95,94,1,150,47,NA,NA,NA,NA,NA,1,96,"likert"
"AAE6A7BF55A54CA29822014110DEFF70",1,"01990a98-117f-7cf3-a320-8acba61326a3","01990a84-c4ee-73c2-a87b-ff46a7d3dde5","2025-09-02_09h21.51.513",NA,NA,386.4459,386.4459,386.4459,386.7957,NA,NA,NA,NA,NA,NA,NA,TRUE,1,0.5194,383.4461,386.4457,0,96,96,107,1,200,54,NA,NA,NA,NA,NA,1,97,"likert"
"AAE6A7BF55A54CA29822014110DEFF70",1,"01990a98-117f-7cf3-a320-8acba61326a3","01990a84-c4ee-73c2-a87b-ff46a7d3dde5","2025-09-02_09h21.51.513",NA,NA,389.7807,389.7808,389.7808,390.1306,NA,NA,NA,NA,NA,NA,NA,TRUE,1,0.3506,386.7966,389.7805,0,97,97,63,1,50,40,NA,NA,NA,NA,NA,1,98,"likert"
"AAE6A7BF55A54CA29822014110DEFF70",1,"01990a98-117f-7cf3-a320-8acba61326a3","01990a84-c4ee-73c2-a87b-ff46a7d3dde5","2025-09-02_09h21.51.513",NA,NA,393.1317,393.1317,393.1317,393.4818,NA,NA,NA,NA,NA,NA,NA,TRUE,1,0.5752,390.132,393.1316,0,98,98,26,1,21,29,NA,NA,NA,NA,NA,1,99,"likert"
"AAE6A7BF55A54CA29822014110DEFF70",1,"01990a98-117f-7cf3-a320-8acba61326a3","01990a84-c4ee-73c2-a87b-ff46a7d3dde5","2025-09-02_09h21.51.513",NA,NA,396.4831,396.4831,396.4831,396.8329,NA,NA,NA,NA,NA,NA,NA,TRUE,1,1.4386,393.483,396.4829,0,99,99,40,1,28,39,NA,NA,NA,NA,NA,1,100,"likert"
"AAE6A7BF55A54CA29822014110DEFF70",1,"01990a98-117f-7cf3-a320-8acba61326a3","01990a84-c4ee-73c2-a87b-ff46a7d3dde5","2025-09-02_09h21.51.513",NA,NA,399.8345,399.8346,399.8346,400.1841,NA,NA,NA,NA,NA,NA,NA,TRUE,1,0.4845,396.8337,399.8343,0,100,100,96,1,180,27,NA,NA,NA,NA,NA,1,101,"likert"
"AAE6A7BF55A54CA29822014110DEFF70",1,"01990a98-117f-7cf3-a320-8acba61326a3","01990a84-c4ee-73c2-a87b-ff46a7d3dde5","2025-09-02_09h21.51.513",NA,NA,403.1856,403.1856,403.1856,403.5356,NA,NA,NA,NA,NA,NA,NA,TRUE,1,0.5688,400.1853,403.1855,0,101,101,42,1,30,26,NA,NA,NA,NA,NA,1,102,"likert"
"AAE6A7BF55A54CA29822014110DEFF70",1,"01990a98-117f-7cf3-a320-8acba61326a3","01990a84-c4ee-73c2-a87b-ff46a7d3dde5","2025-09-02_09h21.51.513",NA,NA,406.5369,406.537,406.537,406.8866,NA,NA,NA,NA,NA,NA,NA,TRUE,1,0.8505,403.5363,406.5367,0,102,102,9,1,10,29,NA,NA,NA,NA,NA,1,103,"likert"
"AAE6A7BF55A54CA29822014110DEFF70",1,"01990a98-117f-7cf3-a320-8acba61326a3","01990a84-c4ee-73c2-a87b-ff46a7d3dde5","2025-09-02_09h21.51.513",NA,NA,409.8882,409.8882,409.8882,410.2381,NA,NA,NA,NA,NA,NA,NA,TRUE,1,0.784,406.8878,409.8881,0,103,103,1,1,7,26,NA,NA,NA,NA,NA,1,104,"likert"
"AAE6A7BF55A54CA29822014110DEFF70",1,"01990a98-117f-7cf3-a320-8acba61326a3","01990a84-c4ee-73c2-a87b-ff46a7d3dde5","2025-09-02_09h21.51.513",NA,NA,413.245,413.245,413.245,413.5894,NA,NA,NA,NA,NA,NA,NA,TRUE,1,1.1599,410.2398,413.2449,0,104,104,4,1,7,32,NA,NA,NA,NA,NA,1,105,"likert"
"AAE6A7BF55A54CA29822014110DEFF70",1,"01990a98-117f-7cf3-a320-8acba61326a3","01990a84-c4ee-73c2-a87b-ff46a7d3dde5","2025-09-02_09h21.51.513",NA,NA,416.5906,416.5907,416.5907,416.9403,NA,NA,NA,NA,NA,NA,NA,TRUE,1,1.2674,413.5902,416.5905,0,105,105,66,1,60,29,NA,NA,NA,NA,NA,1,106,"likert"
"AAE6A7BF55A54CA29822014110DEFF70",1,"01990a98-117f-7cf3-a320-8acba61326a3","01990a84-c4ee-73c2-a87b-ff46a7d3dde5","2025-09-02_09h21.51.513",NA,NA,419.9422,419.9423,419.9423,420.2916,NA,NA,NA,NA,NA,NA,NA,TRUE,1,0.7288,416.9412,419.9419,0,106,106,98,1,180,35,NA,NA,NA,NA,NA,1,107,"likert"
"AAE6A7BF55A54CA29822014110DEFF70",1,"01990a98-117f-7cf3-a320-8acba61326a3","01990a84-c4ee-73c2-a87b-ff46a7d3dde5","2025-09-02_09h21.51.513",NA,NA,423.2928,423.2928,423.2929,423.6431,NA,NA,NA,NA,NA,NA,NA,TRUE,1,0.9175,420.2925,423.2927,0,107,107,87,1,100,39,NA,NA,NA,NA,NA,1,108,"likert"
"AAE6A7BF55A54CA29822014110DEFF70",1,"01990a98-117f-7cf3-a320-8acba61326a3","01990a84-c4ee-73c2-a87b-ff46a7d3dde5","2025-09-02_09h21.51.513",NA,NA,428.6512,428.6512,428.6512,429.0008,NA,NA,NA,NA,NA,NA,NA,TRUE,1,1.5588,425.6717,428.6511,NA,NA,NA,NA,NA,12,28,0,0,0,14,1,2,1,"likert"
"AAE6A7BF55A54CA29822014110DEFF70",1,"01990a98-117f-7cf3-a320-8acba61326a3","01990a84-c4ee-73c2-a87b-ff46a7d3dde5","2025-09-02_09h21.51.513",NA,NA,432.0031,432.0031,432.0032,432.352,NA,NA,NA,NA,NA,NA,NA,TRUE,1,1.4276,429.0017,432.003,NA,NA,NA,NA,NA,50,35,0,1,1,62,1,2,2,"likert"
"AAE6A7BF55A54CA29822014110DEFF70",1,"01990a98-117f-7cf3-a320-8acba61326a3","01990a84-c4ee-73c2-a87b-ff46a7d3dde5","2025-09-02_09h21.51.513",NA,NA,435.3537,435.3537,435.3537,435.7034,NA,NA,NA,NA,NA,NA,NA,TRUE,1,1.3507,432.3529,435.3536,NA,NA,NA,NA,NA,100,26,0,2,2,84,1,2,3,"likert"
"AAE6A7BF55A54CA29822014110DEFF70",1,"01990a98-117f-7cf3-a320-8acba61326a3","01990a84-c4ee-73c2-a87b-ff46a7d3dde5","2025-09-02_09h21.51.513",NA,NA,438.7048,438.7048,438.7048,439.0547,NA,NA,NA,NA,NA,NA,NA,TRUE,1,1.5673,435.7041,438.7047,NA,NA,NA,NA,NA,90,46,0,3,3,76,1,2,4,"likert"
"AAE6A7BF55A54CA29822014110DEFF70",1,"01990a98-117f-7cf3-a320-8acba61326a3","01990a84-c4ee-73c2-a87b-ff46a7d3dde5","2025-09-02_09h21.51.513",NA,NA,442.0561,442.0561,442.0561,442.4059,NA,NA,NA,NA,NA,NA,NA,TRUE,1,1.0174,439.0553,442.056,NA,NA,NA,NA,NA,7,32,0,4,4,4,1,2,5,"likert"
"AAE6A7BF55A54CA29822014110DEFF70",1,"01990a98-117f-7cf3-a320-8acba61326a3","01990a84-c4ee-73c2-a87b-ff46a7d3dde5","2025-09-02_09h21.51.513",NA,NA,445.4011,445.4012,445.4012,445.7511,NA,NA,NA,NA,NA,NA,NA,TRUE,1,0.6172,442.4069,445.401,NA,NA,NA,NA,NA,90,54,0,5,5,77,1,2,6,"likert"
"AAE6A7BF55A54CA29822014110DEFF70",1,"01990a98-117f-7cf3-a320-8acba61326a3","01990a84-c4ee-73c2-a87b-ff46a7d3dde5","2025-09-02_09h21.51.513",NA,NA,448.7524,448.7524,448.7525,449.1026,NA,NA,NA,NA,NA,NA,NA,TRUE,1,0.6268,445.7519,448.7522,NA,NA,NA,NA,NA,90,40,0,6,6,75,1,2,7,"likert"
"AAE6A7BF55A54CA29822014110DEFF70",1,"01990a98-117f-7cf3-a320-8acba61326a3","01990a84-c4ee-73c2-a87b-ff46a7d3dde5","2025-09-02_09h21.51.513",NA,NA,452.1037,452.1037,452.1037,452.4537,NA,NA,NA,NA,NA,NA,NA,TRUE,1,0.5224,449.1039,452.1035,NA,NA,NA,NA,NA,40,54,0,7,7,53,1,2,8,"likert"
"AAE6A7BF55A54CA29822014110DEFF70",1,"01990a98-117f-7cf3-a320-8acba61326a3","01990a84-c4ee-73c2-a87b-ff46a7d3dde5","2025-09-02_09h21.51.513",NA,NA,455.4548,455.4548,455.4548,455.8048,NA,NA,NA,NA,NA,NA,NA,TRUE,1,1.2086,452.4546,455.4547,NA,NA,NA,NA,NA,12,26,0,8,8,13,1,2,9,"likert"
"AAE6A7BF55A54CA29822014110DEFF70",1,"01990a98-117f-7cf3-a320-8acba61326a3","01990a84-c4ee-73c2-a87b-ff46a7d3dde5","2025-09-02_09h21.51.513",NA,NA,458.8064,458.8064,458.8064,459.1564,NA,NA,NA,NA,NA,NA,NA,TRUE,1,0.6353,455.8056,458.8063,NA,NA,NA,NA,NA,40,35,0,9,9,50,1,2,10,"likert"
"AAE6A7BF55A54CA29822014110DEFF70",1,"01990a98-117f-7cf3-a320-8acba61326a3","01990a84-c4ee-73c2-a87b-ff46a7d3dde5","2025-09-02_09h21.51.513",NA,NA,462.1578,462.1578,462.1578,462.5077,NA,NA,NA,NA,NA,NA,NA,TRUE,1,0.3862,459.1579,462.1576,NA,NA,NA,NA,NA,14,39,0,10,10,23,1,2,11,"likert"
"AAE6A7BF55A54CA29822014110DEFF70",1,"01990a98-117f-7cf3-a320-8acba61326a3","01990a84-c4ee-73c2-a87b-ff46a7d3dde5","2025-09-02_09h21.51.513",NA,NA,465.5089,465.5089,465.5089,465.8587,NA,NA,NA,NA,NA,NA,NA,TRUE,1,0.5579,462.5087,465.5087,NA,NA,NA,NA,NA,30,30,0,11,11,45,1,2,12,"likert"
"AAE6A7BF55A54CA29822014110DEFF70",1,"01990a98-117f-7cf3-a320-8acba61326a3","01990a84-c4ee-73c2-a87b-ff46a7d3dde5","2025-09-02_09h21.51.513",NA,NA,468.8602,468.8602,468.8602,469.21,NA,NA,NA,NA,NA,NA,NA,TRUE,1,0.7006,465.8596,468.86,NA,NA,NA,NA,NA,21,26,0,12,12,24,1,2,13,"likert"
"AAE6A7BF55A54CA29822014110DEFF70",1,"01990a98-117f-7cf3-a320-8acba61326a3","01990a84-c4ee-73c2-a87b-ff46a7d3dde5","2025-09-02_09h21.51.513",NA,NA,472.2111,472.2111,472.2111,472.5614,NA,NA,NA,NA,NA,NA,NA,TRUE,1,0.3835,469.2115,472.211,NA,NA,NA,NA,NA,14,32,0,13,13,21,1,2,14,"likert"
"AAE6A7BF55A54CA29822014110DEFF70",1,"01990a98-117f-7cf3-a320-8acba61326a3","01990a84-c4ee-73c2-a87b-ff46a7d3dde5","2025-09-02_09h21.51.513",NA,NA,475.5625,475.5626,475.5626,475.9126,NA,NA,NA,NA,NA,NA,NA,TRUE,1,0.6177,472.5628,475.5624,NA,NA,NA,NA,NA,45,35,0,14,14,57,1,2,15,"likert"
"AAE6A7BF55A54CA29822014110DEFF70",1,"01990a98-117f-7cf3-a320-8acba61326a3","01990a84-c4ee-73c2-a87b-ff46a7d3dde5","2025-09-02_09h21.51.513",NA,NA,478.9138,478.9139,478.9139,479.2638,NA,NA,NA,NA,NA,NA,NA,TRUE,1,0.901,475.9139,478.9137,NA,NA,NA,NA,NA,14,26,0,15,15,19,1,2,16,"likert"
"AAE6A7BF55A54CA29822014110DEFF70",1,"01990a98-117f-7cf3-a320-8acba61326a3","01990a84-c4ee-73c2-a87b-ff46a7d3dde5","2025-09-02_09h21.51.513",NA,NA,482.271,482.271,482.271,482.5982,NA,NA,NA,NA,NA,NA,NA,TRUE,1,0.9526,479.2653,482.2708,NA,NA,NA,NA,NA,7,26,0,16,16,1,1,2,17,"likert"
"AAE6A7BF55A54CA29822014110DEFF70",1,"01990a98-117f-7cf3-a320-8acba61326a3","01990a84-c4ee-73c2-a87b-ff46a7d3dde5","2025-09-02_09h21.51.513",NA,NA,485.5995,485.5995,485.5995,485.9497,NA,NA,NA,NA,NA,NA,NA,TRUE,1,0.5684,482.5991,485.5994,NA,NA,NA,NA,NA,200,39,0,17,17,105,1,2,18,"likert"
"AAE6A7BF55A54CA29822014110DEFF70",1,"01990a98-117f-7cf3-a320-8acba61326a3","01990a84-c4ee-73c2-a87b-ff46a7d3dde5","2025-09-02_09h21.51.513",NA,NA,488.9509,488.951,488.951,489.3008,NA,NA,NA,NA,NA,NA,NA,TRUE,1,0.6509,485.9512,488.9508,NA,NA,NA,NA,NA,30,27,0,18,18,43,1,2,19,"likert"
"AAE6A7BF55A54CA29822014110DEFF70",1,"01990a98-117f-7cf3-a320-8acba61326a3","01990a84-c4ee-73c2-a87b-ff46a7d3dde5","2025-09-02_09h21.51.513",NA,NA,492.302,492.302,492.302,492.652,NA,NA,NA,NA,NA,NA,NA,TRUE,1,0.5171,489.3021,492.3018,NA,NA,NA,NA,NA,180,54,0,19,19,101,1,2,20,"likert"
"AAE6A7BF55A54CA29822014110DEFF70",1,"01990a98-117f-7cf3-a320-8acba61326a3","01990a84-c4ee-73c2-a87b-ff46a7d3dde5","2025-09-02_09h21.51.513",NA,NA,495.6533,495.6534,495.6534,496.0031,NA,NA,NA,NA,NA,NA,NA,TRUE,1,0.6364,492.6528,495.6532,NA,NA,NA,NA,NA,21,32,0,20,20,28,1,2,21,"likert"
"AAE6A7BF55A54CA29822014110DEFF70",1,"01990a98-117f-7cf3-a320-8acba61326a3","01990a84-c4ee-73c2-a87b-ff46a7d3dde5","2025-09-02_09h21.51.513",NA,NA,499.0045,499.0046,499.0046,499.3544,NA,NA,NA,NA,NA,NA,NA,TRUE,1,0.2813,496.0039,499.0043,NA,NA,NA,NA,NA,30,29,0,21,21,44,1,2,22,"likert"
"AAE6A7BF55A54CA29822014110DEFF70",1,"01990a98-117f-7cf3-a320-8acba61326a3","01990a84-c4ee-73c2-a87b-ff46a7d3dde5","2025-09-02_09h21.51.513",NA,NA,502.3561,502.3561,502.3561,502.7056,NA,NA,NA,NA,NA,NA,NA,TRUE,1,0.5338,499.3556,502.3559,NA,NA,NA,NA,NA,180,35,0,22,22,98,1,2,23,"likert"
"AAE6A7BF55A54CA29822014110DEFF70",1,"01990a98-117f-7cf3-a320-8acba61326a3","01990a84-c4ee-73c2-a87b-ff46a7d3dde5","2025-09-02_09h21.51.513",NA,NA,505.7072,505.7072,505.7072,506.0572,NA,NA,NA,NA,NA,NA,NA,TRUE,1,0.7044,502.7064,505.707,NA,NA,NA,NA,NA,90,26,0,23,23,72,1,2,24,"likert"
"AAE6A7BF55A54CA29822014110DEFF70",1,"01990a98-117f-7cf3-a320-8acba61326a3","01990a84-c4ee-73c2-a87b-ff46a7d3dde5","2025-09-02_09h21.51.513",NA,NA,509.0582,509.0582,509.0582,509.4084,NA,NA,NA,NA,NA,NA,NA,TRUE,1,1.5774,506.0581,509.0581,NA,NA,NA,NA,NA,7,30,0,24,24,3,1,2,25,"likert"
"AAE6A7BF55A54CA29822014110DEFF70",1,"01990a98-117f-7cf3-a320-8acba61326a3","01990a84-c4ee-73c2-a87b-ff46a7d3dde5","2025-09-02_09h21.51.513",NA,NA,512.4101,512.4101,512.4101,512.7594,NA,NA,NA,NA,NA,NA,NA,TRUE,1,0.4341,509.4094,512.4098,NA,NA,NA,NA,NA,21,38,0,25,25,29,1,2,26,"likert"
"AAE6A7BF55A54CA29822014110DEFF70",1,"01990a98-117f-7cf3-a320-8acba61326a3","01990a84-c4ee-73c2-a87b-ff46a7d3dde5","2025-09-02_09h21.51.513",NA,NA,515.7607,515.7607,515.7607,516.1111,NA,NA,NA,NA,NA,NA,NA,TRUE,1,0.2597,512.7606,515.7605,NA,NA,NA,NA,NA,90,30,0,26,26,73,1,2,27,"likert"
"AAE6A7BF55A54CA29822014110DEFF70",1,"01990a98-117f-7cf3-a320-8acba61326a3","01990a84-c4ee-73c2-a87b-ff46a7d3dde5","2025-09-02_09h21.51.513",NA,NA,519.1119,519.1119,519.1119,519.4621,NA,NA,NA,NA,NA,NA,NA,TRUE,1,0.5506,516.1121,519.1118,NA,NA,NA,NA,NA,95,31,0,27,27,78,1,2,28,"likert"
"AAE6A7BF55A54CA29822014110DEFF70",1,"01990a98-117f-7cf3-a320-8acba61326a3","01990a84-c4ee-73c2-a87b-ff46a7d3dde5","2025-09-02_09h21.51.513",NA,NA,522.4634,522.4635,522.4635,522.8132,NA,NA,NA,NA,NA,NA,NA,TRUE,1,0.6004,519.4634,522.4633,NA,NA,NA,NA,NA,12,25,0,28,28,12,1,2,29,"likert"
"AAE6A7BF55A54CA29822014110DEFF70",1,"01990a98-117f-7cf3-a320-8acba61326a3","01990a84-c4ee-73c2-a87b-ff46a7d3dde5","2025-09-02_09h21.51.513",NA,NA,525.8144,525.8145,525.8145,526.1646,NA,NA,NA,NA,NA,NA,NA,TRUE,1,1.0251,522.814,525.8143,NA,NA,NA,NA,NA,180,46,0,29,29,100,1,2,30,"likert"
"AAE6A7BF55A54CA29822014110DEFF70",1,"01990a98-117f-7cf3-a320-8acba61326a3","01990a84-c4ee-73c2-a87b-ff46a7d3dde5","2025-09-02_09h21.51.513",NA,NA,529.1494,529.1494,529.1494,529.499,NA,NA,NA,NA,NA,NA,NA,TRUE,1,0.3395,526.1661,529.1492,NA,NA,NA,NA,NA,28,46,0,30,30,41,1,2,31,"likert"
"AAE6A7BF55A54CA29822014110DEFF70",1,"01990a98-117f-7cf3-a320-8acba61326a3","01990a84-c4ee-73c2-a87b-ff46a7d3dde5","2025-09-02_09h21.51.513",NA,NA,532.5004,532.5004,532.5004,532.8561,NA,NA,NA,NA,NA,NA,NA,TRUE,1,0.3005,529.5002,532.5002,NA,NA,NA,NA,NA,45,46,0,31,31,59,1,2,32,"likert"
"AAE6A7BF55A54CA29822014110DEFF70",1,"01990a98-117f-7cf3-a320-8acba61326a3","01990a84-c4ee-73c2-a87b-ff46a7d3dde5","2025-09-02_09h21.51.513",NA,NA,535.8517,535.8517,535.8517,536.2017,NA,NA,NA,NA,NA,NA,NA,TRUE,1,0.2947,532.8569,535.8517,NA,NA,NA,NA,NA,21,27,0,32,32,25,1,2,33,"likert"
"AAE6A7BF55A54CA29822014110DEFF70",1,"01990a98-117f-7cf3-a320-8acba61326a3","01990a84-c4ee-73c2-a87b-ff46a7d3dde5","2025-09-02_09h21.51.513",NA,NA,539.2027,539.2027,539.2027,539.553,NA,NA,NA,NA,NA,NA,NA,TRUE,1,0.6018,536.2031,539.2026,NA,NA,NA,NA,NA,150,54,0,33,33,95,1,2,34,"likert"
"AAE6A7BF55A54CA29822014110DEFF70",1,"01990a98-117f-7cf3-a320-8acba61326a3","01990a84-c4ee-73c2-a87b-ff46a7d3dde5","2025-09-02_09h21.51.513",NA,NA,542.5541,542.5541,542.5541,542.91,NA,NA,NA,NA,NA,NA,NA,TRUE,1,0.4145,539.554,542.5539,NA,NA,NA,NA,NA,100,38,0,34,34,86,1,2,35,"likert"
"AAE6A7BF55A54CA29822014110DEFF70",1,"01990a98-117f-7cf3-a320-8acba61326a3","01990a84-c4ee-73c2-a87b-ff46a7d3dde5","2025-09-02_09h21.51.513",NA,NA,545.9055,545.9056,545.9056,546.2553,NA,NA,NA,NA,NA,NA,NA,TRUE,1,0.517,542.9108,545.9053,NA,NA,NA,NA,NA,10,30,0,35,35,10,1,2,36,"likert"
"AAE6A7BF55A54CA29822014110DEFF70",1,"01990a98-117f-7cf3-a320-8acba61326a3","01990a84-c4ee-73c2-a87b-ff46a7d3dde5","2025-09-02_09h21.51.513",NA,NA,549.2566,549.2566,549.2566,549.6065,NA,NA,NA,NA,NA,NA,NA,TRUE,1,0.8053,546.2562,549.2564,NA,NA,NA,NA,NA,180,27,0,36,36,96,1,2,37,"likert"
"AAE6A7BF55A54CA29822014110DEFF70",1,"01990a98-117f-7cf3-a320-8acba61326a3","01990a84-c4ee-73c2-a87b-ff46a7d3dde5","2025-09-02_09h21.51.513",NA,NA,552.608,552.608,552.608,552.9581,NA,NA,NA,NA,NA,NA,NA,TRUE,1,0.9115,549.6072,552.6079,NA,NA,NA,NA,NA,7,28,0,37,37,2,1,2,38,"likert"
"AAE6A7BF55A54CA29822014110DEFF70",1,"01990a98-117f-7cf3-a320-8acba61326a3","01990a84-c4ee-73c2-a87b-ff46a7d3dde5","2025-09-02_09h21.51.513",NA,NA,555.9593,555.9593,555.9593,556.3092,NA,NA,NA,NA,NA,NA,NA,TRUE,1,0.4347,552.9593,555.9591,NA,NA,NA,NA,NA,50,46,0,38,38,64,1,2,39,"likert"
"AAE6A7BF55A54CA29822014110DEFF70",1,"01990a98-117f-7cf3-a320-8acba61326a3","01990a84-c4ee-73c2-a87b-ff46a7d3dde5","2025-09-02_09h21.51.513",NA,NA,559.3103,559.3103,559.3103,559.6603,NA,NA,NA,NA,NA,NA,NA,TRUE,1,0.5675,556.3109,559.3102,NA,NA,NA,NA,NA,14,35,0,39,39,22,1,2,40,"likert"
"AAE6A7BF55A54CA29822014110DEFF70",1,"01990a98-117f-7cf3-a320-8acba61326a3","01990a84-c4ee-73c2-a87b-ff46a7d3dde5","2025-09-02_09h21.51.513",NA,NA,562.6619,562.662,562.662,563.0117,NA,NA,NA,NA,NA,NA,NA,TRUE,1,0.6217,559.6611,562.6617,NA,NA,NA,NA,NA,25,35,0,40,40,34,1,2,41,"likert"
"AAE6A7BF55A54CA29822014110DEFF70",1,"01990a98-117f-7cf3-a320-8acba61326a3","01990a84-c4ee-73c2-a87b-ff46a7d3dde5","2025-09-02_09h21.51.513",NA,NA,566.0129,566.013,566.013,566.3628,NA,NA,NA,NA,NA,NA,NA,TRUE,1,0.5835,563.0128,566.0128,NA,NA,NA,NA,NA,150,35,0,41,41,92,1,2,42,"likert"
"AAE6A7BF55A54CA29822014110DEFF70",1,"01990a98-117f-7cf3-a320-8acba61326a3","01990a84-c4ee-73c2-a87b-ff46a7d3dde5","2025-09-02_09h21.51.513",NA,NA,569.3643,569.3643,569.3643,569.7139,NA,NA,NA,NA,NA,NA,NA,TRUE,1,0.6993,566.3636,569.3641,NA,NA,NA,NA,NA,200,47,0,42,42,106,1,2,43,"likert"
"AAE6A7BF55A54CA29822014110DEFF70",1,"01990a98-117f-7cf3-a320-8acba61326a3","01990a84-c4ee-73c2-a87b-ff46a7d3dde5","2025-09-02_09h21.51.513",NA,NA,572.6989,572.6989,572.6989,573.0545,NA,NA,NA,NA,NA,NA,NA,TRUE,1,0.7014,569.7148,572.6988,NA,NA,NA,NA,NA,150,31,0,43,43,90,1,2,44,"likert"
"AAE6A7BF55A54CA29822014110DEFF70",1,"01990a98-117f-7cf3-a320-8acba61326a3","01990a84-c4ee-73c2-a87b-ff46a7d3dde5","2025-09-02_09h21.51.513",NA,NA,576.0498,576.0498,576.0498,576.4002,NA,NA,NA,NA,NA,NA,NA,TRUE,1,0.3539,573.0553,576.0498,NA,NA,NA,NA,NA,100,39,0,44,44,87,1,2,45,"likert"
"AAE6A7BF55A54CA29822014110DEFF70",1,"01990a98-117f-7cf3-a320-8acba61326a3","01990a84-c4ee-73c2-a87b-ff46a7d3dde5","2025-09-02_09h21.51.513",NA,NA,579.4011,579.4011,579.4011,579.7511,NA,NA,NA,NA,NA,NA,NA,TRUE,1,1.0681,576.401,579.401,NA,NA,NA,NA,NA,30,26,0,45,45,42,1,2,46,"likert"
"AAE6A7BF55A54CA29822014110DEFF70",1,"01990a98-117f-7cf3-a320-8acba61326a3","01990a84-c4ee-73c2-a87b-ff46a7d3dde5","2025-09-02_09h21.51.513",NA,NA,582.7529,582.7529,582.7529,583.1023,NA,NA,NA,NA,NA,NA,NA,TRUE,1,0.7672,579.7522,582.7526,NA,NA,NA,NA,NA,50,27,0,46,46,60,1,2,47,"likert"
"AAE6A7BF55A54CA29822014110DEFF70",1,"01990a98-117f-7cf3-a320-8acba61326a3","01990a84-c4ee-73c2-a87b-ff46a7d3dde5","2025-09-02_09h21.51.513",NA,NA,586.1035,586.1036,586.1036,586.4538,NA,NA,NA,NA,NA,NA,NA,TRUE,1,0.8172,583.1036,586.1035,NA,NA,NA,NA,NA,50,40,0,47,47,63,1,2,48,"likert"
"AAE6A7BF55A54CA29822014110DEFF70",1,"01990a98-117f-7cf3-a320-8acba61326a3","01990a84-c4ee-73c2-a87b-ff46a7d3dde5","2025-09-02_09h21.51.513",NA,NA,589.455,589.455,589.455,589.8048,NA,NA,NA,NA,NA,NA,NA,TRUE,1,0.7101,586.4547,589.4549,NA,NA,NA,NA,NA,95,33,0,48,48,79,1,2,49,"likert"
"AAE6A7BF55A54CA29822014110DEFF70",1,"01990a98-117f-7cf3-a320-8acba61326a3","01990a84-c4ee-73c2-a87b-ff46a7d3dde5","2025-09-02_09h21.51.513",NA,NA,592.8063,592.8064,592.8064,593.1622,NA,NA,NA,NA,NA,NA,NA,TRUE,1,0.8567,589.8057,592.8062,NA,NA,NA,NA,NA,25,27,0,49,49,30,1,2,50,"likert"
"AAE6A7BF55A54CA29822014110DEFF70",1,"01990a98-117f-7cf3-a320-8acba61326a3","01990a84-c4ee-73c2-a87b-ff46a7d3dde5","2025-09-02_09h21.51.513",NA,NA,596.1576,596.1577,596.1577,596.5073,NA,NA,NA,NA,NA,NA,NA,TRUE,1,0.7171,593.1631,596.1575,NA,NA,NA,NA,NA,100,54,0,50,50,89,1,2,51,"likert"
"AAE6A7BF55A54CA29822014110DEFF70",1,"01990a98-117f-7cf3-a320-8acba61326a3","01990a84-c4ee-73c2-a87b-ff46a7d3dde5","2025-09-02_09h21.51.513",NA,NA,599.5089,599.5089,599.5089,599.8588,NA,NA,NA,NA,NA,NA,NA,TRUE,1,0.8066,596.5081,599.5087,NA,NA,NA,NA,NA,25,31,0,51,51,32,1,2,52,"likert"
"AAE6A7BF55A54CA29822014110DEFF70",1,"01990a98-117f-7cf3-a320-8acba61326a3","01990a84-c4ee-73c2-a87b-ff46a7d3dde5","2025-09-02_09h21.51.513",NA,NA,602.8601,602.8602,602.8602,603.21,NA,NA,NA,NA,NA,NA,NA,TRUE,1,0.6844,599.86,602.86,NA,NA,NA,NA,NA,50,54,0,52,52,65,1,2,53,"likert"
"AAE6A7BF55A54CA29822014110DEFF70",1,"01990a98-117f-7cf3-a320-8acba61326a3","01990a84-c4ee-73c2-a87b-ff46a7d3dde5","2025-09-02_09h21.51.513",NA,NA,606.2111,606.2112,606.2112,606.5613,NA,NA,NA,NA,NA,NA,NA,TRUE,1,0.6925,603.2111,606.211,NA,NA,NA,NA,NA,60,47,0,53,53,70,1,2,54,"likert"
"AAE6A7BF55A54CA29822014110DEFF70",1,"01990a98-117f-7cf3-a320-8acba61326a3","01990a84-c4ee-73c2-a87b-ff46a7d3dde5","2025-09-02_09h21.51.513",NA,NA,609.5625,609.5625,609.5625,609.9123,NA,NA,NA,NA,NA,NA,NA,TRUE,1,0.5675,606.5626,609.5624,NA,NA,NA,NA,NA,200,35,0,54,54,104,1,2,55,"likert"
"AAE6A7BF55A54CA29822014110DEFF70",1,"01990a98-117f-7cf3-a320-8acba61326a3","01990a84-c4ee-73c2-a87b-ff46a7d3dde5","2025-09-02_09h21.51.513",NA,NA,612.9139,612.9139,612.9139,613.2636,NA,NA,NA,NA,NA,NA,NA,TRUE,1,0.6373,609.913,612.9137,NA,NA,NA,NA,NA,95,35,0,55,55,80,1,2,56,"likert"
"AAE6A7BF55A54CA29822014110DEFF70",1,"01990a98-117f-7cf3-a320-8acba61326a3","01990a84-c4ee-73c2-a87b-ff46a7d3dde5","2025-09-02_09h21.51.513",NA,NA,616.2652,616.2652,616.2652,616.6148,NA,NA,NA,NA,NA,NA,NA,TRUE,1,0.8019,613.2651,616.265,NA,NA,NA,NA,NA,28,32,0,56,56,38,1,2,57,"likert"
"AAE6A7BF55A54CA29822014110DEFF70",1,"01990a98-117f-7cf3-a320-8acba61326a3","01990a84-c4ee-73c2-a87b-ff46a7d3dde5","2025-09-02_09h21.51.513",NA,NA,619.5994,619.5994,619.5994,619.9493,NA,NA,NA,NA,NA,NA,NA,TRUE,1,1.5867,616.6156,619.5993,NA,NA,NA,NA,NA,95,47,0,57,57,82,1,2,58,"likert"
"AAE6A7BF55A54CA29822014110DEFF70",1,"01990a98-117f-7cf3-a320-8acba61326a3","01990a84-c4ee-73c2-a87b-ff46a7d3dde5","2025-09-02_09h21.51.513",NA,NA,622.9508,622.9508,622.9508,623.3009,NA,NA,NA,NA,NA,NA,NA,TRUE,1,0.7362,619.9503,622.9507,NA,NA,NA,NA,NA,60,40,0,58,58,69,1,2,59,"likert"
"AAE6A7BF55A54CA29822014110DEFF70",1,"01990a98-117f-7cf3-a320-8acba61326a3","01990a84-c4ee-73c2-a87b-ff46a7d3dde5","2025-09-02_09h21.51.513",NA,NA,626.3022,626.3022,626.3022,626.6519,NA,NA,NA,NA,NA,NA,NA,TRUE,1,0.5575,623.3022,626.302,NA,NA,NA,NA,NA,10,27,0,59,59,8,1,2,60,"likert"
"AAE6A7BF55A54CA29822014110DEFF70",1,"01990a98-117f-7cf3-a320-8acba61326a3","01990a84-c4ee-73c2-a87b-ff46a7d3dde5","2025-09-02_09h21.51.513",NA,NA,629.6534,629.6535,629.6536,630.0031,NA,NA,NA,NA,NA,NA,NA,TRUE,1,0.4168,626.6527,629.6533,NA,NA,NA,NA,NA,40,40,0,60,60,51,1,2,61,"likert"
"AAE6A7BF55A54CA29822014110DEFF70",1,"01990a98-117f-7cf3-a320-8acba61326a3","01990a84-c4ee-73c2-a87b-ff46a7d3dde5","2025-09-02_09h21.51.513",NA,NA,633.0103,633.0104,633.0104,633.3607,NA,NA,NA,NA,NA,NA,NA,TRUE,1,0.5337,630.0039,633.0103,NA,NA,NA,NA,NA,60,35,0,61,61,68,1,2,62,"likert"
"AAE6A7BF55A54CA29822014110DEFF70",1,"01990a98-117f-7cf3-a320-8acba61326a3","01990a84-c4ee-73c2-a87b-ff46a7d3dde5","2025-09-02_09h21.51.513",NA,NA,636.3558,636.3559,636.3559,636.7057,NA,NA,NA,NA,NA,NA,NA,TRUE,1,1.0886,633.3616,636.3557,NA,NA,NA,NA,NA,95,54,0,62,62,83,1,2,63,"likert"
"AAE6A7BF55A54CA29822014110DEFF70",1,"01990a98-117f-7cf3-a320-8acba61326a3","01990a84-c4ee-73c2-a87b-ff46a7d3dde5","2025-09-02_09h21.51.513",NA,NA,639.7069,639.707,639.707,640.0569,NA,NA,NA,NA,NA,NA,NA,TRUE,1,1.1726,636.7064,639.7069,NA,NA,NA,NA,NA,45,31,0,63,63,56,1,2,64,"likert"
"AAE6A7BF55A54CA29822014110DEFF70",1,"01990a98-117f-7cf3-a320-8acba61326a3","01990a84-c4ee-73c2-a87b-ff46a7d3dde5","2025-09-02_09h21.51.513",NA,NA,643.0642,643.0642,643.0642,643.4081,NA,NA,NA,NA,NA,NA,NA,TRUE,1,0.4002,640.0577,643.064,NA,NA,NA,NA,NA,10,32,0,64,64,11,1,2,65,"likert"
"AAE6A7BF55A54CA29822014110DEFF70",1,"01990a98-117f-7cf3-a320-8acba61326a3","01990a84-c4ee-73c2-a87b-ff46a7d3dde5","2025-09-02_09h21.51.513",NA,NA,646.4096,646.4097,646.4097,646.7594,NA,NA,NA,NA,NA,NA,NA,TRUE,1,0.8839,643.4089,646.4094,NA,NA,NA,NA,NA,60,33,0,65,65,67,1,2,66,"likert"
"AAE6A7BF55A54CA29822014110DEFF70",1,"01990a98-117f-7cf3-a320-8acba61326a3","01990a84-c4ee-73c2-a87b-ff46a7d3dde5","2025-09-02_09h21.51.513",NA,NA,649.761,649.7611,649.7611,650.1107,NA,NA,NA,NA,NA,NA,NA,TRUE,1,0.5503,646.7601,649.7608,NA,NA,NA,NA,NA,150,40,0,66,66,93,1,2,67,"likert"
"AAE6A7BF55A54CA29822014110DEFF70",1,"01990a98-117f-7cf3-a320-8acba61326a3","01990a84-c4ee-73c2-a87b-ff46a7d3dde5","2025-09-02_09h21.51.513",NA,NA,653.1119,653.1119,653.1119,653.4619,NA,NA,NA,NA,NA,NA,NA,TRUE,1,0.5665,650.1121,653.1118,NA,NA,NA,NA,NA,28,28,0,67,67,37,1,2,68,"likert"
"AAE6A7BF55A54CA29822014110DEFF70",1,"01990a98-117f-7cf3-a320-8acba61326a3","01990a84-c4ee-73c2-a87b-ff46a7d3dde5","2025-09-02_09h21.51.513",NA,NA,656.4633,656.4634,656.4634,656.8131,NA,NA,NA,NA,NA,NA,NA,TRUE,1,0.3608,653.463,656.4632,NA,NA,NA,NA,NA,200,54,0,68,68,107,1,2,69,"likert"
"AAE6A7BF55A54CA29822014110DEFF70",1,"01990a98-117f-7cf3-a320-8acba61326a3","01990a84-c4ee-73c2-a87b-ff46a7d3dde5","2025-09-02_09h21.51.513",NA,NA,659.8014,659.8014,659.8014,660.1645,NA,NA,NA,NA,NA,NA,NA,TRUE,1,0.4003,656.8139,659.8013,NA,NA,NA,NA,NA,25,29,0,69,69,31,1,2,70,"likert"
"AAE6A7BF55A54CA29822014110DEFF70",1,"01990a98-117f-7cf3-a320-8acba61326a3","01990a84-c4ee-73c2-a87b-ff46a7d3dde5","2025-09-02_09h21.51.513",NA,NA,663.1553,663.1553,663.1553,663.4991,NA,NA,NA,NA,NA,NA,NA,TRUE,1,0.6144,660.1655,663.1551,NA,NA,NA,NA,NA,28,26,0,70,70,36,1,2,71,"likert"
"AAE6A7BF55A54CA29822014110DEFF70",1,"01990a98-117f-7cf3-a320-8acba61326a3","01990a84-c4ee-73c2-a87b-ff46a7d3dde5","2025-09-02_09h21.51.513",NA,NA,666.5002,666.5002,666.5002,666.8502,NA,NA,NA,NA,NA,NA,NA,TRUE,1,0.4172,663.5003,666.5001,NA,NA,NA,NA,NA,10,29,0,71,71,9,1,2,72,"likert"
"AAE6A7BF55A54CA29822014110DEFF70",1,"01990a98-117f-7cf3-a320-8acba61326a3","01990a84-c4ee-73c2-a87b-ff46a7d3dde5","2025-09-02_09h21.51.513",NA,NA,669.8517,669.8517,669.8517,670.2015,NA,NA,NA,NA,NA,NA,NA,TRUE,1,1.0059,666.8509,669.8515,NA,NA,NA,NA,NA,30,32,0,72,72,46,1,2,73,"likert"
"AAE6A7BF55A54CA29822014110DEFF70",1,"01990a98-117f-7cf3-a320-8acba61326a3","01990a84-c4ee-73c2-a87b-ff46a7d3dde5","2025-09-02_09h21.51.513",NA,NA,673.2027,673.2027,673.2027,673.904,NA,NA,NA,NA,NA,NA,NA,TRUE,1,0.4339,670.2022,673.2026,NA,NA,NA,NA,NA,14,28,0,73,73,20,1,2,74,"likert"
"AAE6A7BF55A54CA29822014110DEFF70",1,"01990a98-117f-7cf3-a320-8acba61326a3","01990a84-c4ee-73c2-a87b-ff46a7d3dde5","2025-09-02_09h21.51.513",NA,NA,676.5542,676.5542,676.5542,677.2876,NA,NA,NA,NA,NA,NA,NA,TRUE,1,0.3669,673.905,676.554,NA,NA,NA,NA,NA,7,25,0,74,74,0,1,2,75,"likert"
"AAE6A7BF55A54CA29822014110DEFF70",1,"01990a98-117f-7cf3-a320-8acba61326a3","01990a84-c4ee-73c2-a87b-ff46a7d3dde5","2025-09-02_09h21.51.513",NA,NA,679.9053,679.9053,679.9053,680.2555,NA,NA,NA,NA,NA,NA,NA,TRUE,1,0.4672,677.2887,679.9052,NA,NA,NA,NA,NA,45,26,0,75,75,54,1,2,76,"likert"
"AAE6A7BF55A54CA29822014110DEFF70",1,"01990a98-117f-7cf3-a320-8acba61326a3","01990a84-c4ee-73c2-a87b-ff46a7d3dde5","2025-09-02_09h21.51.513",NA,NA,683.2565,683.2566,683.2566,683.6066,NA,NA,NA,NA,NA,NA,NA,TRUE,1,0.4337,680.2569,683.2564,NA,NA,NA,NA,NA,10,26,0,76,76,7,1,2,77,"likert"
"AAE6A7BF55A54CA29822014110DEFF70",1,"01990a98-117f-7cf3-a320-8acba61326a3","01990a84-c4ee-73c2-a87b-ff46a7d3dde5","2025-09-02_09h21.51.513",NA,NA,686.608,686.608,686.6081,686.9576,NA,NA,NA,NA,NA,NA,NA,TRUE,1,0.5933,683.6077,686.6079,NA,NA,NA,NA,NA,100,31,0,77,77,85,1,2,78,"likert"
"AAE6A7BF55A54CA29822014110DEFF70",1,"01990a98-117f-7cf3-a320-8acba61326a3","01990a84-c4ee-73c2-a87b-ff46a7d3dde5","2025-09-02_09h21.51.513",NA,NA,689.9591,689.9591,689.9591,690.3089,NA,NA,NA,NA,NA,NA,NA,TRUE,1,0.5555,686.959,689.959,NA,NA,NA,NA,NA,30,38,0,78,78,47,1,2,79,"likert"
"AAE6A7BF55A54CA29822014110DEFF70",1,"01990a98-117f-7cf3-a320-8acba61326a3","01990a84-c4ee-73c2-a87b-ff46a7d3dde5","2025-09-02_09h21.51.513",NA,NA,693.3106,693.3106,693.3106,693.6602,NA,NA,NA,NA,NA,NA,NA,TRUE,1,0.3847,690.3097,693.3104,NA,NA,NA,NA,NA,28,39,0,79,79,40,1,2,80,"likert"
"AAE6A7BF55A54CA29822014110DEFF70",1,"01990a98-117f-7cf3-a320-8acba61326a3","01990a84-c4ee-73c2-a87b-ff46a7d3dde5","2025-09-02_09h21.51.513",NA,NA,696.6619,696.662,696.662,697.0115,NA,NA,NA,NA,NA,NA,NA,TRUE,1,0.6062,693.6612,696.6617,NA,NA,NA,NA,NA,150,33,0,80,80,91,1,2,81,"likert"
"AAE6A7BF55A54CA29822014110DEFF70",1,"01990a98-117f-7cf3-a320-8acba61326a3","01990a84-c4ee-73c2-a87b-ff46a7d3dde5","2025-09-02_09h21.51.513",NA,NA,700.0127,700.0128,700.0128,700.3629,NA,NA,NA,NA,NA,NA,NA,TRUE,1,0.5197,697.0125,700.0126,NA,NA,NA,NA,NA,45,40,0,81,81,58,1,2,82,"likert"
"AAE6A7BF55A54CA29822014110DEFF70",1,"01990a98-117f-7cf3-a320-8acba61326a3","01990a84-c4ee-73c2-a87b-ff46a7d3dde5","2025-09-02_09h21.51.513",NA,NA,703.3641,703.3641,703.3642,703.7139,NA,NA,NA,NA,NA,NA,NA,TRUE,1,0.417,700.364,703.364,NA,NA,NA,NA,NA,40,47,0,82,82,52,1,2,83,"likert"
"AAE6A7BF55A54CA29822014110DEFF70",1,"01990a98-117f-7cf3-a320-8acba61326a3","01990a84-c4ee-73c2-a87b-ff46a7d3dde5","2025-09-02_09h21.51.513",NA,NA,706.6991,706.6992,706.6992,707.0488,NA,NA,NA,NA,NA,NA,NA,TRUE,1,0.9583,703.7146,706.6989,NA,NA,NA,NA,NA,25,33,0,83,83,33,1,2,84,"likert"
"AAE6A7BF55A54CA29822014110DEFF70",1,"01990a98-117f-7cf3-a320-8acba61326a3","01990a84-c4ee-73c2-a87b-ff46a7d3dde5","2025-09-02_09h21.51.513",NA,NA,710.0501,710.0501,710.0501,710.4,NA,NA,NA,NA,NA,NA,NA,TRUE,1,0.6353,707.05,710.0499,NA,NA,NA,NA,NA,28,35,0,84,84,39,1,2,85,"likert"
"AAE6A7BF55A54CA29822014110DEFF70",1,"01990a98-117f-7cf3-a320-8acba61326a3","01990a84-c4ee-73c2-a87b-ff46a7d3dde5","2025-09-02_09h21.51.513",NA,NA,713.401,713.4011,713.4011,713.751,NA,NA,NA,NA,NA,NA,NA,TRUE,1,0.9839,710.4014,713.4009,NA,NA,NA,NA,NA,40,33,0,85,85,49,1,2,86,"likert"
"AAE6A7BF55A54CA29822014110DEFF70",1,"01990a98-117f-7cf3-a320-8acba61326a3","01990a84-c4ee-73c2-a87b-ff46a7d3dde5","2025-09-02_09h21.51.513",NA,NA,716.7526,716.7526,716.7526,717.1022,NA,NA,NA,NA,NA,NA,NA,TRUE,1,0.5895,713.7519,716.7524,NA,NA,NA,NA,NA,150,47,0,86,86,94,1,2,87,"likert"
"AAE6A7BF55A54CA29822014110DEFF70",1,"01990a98-117f-7cf3-a320-8acba61326a3","01990a84-c4ee-73c2-a87b-ff46a7d3dde5","2025-09-02_09h21.51.513",NA,NA,720.1038,720.1038,720.1038,720.4538,NA,NA,NA,NA,NA,NA,NA,TRUE,1,0.719,717.1029,720.1037,NA,NA,NA,NA,NA,25,46,0,87,87,35,1,2,88,"likert"
"AAE6A7BF55A54CA29822014110DEFF70",1,"01990a98-117f-7cf3-a320-8acba61326a3","01990a84-c4ee-73c2-a87b-ff46a7d3dde5","2025-09-02_09h21.51.513",NA,NA,723.461,723.4611,723.4611,723.805,NA,NA,NA,NA,NA,NA,NA,TRUE,1,0.8338,720.4549,723.461,NA,NA,NA,NA,NA,14,25,0,88,88,18,1,2,89,"likert"
"AAE6A7BF55A54CA29822014110DEFF70",1,"01990a98-117f-7cf3-a320-8acba61326a3","01990a84-c4ee-73c2-a87b-ff46a7d3dde5","2025-09-02_09h21.51.513",NA,NA,726.8063,726.8063,726.8063,727.1564,NA,NA,NA,NA,NA,NA,NA,TRUE,1,0.4258,723.8057,726.8062,NA,NA,NA,NA,NA,45,29,0,89,89,55,1,2,90,"likert"
"AAE6A7BF55A54CA29822014110DEFF70",1,"01990a98-117f-7cf3-a320-8acba61326a3","01990a84-c4ee-73c2-a87b-ff46a7d3dde5","2025-09-02_09h21.51.513",NA,NA,730.1575,730.1575,730.1576,730.5074,NA,NA,NA,NA,NA,NA,NA,TRUE,1,0.5723,727.158,730.1573,NA,NA,NA,NA,NA,40,27,0,90,90,48,1,2,91,"likert"
"AAE6A7BF55A54CA29822014110DEFF70",1,"01990a98-117f-7cf3-a320-8acba61326a3","01990a84-c4ee-73c2-a87b-ff46a7d3dde5","2025-09-02_09h21.51.513",NA,NA,733.5089,733.509,733.509,733.8585,NA,NA,NA,NA,NA,NA,NA,TRUE,1,0.7214,730.5085,733.5088,NA,NA,NA,NA,NA,60,29,0,91,91,66,1,2,92,"likert"
"AAE6A7BF55A54CA29822014110DEFF70",1,"01990a98-117f-7cf3-a320-8acba61326a3","01990a84-c4ee-73c2-a87b-ff46a7d3dde5","2025-09-02_09h21.51.513",NA,NA,736.8597,736.8597,736.8597,737.21,NA,NA,NA,NA,NA,NA,NA,TRUE,1,0.6261,733.8593,736.8596,NA,NA,NA,NA,NA,21,30,0,92,92,27,1,2,93,"likert"
"AAE6A7BF55A54CA29822014110DEFF70",1,"01990a98-117f-7cf3-a320-8acba61326a3","01990a84-c4ee-73c2-a87b-ff46a7d3dde5","2025-09-02_09h21.51.513",NA,NA,740.2114,740.2115,740.2116,740.561,NA,NA,NA,NA,NA,NA,NA,TRUE,1,0.4603,737.211,740.2112,NA,NA,NA,NA,NA,90,33,0,93,93,74,1,2,94,"likert"
"AAE6A7BF55A54CA29822014110DEFF70",1,"01990a98-117f-7cf3-a320-8acba61326a3","01990a84-c4ee-73c2-a87b-ff46a7d3dde5","2025-09-02_09h21.51.513",NA,NA,743.5517,743.5518,743.5518,743.9016,NA,NA,NA,NA,NA,NA,NA,TRUE,1,0.5736,740.5618,743.5516,NA,NA,NA,NA,NA,12,35,0,94,94,17,1,2,95,"likert"
"AAE6A7BF55A54CA29822014110DEFF70",1,"01990a98-117f-7cf3-a320-8acba61326a3","01990a84-c4ee-73c2-a87b-ff46a7d3dde5","2025-09-02_09h21.51.513",NA,NA,746.9135,746.9136,746.9137,747.2637,NA,NA,NA,NA,NA,NA,NA,TRUE,1,0.6679,743.9027,746.9134,NA,NA,NA,NA,NA,200,26,0,95,95,102,1,2,96,"likert"
"AAE6A7BF55A54CA29822014110DEFF70",1,"01990a98-117f-7cf3-a320-8acba61326a3","01990a84-c4ee-73c2-a87b-ff46a7d3dde5","2025-09-02_09h21.51.513",NA,NA,750.2481,750.2482,750.2482,750.5981,NA,NA,NA,NA,NA,NA,NA,TRUE,1,0.5433,747.265,750.248,NA,NA,NA,NA,NA,21,29,0,96,96,26,1,2,97,"likert"
"AAE6A7BF55A54CA29822014110DEFF70",1,"01990a98-117f-7cf3-a320-8acba61326a3","01990a84-c4ee-73c2-a87b-ff46a7d3dde5","2025-09-02_09h21.51.513",NA,NA,753.5995,753.5996,753.5996,753.9494,NA,NA,NA,NA,NA,NA,NA,TRUE,1,0.5003,750.5989,753.5994,NA,NA,NA,NA,NA,50,30,0,97,97,61,1,2,98,"likert"
"AAE6A7BF55A54CA29822014110DEFF70",1,"01990a98-117f-7cf3-a320-8acba61326a3","01990a84-c4ee-73c2-a87b-ff46a7d3dde5","2025-09-02_09h21.51.513",NA,NA,756.9508,756.9508,756.9508,757.3009,NA,NA,NA,NA,NA,NA,NA,TRUE,1,0.4557,753.951,756.9507,NA,NA,NA,NA,NA,180,39,0,98,98,99,1,2,99,"likert"
"AAE6A7BF55A54CA29822014110DEFF70",1,"01990a98-117f-7cf3-a320-8acba61326a3","01990a84-c4ee-73c2-a87b-ff46a7d3dde5","2025-09-02_09h21.51.513",NA,NA,760.302,760.3021,760.3021,760.652,NA,NA,NA,NA,NA,NA,NA,TRUE,1,0.608,757.3023,760.3018,NA,NA,NA,NA,NA,95,40,0,99,99,81,1,2,100,"likert"
"AAE6A7BF55A54CA29822014110DEFF70",1,"01990a98-117f-7cf3-a320-8acba61326a3","01990a84-c4ee-73c2-a87b-ff46a7d3dde5","2025-09-02_09h21.51.513",NA,NA,763.6535,763.6535,763.6535,764.0031,NA,NA,NA,NA,NA,NA,NA,TRUE,1,0.5205,760.6529,763.6533,NA,NA,NA,NA,NA,12,33,0,100,100,16,1,2,101,"likert"
"AAE6A7BF55A54CA29822014110DEFF70",1,"01990a98-117f-7cf3-a320-8acba61326a3","01990a84-c4ee-73c2-a87b-ff46a7d3dde5","2025-09-02_09h21.51.513",NA,NA,767.0044,767.0044,767.0044,767.3546,NA,NA,NA,NA,NA,NA,NA,TRUE,1,0.4502,764.0039,767.0043,NA,NA,NA,NA,NA,180,31,0,101,101,97,1,2,102,"likert"
"AAE6A7BF55A54CA29822014110DEFF70",1,"01990a98-117f-7cf3-a320-8acba61326a3","01990a84-c4ee-73c2-a87b-ff46a7d3dde5","2025-09-02_09h21.51.513",NA,NA,770.3559,770.3559,770.3559,770.7056,NA,NA,NA,NA,NA,NA,NA,TRUE,1,0.3906,767.356,770.3558,NA,NA,NA,NA,NA,60,54,0,102,102,71,1,2,103,"likert"
"AAE6A7BF55A54CA29822014110DEFF70",1,"01990a98-117f-7cf3-a320-8acba61326a3","01990a84-c4ee-73c2-a87b-ff46a7d3dde5","2025-09-02_09h21.51.513",NA,NA,773.7072,773.7072,773.7072,774.0569,NA,NA,NA,NA,NA,NA,NA,TRUE,1,0.4136,770.7069,773.707,NA,NA,NA,NA,NA,100,46,0,103,103,88,1,2,104,"likert"
"AAE6A7BF55A54CA29822014110DEFF70",1,"01990a98-117f-7cf3-a320-8acba61326a3","01990a84-c4ee-73c2-a87b-ff46a7d3dde5","2025-09-02_09h21.51.513",NA,NA,777.0581,777.0582,777.0582,777.4083,NA,NA,NA,NA,NA,NA,NA,TRUE,1,0.974,774.0578,777.058,NA,NA,NA,NA,NA,12,31,0,104,104,15,1,2,105,"likert"
"AAE6A7BF55A54CA29822014110DEFF70",1,"01990a98-117f-7cf3-a320-8acba61326a3","01990a84-c4ee-73c2-a87b-ff46a7d3dde5","2025-09-02_09h21.51.513",NA,NA,780.4099,780.4099,780.4099,780.7594,NA,NA,NA,NA,NA,NA,NA,TRUE,1,0.5042,777.4094,780.4096,NA,NA,NA,NA,NA,200,28,0,105,105,103,1,2,106,"likert"
"AAE6A7BF55A54CA29822014110DEFF70",1,"01990a98-117f-7cf3-a320-8acba61326a3","01990a84-c4ee-73c2-a87b-ff46a7d3dde5","2025-09-02_09h21.51.513",NA,NA,783.7606,783.7607,783.7607,784.1108,NA,NA,NA,NA,NA,NA,NA,TRUE,1,0.3503,780.7604,783.7605,NA,NA,NA,NA,NA,7,35,0,106,106,5,1,2,107,"likert"
"AAE6A7BF55A54CA29822014110DEFF70",1,"01990a98-117f-7cf3-a320-8acba61326a3","01990a84-c4ee-73c2-a87b-ff46a7d3dde5","2025-09-02_09h21.51.513",NA,NA,787.1189,787.1191,787.1191,787.4618,NA,NA,NA,NA,NA,NA,NA,TRUE,1,0.3591,784.112,787.1188,NA,NA,NA,NA,NA,10,25,0,107,107,6,1,2,108,"likert"
