"participant","session","assignmentId","projectId","date","practiceTrial.started","practiceTrial.stopped","tooLate.started","tooLate.stopped","blank.started","blank.stopped","trials_pract.thisRepN","trials_pract.thisTrialN","trials_pract.thisN","trials_pract.thisIndex","trials_pract.ran","delay_pract","amount_pract","responseMade","key","rt","trial.started","trial.stopped","trials.thisRepN","trials.thisTrialN","trials.thisN","trials.thisIndex","trials.ran","delay","amount","trials_2.thisRepN","trials_2.thisTrialN","trials_2.thisN","trials_2.thisIndex","trials_2.ran","block","trial","taskType"
"BA97327C451541168A987783DB12FFFF",1,"01990a98-2cda-7cec-b6a6-8df86bbe200c","01990a84-c4ee-73c2-a87b-ff46a7d3dde5","2025-09-02_09h29.49.432",27.9118,30.8674,30.8679,31.2533,31.2534,31.2539,0,0,0,0,1,7,30,FALSE,NA,NA,NA,NA,NA,NA,NA,NA,NA,NA,NA,NA,NA,NA,NA,NA,0,1,"likert"
"BA97327C451541168A987783DB12FFFF",1,"01990a98-2cda-7cec-b6a6-8df86bbe200c","01990a84-c4ee-73c2-a87b-ff46a7d3dde5","2025-09-02_09h29.49.432",31.2552,34.2036,34.2038,34.2038,34.2038,34.5869,0,1,1,2,1,14,45,TRUE,2,1.3984,NA,NA,NA,NA,NA,NA,NA,NA,NA,NA,NA,NA,NA,NA,0,2,"likert"
"BA97327C451541168A987783DB12FFFF",1,"01990a98-2cda-7cec-b6a6-8df86bbe200c","01990a84-c4ee-73c2-a87b-ff46a7d3dde5","2025-09-02_09h29.49.432",34.5876,37.6462,37.6465,37.6465,37.6465,38.0337,0,2,2,1,1,100,50,TRUE,4,0.8516,NA,NA,NA,NA,NA,NA,NA,NA,NA,NA,NA,NA,NA,NA,0,3,"likert"
"BA97327C451541168A987783DB12FFFF",1,"01990a98-2cda-7cec-b6a6-8df86bbe200c","01990a84-c4ee-73c2-a87b-ff46a7d3dde5","2025-09-02_09h29.49.432",38.0345,40.9434,40.9437,40.9437,40.9437,41.2976,0,3,3,3,1,3,27,TRUE,5,1.2013,NA,NA,NA,NA,NA,NA,NA,NA,NA,NA,NA,NA,NA,NA,0,4,"likert"
"BA97327C451541168A987783DB12FFFF",1,"01990a98-2cda-7cec-b6a6-8df86bbe200c","01990a84-c4ee-73c2-a87b-ff46a7d3dde5","2025-09-02_09h29.49.432",41.2984,44.2158,44.216,44.216,44.2161,44.5795,0,4,4,4,1,30,40,TRUE,3,0.8014,NA,NA,NA,NA,NA,NA,NA,NA,NA,NA,NA,NA,NA,NA,0,5,"likert"
"BA97327C451541168A987783DB12FFFF",1,"01990a98-2cda-7cec-b6a6-8df86bbe200c","01990a84-c4ee-73c2-a87b-ff46a7d3dde5","2025-09-02_09h29.49.432",NA,NA,1488.6601,1489.0756,1489.0756,1489.0757,NA,NA,NA,NA,NA,NA,NA,FALSE,NA,NA,1485.8473,1488.6591,0,0,0,8,1,10,27,NA,NA,NA,NA,NA,1,1,"likert"
"BA97327C451541168A987783DB12FFFF",1,"01990a98-2cda-7cec-b6a6-8df86bbe200c","01990a84-c4ee-73c2-a87b-ff46a7d3dde5","2025-09-02_09h29.49.432",NA,NA,1492.053,1492.053,1492.053,1492.4518,NA,NA,NA,NA,NA,NA,NA,TRUE,2,1.3852,1489.0765,1492.0529,0,1,1,23,1,14,39,NA,NA,NA,NA,NA,1,2,"likert"
"BA97327C451541168A987783DB12FFFF",1,"01990a98-2cda-7cec-b6a6-8df86bbe200c","01990a84-c4ee-73c2-a87b-ff46a7d3dde5","2025-09-02_09h29.49.432",NA,NA,1495.4401,1495.4401,1495.4401,1495.8429,NA,NA,NA,NA,NA,NA,NA,TRUE,4,0.8038,1492.4524,1495.4399,0,2,2,104,1,200,35,NA,NA,NA,NA,NA,1,3,"likert"
"BA97327C451541168A987783DB12FFFF",1,"01990a98-2cda-7cec-b6a6-8df86bbe200c","01990a84-c4ee-73c2-a87b-ff46a7d3dde5","2025-09-02_09h29.49.432",NA,NA,1498.8289,1498.8289,1498.8289,1499.1906,NA,NA,NA,NA,NA,NA,NA,TRUE,1,2.5996,1495.8438,1498.8286,0,3,3,66,1,60,29,NA,NA,NA,NA,NA,1,4,"likert"
"BA97327C451541168A987783DB12FFFF",1,"01990a98-2cda-7cec-b6a6-8df86bbe200c","01990a84-c4ee-73c2-a87b-ff46a7d3dde5","2025-09-02_09h29.49.432",NA,NA,1502.253,1502.253,1502.253,1502.6224,NA,NA,NA,NA,NA,NA,NA,TRUE,5,0.9927,1499.1912,1502.2527,0,4,4,83,1,95,54,NA,NA,NA,NA,NA,1,5,"likert"
"BA97327C451541168A987783DB12FFFF",1,"01990a98-2cda-7cec-b6a6-8df86bbe200c","01990a84-c4ee-73c2-a87b-ff46a7d3dde5","2025-09-02_09h29.49.432",NA,NA,1505.5244,1505.5244,1505.5244,1505.9076,NA,NA,NA,NA,NA,NA,NA,TRUE,4,0.7851,1502.6231,1505.5242,0,5,5,21,1,14,32,NA,NA,NA,NA,NA,1,6,"likert"
"BA97327C451541168A987783DB12FFFF",1,"01990a98-2cda-7cec-b6a6-8df86bbe200c","01990a84-c4ee-73c2-a87b-ff46a7d3dde5","2025-09-02_09h29.49.432",NA,NA,1508.8957,1508.8957,1508.8958,1509.2725,NA,NA,NA,NA,NA,NA,NA,TRUE,3,0.6911,1505.9109,1508.8956,0,6,6,20,1,14,28,NA,NA,NA,NA,NA,1,7,"likert"
"BA97327C451541168A987783DB12FFFF",1,"01990a98-2cda-7cec-b6a6-8df86bbe200c","01990a84-c4ee-73c2-a87b-ff46a7d3dde5","2025-09-02_09h29.49.432",NA,NA,1512.2532,1512.2533,1512.2534,1512.6147,NA,NA,NA,NA,NA,NA,NA,TRUE,5,0.8139,1509.273,1512.253,0,7,7,0,1,7,25,NA,NA,NA,NA,NA,1,8,"likert"
"BA97327C451541168A987783DB12FFFF",1,"01990a98-2cda-7cec-b6a6-8df86bbe200c","01990a84-c4ee-73c2-a87b-ff46a7d3dde5","2025-09-02_09h29.49.432",NA,NA,1515.5835,1515.5836,1515.5836,1515.9345,NA,NA,NA,NA,NA,NA,NA,TRUE,3,0.7829,1512.6156,1515.5834,0,8,8,69,1,60,40,NA,NA,NA,NA,NA,1,9,"likert"
"BA97327C451541168A987783DB12FFFF",1,"01990a98-2cda-7cec-b6a6-8df86bbe200c","01990a84-c4ee-73c2-a87b-ff46a7d3dde5","2025-09-02_09h29.49.432",NA,NA,1518.8733,1518.8733,1518.8733,1519.2489,NA,NA,NA,NA,NA,NA,NA,TRUE,4,1.5891,1515.9351,1518.8731,0,9,9,14,1,12,28,NA,NA,NA,NA,NA,1,10,"likert"
"BA97327C451541168A987783DB12FFFF",1,"01990a98-2cda-7cec-b6a6-8df86bbe200c","01990a84-c4ee-73c2-a87b-ff46a7d3dde5","2025-09-02_09h29.49.432",NA,NA,1522.367,1522.3986,1522.3987,1522.7668,NA,NA,NA,NA,NA,NA,NA,TRUE,4,0.0041,1519.2496,1522.3669,0,10,10,39,1,28,35,NA,NA,NA,NA,NA,1,11,"likert"
"BA97327C451541168A987783DB12FFFF",1,"01990a98-2cda-7cec-b6a6-8df86bbe200c","01990a84-c4ee-73c2-a87b-ff46a7d3dde5","2025-09-02_09h29.49.432",NA,NA,1525.63,1525.6301,1525.6301,1525.9802,NA,NA,NA,NA,NA,NA,NA,TRUE,3,0.004,1522.7675,1525.6299,0,11,11,49,1,40,33,NA,NA,NA,NA,NA,1,12,"likert"
"BA97327C451541168A987783DB12FFFF",1,"01990a98-2cda-7cec-b6a6-8df86bbe200c","01990a84-c4ee-73c2-a87b-ff46a7d3dde5","2025-09-02_09h29.49.432",NA,NA,1528.891,1528.8911,1528.8911,1529.4277,NA,NA,NA,NA,NA,NA,NA,TRUE,4,0.9941,1525.9808,1528.8908,0,12,12,60,1,50,27,NA,NA,NA,NA,NA,1,13,"likert"
"BA97327C451541168A987783DB12FFFF",1,"01990a98-2cda-7cec-b6a6-8df86bbe200c","01990a84-c4ee-73c2-a87b-ff46a7d3dde5","2025-09-02_09h29.49.432",NA,NA,1532.1692,1532.5255,1532.5255,1532.7075,NA,NA,NA,NA,NA,NA,NA,FALSE,NA,NA,1529.4283,1532.169,0,13,13,80,1,95,35,NA,NA,NA,NA,NA,1,14,"likert"
"BA97327C451541168A987783DB12FFFF",1,"01990a98-2cda-7cec-b6a6-8df86bbe200c","01990a84-c4ee-73c2-a87b-ff46a7d3dde5","2025-09-02_09h29.49.432",NA,NA,1535.4947,1535.4947,1535.4947,1536.0307,NA,NA,NA,NA,NA,NA,NA,TRUE,4,0.0037,1532.708,1535.4945,0,14,14,102,1,200,26,NA,NA,NA,NA,NA,1,15,"likert"
"BA97327C451541168A987783DB12FFFF",1,"01990a98-2cda-7cec-b6a6-8df86bbe200c","01990a84-c4ee-73c2-a87b-ff46a7d3dde5","2025-09-02_09h29.49.432",NA,NA,1539.1127,1539.1127,1539.1127,1539.4737,NA,NA,NA,NA,NA,NA,NA,TRUE,4,0.3909,1536.0312,1539.1126,0,15,15,19,1,14,26,NA,NA,NA,NA,NA,1,16,"likert"
"BA97327C451541168A987783DB12FFFF",1,"01990a98-2cda-7cec-b6a6-8df86bbe200c","01990a84-c4ee-73c2-a87b-ff46a7d3dde5","2025-09-02_09h29.49.432",NA,NA,1542.3638,1542.3638,1542.3638,1542.7204,NA,NA,NA,NA,NA,NA,NA,TRUE,3,2.7043,1539.4744,1542.3636,0,16,16,103,1,200,28,NA,NA,NA,NA,NA,1,17,"likert"
"BA97327C451541168A987783DB12FFFF",1,"01990a98-2cda-7cec-b6a6-8df86bbe200c","01990a84-c4ee-73c2-a87b-ff46a7d3dde5","2025-09-02_09h29.49.432",NA,NA,1545.7616,1545.7616,1545.7616,1546.1182,NA,NA,NA,NA,NA,NA,NA,TRUE,3,0.1988,1542.7209,1545.7615,0,17,17,26,1,21,29,NA,NA,NA,NA,NA,1,18,"likert"
"BA97327C451541168A987783DB12FFFF",1,"01990a98-2cda-7cec-b6a6-8df86bbe200c","01990a84-c4ee-73c2-a87b-ff46a7d3dde5","2025-09-02_09h29.49.432",NA,NA,1549.0118,1549.0118,1549.0118,1549.3839,NA,NA,NA,NA,NA,NA,NA,TRUE,4,2.6585,1546.1188,1549.0117,0,18,18,53,1,40,54,NA,NA,NA,NA,NA,1,19,"likert"
"BA97327C451541168A987783DB12FFFF",1,"01990a98-2cda-7cec-b6a6-8df86bbe200c","01990a84-c4ee-73c2-a87b-ff46a7d3dde5","2025-09-02_09h29.49.432",NA,NA,1552.4969,1552.4969,1552.4969,1552.8643,NA,NA,NA,NA,NA,NA,NA,TRUE,4,0.4069,1549.3845,1552.4967,0,19,19,96,1,180,27,NA,NA,NA,NA,NA,1,20,"likert"
"BA97327C451541168A987783DB12FFFF",1,"01990a98-2cda-7cec-b6a6-8df86bbe200c","01990a84-c4ee-73c2-a87b-ff46a7d3dde5","2025-09-02_09h29.49.432",NA,NA,1555.8384,1555.8384,1555.8384,1556.1929,NA,NA,NA,NA,NA,NA,NA,TRUE,2,0.1994,1552.8649,1555.8382,0,20,20,43,1,30,27,NA,NA,NA,NA,NA,1,21,"likert"
"BA97327C451541168A987783DB12FFFF",1,"01990a98-2cda-7cec-b6a6-8df86bbe200c","01990a84-c4ee-73c2-a87b-ff46a7d3dde5","2025-09-02_09h29.49.432",NA,NA,1559.0657,1559.0657,1559.0657,1559.4403,NA,NA,NA,NA,NA,NA,NA,TRUE,3,0.9577,1556.1935,1559.0655,0,21,21,32,1,25,31,NA,NA,NA,NA,NA,1,22,"likert"
"BA97327C451541168A987783DB12FFFF",1,"01990a98-2cda-7cec-b6a6-8df86bbe200c","01990a84-c4ee-73c2-a87b-ff46a7d3dde5","2025-09-02_09h29.49.432",NA,NA,1562.2858,1562.2858,1562.2858,1562.8402,NA,NA,NA,NA,NA,NA,NA,TRUE,3,0.1956,1559.4409,1562.2857,0,22,22,84,1,100,26,NA,NA,NA,NA,NA,1,23,"likert"
"BA97327C451541168A987783DB12FFFF",1,"01990a98-2cda-7cec-b6a6-8df86bbe200c","01990a84-c4ee-73c2-a87b-ff46a7d3dde5","2025-09-02_09h29.49.432",NA,NA,1565.7419,1565.7419,1565.7419,1566.1241,NA,NA,NA,NA,NA,NA,NA,TRUE,4,0.0038,1562.8408,1565.7417,0,23,23,92,1,150,35,NA,NA,NA,NA,NA,1,24,"likert"
"BA97327C451541168A987783DB12FFFF",1,"01990a98-2cda-7cec-b6a6-8df86bbe200c","01990a84-c4ee-73c2-a87b-ff46a7d3dde5","2025-09-02_09h29.49.432",NA,NA,1569.0044,1569.0045,1569.0045,1569.5442,NA,NA,NA,NA,NA,NA,NA,TRUE,3,0.6011,1566.1247,1569.0042,0,24,24,99,1,180,39,NA,NA,NA,NA,NA,1,25,"likert"
"BA97327C451541168A987783DB12FFFF",1,"01990a98-2cda-7cec-b6a6-8df86bbe200c","01990a84-c4ee-73c2-a87b-ff46a7d3dde5","2025-09-02_09h29.49.432",NA,NA,1572.4625,1572.4625,1572.4625,1572.8275,NA,NA,NA,NA,NA,NA,NA,TRUE,2,0.0043,1569.5448,1572.4621,0,25,25,93,1,150,40,NA,NA,NA,NA,NA,1,26,"likert"
"BA97327C451541168A987783DB12FFFF",1,"01990a98-2cda-7cec-b6a6-8df86bbe200c","01990a84-c4ee-73c2-a87b-ff46a7d3dde5","2025-09-02_09h29.49.432",NA,NA,1575.8507,1575.8507,1575.8507,1576.2252,NA,NA,NA,NA,NA,NA,NA,TRUE,3,0.0036,1572.8281,1575.8505,0,26,26,47,1,30,38,NA,NA,NA,NA,NA,1,27,"likert"
"BA97327C451541168A987783DB12FFFF",1,"01990a98-2cda-7cec-b6a6-8df86bbe200c","01990a84-c4ee-73c2-a87b-ff46a7d3dde5","2025-09-02_09h29.49.432",NA,NA,1579.3501,1579.3501,1579.3501,1579.7198,NA,NA,NA,NA,NA,NA,NA,TRUE,3,0.2024,1576.2259,1579.35,0,27,27,31,1,25,29,NA,NA,NA,NA,NA,1,28,"likert"
"BA97327C451541168A987783DB12FFFF",1,"01990a98-2cda-7cec-b6a6-8df86bbe200c","01990a84-c4ee-73c2-a87b-ff46a7d3dde5","2025-09-02_09h29.49.432",NA,NA,1582.426,1582.426,1582.426,1582.977,NA,NA,NA,NA,NA,NA,NA,TRUE,4,2.6748,1579.7203,1582.4258,0,28,28,70,1,60,47,NA,NA,NA,NA,NA,1,29,"likert"
"BA97327C451541168A987783DB12FFFF",1,"01990a98-2cda-7cec-b6a6-8df86bbe200c","01990a84-c4ee-73c2-a87b-ff46a7d3dde5","2025-09-02_09h29.49.432",NA,NA,1585.8218,1585.8218,1585.8218,1586.1932,NA,NA,NA,NA,NA,NA,NA,TRUE,3,2.4955,1582.9776,1585.8217,0,29,29,89,1,100,54,NA,NA,NA,NA,NA,1,30,"likert"
"BA97327C451541168A987783DB12FFFF",1,"01990a98-2cda-7cec-b6a6-8df86bbe200c","01990a84-c4ee-73c2-a87b-ff46a7d3dde5","2025-09-02_09h29.49.432",NA,NA,1589.2809,1589.2809,1589.2809,1589.635,NA,NA,NA,NA,NA,NA,NA,TRUE,4,0.4147,1586.1938,1589.2807,0,30,30,97,1,180,31,NA,NA,NA,NA,NA,1,31,"likert"
"BA97327C451541168A987783DB12FFFF",1,"01990a98-2cda-7cec-b6a6-8df86bbe200c","01990a84-c4ee-73c2-a87b-ff46a7d3dde5","2025-09-02_09h29.49.432",NA,NA,1592.5898,1592.5899,1592.5899,1592.9535,NA,NA,NA,NA,NA,NA,NA,TRUE,3,0.0041,1589.6356,1592.5896,0,31,31,86,1,100,38,NA,NA,NA,NA,NA,1,32,"likert"
"BA97327C451541168A987783DB12FFFF",1,"01990a98-2cda-7cec-b6a6-8df86bbe200c","01990a84-c4ee-73c2-a87b-ff46a7d3dde5","2025-09-02_09h29.49.432",NA,NA,1595.8759,1595.8759,1595.8759,1596.2371,NA,NA,NA,NA,NA,NA,NA,TRUE,3,2.5673,1592.9541,1595.8757,0,32,32,29,1,21,38,NA,NA,NA,NA,NA,1,33,"likert"
"BA97327C451541168A987783DB12FFFF",1,"01990a98-2cda-7cec-b6a6-8df86bbe200c","01990a84-c4ee-73c2-a87b-ff46a7d3dde5","2025-09-02_09h29.49.432",NA,NA,1599.36,1599.3601,1599.3601,1599.7203,NA,NA,NA,NA,NA,NA,NA,TRUE,4,1.3954,1596.2379,1599.3599,0,33,33,33,1,25,33,NA,NA,NA,NA,NA,1,34,"likert"
"BA97327C451541168A987783DB12FFFF",1,"01990a98-2cda-7cec-b6a6-8df86bbe200c","01990a84-c4ee-73c2-a87b-ff46a7d3dde5","2025-09-02_09h29.49.432",NA,NA,1602.6857,1602.6857,1602.6857,1603.0403,NA,NA,NA,NA,NA,NA,NA,TRUE,3,0.2105,1599.7209,1602.6856,0,34,34,95,1,150,54,NA,NA,NA,NA,NA,1,35,"likert"
"BA97327C451541168A987783DB12FFFF",1,"01990a98-2cda-7cec-b6a6-8df86bbe200c","01990a84-c4ee-73c2-a87b-ff46a7d3dde5","2025-09-02_09h29.49.432",NA,NA,1606.1136,1606.1136,1606.1136,1606.4712,NA,NA,NA,NA,NA,NA,NA,TRUE,5,2.6957,1603.0409,1606.1134,0,35,35,75,1,90,40,NA,NA,NA,NA,NA,1,36,"likert"
"BA97327C451541168A987783DB12FFFF",1,"01990a98-2cda-7cec-b6a6-8df86bbe200c","01990a84-c4ee-73c2-a87b-ff46a7d3dde5","2025-09-02_09h29.49.432",NA,NA,1609.4111,1609.4111,1609.4111,1609.7932,NA,NA,NA,NA,NA,NA,NA,TRUE,3,1.5829,1606.4718,1609.4109,0,36,36,79,1,95,33,NA,NA,NA,NA,NA,1,37,"likert"
"BA97327C451541168A987783DB12FFFF",1,"01990a98-2cda-7cec-b6a6-8df86bbe200c","01990a84-c4ee-73c2-a87b-ff46a7d3dde5","2025-09-02_09h29.49.432",NA,NA,1612.7608,1612.7609,1612.7609,1613.1622,NA,NA,NA,NA,NA,NA,NA,TRUE,3,1.6002,1609.7938,1612.7607,0,37,37,4,1,7,32,NA,NA,NA,NA,NA,1,38,"likert"
"BA97327C451541168A987783DB12FFFF",1,"01990a98-2cda-7cec-b6a6-8df86bbe200c","01990a84-c4ee-73c2-a87b-ff46a7d3dde5","2025-09-02_09h29.49.432",NA,NA,1615.9075,1616.2717,1616.2718,1616.4545,NA,NA,NA,NA,NA,NA,NA,FALSE,NA,NA,1613.1627,1615.9073,0,38,38,94,1,150,47,NA,NA,NA,NA,NA,1,39,"likert"
"BA97327C451541168A987783DB12FFFF",1,"01990a98-2cda-7cec-b6a6-8df86bbe200c","01990a84-c4ee-73c2-a87b-ff46a7d3dde5","2025-09-02_09h29.49.432",NA,NA,1619.5384,1619.5384,1619.5384,1619.9015,NA,NA,NA,NA,NA,NA,NA,TRUE,3,0.004,1616.4551,1619.5382,0,39,39,64,1,50,46,NA,NA,NA,NA,NA,1,40,"likert"
"BA97327C451541168A987783DB12FFFF",1,"01990a98-2cda-7cec-b6a6-8df86bbe200c","01990a84-c4ee-73c2-a87b-ff46a7d3dde5","2025-09-02_09h29.49.432",NA,NA,1622.5986,1622.5987,1622.5987,1623.1724,NA,NA,NA,NA,NA,NA,NA,TRUE,4,1.5424,1619.9021,1622.5986,0,40,40,13,1,12,26,NA,NA,NA,NA,NA,1,41,"likert"
"BA97327C451541168A987783DB12FFFF",1,"01990a98-2cda-7cec-b6a6-8df86bbe200c","01990a84-c4ee-73c2-a87b-ff46a7d3dde5","2025-09-02_09h29.49.432",NA,NA,1625.9402,1625.9402,1625.9402,1626.4892,NA,NA,NA,NA,NA,NA,NA,TRUE,3,1.9495,1623.173,1625.94,0,41,41,100,1,180,46,NA,NA,NA,NA,NA,1,42,"likert"
"BA97327C451541168A987783DB12FFFF",1,"01990a98-2cda-7cec-b6a6-8df86bbe200c","01990a84-c4ee-73c2-a87b-ff46a7d3dde5","2025-09-02_09h29.49.432",NA,NA,1629.3919,1629.7593,1629.7593,1629.7593,NA,NA,NA,NA,NA,NA,NA,FALSE,NA,NA,1626.4898,1629.3917,0,42,42,68,1,60,35,NA,NA,NA,NA,NA,1,43,"likert"
"BA97327C451541168A987783DB12FFFF",1,"01990a98-2cda-7cec-b6a6-8df86bbe200c","01990a84-c4ee-73c2-a87b-ff46a7d3dde5","2025-09-02_09h29.49.432",NA,NA,1632.8423,1632.8424,1632.8424,1633.1994,NA,NA,NA,NA,NA,NA,NA,TRUE,2,0.0037,1629.7599,1632.8422,0,43,43,3,1,7,30,NA,NA,NA,NA,NA,1,44,"likert"
"BA97327C451541168A987783DB12FFFF",1,"01990a98-2cda-7cec-b6a6-8df86bbe200c","01990a84-c4ee-73c2-a87b-ff46a7d3dde5","2025-09-02_09h29.49.432",NA,NA,1636.2754,1636.2754,1636.2754,1636.6405,NA,NA,NA,NA,NA,NA,NA,TRUE,2,0.3918,1633.2,1636.2752,0,44,44,59,1,45,46,NA,NA,NA,NA,NA,1,45,"likert"
"BA97327C451541168A987783DB12FFFF",1,"01990a98-2cda-7cec-b6a6-8df86bbe200c","01990a84-c4ee-73c2-a87b-ff46a7d3dde5","2025-09-02_09h29.49.432",NA,NA,1639.375,1639.375,1639.375,1639.9673,NA,NA,NA,NA,NA,NA,NA,TRUE,4,0.3921,1636.6421,1639.3748,0,45,45,48,1,40,27,NA,NA,NA,NA,NA,1,46,"likert"
"BA97327C451541168A987783DB12FFFF",1,"01990a98-2cda-7cec-b6a6-8df86bbe200c","01990a84-c4ee-73c2-a87b-ff46a7d3dde5","2025-09-02_09h29.49.432",NA,NA,1642.6599,1642.6599,1642.6599,1643.2447,NA,NA,NA,NA,NA,NA,NA,TRUE,4,0.199,1639.9679,1642.6597,0,46,46,40,1,28,39,NA,NA,NA,NA,NA,1,47,"likert"
"BA97327C451541168A987783DB12FFFF",1,"01990a98-2cda-7cec-b6a6-8df86bbe200c","01990a84-c4ee-73c2-a87b-ff46a7d3dde5","2025-09-02_09h29.49.432",NA,NA,1646.2302,1646.2303,1646.2303,1646.6415,NA,NA,NA,NA,NA,NA,NA,TRUE,5,0.8546,1643.2454,1646.2301,0,47,47,87,1,100,39,NA,NA,NA,NA,NA,1,48,"likert"
"BA97327C451541168A987783DB12FFFF",1,"01990a98-2cda-7cec-b6a6-8df86bbe200c","01990a84-c4ee-73c2-a87b-ff46a7d3dde5","2025-09-02_09h29.49.432",NA,NA,1649.552,1649.5521,1649.5521,1649.9161,NA,NA,NA,NA,NA,NA,NA,TRUE,3,2.7844,1646.6422,1649.5519,0,48,48,1,1,7,26,NA,NA,NA,NA,NA,1,49,"likert"
"BA97327C451541168A987783DB12FFFF",1,"01990a98-2cda-7cec-b6a6-8df86bbe200c","01990a84-c4ee-73c2-a87b-ff46a7d3dde5","2025-09-02_09h29.49.432",NA,NA,1652.9733,1652.9733,1652.9733,1653.3519,NA,NA,NA,NA,NA,NA,NA,TRUE,4,2.7236,1649.9167,1652.9731,0,49,49,30,1,25,27,NA,NA,NA,NA,NA,1,50,"likert"
"BA97327C451541168A987783DB12FFFF",1,"01990a98-2cda-7cec-b6a6-8df86bbe200c","01990a84-c4ee-73c2-a87b-ff46a7d3dde5","2025-09-02_09h29.49.432",NA,NA,1656.077,1656.077,1656.077,1656.7109,NA,NA,NA,NA,NA,NA,NA,TRUE,4,2.6795,1653.3525,1656.0769,0,50,50,65,1,50,54,NA,NA,NA,NA,NA,1,51,"likert"
"BA97327C451541168A987783DB12FFFF",1,"01990a98-2cda-7cec-b6a6-8df86bbe200c","01990a84-c4ee-73c2-a87b-ff46a7d3dde5","2025-09-02_09h29.49.432",NA,NA,1659.4055,1659.4055,1659.4055,1659.9705,NA,NA,NA,NA,NA,NA,NA,TRUE,3,0.3882,1656.7114,1659.4053,0,51,51,54,1,45,26,NA,NA,NA,NA,NA,1,52,"likert"
"BA97327C451541168A987783DB12FFFF",1,"01990a98-2cda-7cec-b6a6-8df86bbe200c","01990a84-c4ee-73c2-a87b-ff46a7d3dde5","2025-09-02_09h29.49.432",NA,NA,1663.0429,1663.043,1663.043,1663.398,NA,NA,NA,NA,NA,NA,NA,TRUE,2,0.584,1659.9711,1663.0429,0,52,52,77,1,90,54,NA,NA,NA,NA,NA,1,53,"likert"
"BA97327C451541168A987783DB12FFFF",1,"01990a98-2cda-7cec-b6a6-8df86bbe200c","01990a84-c4ee-73c2-a87b-ff46a7d3dde5","2025-09-02_09h29.49.432",NA,NA,1666.2108,1666.2108,1666.2108,1666.7452,NA,NA,NA,NA,NA,NA,NA,TRUE,3,2.6654,1663.3987,1666.2106,0,53,53,5,1,7,35,NA,NA,NA,NA,NA,1,54,"likert"
"BA97327C451541168A987783DB12FFFF",1,"01990a98-2cda-7cec-b6a6-8df86bbe200c","01990a84-c4ee-73c2-a87b-ff46a7d3dde5","2025-09-02_09h29.49.432",NA,NA,1669.6082,1669.6082,1669.6082,1669.9594,NA,NA,NA,NA,NA,NA,NA,TRUE,3,0.5739,1666.7458,1669.6081,0,54,54,82,1,95,47,NA,NA,NA,NA,NA,1,55,"likert"
"BA97327C451541168A987783DB12FFFF",1,"01990a98-2cda-7cec-b6a6-8df86bbe200c","01990a84-c4ee-73c2-a87b-ff46a7d3dde5","2025-09-02_09h29.49.432",NA,NA,1672.9617,1672.9617,1672.9617,1673.4999,NA,NA,NA,NA,NA,NA,NA,TRUE,4,0.3864,1669.9599,1672.9616,0,55,55,57,1,45,35,NA,NA,NA,NA,NA,1,56,"likert"
"BA97327C451541168A987783DB12FFFF",1,"01990a98-2cda-7cec-b6a6-8df86bbe200c","01990a84-c4ee-73c2-a87b-ff46a7d3dde5","2025-09-02_09h29.49.432",NA,NA,1676.1664,1676.5223,1676.5223,1676.882,NA,NA,NA,NA,NA,NA,NA,FALSE,NA,NA,1673.5006,1676.1663,0,56,56,81,1,95,40,NA,NA,NA,NA,NA,1,57,"likert"
"BA97327C451541168A987783DB12FFFF",1,"01990a98-2cda-7cec-b6a6-8df86bbe200c","01990a84-c4ee-73c2-a87b-ff46a7d3dde5","2025-09-02_09h29.49.432",NA,NA,1679.7337,1679.7338,1679.7338,1680.0951,NA,NA,NA,NA,NA,NA,NA,TRUE,4,1.728,1676.8827,1679.7336,0,57,57,50,1,40,35,NA,NA,NA,NA,NA,1,58,"likert"
"BA97327C451541168A987783DB12FFFF",1,"01990a98-2cda-7cec-b6a6-8df86bbe200c","01990a84-c4ee-73c2-a87b-ff46a7d3dde5","2025-09-02_09h29.49.432",NA,NA,1682.9617,1682.9617,1682.9617,1683.5303,NA,NA,NA,NA,NA,NA,NA,TRUE,4,0.4099,1680.0962,1682.9616,0,58,58,11,1,10,32,NA,NA,NA,NA,NA,1,59,"likert"
"BA97327C451541168A987783DB12FFFF",1,"01990a98-2cda-7cec-b6a6-8df86bbe200c","01990a84-c4ee-73c2-a87b-ff46a7d3dde5","2025-09-02_09h29.49.432",NA,NA,1686.2235,1686.2236,1686.2236,1686.7517,NA,NA,NA,NA,NA,NA,NA,TRUE,3,0.8217,1683.531,1686.2234,0,59,59,56,1,45,31,NA,NA,NA,NA,NA,1,60,"likert"
"BA97327C451541168A987783DB12FFFF",1,"01990a98-2cda-7cec-b6a6-8df86bbe200c","01990a84-c4ee-73c2-a87b-ff46a7d3dde5","2025-09-02_09h29.49.432",NA,NA,1689.6011,1689.6012,1689.6012,1690.1399,NA,NA,NA,NA,NA,NA,NA,TRUE,3,0.3792,1686.7524,1689.6009,0,60,60,72,1,90,26,NA,NA,NA,NA,NA,1,61,"likert"
"BA97327C451541168A987783DB12FFFF",1,"01990a98-2cda-7cec-b6a6-8df86bbe200c","01990a84-c4ee-73c2-a87b-ff46a7d3dde5","2025-09-02_09h29.49.432",NA,NA,1693.2286,1693.2286,1693.2286,1693.4065,NA,NA,NA,NA,NA,NA,NA,TRUE,4,2.4831,1690.1405,1693.2285,0,61,61,107,1,200,54,NA,NA,NA,NA,NA,1,62,"likert"
"BA97327C451541168A987783DB12FFFF",1,"01990a98-2cda-7cec-b6a6-8df86bbe200c","01990a84-c4ee-73c2-a87b-ff46a7d3dde5","2025-09-02_09h29.49.432",NA,NA,1696.2592,1696.2592,1696.2592,1696.8108,NA,NA,NA,NA,NA,NA,NA,TRUE,5,0.0038,1693.407,1696.2591,0,62,62,34,1,25,35,NA,NA,NA,NA,NA,1,63,"likert"
"BA97327C451541168A987783DB12FFFF",1,"01990a98-2cda-7cec-b6a6-8df86bbe200c","01990a84-c4ee-73c2-a87b-ff46a7d3dde5","2025-09-02_09h29.49.432",NA,NA,1699.6253,1699.6254,1699.6254,1700.1659,NA,NA,NA,NA,NA,NA,NA,TRUE,4,2.4745,1696.8114,1699.6251,0,63,63,22,1,14,35,NA,NA,NA,NA,NA,1,64,"likert"
"BA97327C451541168A987783DB12FFFF",1,"01990a98-2cda-7cec-b6a6-8df86bbe200c","01990a84-c4ee-73c2-a87b-ff46a7d3dde5","2025-09-02_09h29.49.432",NA,NA,1703.0901,1703.0901,1703.0901,1703.4461,NA,NA,NA,NA,NA,NA,NA,TRUE,5,0.0186,1700.1957,1703.09,0,64,64,106,1,200,47,NA,NA,NA,NA,NA,1,65,"likert"
"BA97327C451541168A987783DB12FFFF",1,"01990a98-2cda-7cec-b6a6-8df86bbe200c","01990a84-c4ee-73c2-a87b-ff46a7d3dde5","2025-09-02_09h29.49.432",NA,NA,1706.4993,1706.4994,1706.4994,1707.0297,NA,NA,NA,NA,NA,NA,NA,TRUE,4,0.7623,1703.4467,1706.4992,0,65,65,28,1,21,32,NA,NA,NA,NA,NA,1,66,"likert"
"BA97327C451541168A987783DB12FFFF",1,"01990a98-2cda-7cec-b6a6-8df86bbe200c","01990a84-c4ee-73c2-a87b-ff46a7d3dde5","2025-09-02_09h29.49.432",NA,NA,1709.7727,1710.129,1710.129,1710.3077,NA,NA,NA,NA,NA,NA,NA,FALSE,NA,NA,1707.0303,1709.7724,0,66,66,74,1,90,33,NA,NA,NA,NA,NA,1,67,"likert"
"BA97327C451541168A987783DB12FFFF",1,"01990a98-2cda-7cec-b6a6-8df86bbe200c","01990a84-c4ee-73c2-a87b-ff46a7d3dde5","2025-09-02_09h29.49.432",NA,NA,1713.0471,1713.0471,1713.0472,1713.6437,NA,NA,NA,NA,NA,NA,NA,TRUE,3,0.2146,1710.3084,1713.047,0,67,67,42,1,30,26,NA,NA,NA,NA,NA,1,68,"likert"
"BA97327C451541168A987783DB12FFFF",1,"01990a98-2cda-7cec-b6a6-8df86bbe200c","01990a84-c4ee-73c2-a87b-ff46a7d3dde5","2025-09-02_09h29.49.432",NA,NA,1716.5168,1716.5168,1716.5168,1717.0623,NA,NA,NA,NA,NA,NA,NA,TRUE,4,1.365,1713.6444,1716.5166,0,68,68,73,1,90,30,NA,NA,NA,NA,NA,1,69,"likert"
"BA97327C451541168A987783DB12FFFF",1,"01990a98-2cda-7cec-b6a6-8df86bbe200c","01990a84-c4ee-73c2-a87b-ff46a7d3dde5","2025-09-02_09h29.49.432",NA,NA,1720.0002,1720.0002,1720.0002,1720.3645,NA,NA,NA,NA,NA,NA,NA,TRUE,3,1.7678,1717.063,1720,0,69,69,76,1,90,46,NA,NA,NA,NA,NA,1,70,"likert"
"BA97327C451541168A987783DB12FFFF",1,"01990a98-2cda-7cec-b6a6-8df86bbe200c","01990a84-c4ee-73c2-a87b-ff46a7d3dde5","2025-09-02_09h29.49.432",NA,NA,1723.1811,1723.1811,1723.1811,1723.5391,NA,NA,NA,NA,NA,NA,NA,TRUE,3,2.7489,1720.3651,1723.1809,0,70,70,27,1,21,30,NA,NA,NA,NA,NA,1,71,"likert"
"BA97327C451541168A987783DB12FFFF",1,"01990a98-2cda-7cec-b6a6-8df86bbe200c","01990a84-c4ee-73c2-a87b-ff46a7d3dde5","2025-09-02_09h29.49.432",NA,NA,1726.7051,1726.7051,1726.7051,1727.0828,NA,NA,NA,NA,NA,NA,NA,TRUE,4,0.9907,1723.5397,1726.7049,0,71,71,10,1,10,30,NA,NA,NA,NA,NA,1,72,"likert"
"BA97327C451541168A987783DB12FFFF",1,"01990a98-2cda-7cec-b6a6-8df86bbe200c","01990a84-c4ee-73c2-a87b-ff46a7d3dde5","2025-09-02_09h29.49.432",NA,NA,1729.8729,1729.8729,1729.873,1730.2388,NA,NA,NA,NA,NA,NA,NA,TRUE,5,2.7611,1727.0835,1729.8726,0,72,72,35,1,25,46,NA,NA,NA,NA,NA,1,73,"likert"
"BA97327C451541168A987783DB12FFFF",1,"01990a98-2cda-7cec-b6a6-8df86bbe200c","01990a84-c4ee-73c2-a87b-ff46a7d3dde5","2025-09-02_09h29.49.432",NA,NA,1733.1883,1733.1883,1733.1884,1733.7209,NA,NA,NA,NA,NA,NA,NA,TRUE,3,0.2193,1730.2395,1733.1881,0,73,73,52,1,40,47,NA,NA,NA,NA,NA,1,74,"likert"
"BA97327C451541168A987783DB12FFFF",1,"01990a98-2cda-7cec-b6a6-8df86bbe200c","01990a84-c4ee-73c2-a87b-ff46a7d3dde5","2025-09-02_09h29.49.432",NA,NA,1736.7549,1736.7549,1736.7549,1737.1142,NA,NA,NA,NA,NA,NA,NA,TRUE,5,0.0042,1733.7215,1736.7547,0,74,74,6,1,10,25,NA,NA,NA,NA,NA,1,75,"likert"
"BA97327C451541168A987783DB12FFFF",1,"01990a98-2cda-7cec-b6a6-8df86bbe200c","01990a84-c4ee-73c2-a87b-ff46a7d3dde5","2025-09-02_09h29.49.432",NA,NA,1740.0259,1740.0259,1740.0259,1740.3788,NA,NA,NA,NA,NA,NA,NA,TRUE,3,0.9636,1737.1149,1740.0258,0,75,75,62,1,50,35,NA,NA,NA,NA,NA,1,76,"likert"
"BA97327C451541168A987783DB12FFFF",1,"01990a98-2cda-7cec-b6a6-8df86bbe200c","01990a84-c4ee-73c2-a87b-ff46a7d3dde5","2025-09-02_09h29.49.432",NA,NA,1743.2352,1743.2353,1743.2353,1743.7705,NA,NA,NA,NA,NA,NA,NA,TRUE,3,2.7194,1740.38,1743.2352,0,76,76,78,1,95,31,NA,NA,NA,NA,NA,1,77,"likert"
"BA97327C451541168A987783DB12FFFF",1,"01990a98-2cda-7cec-b6a6-8df86bbe200c","01990a84-c4ee-73c2-a87b-ff46a7d3dde5","2025-09-02_09h29.49.432",NA,NA,1746.7147,1747.0842,1747.0842,1747.0842,NA,NA,NA,NA,NA,NA,NA,FALSE,NA,NA,1743.7711,1746.7146,0,77,77,15,1,12,31,NA,NA,NA,NA,NA,1,78,"likert"
"BA97327C451541168A987783DB12FFFF",1,"01990a98-2cda-7cec-b6a6-8df86bbe200c","01990a84-c4ee-73c2-a87b-ff46a7d3dde5","2025-09-02_09h29.49.432",NA,NA,1749.859,1749.859,1749.859,1750.4143,NA,NA,NA,NA,NA,NA,NA,TRUE,4,0.5937,1747.0848,1749.8588,0,78,78,98,1,180,35,NA,NA,NA,NA,NA,1,79,"likert"
"BA97327C451541168A987783DB12FFFF",1,"01990a98-2cda-7cec-b6a6-8df86bbe200c","01990a84-c4ee-73c2-a87b-ff46a7d3dde5","2025-09-02_09h29.49.432",NA,NA,1753.2758,1753.2758,1753.2758,1753.8113,NA,NA,NA,NA,NA,NA,NA,TRUE,3,0.0034,1750.4148,1753.2756,0,79,79,37,1,28,28,NA,NA,NA,NA,NA,1,80,"likert"
"BA97327C451541168A987783DB12FFFF",1,"01990a98-2cda-7cec-b6a6-8df86bbe200c","01990a84-c4ee-73c2-a87b-ff46a7d3dde5","2025-09-02_09h29.49.432",NA,NA,1756.5846,1756.9506,1756.9507,1757.1307,NA,NA,NA,NA,NA,NA,NA,FALSE,NA,NA,1753.812,1756.5845,0,80,80,63,1,50,40,NA,NA,NA,NA,NA,1,81,"likert"
"BA97327C451541168A987783DB12FFFF",1,"01990a98-2cda-7cec-b6a6-8df86bbe200c","01990a84-c4ee-73c2-a87b-ff46a7d3dde5","2025-09-02_09h29.49.432",NA,NA,1760.2662,1760.2662,1760.2662,1760.4422,NA,NA,NA,NA,NA,NA,NA,TRUE,4,0.0078,1757.1314,1760.266,0,81,81,46,1,30,32,NA,NA,NA,NA,NA,1,82,"likert"
"BA97327C451541168A987783DB12FFFF",1,"01990a98-2cda-7cec-b6a6-8df86bbe200c","01990a84-c4ee-73c2-a87b-ff46a7d3dde5","2025-09-02_09h29.49.432",NA,NA,1763.5138,1763.5138,1763.5138,1763.8729,NA,NA,NA,NA,NA,NA,NA,TRUE,3,1.2045,1760.4427,1763.5137,0,82,82,101,1,180,54,NA,NA,NA,NA,NA,1,83,"likert"
"BA97327C451541168A987783DB12FFFF",1,"01990a98-2cda-7cec-b6a6-8df86bbe200c","01990a84-c4ee-73c2-a87b-ff46a7d3dde5","2025-09-02_09h29.49.432",NA,NA,1766.7971,1766.7971,1766.7971,1767.1622,NA,NA,NA,NA,NA,NA,NA,TRUE,3,1.367,1763.874,1766.7969,0,83,83,36,1,28,26,NA,NA,NA,NA,NA,1,84,"likert"
"BA97327C451541168A987783DB12FFFF",1,"01990a98-2cda-7cec-b6a6-8df86bbe200c","01990a84-c4ee-73c2-a87b-ff46a7d3dde5","2025-09-02_09h29.49.432",NA,NA,1770.2604,1770.2604,1770.2604,1770.6128,NA,NA,NA,NA,NA,NA,NA,TRUE,4,1.7565,1767.1628,1770.2603,0,84,84,44,1,30,29,NA,NA,NA,NA,NA,1,85,"likert"
"BA97327C451541168A987783DB12FFFF",1,"01990a98-2cda-7cec-b6a6-8df86bbe200c","01990a84-c4ee-73c2-a87b-ff46a7d3dde5","2025-09-02_09h29.49.432",NA,NA,1773.3491,1773.3491,1773.3491,1773.8754,NA,NA,NA,NA,NA,NA,NA,TRUE,5,2.6957,1770.6134,1773.3489,0,85,85,91,1,150,33,NA,NA,NA,NA,NA,1,86,"likert"
"BA97327C451541168A987783DB12FFFF",1,"01990a98-2cda-7cec-b6a6-8df86bbe200c","01990a84-c4ee-73c2-a87b-ff46a7d3dde5","2025-09-02_09h29.49.432",NA,NA,1776.9798,1776.9799,1776.9799,1777.3486,NA,NA,NA,NA,NA,NA,NA,TRUE,3,0.1935,1773.876,1776.9791,0,86,86,25,1,21,27,NA,NA,NA,NA,NA,1,87,"likert"
"BA97327C451541168A987783DB12FFFF",1,"01990a98-2cda-7cec-b6a6-8df86bbe200c","01990a84-c4ee-73c2-a87b-ff46a7d3dde5","2025-09-02_09h29.49.432",NA,NA,1780.0652,1780.0652,1780.0652,1780.6298,NA,NA,NA,NA,NA,NA,NA,TRUE,5,0.0036,1777.3492,1780.0649,0,87,87,12,1,12,25,NA,NA,NA,NA,NA,1,88,"likert"
"BA97327C451541168A987783DB12FFFF",1,"01990a98-2cda-7cec-b6a6-8df86bbe200c","01990a84-c4ee-73c2-a87b-ff46a7d3dde5","2025-09-02_09h29.49.432",NA,NA,1783.3876,1783.3876,1783.3876,1783.9351,NA,NA,NA,NA,NA,NA,NA,TRUE,3,0.3962,1780.6304,1783.3874,0,88,88,90,1,150,31,NA,NA,NA,NA,NA,1,89,"likert"
"BA97327C451541168A987783DB12FFFF",1,"01990a98-2cda-7cec-b6a6-8df86bbe200c","01990a84-c4ee-73c2-a87b-ff46a7d3dde5","2025-09-02_09h29.49.432",NA,NA,1787.0693,1787.0694,1787.0694,1787.2491,NA,NA,NA,NA,NA,NA,NA,FALSE,NA,NA,1783.9357,1787.0691,0,89,89,85,1,100,31,NA,NA,NA,NA,NA,1,90,"likert"
"BA97327C451541168A987783DB12FFFF",1,"01990a98-2cda-7cec-b6a6-8df86bbe200c","01990a84-c4ee-73c2-a87b-ff46a7d3dde5","2025-09-02_09h29.49.432",NA,NA,1790.1255,1790.1255,1790.1255,1790.661,NA,NA,NA,NA,NA,NA,NA,TRUE,4,1.5472,1787.2497,1790.1253,0,90,90,17,1,12,35,NA,NA,NA,NA,NA,1,91,"likert"
"BA97327C451541168A987783DB12FFFF",1,"01990a98-2cda-7cec-b6a6-8df86bbe200c","01990a84-c4ee-73c2-a87b-ff46a7d3dde5","2025-09-02_09h29.49.432",NA,NA,1793.6434,1793.6434,1793.6434,1794.0052,NA,NA,NA,NA,NA,NA,NA,TRUE,2,0.9975,1790.6617,1793.6431,0,91,91,18,1,14,25,NA,NA,NA,NA,NA,1,92,"likert"
"BA97327C451541168A987783DB12FFFF",1,"01990a98-2cda-7cec-b6a6-8df86bbe200c","01990a84-c4ee-73c2-a87b-ff46a7d3dde5","2025-09-02_09h29.49.432",NA,NA,1796.9172,1796.9172,1796.9172,1797.2764,NA,NA,NA,NA,NA,NA,NA,TRUE,3,2.1442,1794.0058,1796.917,0,92,92,41,1,28,46,NA,NA,NA,NA,NA,1,93,"likert"
"BA97327C451541168A987783DB12FFFF",1,"01990a98-2cda-7cec-b6a6-8df86bbe200c","01990a84-c4ee-73c2-a87b-ff46a7d3dde5","2025-09-02_09h29.49.432",NA,NA,1800.2051,1800.2051,1800.2051,1800.5889,NA,NA,NA,NA,NA,NA,NA,TRUE,3,0.2055,1797.2771,1800.2049,0,93,93,51,1,40,40,NA,NA,NA,NA,NA,1,94,"likert"
"BA97327C451541168A987783DB12FFFF",1,"01990a98-2cda-7cec-b6a6-8df86bbe200c","01990a84-c4ee-73c2-a87b-ff46a7d3dde5","2025-09-02_09h29.49.432",NA,NA,1803.7254,1803.7254,1803.7254,1804.0816,NA,NA,NA,NA,NA,NA,NA,TRUE,1,0.0038,1800.5897,1803.7253,0,94,94,24,1,21,26,NA,NA,NA,NA,NA,1,95,"likert"
"BA97327C451541168A987783DB12FFFF",1,"01990a98-2cda-7cec-b6a6-8df86bbe200c","01990a84-c4ee-73c2-a87b-ff46a7d3dde5","2025-09-02_09h29.49.432",NA,NA,1807.0133,1807.3796,1807.3796,1807.3796,NA,NA,NA,NA,NA,NA,NA,FALSE,NA,NA,1804.0823,1807.0131,0,95,95,61,1,50,30,NA,NA,NA,NA,NA,1,96,"likert"
"BA97327C451541168A987783DB12FFFF",1,"01990a98-2cda-7cec-b6a6-8df86bbe200c","01990a84-c4ee-73c2-a87b-ff46a7d3dde5","2025-09-02_09h29.49.432",NA,NA,1810.2218,1810.2218,1810.2218,1810.7939,NA,NA,NA,NA,NA,NA,NA,TRUE,3,0.588,1807.3802,1810.2215,0,96,96,88,1,100,46,NA,NA,NA,NA,NA,1,97,"likert"
"BA97327C451541168A987783DB12FFFF",1,"01990a98-2cda-7cec-b6a6-8df86bbe200c","01990a84-c4ee-73c2-a87b-ff46a7d3dde5","2025-09-02_09h29.49.432",NA,NA,1813.6862,1813.8671,1813.8671,1814.0611,NA,NA,NA,NA,NA,NA,NA,FALSE,NA,NA,1810.7945,1813.6859,0,97,97,16,1,12,33,NA,NA,NA,NA,NA,1,98,"likert"
"BA97327C451541168A987783DB12FFFF",1,"01990a98-2cda-7cec-b6a6-8df86bbe200c","01990a84-c4ee-73c2-a87b-ff46a7d3dde5","2025-09-02_09h29.49.432",NA,NA,1817.2478,1817.2478,1817.2478,1817.4606,NA,NA,NA,NA,NA,NA,NA,FALSE,NA,NA,1814.0618,1817.2476,0,98,98,7,1,10,26,NA,NA,NA,NA,NA,1,99,"likert"
"BA97327C451541168A987783DB12FFFF",1,"01990a98-2cda-7cec-b6a6-8df86bbe200c","01990a84-c4ee-73c2-a87b-ff46a7d3dde5","2025-09-02_09h29.49.432",NA,NA,1820.2566,1820.2566,1820.2566,1820.8142,NA,NA,NA,NA,NA,NA,NA,TRUE,4,2.0223,1817.4613,1820.2564,0,99,99,105,1,200,39,NA,NA,NA,NA,NA,1,100,"likert"
"BA97327C451541168A987783DB12FFFF",1,"01990a98-2cda-7cec-b6a6-8df86bbe200c","01990a84-c4ee-73c2-a87b-ff46a7d3dde5","2025-09-02_09h29.49.432",NA,NA,1823.7255,1823.7255,1823.7256,1824.1101,NA,NA,NA,NA,NA,NA,NA,TRUE,4,0.0041,1820.8147,1823.7253,0,100,100,2,1,7,28,NA,NA,NA,NA,NA,1,101,"likert"
"BA97327C451541168A987783DB12FFFF",1,"01990a98-2cda-7cec-b6a6-8df86bbe200c","01990a84-c4ee-73c2-a87b-ff46a7d3dde5","2025-09-02_09h29.49.432",NA,NA,1827.1419,1827.1419,1827.1419,1827.5063,NA,NA,NA,NA,NA,NA,NA,TRUE,3,0.0036,1824.1108,1827.1417,0,101,101,67,1,60,33,NA,NA,NA,NA,NA,1,102,"likert"
"BA97327C451541168A987783DB12FFFF",1,"01990a98-2cda-7cec-b6a6-8df86bbe200c","01990a84-c4ee-73c2-a87b-ff46a7d3dde5","2025-09-02_09h29.49.432",NA,NA,1830.5032,1830.5033,1830.5033,1830.8799,NA,NA,NA,NA,NA,NA,NA,TRUE,2,0.591,1827.5068,1830.503,0,102,102,71,1,60,54,NA,NA,NA,NA,NA,1,103,"likert"
"BA97327C451541168A987783DB12FFFF",1,"01990a98-2cda-7cec-b6a6-8df86bbe200c","01990a84-c4ee-73c2-a87b-ff46a7d3dde5","2025-09-02_09h29.49.432",NA,NA,1833.5894,1833.5894,1833.5894,1834.3355,NA,NA,NA,NA,NA,NA,NA,TRUE,3,0.0036,1830.8806,1833.5893,0,103,103,58,1,45,40,NA,NA,NA,NA,NA,1,104,"likert"
"BA97327C451541168A987783DB12FFFF",1,"01990a98-2cda-7cec-b6a6-8df86bbe200c","01990a84-c4ee-73c2-a87b-ff46a7d3dde5","2025-09-02_09h29.49.432",NA,NA,1837.0433,1837.0434,1837.0434,1837.6043,NA,NA,NA,NA,NA,NA,NA,TRUE,3,2.5187,1834.336,1837.0432,0,104,104,45,1,30,30,NA,NA,NA,NA,NA,1,105,"likert"
"BA97327C451541168A987783DB12FFFF",1,"01990a98-2cda-7cec-b6a6-8df86bbe200c","01990a84-c4ee-73c2-a87b-ff46a7d3dde5","2025-09-02_09h29.49.432",NA,NA,1840.6388,1840.6388,1840.6388,1841.0041,NA,NA,NA,NA,NA,NA,NA,TRUE,4,2.517,1837.605,1840.6387,0,105,105,9,1,10,29,NA,NA,NA,NA,NA,1,106,"likert"
"BA97327C451541168A987783DB12FFFF",1,"01990a98-2cda-7cec-b6a6-8df86bbe200c","01990a84-c4ee-73c2-a87b-ff46a7d3dde5","2025-09-02_09h29.49.432",NA,NA,1843.8048,1843.8048,1843.8048,1844.1632,NA,NA,NA,NA,NA,NA,NA,TRUE,3,0.004,1841.0047,1843.8046,0,106,106,38,1,28,32,NA,NA,NA,NA,NA,1,107,"likert"
"BA97327C451541168A987783DB12FFFF",1,"01990a98-2cda-7cec-b6a6-8df86bbe200c","01990a84-c4ee-73c2-a87b-ff46a7d3dde5","2025-09-02_09h29.49.432",NA,NA,1847.3069,1847.4884,1847.4884,1847.4884,NA,NA,NA,NA,NA,NA,NA,FALSE,NA,NA,1844.164,1847.3068,0,107,107,55,1,45,29,NA,NA,NA,NA,NA,1,108,"likert"
"BA97327C451541168A987783DB12FFFF",1,"01990a98-2cda-7cec-b6a6-8df86bbe200c","01990a84-c4ee-73c2-a87b-ff46a7d3dde5","2025-09-02_09h29.49.432",NA,NA,1881.1887,1881.1887,1881.1887,1881.5446,NA,NA,NA,NA,NA,NA,NA,TRUE,3,1.672,1878.2945,1881.1886,NA,NA,NA,NA,NA,25,35,0,0,0,34,1,2,1,"likert"
"BA97327C451541168A987783DB12FFFF",1,"01990a98-2cda-7cec-b6a6-8df86bbe200c","01990a84-c4ee-73c2-a87b-ff46a7d3dde5","2025-09-02_09h29.49.432",NA,NA,1884.6465,1884.6465,1884.6465,1885.0153,NA,NA,NA,NA,NA,NA,NA,TRUE,3,0.8335,1881.5453,1884.6464,NA,NA,NA,NA,NA,95,33,0,1,1,79,1,2,2,"likert"
"BA97327C451541168A987783DB12FFFF",1,"01990a98-2cda-7cec-b6a6-8df86bbe200c","01990a84-c4ee-73c2-a87b-ff46a7d3dde5","2025-09-02_09h29.49.432",NA,NA,1887.8429,1887.8429,1887.843,1888.4112,NA,NA,NA,NA,NA,NA,NA,TRUE,5,0.2303,1885.016,1887.8427,NA,NA,NA,NA,NA,95,31,0,2,2,78,1,2,3,"likert"
"BA97327C451541168A987783DB12FFFF",1,"01990a98-2cda-7cec-b6a6-8df86bbe200c","01990a84-c4ee-73c2-a87b-ff46a7d3dde5","2025-09-02_09h29.49.432",NA,NA,1891.1258,1891.1258,1891.1258,1891.6782,NA,NA,NA,NA,NA,NA,NA,TRUE,4,0.4108,1888.4119,1891.1256,NA,NA,NA,NA,NA,14,26,0,3,3,19,1,2,4,"likert"
"BA97327C451541168A987783DB12FFFF",1,"01990a98-2cda-7cec-b6a6-8df86bbe200c","01990a84-c4ee-73c2-a87b-ff46a7d3dde5","2025-09-02_09h29.49.432",NA,NA,1894.5216,1894.5216,1894.5216,1895.0676,NA,NA,NA,NA,NA,NA,NA,TRUE,4,0.0038,1891.6789,1894.5214,NA,NA,NA,NA,NA,50,27,0,4,4,60,1,2,5,"likert"
"BA97327C451541168A987783DB12FFFF",1,"01990a98-2cda-7cec-b6a6-8df86bbe200c","01990a84-c4ee-73c2-a87b-ff46a7d3dde5","2025-09-02_09h29.49.432",NA,NA,1897.8447,1898.205,1898.205,1898.4127,NA,NA,NA,NA,NA,NA,NA,FALSE,NA,NA,1895.0683,1897.8445,NA,NA,NA,NA,NA,60,40,0,5,5,69,1,2,6,"likert"
"BA97327C451541168A987783DB12FFFF",1,"01990a98-2cda-7cec-b6a6-8df86bbe200c","01990a84-c4ee-73c2-a87b-ff46a7d3dde5","2025-09-02_09h29.49.432",NA,NA,1901.1573,1901.1574,1901.1574,1901.7436,NA,NA,NA,NA,NA,NA,NA,TRUE,3,0.009,1898.4133,1901.1571,NA,NA,NA,NA,NA,21,27,0,6,6,25,1,2,7,"likert"
"BA97327C451541168A987783DB12FFFF",1,"01990a98-2cda-7cec-b6a6-8df86bbe200c","01990a84-c4ee-73c2-a87b-ff46a7d3dde5","2025-09-02_09h29.49.432",NA,NA,1904.636,1904.6361,1904.6361,1905.0565,NA,NA,NA,NA,NA,NA,NA,TRUE,5,0.8107,1901.7444,1904.6359,NA,NA,NA,NA,NA,10,32,0,7,7,11,1,2,8,"likert"
"BA97327C451541168A987783DB12FFFF",1,"01990a98-2cda-7cec-b6a6-8df86bbe200c","01990a84-c4ee-73c2-a87b-ff46a7d3dde5","2025-09-02_09h29.49.432",NA,NA,1907.9546,1907.9546,1907.9546,1908.5117,NA,NA,NA,NA,NA,NA,NA,TRUE,3,0.2055,1905.0571,1907.9545,NA,NA,NA,NA,NA,150,33,0,8,8,91,1,2,9,"likert"
"BA97327C451541168A987783DB12FFFF",1,"01990a98-2cda-7cec-b6a6-8df86bbe200c","01990a84-c4ee-73c2-a87b-ff46a7d3dde5","2025-09-02_09h29.49.432",NA,NA,1911.3733,1911.3733,1911.3733,1911.7317,NA,NA,NA,NA,NA,NA,NA,TRUE,2,2.5164,1908.5123,1911.3732,NA,NA,NA,NA,NA,28,46,0,9,9,41,1,2,10,"likert"
"BA97327C451541168A987783DB12FFFF",1,"01990a98-2cda-7cec-b6a6-8df86bbe200c","01990a84-c4ee-73c2-a87b-ff46a7d3dde5","2025-09-02_09h29.49.432",NA,NA,1914.6649,1914.6649,1914.6649,1915.2078,NA,NA,NA,NA,NA,NA,NA,TRUE,4,0.0083,1911.7323,1914.6648,NA,NA,NA,NA,NA,100,54,0,10,10,89,1,2,11,"likert"
"BA97327C451541168A987783DB12FFFF",1,"01990a98-2cda-7cec-b6a6-8df86bbe200c","01990a84-c4ee-73c2-a87b-ff46a7d3dde5","2025-09-02_09h29.49.432",NA,NA,1918.1111,1918.1111,1918.1111,1918.4701,NA,NA,NA,NA,NA,NA,NA,TRUE,2,2.5596,1915.2084,1918.1109,NA,NA,NA,NA,NA,12,26,0,11,11,13,1,2,12,"likert"
"BA97327C451541168A987783DB12FFFF",1,"01990a98-2cda-7cec-b6a6-8df86bbe200c","01990a84-c4ee-73c2-a87b-ff46a7d3dde5","2025-09-02_09h29.49.432",NA,NA,1921.5999,1921.5999,1921.5999,1921.9818,NA,NA,NA,NA,NA,NA,NA,TRUE,5,0.1974,1918.4708,1921.5998,NA,NA,NA,NA,NA,50,46,0,12,12,64,1,2,13,"likert"
"BA97327C451541168A987783DB12FFFF",1,"01990a98-2cda-7cec-b6a6-8df86bbe200c","01990a84-c4ee-73c2-a87b-ff46a7d3dde5","2025-09-02_09h29.49.432",NA,NA,1924.831,1924.831,1924.831,1925.1931,NA,NA,NA,NA,NA,NA,NA,TRUE,3,2.7485,1921.9824,1924.8309,NA,NA,NA,NA,NA,7,26,0,13,13,1,1,2,14,"likert"
"BA97327C451541168A987783DB12FFFF",1,"01990a98-2cda-7cec-b6a6-8df86bbe200c","01990a84-c4ee-73c2-a87b-ff46a7d3dde5","2025-09-02_09h29.49.432",NA,NA,1928.1159,1928.1159,1928.1159,1928.4821,NA,NA,NA,NA,NA,NA,NA,TRUE,3,2.5566,1925.1938,1928.1157,NA,NA,NA,NA,NA,40,27,0,14,14,48,1,2,15,"likert"
"BA97327C451541168A987783DB12FFFF",1,"01990a98-2cda-7cec-b6a6-8df86bbe200c","01990a84-c4ee-73c2-a87b-ff46a7d3dde5","2025-09-02_09h29.49.432",NA,NA,1931.6314,1931.6314,1931.6314,1931.8143,NA,NA,NA,NA,NA,NA,NA,TRUE,4,0.9706,1928.4828,1931.6312,NA,NA,NA,NA,NA,150,47,0,15,15,94,1,2,16,"likert"
"BA97327C451541168A987783DB12FFFF",1,"01990a98-2cda-7cec-b6a6-8df86bbe200c","01990a84-c4ee-73c2-a87b-ff46a7d3dde5","2025-09-02_09h29.49.432",NA,NA,1934.9611,1934.9611,1934.9611,1935.1673,NA,NA,NA,NA,NA,NA,NA,TRUE,4,2.7623,1931.8149,1934.9609,NA,NA,NA,NA,NA,12,33,0,16,16,16,1,2,17,"likert"
"BA97327C451541168A987783DB12FFFF",1,"01990a98-2cda-7cec-b6a6-8df86bbe200c","01990a84-c4ee-73c2-a87b-ff46a7d3dde5","2025-09-02_09h29.49.432",NA,NA,1938.1072,1938.1072,1938.1073,1938.6617,NA,NA,NA,NA,NA,NA,NA,TRUE,2,0.2054,1935.1678,1938.1071,NA,NA,NA,NA,NA,40,54,0,17,17,53,1,2,18,"likert"
"BA97327C451541168A987783DB12FFFF",1,"01990a98-2cda-7cec-b6a6-8df86bbe200c","01990a84-c4ee-73c2-a87b-ff46a7d3dde5","2025-09-02_09h29.49.432",NA,NA,1941.5503,1941.5503,1941.5504,1941.9058,NA,NA,NA,NA,NA,NA,NA,TRUE,3,2.5569,1938.6623,1941.5502,NA,NA,NA,NA,NA,95,54,0,18,18,83,1,2,19,"likert"
"BA97327C451541168A987783DB12FFFF",1,"01990a98-2cda-7cec-b6a6-8df86bbe200c","01990a84-c4ee-73c2-a87b-ff46a7d3dde5","2025-09-02_09h29.49.432",NA,NA,1944.8692,1944.8692,1944.8692,1945.2322,NA,NA,NA,NA,NA,NA,NA,TRUE,4,0.0038,1941.9063,1944.869,NA,NA,NA,NA,NA,25,46,0,19,19,35,1,2,20,"likert"
"BA97327C451541168A987783DB12FFFF",1,"01990a98-2cda-7cec-b6a6-8df86bbe200c","01990a84-c4ee-73c2-a87b-ff46a7d3dde5","2025-09-02_09h29.49.432",NA,NA,1948.3622,1948.3622,1948.3622,1948.7227,NA,NA,NA,NA,NA,NA,NA,TRUE,3,0.2037,1945.2329,1948.362,NA,NA,NA,NA,NA,14,35,0,20,20,22,1,2,21,"likert"
"BA97327C451541168A987783DB12FFFF",1,"01990a98-2cda-7cec-b6a6-8df86bbe200c","01990a84-c4ee-73c2-a87b-ff46a7d3dde5","2025-09-02_09h29.49.432",NA,NA,1951.4121,1951.4121,1951.4121,1951.9657,NA,NA,NA,NA,NA,NA,NA,TRUE,3,2.759,1948.7233,1951.4119,NA,NA,NA,NA,NA,10,25,0,21,21,6,1,2,22,"likert"
"BA97327C451541168A987783DB12FFFF",1,"01990a98-2cda-7cec-b6a6-8df86bbe200c","01990a84-c4ee-73c2-a87b-ff46a7d3dde5","2025-09-02_09h29.49.432",NA,NA,1954.8698,1954.8698,1954.8698,1955.2715,NA,NA,NA,NA,NA,NA,NA,TRUE,4,0.0042,1951.9663,1954.8696,NA,NA,NA,NA,NA,200,35,0,22,22,104,1,2,23,"likert"
"BA97327C451541168A987783DB12FFFF",1,"01990a98-2cda-7cec-b6a6-8df86bbe200c","01990a84-c4ee-73c2-a87b-ff46a7d3dde5","2025-09-02_09h29.49.432",NA,NA,1958.3744,1958.3744,1958.3744,1958.7463,NA,NA,NA,NA,NA,NA,NA,TRUE,3,2.5242,1955.2722,1958.3742,NA,NA,NA,NA,NA,30,27,0,23,23,43,1,2,24,"likert"
"BA97327C451541168A987783DB12FFFF",1,"01990a98-2cda-7cec-b6a6-8df86bbe200c","01990a84-c4ee-73c2-a87b-ff46a7d3dde5","2025-09-02_09h29.49.432",NA,NA,1961.6981,1961.6981,1961.6981,1962.078,NA,NA,NA,NA,NA,NA,NA,TRUE,3,2.7239,1958.7469,1961.6979,NA,NA,NA,NA,NA,7,30,0,24,24,3,1,2,25,"likert"
"BA97327C451541168A987783DB12FFFF",1,"01990a98-2cda-7cec-b6a6-8df86bbe200c","01990a84-c4ee-73c2-a87b-ff46a7d3dde5","2025-09-02_09h29.49.432",NA,NA,1964.9614,1964.9614,1964.9614,1965.327,NA,NA,NA,NA,NA,NA,NA,TRUE,2,0.415,1962.0786,1964.9612,NA,NA,NA,NA,NA,60,54,0,25,25,71,1,2,26,"likert"
"BA97327C451541168A987783DB12FFFF",1,"01990a98-2cda-7cec-b6a6-8df86bbe200c","01990a84-c4ee-73c2-a87b-ff46a7d3dde5","2025-09-02_09h29.49.432",NA,NA,1968.3608,1968.3608,1968.3608,1968.7428,NA,NA,NA,NA,NA,NA,NA,TRUE,4,2.6967,1965.3281,1968.3606,NA,NA,NA,NA,NA,150,54,0,26,26,95,1,2,27,"likert"
"BA97327C451541168A987783DB12FFFF",1,"01990a98-2cda-7cec-b6a6-8df86bbe200c","01990a84-c4ee-73c2-a87b-ff46a7d3dde5","2025-09-02_09h29.49.432",NA,NA,1971.6717,1971.6717,1971.6717,1972.0295,NA,NA,NA,NA,NA,NA,NA,TRUE,3,2.6706,1968.7434,1971.6715,NA,NA,NA,NA,NA,12,28,0,27,27,14,1,2,28,"likert"
"BA97327C451541168A987783DB12FFFF",1,"01990a98-2cda-7cec-b6a6-8df86bbe200c","01990a84-c4ee-73c2-a87b-ff46a7d3dde5","2025-09-02_09h29.49.432",NA,NA,1975.1284,1975.1284,1975.1284,1975.5036,NA,NA,NA,NA,NA,NA,NA,TRUE,3,2.7387,1972.0308,1975.1283,NA,NA,NA,NA,NA,180,39,0,28,28,99,1,2,29,"likert"
"BA97327C451541168A987783DB12FFFF",1,"01990a98-2cda-7cec-b6a6-8df86bbe200c","01990a84-c4ee-73c2-a87b-ff46a7d3dde5","2025-09-02_09h29.49.432",NA,NA,1978.4519,1978.4519,1978.452,1978.8244,NA,NA,NA,NA,NA,NA,NA,FALSE,NA,NA,1975.5042,1978.4518,NA,NA,NA,NA,NA,100,26,0,29,29,84,1,2,30,"likert"
"BA97327C451541168A987783DB12FFFF",1,"01990a98-2cda-7cec-b6a6-8df86bbe200c","01990a84-c4ee-73c2-a87b-ff46a7d3dde5","2025-09-02_09h29.49.432",NA,NA,1981.847,1981.847,1981.847,1982.2215,NA,NA,NA,NA,NA,NA,NA,TRUE,4,0.0043,1978.8252,1981.8469,NA,NA,NA,NA,NA,7,32,0,30,30,4,1,2,31,"likert"
"BA97327C451541168A987783DB12FFFF",1,"01990a98-2cda-7cec-b6a6-8df86bbe200c","01990a84-c4ee-73c2-a87b-ff46a7d3dde5","2025-09-02_09h29.49.432",NA,NA,1985.0661,1985.0661,1985.0661,1985.4384,NA,NA,NA,NA,NA,NA,NA,TRUE,4,2.8258,1982.2222,1985.0659,NA,NA,NA,NA,NA,180,54,0,31,31,101,1,2,32,"likert"
"BA97327C451541168A987783DB12FFFF",1,"01990a98-2cda-7cec-b6a6-8df86bbe200c","01990a84-c4ee-73c2-a87b-ff46a7d3dde5","2025-09-02_09h29.49.432",NA,NA,1988.3804,1988.3804,1988.3804,1988.7735,NA,NA,NA,NA,NA,NA,NA,TRUE,4,0.2004,1985.4391,1988.3803,NA,NA,NA,NA,NA,21,38,0,32,32,29,1,2,33,"likert"
"BA97327C451541168A987783DB12FFFF",1,"01990a98-2cda-7cec-b6a6-8df86bbe200c","01990a84-c4ee-73c2-a87b-ff46a7d3dde5","2025-09-02_09h29.49.432",NA,NA,1991.7684,1991.7684,1991.7684,1992.1632,NA,NA,NA,NA,NA,NA,NA,TRUE,2,2.5639,1988.7751,1991.7683,NA,NA,NA,NA,NA,28,39,0,33,33,40,1,2,34,"likert"
"BA97327C451541168A987783DB12FFFF",1,"01990a98-2cda-7cec-b6a6-8df86bbe200c","01990a84-c4ee-73c2-a87b-ff46a7d3dde5","2025-09-02_09h29.49.432",NA,NA,1995.2809,1995.2809,1995.2809,1995.6472,NA,NA,NA,NA,NA,NA,NA,TRUE,3,2.6072,1992.1638,1995.2808,NA,NA,NA,NA,NA,25,31,0,34,34,32,1,2,35,"likert"
"BA97327C451541168A987783DB12FFFF",1,"01990a98-2cda-7cec-b6a6-8df86bbe200c","01990a84-c4ee-73c2-a87b-ff46a7d3dde5","2025-09-02_09h29.49.432",NA,NA,1998.4103,1998.4103,1998.4104,1998.8209,NA,NA,NA,NA,NA,NA,NA,TRUE,3,2.7433,1995.6478,1998.4102,NA,NA,NA,NA,NA,30,30,0,35,35,45,1,2,36,"likert"
"BA97327C451541168A987783DB12FFFF",1,"01990a98-2cda-7cec-b6a6-8df86bbe200c","01990a84-c4ee-73c2-a87b-ff46a7d3dde5","2025-09-02_09h29.49.432",NA,NA,2001.9083,2002.0884,2002.0885,2002.2667,NA,NA,NA,NA,NA,NA,NA,FALSE,NA,NA,1998.8219,2001.9081,NA,NA,NA,NA,NA,28,32,0,36,36,38,1,2,37,"likert"
"BA97327C451541168A987783DB12FFFF",1,"01990a98-2cda-7cec-b6a6-8df86bbe200c","01990a84-c4ee-73c2-a87b-ff46a7d3dde5","2025-09-02_09h29.49.432",NA,NA,2005.0025,2005.3761,2005.3761,2005.5633,NA,NA,NA,NA,NA,NA,NA,FALSE,NA,NA,2002.2674,2005.0023,NA,NA,NA,NA,NA,21,26,0,37,37,24,1,2,38,"likert"
"BA97327C451541168A987783DB12FFFF",1,"01990a98-2cda-7cec-b6a6-8df86bbe200c","01990a84-c4ee-73c2-a87b-ff46a7d3dde5","2025-09-02_09h29.49.432",NA,NA,2008.492,2008.492,2008.492,2008.8836,NA,NA,NA,NA,NA,NA,NA,TRUE,2,0.0043,2005.5639,2008.4918,NA,NA,NA,NA,NA,25,27,0,38,38,30,1,2,39,"likert"
"BA97327C451541168A987783DB12FFFF",1,"01990a98-2cda-7cec-b6a6-8df86bbe200c","01990a84-c4ee-73c2-a87b-ff46a7d3dde5","2025-09-02_09h29.49.432",NA,NA,2011.8192,2011.8192,2011.8192,2012.3794,NA,NA,NA,NA,NA,NA,NA,TRUE,3,0.0034,2008.8842,2011.819,NA,NA,NA,NA,NA,200,39,0,39,39,105,1,2,40,"likert"
"BA97327C451541168A987783DB12FFFF",1,"01990a98-2cda-7cec-b6a6-8df86bbe200c","01990a84-c4ee-73c2-a87b-ff46a7d3dde5","2025-09-02_09h29.49.432",NA,NA,2015.1812,2015.1812,2015.1813,2015.5395,NA,NA,NA,NA,NA,NA,NA,TRUE,4,2.5451,2012.38,2015.1811,NA,NA,NA,NA,NA,100,46,0,40,40,88,1,2,41,"likert"
"BA97327C451541168A987783DB12FFFF",1,"01990a98-2cda-7cec-b6a6-8df86bbe200c","01990a84-c4ee-73c2-a87b-ff46a7d3dde5","2025-09-02_09h29.49.432",NA,NA,2018.6482,2018.6483,2018.6484,2019.0135,NA,NA,NA,NA,NA,NA,NA,TRUE,3,1.7767,2015.5402,2018.6481,NA,NA,NA,NA,NA,100,39,0,41,41,87,1,2,42,"likert"
"BA97327C451541168A987783DB12FFFF",1,"01990a98-2cda-7cec-b6a6-8df86bbe200c","01990a84-c4ee-73c2-a87b-ff46a7d3dde5","2025-09-02_09h29.49.432",NA,NA,2021.9441,2021.9441,2021.9441,2022.2975,NA,NA,NA,NA,NA,NA,NA,TRUE,3,2.7264,2019.0142,2021.944,NA,NA,NA,NA,NA,95,35,0,42,42,80,1,2,43,"likert"
"BA97327C451541168A987783DB12FFFF",1,"01990a98-2cda-7cec-b6a6-8df86bbe200c","01990a84-c4ee-73c2-a87b-ff46a7d3dde5","2025-09-02_09h29.49.432",NA,NA,2025.3853,2025.3853,2025.3853,2025.7484,NA,NA,NA,NA,NA,NA,NA,TRUE,4,2.7428,2022.298,2025.3851,NA,NA,NA,NA,NA,21,30,0,43,43,27,1,2,44,"likert"
"BA97327C451541168A987783DB12FFFF",1,"01990a98-2cda-7cec-b6a6-8df86bbe200c","01990a84-c4ee-73c2-a87b-ff46a7d3dde5","2025-09-02_09h29.49.432",NA,NA,2028.6879,2029.0546,2029.0546,2029.0546,NA,NA,NA,NA,NA,NA,NA,FALSE,NA,NA,2025.749,2028.6877,NA,NA,NA,NA,NA,100,31,0,44,44,85,1,2,45,"likert"
"BA97327C451541168A987783DB12FFFF",1,"01990a98-2cda-7cec-b6a6-8df86bbe200c","01990a84-c4ee-73c2-a87b-ff46a7d3dde5","2025-09-02_09h29.49.432",NA,NA,2031.9568,2032.3183,2032.3183,2032.4966,NA,NA,NA,NA,NA,NA,NA,FALSE,NA,NA,2029.0553,2031.9566,NA,NA,NA,NA,NA,50,35,0,45,45,62,1,2,46,"likert"
"BA97327C451541168A987783DB12FFFF",1,"01990a98-2cda-7cec-b6a6-8df86bbe200c","01990a84-c4ee-73c2-a87b-ff46a7d3dde5","2025-09-02_09h29.49.432",NA,NA,2035.2611,2035.2611,2035.2611,2035.8053,NA,NA,NA,NA,NA,NA,NA,TRUE,3,1.3751,2032.4972,2035.2609,NA,NA,NA,NA,NA,40,33,0,46,46,49,1,2,47,"likert"
"BA97327C451541168A987783DB12FFFF",1,"01990a98-2cda-7cec-b6a6-8df86bbe200c","01990a84-c4ee-73c2-a87b-ff46a7d3dde5","2025-09-02_09h29.49.432",NA,NA,2038.6795,2038.6795,2038.6795,2039.0349,NA,NA,NA,NA,NA,NA,NA,TRUE,3,0.0079,2035.8059,2038.6793,NA,NA,NA,NA,NA,7,28,0,47,47,2,1,2,48,"likert"
"BA97327C451541168A987783DB12FFFF",1,"01990a98-2cda-7cec-b6a6-8df86bbe200c","01990a84-c4ee-73c2-a87b-ff46a7d3dde5","2025-09-02_09h29.49.432",NA,NA,2041.9432,2041.9432,2041.9432,2042.5186,NA,NA,NA,NA,NA,NA,NA,TRUE,3,2.6832,2039.0355,2041.943,NA,NA,NA,NA,NA,14,39,0,48,48,23,1,2,49,"likert"
"BA97327C451541168A987783DB12FFFF",1,"01990a98-2cda-7cec-b6a6-8df86bbe200c","01990a84-c4ee-73c2-a87b-ff46a7d3dde5","2025-09-02_09h29.49.432",NA,NA,2045.2529,2045.6102,2045.6102,2045.7902,NA,NA,NA,NA,NA,NA,NA,FALSE,NA,NA,2042.5193,2045.2527,NA,NA,NA,NA,NA,200,28,0,49,49,103,1,2,50,"likert"
"BA97327C451541168A987783DB12FFFF",1,"01990a98-2cda-7cec-b6a6-8df86bbe200c","01990a84-c4ee-73c2-a87b-ff46a7d3dde5","2025-09-02_09h29.49.432",NA,NA,2048.7501,2048.9269,2048.9269,2049.1082,NA,NA,NA,NA,NA,NA,NA,FALSE,NA,NA,2045.7909,2048.7499,NA,NA,NA,NA,NA,10,29,0,50,50,9,1,2,51,"likert"
"BA97327C451541168A987783DB12FFFF",1,"01990a98-2cda-7cec-b6a6-8df86bbe200c","01990a84-c4ee-73c2-a87b-ff46a7d3dde5","2025-09-02_09h29.49.432",NA,NA,2052.1553,2052.1553,2052.1553,2052.523,NA,NA,NA,NA,NA,NA,NA,FALSE,NA,NA,2049.109,2052.1552,NA,NA,NA,NA,NA,14,32,0,51,51,21,1,2,52,"likert"
"BA97327C451541168A987783DB12FFFF",1,"01990a98-2cda-7cec-b6a6-8df86bbe200c","01990a84-c4ee-73c2-a87b-ff46a7d3dde5","2025-09-02_09h29.49.432",NA,NA,2055.4734,2055.4735,2055.4735,2055.913,NA,NA,NA,NA,NA,NA,NA,TRUE,3,0.8049,2052.5237,2055.4733,NA,NA,NA,NA,NA,30,38,0,52,52,47,1,2,53,"likert"
"BA97327C451541168A987783DB12FFFF",1,"01990a98-2cda-7cec-b6a6-8df86bbe200c","01990a84-c4ee-73c2-a87b-ff46a7d3dde5","2025-09-02_09h29.49.432",NA,NA,2058.9116,2058.9117,2058.9117,2059.2841,NA,NA,NA,NA,NA,NA,NA,TRUE,4,2.7592,2055.9136,2058.9115,NA,NA,NA,NA,NA,90,26,0,53,53,72,1,2,54,"likert"
"BA97327C451541168A987783DB12FFFF",1,"01990a98-2cda-7cec-b6a6-8df86bbe200c","01990a84-c4ee-73c2-a87b-ff46a7d3dde5","2025-09-02_09h29.49.432",NA,NA,2062.03,2062.03,2062.03,2062.5824,NA,NA,NA,NA,NA,NA,NA,TRUE,4,2.8134,2059.2846,2062.0299,NA,NA,NA,NA,NA,45,26,0,54,54,54,1,2,55,"likert"
"BA97327C451541168A987783DB12FFFF",1,"01990a98-2cda-7cec-b6a6-8df86bbe200c","01990a84-c4ee-73c2-a87b-ff46a7d3dde5","2025-09-02_09h29.49.432",NA,NA,2065.3333,2065.3333,2065.3333,2065.8804,NA,NA,NA,NA,NA,NA,NA,TRUE,3,2.5612,2062.5829,2065.3331,NA,NA,NA,NA,NA,180,35,0,55,55,98,1,2,56,"likert"
"BA97327C451541168A987783DB12FFFF",1,"01990a98-2cda-7cec-b6a6-8df86bbe200c","01990a84-c4ee-73c2-a87b-ff46a7d3dde5","2025-09-02_09h29.49.432",NA,NA,2068.9169,2068.917,2068.917,2069.2761,NA,NA,NA,NA,NA,NA,NA,FALSE,NA,NA,2065.8813,2068.9168,NA,NA,NA,NA,NA,21,29,0,56,56,26,1,2,57,"likert"
"BA97327C451541168A987783DB12FFFF",1,"01990a98-2cda-7cec-b6a6-8df86bbe200c","01990a84-c4ee-73c2-a87b-ff46a7d3dde5","2025-09-02_09h29.49.432",NA,NA,2072.0117,2072.0117,2072.0117,2072.5693,NA,NA,NA,NA,NA,NA,NA,TRUE,3,2.3404,2069.2769,2072.0114,NA,NA,NA,NA,NA,95,40,0,57,57,81,1,2,58,"likert"
"BA97327C451541168A987783DB12FFFF",1,"01990a98-2cda-7cec-b6a6-8df86bbe200c","01990a84-c4ee-73c2-a87b-ff46a7d3dde5","2025-09-02_09h29.49.432",NA,NA,2075.4791,2075.4791,2075.4791,2075.838,NA,NA,NA,NA,NA,NA,NA,TRUE,4,2.5424,2072.5699,2075.4789,NA,NA,NA,NA,NA,50,54,0,58,58,65,1,2,59,"likert"
"BA97327C451541168A987783DB12FFFF",1,"01990a98-2cda-7cec-b6a6-8df86bbe200c","01990a84-c4ee-73c2-a87b-ff46a7d3dde5","2025-09-02_09h29.49.432",NA,NA,2078.8258,2079.2402,2079.2402,2079.2402,NA,NA,NA,NA,NA,NA,NA,FALSE,NA,NA,2075.8386,2078.8257,NA,NA,NA,NA,NA,14,28,0,59,59,20,1,2,60,"likert"
"BA97327C451541168A987783DB12FFFF",1,"01990a98-2cda-7cec-b6a6-8df86bbe200c","01990a84-c4ee-73c2-a87b-ff46a7d3dde5","2025-09-02_09h29.49.432",NA,NA,2082.3604,2082.3604,2082.3604,2082.555,NA,NA,NA,NA,NA,NA,NA,TRUE,4,0.0038,2079.2413,2082.3603,NA,NA,NA,NA,NA,45,46,0,60,60,59,1,2,61,"likert"
"BA97327C451541168A987783DB12FFFF",1,"01990a98-2cda-7cec-b6a6-8df86bbe200c","01990a84-c4ee-73c2-a87b-ff46a7d3dde5","2025-09-02_09h29.49.432",NA,NA,2085.7663,2085.7664,2085.7664,2085.9435,NA,NA,NA,NA,NA,NA,NA,TRUE,4,2.7318,2082.5556,2085.7662,NA,NA,NA,NA,NA,7,35,0,61,61,5,1,2,62,"likert"
"BA97327C451541168A987783DB12FFFF",1,"01990a98-2cda-7cec-b6a6-8df86bbe200c","01990a84-c4ee-73c2-a87b-ff46a7d3dde5","2025-09-02_09h29.49.432",NA,NA,2088.7711,2089.1561,2089.1561,2089.3445,NA,NA,NA,NA,NA,NA,NA,FALSE,NA,NA,2085.9441,2088.771,NA,NA,NA,NA,NA,90,30,0,62,62,73,1,2,63,"likert"
"BA97327C451541168A987783DB12FFFF",1,"01990a98-2cda-7cec-b6a6-8df86bbe200c","01990a84-c4ee-73c2-a87b-ff46a7d3dde5","2025-09-02_09h29.49.432",NA,NA,2092.3035,2092.3035,2092.3035,2092.6675,NA,NA,NA,NA,NA,NA,NA,TRUE,4,0.008,2089.3451,2092.3034,NA,NA,NA,NA,NA,28,26,0,63,63,36,1,2,64,"likert"
"BA97327C451541168A987783DB12FFFF",1,"01990a98-2cda-7cec-b6a6-8df86bbe200c","01990a84-c4ee-73c2-a87b-ff46a7d3dde5","2025-09-02_09h29.49.432",NA,NA,2095.636,2096.0139,2096.0139,2096.0139,NA,NA,NA,NA,NA,NA,NA,FALSE,NA,NA,2092.668,2095.6358,NA,NA,NA,NA,NA,45,29,0,64,64,55,1,2,65,"likert"
"BA97327C451541168A987783DB12FFFF",1,"01990a98-2cda-7cec-b6a6-8df86bbe200c","01990a84-c4ee-73c2-a87b-ff46a7d3dde5","2025-09-02_09h29.49.432",NA,NA,2099.0458,2099.0458,2099.0458,2099.4093,NA,NA,NA,NA,NA,NA,NA,TRUE,3,2.046,2096.0146,2099.0456,NA,NA,NA,NA,NA,180,46,0,65,65,100,1,2,66,"likert"
"BA97327C451541168A987783DB12FFFF",1,"01990a98-2cda-7cec-b6a6-8df86bbe200c","01990a84-c4ee-73c2-a87b-ff46a7d3dde5","2025-09-02_09h29.49.432",NA,NA,2102.2378,2102.2378,2102.2378,2102.7965,NA,NA,NA,NA,NA,NA,NA,TRUE,4,0.3909,2099.4102,2102.2376,NA,NA,NA,NA,NA,40,35,0,66,66,50,1,2,67,"likert"
"BA97327C451541168A987783DB12FFFF",1,"01990a98-2cda-7cec-b6a6-8df86bbe200c","01990a84-c4ee-73c2-a87b-ff46a7d3dde5","2025-09-02_09h29.49.432",NA,NA,2105.6505,2105.6505,2105.6505,2106.0126,NA,NA,NA,NA,NA,NA,NA,TRUE,4,2.6376,2102.7972,2105.6503,NA,NA,NA,NA,NA,200,47,0,67,67,106,1,2,68,"likert"
"BA97327C451541168A987783DB12FFFF",1,"01990a98-2cda-7cec-b6a6-8df86bbe200c","01990a84-c4ee-73c2-a87b-ff46a7d3dde5","2025-09-02_09h29.49.432",NA,NA,2109.1626,2109.1626,2109.1627,2109.5718,NA,NA,NA,NA,NA,NA,NA,TRUE,3,2.6653,2106.0132,2109.1624,NA,NA,NA,NA,NA,28,28,0,68,68,37,1,2,69,"likert"
"BA97327C451541168A987783DB12FFFF",1,"01990a98-2cda-7cec-b6a6-8df86bbe200c","01990a84-c4ee-73c2-a87b-ff46a7d3dde5","2025-09-02_09h29.49.432",NA,NA,2112.5113,2112.5113,2112.5113,2112.8826,NA,NA,NA,NA,NA,NA,NA,TRUE,4,2.778,2109.5725,2112.5111,NA,NA,NA,NA,NA,200,26,0,69,69,102,1,2,70,"likert"
"BA97327C451541168A987783DB12FFFF",1,"01990a98-2cda-7cec-b6a6-8df86bbe200c","01990a84-c4ee-73c2-a87b-ff46a7d3dde5","2025-09-02_09h29.49.432",NA,NA,2115.7364,2115.7364,2115.7365,2116.1329,NA,NA,NA,NA,NA,NA,NA,TRUE,4,2.749,2112.8831,2115.7363,NA,NA,NA,NA,NA,21,32,0,70,70,28,1,2,71,"likert"
"BA97327C451541168A987783DB12FFFF",1,"01990a98-2cda-7cec-b6a6-8df86bbe200c","01990a84-c4ee-73c2-a87b-ff46a7d3dde5","2025-09-02_09h29.49.432",NA,NA,2119.087,2119.087,2119.087,2119.4938,NA,NA,NA,NA,NA,NA,NA,TRUE,4,0.6159,2116.1338,2119.0869,NA,NA,NA,NA,NA,28,35,0,71,71,39,1,2,72,"likert"
"BA97327C451541168A987783DB12FFFF",1,"01990a98-2cda-7cec-b6a6-8df86bbe200c","01990a84-c4ee-73c2-a87b-ff46a7d3dde5","2025-09-02_09h29.49.432",NA,NA,2122.3306,2122.3306,2122.3306,2122.8829,NA,NA,NA,NA,NA,NA,NA,TRUE,3,1.6215,2119.4945,2122.3305,NA,NA,NA,NA,NA,45,31,0,72,72,56,1,2,73,"likert"
"BA97327C451541168A987783DB12FFFF",1,"01990a98-2cda-7cec-b6a6-8df86bbe200c","01990a84-c4ee-73c2-a87b-ff46a7d3dde5","2025-09-02_09h29.49.432",NA,NA,2125.7303,2125.7303,2125.7303,2126.1077,NA,NA,NA,NA,NA,NA,NA,TRUE,3,1.6261,2122.8836,2125.7302,NA,NA,NA,NA,NA,60,47,0,73,73,70,1,2,74,"likert"
"BA97327C451541168A987783DB12FFFF",1,"01990a98-2cda-7cec-b6a6-8df86bbe200c","01990a84-c4ee-73c2-a87b-ff46a7d3dde5","2025-09-02_09h29.49.432",NA,NA,2129.2982,2129.2983,2129.2983,2129.5142,NA,NA,NA,NA,NA,NA,NA,TRUE,4,2.652,2126.1083,2129.298,NA,NA,NA,NA,NA,30,26,0,74,74,42,1,2,75,"likert"
"BA97327C451541168A987783DB12FFFF",1,"01990a98-2cda-7cec-b6a6-8df86bbe200c","01990a84-c4ee-73c2-a87b-ff46a7d3dde5","2025-09-02_09h29.49.432",NA,NA,2132.5737,2132.5737,2132.5737,2132.9457,NA,NA,NA,NA,NA,NA,NA,TRUE,3,2.7626,2129.5147,2132.5736,NA,NA,NA,NA,NA,40,47,0,75,75,52,1,2,76,"likert"
"BA97327C451541168A987783DB12FFFF",1,"01990a98-2cda-7cec-b6a6-8df86bbe200c","01990a84-c4ee-73c2-a87b-ff46a7d3dde5","2025-09-02_09h29.49.432",NA,NA,2135.9315,2135.9315,2135.9315,2136.3141,NA,NA,NA,NA,NA,NA,NA,TRUE,2,0.1939,2132.9901,2135.9312,NA,NA,NA,NA,NA,7,25,0,76,76,0,1,2,77,"likert"
"BA97327C451541168A987783DB12FFFF",1,"01990a98-2cda-7cec-b6a6-8df86bbe200c","01990a84-c4ee-73c2-a87b-ff46a7d3dde5","2025-09-02_09h29.49.432",NA,NA,2139.2575,2139.2575,2139.2575,2139.6407,NA,NA,NA,NA,NA,NA,NA,TRUE,3,0.0037,2136.3147,2139.2574,NA,NA,NA,NA,NA,45,35,0,77,77,57,1,2,78,"likert"
"BA97327C451541168A987783DB12FFFF",1,"01990a98-2cda-7cec-b6a6-8df86bbe200c","01990a84-c4ee-73c2-a87b-ff46a7d3dde5","2025-09-02_09h29.49.432",NA,NA,2142.5775,2142.5775,2142.5775,2142.931,NA,NA,NA,NA,NA,NA,NA,TRUE,3,2.7561,2139.6412,2142.5773,NA,NA,NA,NA,NA,50,40,0,78,78,63,1,2,79,"likert"
"BA97327C451541168A987783DB12FFFF",1,"01990a98-2cda-7cec-b6a6-8df86bbe200c","01990a84-c4ee-73c2-a87b-ff46a7d3dde5","2025-09-02_09h29.49.432",NA,NA,2146.0058,2146.0058,2146.0058,2146.3649,NA,NA,NA,NA,NA,NA,NA,TRUE,3,2.12,2142.9316,2146.0056,NA,NA,NA,NA,NA,95,47,0,79,79,82,1,2,80,"likert"
"BA97327C451541168A987783DB12FFFF",1,"01990a98-2cda-7cec-b6a6-8df86bbe200c","01990a84-c4ee-73c2-a87b-ff46a7d3dde5","2025-09-02_09h29.49.432",NA,NA,2149.2579,2149.2579,2149.2579,2149.6184,NA,NA,NA,NA,NA,NA,NA,TRUE,3,2.7015,2146.3654,2149.2579,NA,NA,NA,NA,NA,30,29,0,80,80,44,1,2,81,"likert"
"BA97327C451541168A987783DB12FFFF",1,"01990a98-2cda-7cec-b6a6-8df86bbe200c","01990a84-c4ee-73c2-a87b-ff46a7d3dde5","2025-09-02_09h29.49.432",NA,NA,2152.643,2152.643,2152.643,2153.016,NA,NA,NA,NA,NA,NA,NA,TRUE,3,2.6994,2149.6189,2152.643,NA,NA,NA,NA,NA,50,30,0,81,81,61,1,2,82,"likert"
"BA97327C451541168A987783DB12FFFF",1,"01990a98-2cda-7cec-b6a6-8df86bbe200c","01990a84-c4ee-73c2-a87b-ff46a7d3dde5","2025-09-02_09h29.49.432",NA,NA,2155.8719,2155.8719,2155.8719,2156.2409,NA,NA,NA,NA,NA,NA,NA,TRUE,3,2.654,2153.0167,2155.8718,NA,NA,NA,NA,NA,40,40,0,82,82,51,1,2,83,"likert"
"BA97327C451541168A987783DB12FFFF",1,"01990a98-2cda-7cec-b6a6-8df86bbe200c","01990a84-c4ee-73c2-a87b-ff46a7d3dde5","2025-09-02_09h29.49.432",NA,NA,2159.4836,2159.4836,2159.4836,2159.6658,NA,NA,NA,NA,NA,NA,NA,TRUE,3,2.6695,2156.2416,2159.4834,NA,NA,NA,NA,NA,200,54,0,83,83,107,1,2,84,"likert"
"BA97327C451541168A987783DB12FFFF",1,"01990a98-2cda-7cec-b6a6-8df86bbe200c","01990a84-c4ee-73c2-a87b-ff46a7d3dde5","2025-09-02_09h29.49.432",NA,NA,2162.7576,2162.7576,2162.7576,2163.1244,NA,NA,NA,NA,NA,NA,NA,FALSE,NA,NA,2159.6665,2162.7574,NA,NA,NA,NA,NA,100,38,0,84,84,86,1,2,85,"likert"
"BA97327C451541168A987783DB12FFFF",1,"01990a98-2cda-7cec-b6a6-8df86bbe200c","01990a84-c4ee-73c2-a87b-ff46a7d3dde5","2025-09-02_09h29.49.432",NA,NA,2166.0111,2166.0111,2166.0111,2166.4071,NA,NA,NA,NA,NA,NA,NA,TRUE,4,1.1734,2163.1251,2166.0109,NA,NA,NA,NA,NA,14,25,0,85,85,18,1,2,86,"likert"
"BA97327C451541168A987783DB12FFFF",1,"01990a98-2cda-7cec-b6a6-8df86bbe200c","01990a84-c4ee-73c2-a87b-ff46a7d3dde5","2025-09-02_09h29.49.432",NA,NA,2169.3199,2169.3199,2169.3199,2169.7125,NA,NA,NA,NA,NA,NA,NA,TRUE,4,0.2192,2166.4077,2169.3198,NA,NA,NA,NA,NA,10,30,0,86,86,10,1,2,87,"likert"
"BA97327C451541168A987783DB12FFFF",1,"01990a98-2cda-7cec-b6a6-8df86bbe200c","01990a84-c4ee-73c2-a87b-ff46a7d3dde5","2025-09-02_09h29.49.432",NA,NA,2172.6184,2172.6184,2172.6184,2173.158,NA,NA,NA,NA,NA,NA,NA,TRUE,3,2.7272,2169.713,2172.6182,NA,NA,NA,NA,NA,45,40,0,87,87,58,1,2,88,"likert"
"BA97327C451541168A987783DB12FFFF",1,"01990a98-2cda-7cec-b6a6-8df86bbe200c","01990a84-c4ee-73c2-a87b-ff46a7d3dde5","2025-09-02_09h29.49.432",NA,NA,2176.2429,2176.2429,2176.243,2176.4239,NA,NA,NA,NA,NA,NA,NA,TRUE,3,1.5495,2173.1587,2176.2428,NA,NA,NA,NA,NA,60,33,0,88,88,67,1,2,89,"likert"
"BA97327C451541168A987783DB12FFFF",1,"01990a98-2cda-7cec-b6a6-8df86bbe200c","01990a84-c4ee-73c2-a87b-ff46a7d3dde5","2025-09-02_09h29.49.432",NA,NA,2179.3299,2179.3299,2179.3299,2179.6912,NA,NA,NA,NA,NA,NA,NA,TRUE,4,0.7807,2176.4246,2179.3297,NA,NA,NA,NA,NA,12,25,0,89,89,12,1,2,90,"likert"
"BA97327C451541168A987783DB12FFFF",1,"01990a98-2cda-7cec-b6a6-8df86bbe200c","01990a84-c4ee-73c2-a87b-ff46a7d3dde5","2025-09-02_09h29.49.432",NA,NA,2182.4867,2182.4867,2182.4867,2183.2009,NA,NA,NA,NA,NA,NA,NA,TRUE,4,0.1999,2179.6918,2182.4866,NA,NA,NA,NA,NA,60,35,0,90,90,68,1,2,91,"likert"
"BA97327C451541168A987783DB12FFFF",1,"01990a98-2cda-7cec-b6a6-8df86bbe200c","01990a84-c4ee-73c2-a87b-ff46a7d3dde5","2025-09-02_09h29.49.432",NA,NA,2186.2976,2186.2976,2186.2977,2186.4756,NA,NA,NA,NA,NA,NA,NA,TRUE,3,2.3849,2183.2015,2186.2974,NA,NA,NA,NA,NA,10,27,0,91,91,8,1,2,92,"likert"
"BA97327C451541168A987783DB12FFFF",1,"01990a98-2cda-7cec-b6a6-8df86bbe200c","01990a84-c4ee-73c2-a87b-ff46a7d3dde5","2025-09-02_09h29.49.432",NA,NA,2189.4825,2189.6682,2189.6683,2189.846,NA,NA,NA,NA,NA,NA,NA,FALSE,NA,NA,2186.5364,2189.4822,NA,NA,NA,NA,NA,90,46,0,92,92,76,1,2,93,"likert"
"BA97327C451541168A987783DB12FFFF",1,"01990a98-2cda-7cec-b6a6-8df86bbe200c","01990a84-c4ee-73c2-a87b-ff46a7d3dde5","2025-09-02_09h29.49.432",NA,NA,2192.7528,2192.956,2192.956,2193.1312,NA,NA,NA,NA,NA,NA,NA,FALSE,NA,NA,2189.8466,2192.7526,NA,NA,NA,NA,NA,90,33,0,93,93,74,1,2,94,"likert"
"BA97327C451541168A987783DB12FFFF",1,"01990a98-2cda-7cec-b6a6-8df86bbe200c","01990a84-c4ee-73c2-a87b-ff46a7d3dde5","2025-09-02_09h29.49.432",NA,NA,2196.0612,2196.4329,2196.4329,2196.6123,NA,NA,NA,NA,NA,NA,NA,FALSE,NA,NA,2193.1318,2196.061,NA,NA,NA,NA,NA,12,31,0,94,94,15,1,2,95,"likert"
"BA97327C451541168A987783DB12FFFF",1,"01990a98-2cda-7cec-b6a6-8df86bbe200c","01990a84-c4ee-73c2-a87b-ff46a7d3dde5","2025-09-02_09h29.49.432",NA,NA,2199.4912,2199.4912,2199.4912,2199.8921,NA,NA,NA,NA,NA,NA,NA,TRUE,4,0.0072,2196.6129,2199.491,NA,NA,NA,NA,NA,150,40,0,95,95,93,1,2,96,"likert"
"BA97327C451541168A987783DB12FFFF",1,"01990a98-2cda-7cec-b6a6-8df86bbe200c","01990a84-c4ee-73c2-a87b-ff46a7d3dde5","2025-09-02_09h29.49.432",NA,NA,2202.9196,2202.9196,2202.9196,2203.2977,NA,NA,NA,NA,NA,NA,NA,TRUE,4,0.4332,2199.8927,2202.9194,NA,NA,NA,NA,NA,180,31,0,96,96,97,1,2,97,"likert"
"BA97327C451541168A987783DB12FFFF",1,"01990a98-2cda-7cec-b6a6-8df86bbe200c","01990a84-c4ee-73c2-a87b-ff46a7d3dde5","2025-09-02_09h29.49.432",NA,NA,2206.2146,2206.2146,2206.2146,2206.573,NA,NA,NA,NA,NA,NA,NA,TRUE,3,1.9764,2203.2984,2206.2145,NA,NA,NA,NA,NA,12,35,0,97,97,17,1,2,98,"likert"
"BA97327C451541168A987783DB12FFFF",1,"01990a98-2cda-7cec-b6a6-8df86bbe200c","01990a84-c4ee-73c2-a87b-ff46a7d3dde5","2025-09-02_09h29.49.432",NA,NA,2209.4835,2209.4835,2209.4836,2209.8495,NA,NA,NA,NA,NA,NA,NA,TRUE,4,0.0071,2206.5736,2209.4834,NA,NA,NA,NA,NA,25,29,0,98,98,31,1,2,99,"likert"
"BA97327C451541168A987783DB12FFFF",1,"01990a98-2cda-7cec-b6a6-8df86bbe200c","01990a84-c4ee-73c2-a87b-ff46a7d3dde5","2025-09-02_09h29.49.432",NA,NA,2212.7649,2213.3225,2213.3225,2213.3225,NA,NA,NA,NA,NA,NA,NA,FALSE,NA,NA,2209.8501,2212.7648,NA,NA,NA,NA,NA,25,33,0,99,99,33,1,2,100,"likert"
"BA97327C451541168A987783DB12FFFF",1,"01990a98-2cda-7cec-b6a6-8df86bbe200c","01990a84-c4ee-73c2-a87b-ff46a7d3dde5","2025-09-02_09h29.49.432",NA,NA,2216.2488,2216.4281,2216.4281,2216.6304,NA,NA,NA,NA,NA,NA,NA,FALSE,NA,NA,2213.3236,2216.2486,NA,NA,NA,NA,NA,150,31,0,100,100,90,1,2,101,"likert"
"BA97327C451541168A987783DB12FFFF",1,"01990a98-2cda-7cec-b6a6-8df86bbe200c","01990a84-c4ee-73c2-a87b-ff46a7d3dde5","2025-09-02_09h29.49.432",NA,NA,2219.4707,2219.4707,2219.4707,2220.0227,NA,NA,NA,NA,NA,NA,NA,TRUE,4,2.0363,2216.6309,2219.4705,NA,NA,NA,NA,NA,90,40,0,101,101,75,1,2,102,"likert"
"BA97327C451541168A987783DB12FFFF",1,"01990a98-2cda-7cec-b6a6-8df86bbe200c","01990a84-c4ee-73c2-a87b-ff46a7d3dde5","2025-09-02_09h29.49.432",NA,NA,2222.8782,2222.8783,2222.8783,2223.4072,NA,NA,NA,NA,NA,NA,NA,TRUE,4,0.7746,2220.0233,2222.878,NA,NA,NA,NA,NA,10,26,0,102,102,7,1,2,103,"likert"
"BA97327C451541168A987783DB12FFFF",1,"01990a98-2cda-7cec-b6a6-8df86bbe200c","01990a84-c4ee-73c2-a87b-ff46a7d3dde5","2025-09-02_09h29.49.432",NA,NA,2226.2785,2226.2785,2226.2785,2226.6374,NA,NA,NA,NA,NA,NA,NA,TRUE,4,0.1977,2223.4078,2226.2784,NA,NA,NA,NA,NA,150,35,0,103,103,92,1,2,104,"likert"
"BA97327C451541168A987783DB12FFFF",1,"01990a98-2cda-7cec-b6a6-8df86bbe200c","01990a84-c4ee-73c2-a87b-ff46a7d3dde5","2025-09-02_09h29.49.432",NA,NA,2229.5051,2229.5051,2229.5051,2230.1046,NA,NA,NA,NA,NA,NA,NA,TRUE,2,0.0041,2226.6379,2229.5049,NA,NA,NA,NA,NA,180,27,0,104,104,96,1,2,105,"likert"
"BA97327C451541168A987783DB12FFFF",1,"01990a98-2cda-7cec-b6a6-8df86bbe200c","01990a84-c4ee-73c2-a87b-ff46a7d3dde5","2025-09-02_09h29.49.432",NA,NA,2233.1524,2233.1525,2233.1525,2233.5125,NA,NA,NA,NA,NA,NA,NA,TRUE,4,2.4877,2230.1051,2233.1523,NA,NA,NA,NA,NA,30,32,0,105,105,46,1,2,106,"likert"
"BA97327C451541168A987783DB12FFFF",1,"01990a98-2cda-7cec-b6a6-8df86bbe200c","01990a84-c4ee-73c2-a87b-ff46a7d3dde5","2025-09-02_09h29.49.432",NA,NA,2236.3838,2236.3838,2236.3838,2236.7513,NA,NA,NA,NA,NA,NA,NA,TRUE,4,0.5768,2233.5131,2236.3837,NA,NA,NA,NA,NA,90,54,0,106,106,77,1,2,107,"likert"
"BA97327C451541168A987783DB12FFFF",1,"01990a98-2cda-7cec-b6a6-8df86bbe200c","01990a84-c4ee-73c2-a87b-ff46a7d3dde5","2025-09-02_09h29.49.432",NA,NA,2239.6894,2239.6894,2239.6894,2240.0453,NA,NA,NA,NA,NA,NA,NA,TRUE,5,0.0046,2236.7518,2239.6893,NA,NA,NA,NA,NA,60,29,0,107,107,66,1,2,108,"likert"
