"participant","session","assignmentId","projectId","date","practiceTrial.started","practiceTrial.stopped","tooLate.started","tooLate.stopped","blank.started","blank.stopped","trials_pract.thisRepN","trials_pract.thisTrialN","trials_pract.thisN","trials_pract.thisIndex","trials_pract.ran","delay_pract","amount_pract","responseMade","key","rt","trial.started","trial.stopped","trials.thisRepN","trials.thisTrialN","trials.thisN","trials.thisIndex","trials.ran","delay","amount","trials_2.thisRepN","trials_2.thisTrialN","trials_2.thisN","trials_2.thisIndex","trials_2.ran","block","trial","taskType"
"BBF3557DBE1440E6A1E442881560D6FF",1,"01990a99-0785-75c3-a416-95d7bbf37a6a","01990a84-c4ee-73c2-a87b-ff46a7d3dde5","2025-09-02_09h25.34.068",38.3435,41.309,41.3096,41.5589,41.5591,41.6587,0,0,0,4,1,30,40,FALSE,NA,NA,NA,NA,NA,NA,NA,NA,NA,NA,NA,NA,NA,NA,NA,NA,0,1,"likert"
"BBF3557DBE1440E6A1E442881560D6FF",1,"01990a99-0785-75c3-a416-95d7bbf37a6a","01990a84-c4ee-73c2-a87b-ff46a7d3dde5","2025-09-02_09h25.34.068",41.661,44.6557,44.6559,44.6559,44.6559,45.0052,0,1,1,2,1,14,45,TRUE,5,2.0163,NA,NA,NA,NA,NA,NA,NA,NA,NA,NA,NA,NA,NA,NA,0,2,"likert"
"BBF3557DBE1440E6A1E442881560D6FF",1,"01990a99-0785-75c3-a416-95d7bbf37a6a","01990a84-c4ee-73c2-a87b-ff46a7d3dde5","2025-09-02_09h25.34.068",45.0063,48.0019,48.002,48.002,48.002,48.3516,0,2,2,1,1,100,50,TRUE,5,1.4876,NA,NA,NA,NA,NA,NA,NA,NA,NA,NA,NA,NA,NA,NA,0,3,"likert"
"BBF3557DBE1440E6A1E442881560D6FF",1,"01990a99-0785-75c3-a416-95d7bbf37a6a","01990a84-c4ee-73c2-a87b-ff46a7d3dde5","2025-09-02_09h25.34.068",48.3529,51.3658,51.3659,51.3659,51.3659,51.7155,0,3,3,3,1,3,27,TRUE,3,2.5105,NA,NA,NA,NA,NA,NA,NA,NA,NA,NA,NA,NA,NA,NA,0,4,"likert"
"BBF3557DBE1440E6A1E442881560D6FF",1,"01990a99-0785-75c3-a416-95d7bbf37a6a","01990a84-c4ee-73c2-a87b-ff46a7d3dde5","2025-09-02_09h25.34.068",51.7162,54.7132,54.7133,54.963,54.963,55.0627,0,4,4,0,1,7,30,FALSE,NA,NA,NA,NA,NA,NA,NA,NA,NA,NA,NA,NA,NA,NA,NA,NA,0,5,"likert"
"BBF3557DBE1440E6A1E442881560D6FF",1,"01990a99-0785-75c3-a416-95d7bbf37a6a","01990a84-c4ee-73c2-a87b-ff46a7d3dde5","2025-09-02_09h25.34.068",NA,NA,84.186,84.1864,84.1866,84.5346,NA,NA,NA,NA,NA,NA,NA,TRUE,5,2.6081,81.2081,84.1856,0,0,0,100,1,180,46,NA,NA,NA,NA,NA,1,1,"likert"
"BBF3557DBE1440E6A1E442881560D6FF",1,"01990a99-0785-75c3-a416-95d7bbf37a6a","01990a84-c4ee-73c2-a87b-ff46a7d3dde5","2025-09-02_09h25.34.068",NA,NA,87.5327,87.5327,87.5327,87.8818,NA,NA,NA,NA,NA,NA,NA,TRUE,5,1.1751,84.5355,87.5326,0,1,1,71,1,60,54,NA,NA,NA,NA,NA,1,2,"likert"
"BBF3557DBE1440E6A1E442881560D6FF",1,"01990a99-0785-75c3-a416-95d7bbf37a6a","01990a84-c4ee-73c2-a87b-ff46a7d3dde5","2025-09-02_09h25.34.068",NA,NA,90.8795,90.8795,90.8795,91.2285,NA,NA,NA,NA,NA,NA,NA,TRUE,4,2.2536,87.8839,90.8794,0,2,2,23,1,14,39,NA,NA,NA,NA,NA,1,3,"likert"
"BBF3557DBE1440E6A1E442881560D6FF",1,"01990a99-0785-75c3-a416-95d7bbf37a6a","01990a84-c4ee-73c2-a87b-ff46a7d3dde5","2025-09-02_09h25.34.068",NA,NA,94.2263,94.2264,94.2264,94.5759,NA,NA,NA,NA,NA,NA,NA,TRUE,5,1.8439,91.2293,94.2262,0,3,3,35,1,25,46,NA,NA,NA,NA,NA,1,4,"likert"
"BBF3557DBE1440E6A1E442881560D6FF",1,"01990a99-0785-75c3-a416-95d7bbf37a6a","01990a84-c4ee-73c2-a87b-ff46a7d3dde5","2025-09-02_09h25.34.068",NA,NA,97.5898,97.5899,97.59,97.939,NA,NA,NA,NA,NA,NA,NA,TRUE,4,2.1731,94.5778,97.5898,0,4,4,80,1,95,35,NA,NA,NA,NA,NA,1,5,"likert"
"BBF3557DBE1440E6A1E442881560D6FF",1,"01990a99-0785-75c3-a416-95d7bbf37a6a","01990a84-c4ee-73c2-a87b-ff46a7d3dde5","2025-09-02_09h25.34.068",NA,NA,100.9368,100.9368,100.9368,101.2863,NA,NA,NA,NA,NA,NA,NA,TRUE,5,1.377,97.9409,100.9367,0,5,5,47,1,30,38,NA,NA,NA,NA,NA,1,6,"likert"
"BBF3557DBE1440E6A1E442881560D6FF",1,"01990a99-0785-75c3-a416-95d7bbf37a6a","01990a84-c4ee-73c2-a87b-ff46a7d3dde5","2025-09-02_09h25.34.068",NA,NA,104.2826,104.2827,104.2827,104.6327,NA,NA,NA,NA,NA,NA,NA,TRUE,5,1.8419,101.2882,104.2826,0,6,6,62,1,50,35,NA,NA,NA,NA,NA,1,7,"likert"
"BBF3557DBE1440E6A1E442881560D6FF",1,"01990a99-0785-75c3-a416-95d7bbf37a6a","01990a84-c4ee-73c2-a87b-ff46a7d3dde5","2025-09-02_09h25.34.068",NA,NA,107.6302,107.6303,107.6303,107.9794,NA,NA,NA,NA,NA,NA,NA,TRUE,4,2.6954,104.6337,107.6301,0,7,7,8,1,10,27,NA,NA,NA,NA,NA,1,8,"likert"
"BBF3557DBE1440E6A1E442881560D6FF",1,"01990a99-0785-75c3-a416-95d7bbf37a6a","01990a84-c4ee-73c2-a87b-ff46a7d3dde5","2025-09-02_09h25.34.068",NA,NA,110.9772,110.9773,110.9774,111.3266,NA,NA,NA,NA,NA,NA,NA,TRUE,3,2.7316,107.9807,110.977,0,8,8,92,1,150,35,NA,NA,NA,NA,NA,1,9,"likert"
"BBF3557DBE1440E6A1E442881560D6FF",1,"01990a99-0785-75c3-a416-95d7bbf37a6a","01990a84-c4ee-73c2-a87b-ff46a7d3dde5","2025-09-02_09h25.34.068",NA,NA,114.3407,114.3408,114.3408,114.6903,NA,NA,NA,NA,NA,NA,NA,TRUE,5,2.1573,111.3284,114.3407,0,9,9,5,1,7,35,NA,NA,NA,NA,NA,1,10,"likert"
"BBF3557DBE1440E6A1E442881560D6FF",1,"01990a99-0785-75c3-a416-95d7bbf37a6a","01990a84-c4ee-73c2-a87b-ff46a7d3dde5","2025-09-02_09h25.34.068",NA,NA,117.687,117.687,117.687,118.0368,NA,NA,NA,NA,NA,NA,NA,TRUE,5,1.1817,114.6922,117.687,0,10,10,41,1,28,46,NA,NA,NA,NA,NA,1,11,"likert"
"BBF3557DBE1440E6A1E442881560D6FF",1,"01990a99-0785-75c3-a416-95d7bbf37a6a","01990a84-c4ee-73c2-a87b-ff46a7d3dde5","2025-09-02_09h25.34.068",NA,NA,121.034,121.034,121.0341,121.3837,NA,NA,NA,NA,NA,NA,NA,TRUE,5,2.245,118.0377,121.0339,0,11,11,68,1,60,35,NA,NA,NA,NA,NA,1,12,"likert"
"BBF3557DBE1440E6A1E442881560D6FF",1,"01990a99-0785-75c3-a416-95d7bbf37a6a","01990a84-c4ee-73c2-a87b-ff46a7d3dde5","2025-09-02_09h25.34.068",NA,NA,124.3809,124.3809,124.3809,124.7307,NA,NA,NA,NA,NA,NA,NA,TRUE,4,2.0746,121.3845,124.3809,0,12,12,91,1,150,33,NA,NA,NA,NA,NA,1,13,"likert"
"BBF3557DBE1440E6A1E442881560D6FF",1,"01990a99-0785-75c3-a416-95d7bbf37a6a","01990a84-c4ee-73c2-a87b-ff46a7d3dde5","2025-09-02_09h25.34.068",NA,NA,127.7277,127.7277,127.7277,128.077,NA,NA,NA,NA,NA,NA,NA,TRUE,5,2.0207,124.7328,127.7276,0,13,13,95,1,150,54,NA,NA,NA,NA,NA,1,14,"likert"
"BBF3557DBE1440E6A1E442881560D6FF",1,"01990a99-0785-75c3-a416-95d7bbf37a6a","01990a84-c4ee-73c2-a87b-ff46a7d3dde5","2025-09-02_09h25.34.068",NA,NA,131.0914,131.0915,131.0915,131.441,NA,NA,NA,NA,NA,NA,NA,TRUE,5,2.2667,128.0777,131.0914,0,14,14,74,1,90,33,NA,NA,NA,NA,NA,1,15,"likert"
"BBF3557DBE1440E6A1E442881560D6FF",1,"01990a99-0785-75c3-a416-95d7bbf37a6a","01990a84-c4ee-73c2-a87b-ff46a7d3dde5","2025-09-02_09h25.34.068",NA,NA,134.4381,134.4381,134.4381,134.7881,NA,NA,NA,NA,NA,NA,NA,TRUE,5,1.2837,131.4418,134.4381,0,15,15,49,1,40,33,NA,NA,NA,NA,NA,1,16,"likert"
"BBF3557DBE1440E6A1E442881560D6FF",1,"01990a99-0785-75c3-a416-95d7bbf37a6a","01990a84-c4ee-73c2-a87b-ff46a7d3dde5","2025-09-02_09h25.34.068",NA,NA,137.7856,137.7857,137.7857,138.1351,NA,NA,NA,NA,NA,NA,NA,TRUE,5,2.2042,134.79,137.7856,0,16,16,55,1,45,29,NA,NA,NA,NA,NA,1,17,"likert"
"BBF3557DBE1440E6A1E442881560D6FF",1,"01990a99-0785-75c3-a416-95d7bbf37a6a","01990a84-c4ee-73c2-a87b-ff46a7d3dde5","2025-09-02_09h25.34.068",NA,NA,141.1324,141.1324,141.1324,141.4815,NA,NA,NA,NA,NA,NA,NA,TRUE,5,1.3502,138.1369,141.1323,0,17,17,51,1,40,40,NA,NA,NA,NA,NA,1,18,"likert"
"BBF3557DBE1440E6A1E442881560D6FF",1,"01990a99-0785-75c3-a416-95d7bbf37a6a","01990a84-c4ee-73c2-a87b-ff46a7d3dde5","2025-09-02_09h25.34.068",NA,NA,144.4793,144.4793,144.4793,144.8288,NA,NA,NA,NA,NA,NA,NA,TRUE,4,1.7225,141.483,144.4792,0,18,18,78,1,95,31,NA,NA,NA,NA,NA,1,19,"likert"
"BBF3557DBE1440E6A1E442881560D6FF",1,"01990a99-0785-75c3-a416-95d7bbf37a6a","01990a84-c4ee-73c2-a87b-ff46a7d3dde5","2025-09-02_09h25.34.068",NA,NA,147.8258,147.8258,147.8258,148.1754,NA,NA,NA,NA,NA,NA,NA,TRUE,4,1.1564,144.8307,147.8258,0,19,19,87,1,100,39,NA,NA,NA,NA,NA,1,20,"likert"
"BBF3557DBE1440E6A1E442881560D6FF",1,"01990a99-0785-75c3-a416-95d7bbf37a6a","01990a84-c4ee-73c2-a87b-ff46a7d3dde5","2025-09-02_09h25.34.068",NA,NA,151.1892,151.1892,151.1892,151.5384,NA,NA,NA,NA,NA,NA,NA,TRUE,4,1.6689,148.177,151.1892,0,20,20,30,1,25,27,NA,NA,NA,NA,NA,1,21,"likert"
"BBF3557DBE1440E6A1E442881560D6FF",1,"01990a99-0785-75c3-a416-95d7bbf37a6a","01990a84-c4ee-73c2-a87b-ff46a7d3dde5","2025-09-02_09h25.34.068",NA,NA,154.5365,154.5366,154.5366,154.8862,NA,NA,NA,NA,NA,NA,NA,TRUE,4,1.4933,151.5391,154.5365,0,21,21,77,1,90,54,NA,NA,NA,NA,NA,1,22,"likert"
"BBF3557DBE1440E6A1E442881560D6FF",1,"01990a99-0785-75c3-a416-95d7bbf37a6a","01990a84-c4ee-73c2-a87b-ff46a7d3dde5","2025-09-02_09h25.34.068",NA,NA,157.8824,157.8824,157.8824,158.2325,NA,NA,NA,NA,NA,NA,NA,TRUE,4,1.8207,154.8883,157.8824,0,22,22,54,1,45,26,NA,NA,NA,NA,NA,1,23,"likert"
"BBF3557DBE1440E6A1E442881560D6FF",1,"01990a99-0785-75c3-a416-95d7bbf37a6a","01990a84-c4ee-73c2-a87b-ff46a7d3dde5","2025-09-02_09h25.34.068",NA,NA,161.2299,161.2299,161.2299,161.5793,NA,NA,NA,NA,NA,NA,NA,TRUE,2,2.4734,158.2331,161.2298,0,23,23,72,1,90,26,NA,NA,NA,NA,NA,1,24,"likert"
"BBF3557DBE1440E6A1E442881560D6FF",1,"01990a99-0785-75c3-a416-95d7bbf37a6a","01990a84-c4ee-73c2-a87b-ff46a7d3dde5","2025-09-02_09h25.34.068",NA,NA,164.5772,164.5772,164.5773,164.9268,NA,NA,NA,NA,NA,NA,NA,TRUE,4,2.4001,161.5799,164.5771,0,24,24,4,1,7,32,NA,NA,NA,NA,NA,1,25,"likert"
"BBF3557DBE1440E6A1E442881560D6FF",1,"01990a99-0785-75c3-a416-95d7bbf37a6a","01990a84-c4ee-73c2-a87b-ff46a7d3dde5","2025-09-02_09h25.34.068",NA,NA,167.9404,167.9405,167.9405,168.2902,NA,NA,NA,NA,NA,NA,NA,TRUE,4,1.3121,164.9291,167.9404,0,25,25,32,1,25,31,NA,NA,NA,NA,NA,1,26,"likert"
"BBF3557DBE1440E6A1E442881560D6FF",1,"01990a99-0785-75c3-a416-95d7bbf37a6a","01990a84-c4ee-73c2-a87b-ff46a7d3dde5","2025-09-02_09h25.34.068",NA,NA,171.2866,171.2867,171.2867,171.6362,NA,NA,NA,NA,NA,NA,NA,TRUE,4,1.7659,168.2919,171.2866,0,26,26,29,1,21,38,NA,NA,NA,NA,NA,1,27,"likert"
"BBF3557DBE1440E6A1E442881560D6FF",1,"01990a99-0785-75c3-a416-95d7bbf37a6a","01990a84-c4ee-73c2-a87b-ff46a7d3dde5","2025-09-02_09h25.34.068",NA,NA,174.6338,174.8832,174.8833,174.9831,NA,NA,NA,NA,NA,NA,NA,FALSE,NA,NA,171.6368,174.6338,0,27,27,63,1,50,40,NA,NA,NA,NA,NA,1,28,"likert"
"BBF3557DBE1440E6A1E442881560D6FF",1,"01990a99-0785-75c3-a416-95d7bbf37a6a","01990a84-c4ee-73c2-a87b-ff46a7d3dde5","2025-09-02_09h25.34.068",NA,NA,177.9808,177.9808,177.9808,178.33,NA,NA,NA,NA,NA,NA,NA,TRUE,4,1.4398,174.9844,177.9807,0,28,28,22,1,14,35,NA,NA,NA,NA,NA,1,29,"likert"
"BBF3557DBE1440E6A1E442881560D6FF",1,"01990a99-0785-75c3-a416-95d7bbf37a6a","01990a84-c4ee-73c2-a87b-ff46a7d3dde5","2025-09-02_09h25.34.068",NA,NA,181.3272,181.3272,181.3272,181.6771,NA,NA,NA,NA,NA,NA,NA,TRUE,4,1.3222,178.3314,181.3272,0,29,29,46,1,30,32,NA,NA,NA,NA,NA,1,30,"likert"
"BBF3557DBE1440E6A1E442881560D6FF",1,"01990a99-0785-75c3-a416-95d7bbf37a6a","01990a84-c4ee-73c2-a87b-ff46a7d3dde5","2025-09-02_09h25.34.068",NA,NA,184.6911,184.6911,184.6911,185.0407,NA,NA,NA,NA,NA,NA,NA,TRUE,4,0.7435,181.6784,184.691,0,30,30,40,1,28,39,NA,NA,NA,NA,NA,1,31,"likert"
"BBF3557DBE1440E6A1E442881560D6FF",1,"01990a99-0785-75c3-a416-95d7bbf37a6a","01990a84-c4ee-73c2-a87b-ff46a7d3dde5","2025-09-02_09h25.34.068",NA,NA,188.038,188.0381,188.0381,188.388,NA,NA,NA,NA,NA,NA,NA,TRUE,4,0.6255,185.0419,188.038,0,31,31,82,1,95,47,NA,NA,NA,NA,NA,1,32,"likert"
"BBF3557DBE1440E6A1E442881560D6FF",1,"01990a99-0785-75c3-a416-95d7bbf37a6a","01990a84-c4ee-73c2-a87b-ff46a7d3dde5","2025-09-02_09h25.34.068",NA,NA,191.3855,191.3855,191.3855,191.7349,NA,NA,NA,NA,NA,NA,NA,TRUE,4,0.5044,188.3896,191.3854,0,32,32,33,1,25,33,NA,NA,NA,NA,NA,1,33,"likert"
"BBF3557DBE1440E6A1E442881560D6FF",1,"01990a99-0785-75c3-a416-95d7bbf37a6a","01990a84-c4ee-73c2-a87b-ff46a7d3dde5","2025-09-02_09h25.34.068",NA,NA,194.7324,194.7325,194.7326,195.0823,NA,NA,NA,NA,NA,NA,NA,TRUE,4,1.0526,191.7365,194.7324,0,33,33,12,1,12,25,NA,NA,NA,NA,NA,1,34,"likert"
"BBF3557DBE1440E6A1E442881560D6FF",1,"01990a99-0785-75c3-a416-95d7bbf37a6a","01990a84-c4ee-73c2-a87b-ff46a7d3dde5","2025-09-02_09h25.34.068",NA,NA,198.0791,198.0791,198.0791,198.4285,NA,NA,NA,NA,NA,NA,NA,TRUE,4,1.4802,195.0842,198.079,0,34,34,76,1,90,46,NA,NA,NA,NA,NA,1,35,"likert"
"BBF3557DBE1440E6A1E442881560D6FF",1,"01990a99-0785-75c3-a416-95d7bbf37a6a","01990a84-c4ee-73c2-a87b-ff46a7d3dde5","2025-09-02_09h25.34.068",NA,NA,201.4263,201.4263,201.4264,201.7756,NA,NA,NA,NA,NA,NA,NA,TRUE,2,1.4077,198.4308,201.4262,0,35,35,7,1,10,26,NA,NA,NA,NA,NA,1,36,"likert"
"BBF3557DBE1440E6A1E442881560D6FF",1,"01990a99-0785-75c3-a416-95d7bbf37a6a","01990a84-c4ee-73c2-a87b-ff46a7d3dde5","2025-09-02_09h25.34.068",NA,NA,204.7894,204.7896,204.7896,205.1388,NA,NA,NA,NA,NA,NA,NA,TRUE,2,1.556,201.7775,204.7894,0,36,36,24,1,21,26,NA,NA,NA,NA,NA,1,37,"likert"
"BBF3557DBE1440E6A1E442881560D6FF",1,"01990a99-0785-75c3-a416-95d7bbf37a6a","01990a84-c4ee-73c2-a87b-ff46a7d3dde5","2025-09-02_09h25.34.068",NA,NA,208.1361,208.1361,208.1361,208.4864,NA,NA,NA,NA,NA,NA,NA,TRUE,2,0.9262,205.1399,208.136,0,37,37,25,1,21,27,NA,NA,NA,NA,NA,1,38,"likert"
"BBF3557DBE1440E6A1E442881560D6FF",1,"01990a99-0785-75c3-a416-95d7bbf37a6a","01990a84-c4ee-73c2-a87b-ff46a7d3dde5","2025-09-02_09h25.34.068",NA,NA,211.4831,211.4831,211.4831,211.8325,NA,NA,NA,NA,NA,NA,NA,TRUE,4,1.5045,208.4879,211.483,0,38,38,93,1,150,40,NA,NA,NA,NA,NA,1,39,"likert"
"BBF3557DBE1440E6A1E442881560D6FF",1,"01990a99-0785-75c3-a416-95d7bbf37a6a","01990a84-c4ee-73c2-a87b-ff46a7d3dde5","2025-09-02_09h25.34.068",NA,NA,214.8302,214.8303,214.8303,215.1795,NA,NA,NA,NA,NA,NA,NA,TRUE,4,1.2363,211.8335,214.8302,0,39,39,50,1,40,35,NA,NA,NA,NA,NA,1,40,"likert"
"BBF3557DBE1440E6A1E442881560D6FF",1,"01990a99-0785-75c3-a416-95d7bbf37a6a","01990a84-c4ee-73c2-a87b-ff46a7d3dde5","2025-09-02_09h25.34.068",NA,NA,218.1766,218.1767,218.1767,218.5264,NA,NA,NA,NA,NA,NA,NA,TRUE,5,1.7106,215.1805,218.1766,0,40,40,15,1,12,31,NA,NA,NA,NA,NA,1,41,"likert"
"BBF3557DBE1440E6A1E442881560D6FF",1,"01990a99-0785-75c3-a416-95d7bbf37a6a","01990a84-c4ee-73c2-a87b-ff46a7d3dde5","2025-09-02_09h25.34.068",NA,NA,221.5405,221.5405,221.5405,221.8896,NA,NA,NA,NA,NA,NA,NA,TRUE,5,1.5051,218.528,221.5404,0,41,41,9,1,10,29,NA,NA,NA,NA,NA,1,42,"likert"
"BBF3557DBE1440E6A1E442881560D6FF",1,"01990a99-0785-75c3-a416-95d7bbf37a6a","01990a84-c4ee-73c2-a87b-ff46a7d3dde5","2025-09-02_09h25.34.068",NA,NA,224.8872,224.8873,224.8873,225.2365,NA,NA,NA,NA,NA,NA,NA,TRUE,4,1.97,221.8902,224.8872,0,42,42,106,1,200,47,NA,NA,NA,NA,NA,1,43,"likert"
"BBF3557DBE1440E6A1E442881560D6FF",1,"01990a99-0785-75c3-a416-95d7bbf37a6a","01990a84-c4ee-73c2-a87b-ff46a7d3dde5","2025-09-02_09h25.34.068",NA,NA,228.2338,228.2339,228.2339,228.5834,NA,NA,NA,NA,NA,NA,NA,TRUE,4,1.9422,225.2371,228.2338,0,43,43,3,1,7,30,NA,NA,NA,NA,NA,1,44,"likert"
"BBF3557DBE1440E6A1E442881560D6FF",1,"01990a99-0785-75c3-a416-95d7bbf37a6a","01990a84-c4ee-73c2-a87b-ff46a7d3dde5","2025-09-02_09h25.34.068",NA,NA,231.5813,231.5814,231.5814,231.9308,NA,NA,NA,NA,NA,NA,NA,TRUE,4,1.104,228.5846,231.5812,0,44,44,105,1,200,39,NA,NA,NA,NA,NA,1,45,"likert"
"BBF3557DBE1440E6A1E442881560D6FF",1,"01990a99-0785-75c3-a416-95d7bbf37a6a","01990a84-c4ee-73c2-a87b-ff46a7d3dde5","2025-09-02_09h25.34.068",NA,NA,234.9278,234.9279,234.9279,235.2771,NA,NA,NA,NA,NA,NA,NA,TRUE,4,1.285,231.9328,234.9278,0,45,45,90,1,150,31,NA,NA,NA,NA,NA,1,46,"likert"
"BBF3557DBE1440E6A1E442881560D6FF",1,"01990a99-0785-75c3-a416-95d7bbf37a6a","01990a84-c4ee-73c2-a87b-ff46a7d3dde5","2025-09-02_09h25.34.068",NA,NA,238.2915,238.2917,238.2917,238.641,NA,NA,NA,NA,NA,NA,NA,TRUE,4,1.3628,235.2782,238.2915,0,46,46,59,1,45,46,NA,NA,NA,NA,NA,1,47,"likert"
"BBF3557DBE1440E6A1E442881560D6FF",1,"01990a99-0785-75c3-a416-95d7bbf37a6a","01990a84-c4ee-73c2-a87b-ff46a7d3dde5","2025-09-02_09h25.34.068",NA,NA,241.6381,241.6383,241.6383,241.9875,NA,NA,NA,NA,NA,NA,NA,TRUE,2,1.5876,238.6426,241.6381,0,47,47,18,1,14,25,NA,NA,NA,NA,NA,1,48,"likert"
"BBF3557DBE1440E6A1E442881560D6FF",1,"01990a99-0785-75c3-a416-95d7bbf37a6a","01990a84-c4ee-73c2-a87b-ff46a7d3dde5","2025-09-02_09h25.34.068",NA,NA,244.9845,244.9845,244.9845,245.3347,NA,NA,NA,NA,NA,NA,NA,TRUE,4,1.2378,241.9884,244.9844,0,48,48,34,1,25,35,NA,NA,NA,NA,NA,1,49,"likert"
"BBF3557DBE1440E6A1E442881560D6FF",1,"01990a99-0785-75c3-a416-95d7bbf37a6a","01990a84-c4ee-73c2-a87b-ff46a7d3dde5","2025-09-02_09h25.34.068",NA,NA,248.332,248.332,248.332,248.6811,NA,NA,NA,NA,NA,NA,NA,TRUE,4,1.1165,245.3365,248.3318,0,49,49,45,1,30,30,NA,NA,NA,NA,NA,1,50,"likert"
"BBF3557DBE1440E6A1E442881560D6FF",1,"01990a99-0785-75c3-a416-95d7bbf37a6a","01990a84-c4ee-73c2-a87b-ff46a7d3dde5","2025-09-02_09h25.34.068",NA,NA,251.6789,251.6789,251.6789,252.0281,NA,NA,NA,NA,NA,NA,NA,TRUE,4,1.7117,248.6822,251.6788,0,50,50,89,1,100,54,NA,NA,NA,NA,NA,1,51,"likert"
"BBF3557DBE1440E6A1E442881560D6FF",1,"01990a99-0785-75c3-a416-95d7bbf37a6a","01990a84-c4ee-73c2-a87b-ff46a7d3dde5","2025-09-02_09h25.34.068",NA,NA,255.0254,255.0254,255.0254,255.3753,NA,NA,NA,NA,NA,NA,NA,TRUE,2,1.6607,252.0291,255.0253,0,51,51,21,1,14,32,NA,NA,NA,NA,NA,1,52,"likert"
"BBF3557DBE1440E6A1E442881560D6FF",1,"01990a99-0785-75c3-a416-95d7bbf37a6a","01990a84-c4ee-73c2-a87b-ff46a7d3dde5","2025-09-02_09h25.34.068",NA,NA,258.3891,258.3892,258.3892,258.7386,NA,NA,NA,NA,NA,NA,NA,TRUE,4,2.0753,255.3772,258.389,0,52,52,14,1,12,28,NA,NA,NA,NA,NA,1,53,"likert"
"BBF3557DBE1440E6A1E442881560D6FF",1,"01990a99-0785-75c3-a416-95d7bbf37a6a","01990a84-c4ee-73c2-a87b-ff46a7d3dde5","2025-09-02_09h25.34.068",NA,NA,261.736,261.736,261.736,262.087,NA,NA,NA,NA,NA,NA,NA,TRUE,4,1.5404,258.7406,261.7359,0,53,53,28,1,21,32,NA,NA,NA,NA,NA,1,54,"likert"
"BBF3557DBE1440E6A1E442881560D6FF",1,"01990a99-0785-75c3-a416-95d7bbf37a6a","01990a84-c4ee-73c2-a87b-ff46a7d3dde5","2025-09-02_09h25.34.068",NA,NA,265.0823,265.0823,265.0823,265.4323,NA,NA,NA,NA,NA,NA,NA,TRUE,4,1.5194,262.0882,265.0823,0,54,54,96,1,180,27,NA,NA,NA,NA,NA,1,55,"likert"
"BBF3557DBE1440E6A1E442881560D6FF",1,"01990a99-0785-75c3-a416-95d7bbf37a6a","01990a84-c4ee-73c2-a87b-ff46a7d3dde5","2025-09-02_09h25.34.068",NA,NA,268.4293,268.4294,268.4294,268.7795,NA,NA,NA,NA,NA,NA,NA,TRUE,4,1.1737,265.4333,268.4293,0,55,55,107,1,200,54,NA,NA,NA,NA,NA,1,56,"likert"
"BBF3557DBE1440E6A1E442881560D6FF",1,"01990a99-0785-75c3-a416-95d7bbf37a6a","01990a84-c4ee-73c2-a87b-ff46a7d3dde5","2025-09-02_09h25.34.068",NA,NA,271.7769,271.7769,271.777,272.126,NA,NA,NA,NA,NA,NA,NA,TRUE,4,0.9238,268.7812,271.7769,0,56,56,42,1,30,26,NA,NA,NA,NA,NA,1,57,"likert"
"BBF3557DBE1440E6A1E442881560D6FF",1,"01990a99-0785-75c3-a416-95d7bbf37a6a","01990a84-c4ee-73c2-a87b-ff46a7d3dde5","2025-09-02_09h25.34.068",NA,NA,275.1395,275.1396,275.1396,275.4895,NA,NA,NA,NA,NA,NA,NA,TRUE,4,1.3085,272.1273,275.1395,0,57,57,44,1,30,29,NA,NA,NA,NA,NA,1,58,"likert"
"BBF3557DBE1440E6A1E442881560D6FF",1,"01990a99-0785-75c3-a416-95d7bbf37a6a","01990a84-c4ee-73c2-a87b-ff46a7d3dde5","2025-09-02_09h25.34.068",NA,NA,278.4868,278.4868,278.4869,278.8364,NA,NA,NA,NA,NA,NA,NA,TRUE,2,1.5418,275.4901,278.4868,0,58,58,38,1,28,32,NA,NA,NA,NA,NA,1,59,"likert"
"BBF3557DBE1440E6A1E442881560D6FF",1,"01990a99-0785-75c3-a416-95d7bbf37a6a","01990a84-c4ee-73c2-a87b-ff46a7d3dde5","2025-09-02_09h25.34.068",NA,NA,281.8332,281.8332,281.8332,282.1832,NA,NA,NA,NA,NA,NA,NA,TRUE,4,0.853,278.837,281.8332,0,59,59,61,1,50,30,NA,NA,NA,NA,NA,1,60,"likert"
"BBF3557DBE1440E6A1E442881560D6FF",1,"01990a99-0785-75c3-a416-95d7bbf37a6a","01990a84-c4ee-73c2-a87b-ff46a7d3dde5","2025-09-02_09h25.34.068",NA,NA,285.1801,285.1801,285.1801,285.53,NA,NA,NA,NA,NA,NA,NA,TRUE,4,0.6935,282.1839,285.1801,0,60,60,64,1,50,46,NA,NA,NA,NA,NA,1,61,"likert"
"BBF3557DBE1440E6A1E442881560D6FF",1,"01990a99-0785-75c3-a416-95d7bbf37a6a","01990a84-c4ee-73c2-a87b-ff46a7d3dde5","2025-09-02_09h25.34.068",NA,NA,288.5276,288.5276,288.5276,288.8768,NA,NA,NA,NA,NA,NA,NA,TRUE,4,0.908,285.5306,288.5276,0,61,61,10,1,10,30,NA,NA,NA,NA,NA,1,62,"likert"
"BBF3557DBE1440E6A1E442881560D6FF",1,"01990a99-0785-75c3-a416-95d7bbf37a6a","01990a84-c4ee-73c2-a87b-ff46a7d3dde5","2025-09-02_09h25.34.068",NA,NA,291.8909,291.891,291.891,292.2409,NA,NA,NA,NA,NA,NA,NA,TRUE,4,0.7278,288.8777,291.8908,0,62,62,39,1,28,35,NA,NA,NA,NA,NA,1,63,"likert"
"BBF3557DBE1440E6A1E442881560D6FF",1,"01990a99-0785-75c3-a416-95d7bbf37a6a","01990a84-c4ee-73c2-a87b-ff46a7d3dde5","2025-09-02_09h25.34.068",NA,NA,295.2382,295.2382,295.2383,295.5876,NA,NA,NA,NA,NA,NA,NA,TRUE,4,1.0689,292.2424,295.238,0,63,63,102,1,200,26,NA,NA,NA,NA,NA,1,64,"likert"
"BBF3557DBE1440E6A1E442881560D6FF",1,"01990a99-0785-75c3-a416-95d7bbf37a6a","01990a84-c4ee-73c2-a87b-ff46a7d3dde5","2025-09-02_09h25.34.068",NA,NA,298.5848,298.5849,298.5849,298.9342,NA,NA,NA,NA,NA,NA,NA,TRUE,4,0.9686,295.5895,298.5847,0,64,64,27,1,21,30,NA,NA,NA,NA,NA,1,65,"likert"
"BBF3557DBE1440E6A1E442881560D6FF",1,"01990a99-0785-75c3-a416-95d7bbf37a6a","01990a84-c4ee-73c2-a87b-ff46a7d3dde5","2025-09-02_09h25.34.068",NA,NA,301.9315,301.9315,301.9315,302.2814,NA,NA,NA,NA,NA,NA,NA,TRUE,4,1.1118,298.9357,301.9314,0,65,65,17,1,12,35,NA,NA,NA,NA,NA,1,66,"likert"
"BBF3557DBE1440E6A1E442881560D6FF",1,"01990a99-0785-75c3-a416-95d7bbf37a6a","01990a84-c4ee-73c2-a87b-ff46a7d3dde5","2025-09-02_09h25.34.068",NA,NA,305.2787,305.2787,305.2787,305.6281,NA,NA,NA,NA,NA,NA,NA,TRUE,2,1.6351,302.2831,305.2786,0,66,66,36,1,28,26,NA,NA,NA,NA,NA,1,67,"likert"
"BBF3557DBE1440E6A1E442881560D6FF",1,"01990a99-0785-75c3-a416-95d7bbf37a6a","01990a84-c4ee-73c2-a87b-ff46a7d3dde5","2025-09-02_09h25.34.068",NA,NA,308.6415,308.6415,308.6415,308.9911,NA,NA,NA,NA,NA,NA,NA,TRUE,2,0.8179,305.6302,308.6414,0,67,67,20,1,14,28,NA,NA,NA,NA,NA,1,68,"likert"
"BBF3557DBE1440E6A1E442881560D6FF",1,"01990a99-0785-75c3-a416-95d7bbf37a6a","01990a84-c4ee-73c2-a87b-ff46a7d3dde5","2025-09-02_09h25.34.068",NA,NA,311.9887,311.9887,311.9887,312.3381,NA,NA,NA,NA,NA,NA,NA,TRUE,4,0.9113,308.9918,311.9887,0,68,68,75,1,90,40,NA,NA,NA,NA,NA,1,69,"likert"
"BBF3557DBE1440E6A1E442881560D6FF",1,"01990a99-0785-75c3-a416-95d7bbf37a6a","01990a84-c4ee-73c2-a87b-ff46a7d3dde5","2025-09-02_09h25.34.068",NA,NA,315.3354,315.3354,315.3355,315.6856,NA,NA,NA,NA,NA,NA,NA,TRUE,4,0.891,312.3389,315.3354,0,69,69,16,1,12,33,NA,NA,NA,NA,NA,1,70,"likert"
"BBF3557DBE1440E6A1E442881560D6FF",1,"01990a99-0785-75c3-a416-95d7bbf37a6a","01990a84-c4ee-73c2-a87b-ff46a7d3dde5","2025-09-02_09h25.34.068",NA,NA,318.6828,318.6828,318.6829,319.032,NA,NA,NA,NA,NA,NA,NA,TRUE,4,0.8031,315.6876,318.6828,0,70,70,56,1,45,31,NA,NA,NA,NA,NA,1,71,"likert"
"BBF3557DBE1440E6A1E442881560D6FF",1,"01990a99-0785-75c3-a416-95d7bbf37a6a","01990a84-c4ee-73c2-a87b-ff46a7d3dde5","2025-09-02_09h25.34.068",NA,NA,322.029,322.029,322.029,322.3794,NA,NA,NA,NA,NA,NA,NA,TRUE,3,2.0496,319.0326,322.029,0,71,71,2,1,7,28,NA,NA,NA,NA,NA,1,72,"likert"
"BBF3557DBE1440E6A1E442881560D6FF",1,"01990a99-0785-75c3-a416-95d7bbf37a6a","01990a84-c4ee-73c2-a87b-ff46a7d3dde5","2025-09-02_09h25.34.068",NA,NA,325.3764,325.3764,325.3764,325.7255,NA,NA,NA,NA,NA,NA,NA,TRUE,4,1.7157,322.3813,325.3763,0,72,72,85,1,100,31,NA,NA,NA,NA,NA,1,73,"likert"
"BBF3557DBE1440E6A1E442881560D6FF",1,"01990a99-0785-75c3-a416-95d7bbf37a6a","01990a84-c4ee-73c2-a87b-ff46a7d3dde5","2025-09-02_09h25.34.068",NA,NA,328.7394,328.7394,328.7394,329.0894,NA,NA,NA,NA,NA,NA,NA,TRUE,4,1.449,325.7262,328.7394,0,73,73,70,1,60,47,NA,NA,NA,NA,NA,1,74,"likert"
"BBF3557DBE1440E6A1E442881560D6FF",1,"01990a99-0785-75c3-a416-95d7bbf37a6a","01990a84-c4ee-73c2-a87b-ff46a7d3dde5","2025-09-02_09h25.34.068",NA,NA,332.0864,332.0865,332.0866,332.4358,NA,NA,NA,NA,NA,NA,NA,TRUE,4,1.5877,329.0906,332.0863,0,74,74,37,1,28,28,NA,NA,NA,NA,NA,1,75,"likert"
"BBF3557DBE1440E6A1E442881560D6FF",1,"01990a99-0785-75c3-a416-95d7bbf37a6a","01990a84-c4ee-73c2-a87b-ff46a7d3dde5","2025-09-02_09h25.34.068",NA,NA,335.4331,335.4331,335.4332,335.7831,NA,NA,NA,NA,NA,NA,NA,TRUE,2,0.8178,332.4373,335.4331,0,75,75,1,1,7,26,NA,NA,NA,NA,NA,1,76,"likert"
"BBF3557DBE1440E6A1E442881560D6FF",1,"01990a99-0785-75c3-a416-95d7bbf37a6a","01990a84-c4ee-73c2-a87b-ff46a7d3dde5","2025-09-02_09h25.34.068",NA,NA,338.7803,338.7803,338.7803,339.1295,NA,NA,NA,NA,NA,NA,NA,TRUE,4,0.6766,335.7847,338.7801,0,76,76,58,1,45,40,NA,NA,NA,NA,NA,1,77,"likert"
"BBF3557DBE1440E6A1E442881560D6FF",1,"01990a99-0785-75c3-a416-95d7bbf37a6a","01990a84-c4ee-73c2-a87b-ff46a7d3dde5","2025-09-02_09h25.34.068",NA,NA,342.1278,342.1278,342.1278,342.4768,NA,NA,NA,NA,NA,NA,NA,TRUE,2,1.4847,339.1308,342.1278,0,77,77,103,1,200,28,NA,NA,NA,NA,NA,1,78,"likert"
"BBF3557DBE1440E6A1E442881560D6FF",1,"01990a99-0785-75c3-a416-95d7bbf37a6a","01990a84-c4ee-73c2-a87b-ff46a7d3dde5","2025-09-02_09h25.34.068",NA,NA,345.4914,345.7406,345.7406,345.8405,NA,NA,NA,NA,NA,NA,NA,FALSE,NA,NA,342.4781,345.4912,0,78,78,6,1,10,25,NA,NA,NA,NA,NA,1,79,"likert"
"BBF3557DBE1440E6A1E442881560D6FF",1,"01990a99-0785-75c3-a416-95d7bbf37a6a","01990a84-c4ee-73c2-a87b-ff46a7d3dde5","2025-09-02_09h25.34.068",NA,NA,348.8377,348.8378,348.8378,349.1869,NA,NA,NA,NA,NA,NA,NA,TRUE,4,1.2851,345.842,348.8377,0,79,79,79,1,95,33,NA,NA,NA,NA,NA,1,80,"likert"
"BBF3557DBE1440E6A1E442881560D6FF",1,"01990a99-0785-75c3-a416-95d7bbf37a6a","01990a84-c4ee-73c2-a87b-ff46a7d3dde5","2025-09-02_09h25.34.068",NA,NA,352.1841,352.1841,352.1841,352.5337,NA,NA,NA,NA,NA,NA,NA,TRUE,4,0.8349,349.1875,352.1841,0,80,80,94,1,150,47,NA,NA,NA,NA,NA,1,81,"likert"
"BBF3557DBE1440E6A1E442881560D6FF",1,"01990a99-0785-75c3-a416-95d7bbf37a6a","01990a84-c4ee-73c2-a87b-ff46a7d3dde5","2025-09-02_09h25.34.068",NA,NA,355.531,355.5311,355.5311,355.8805,NA,NA,NA,NA,NA,NA,NA,TRUE,4,0.7006,352.5343,355.531,0,81,81,83,1,95,54,NA,NA,NA,NA,NA,1,82,"likert"
"BBF3557DBE1440E6A1E442881560D6FF",1,"01990a99-0785-75c3-a416-95d7bbf37a6a","01990a84-c4ee-73c2-a87b-ff46a7d3dde5","2025-09-02_09h25.34.068",NA,NA,358.8779,358.8779,358.8779,359.2274,NA,NA,NA,NA,NA,NA,NA,TRUE,4,0.6851,355.8813,358.8778,0,82,82,57,1,45,35,NA,NA,NA,NA,NA,1,83,"likert"
"BBF3557DBE1440E6A1E442881560D6FF",1,"01990a99-0785-75c3-a416-95d7bbf37a6a","01990a84-c4ee-73c2-a87b-ff46a7d3dde5","2025-09-02_09h25.34.068",NA,NA,362.2412,362.2413,362.2413,362.5909,NA,NA,NA,NA,NA,NA,NA,TRUE,3,1.1873,359.2281,362.2412,0,83,83,19,1,14,26,NA,NA,NA,NA,NA,1,84,"likert"
"BBF3557DBE1440E6A1E442881560D6FF",1,"01990a99-0785-75c3-a416-95d7bbf37a6a","01990a84-c4ee-73c2-a87b-ff46a7d3dde5","2025-09-02_09h25.34.068",NA,NA,365.5885,365.5886,365.5886,365.9387,NA,NA,NA,NA,NA,NA,NA,TRUE,4,0.6084,362.5915,365.5885,0,84,84,97,1,180,31,NA,NA,NA,NA,NA,1,85,"likert"
"BBF3557DBE1440E6A1E442881560D6FF",1,"01990a99-0785-75c3-a416-95d7bbf37a6a","01990a84-c4ee-73c2-a87b-ff46a7d3dde5","2025-09-02_09h25.34.068",NA,NA,368.9354,368.9354,368.9354,369.2851,NA,NA,NA,NA,NA,NA,NA,TRUE,4,1.4132,365.9405,368.9354,0,85,85,98,1,180,35,NA,NA,NA,NA,NA,1,86,"likert"
"BBF3557DBE1440E6A1E442881560D6FF",1,"01990a99-0785-75c3-a416-95d7bbf37a6a","01990a84-c4ee-73c2-a87b-ff46a7d3dde5","2025-09-02_09h25.34.068",NA,NA,372.2826,372.2827,372.2827,372.6319,NA,NA,NA,NA,NA,NA,NA,TRUE,3,1.4529,369.2865,372.2825,0,86,86,13,1,12,26,NA,NA,NA,NA,NA,1,87,"likert"
"BBF3557DBE1440E6A1E442881560D6FF",1,"01990a99-0785-75c3-a416-95d7bbf37a6a","01990a84-c4ee-73c2-a87b-ff46a7d3dde5","2025-09-02_09h25.34.068",NA,NA,375.6291,375.6291,375.6291,375.9786,NA,NA,NA,NA,NA,NA,NA,TRUE,4,1.0808,372.6331,375.6291,0,87,87,11,1,10,32,NA,NA,NA,NA,NA,1,88,"likert"
"BBF3557DBE1440E6A1E442881560D6FF",1,"01990a99-0785-75c3-a416-95d7bbf37a6a","01990a84-c4ee-73c2-a87b-ff46a7d3dde5","2025-09-02_09h25.34.068",NA,NA,378.9759,378.9759,378.9759,379.3261,NA,NA,NA,NA,NA,NA,NA,TRUE,4,1.109,375.9796,378.9758,0,88,88,101,1,180,54,NA,NA,NA,NA,NA,1,89,"likert"
"BBF3557DBE1440E6A1E442881560D6FF",1,"01990a99-0785-75c3-a416-95d7bbf37a6a","01990a84-c4ee-73c2-a87b-ff46a7d3dde5","2025-09-02_09h25.34.068",NA,NA,382.3399,382.34,382.3401,382.6893,NA,NA,NA,NA,NA,NA,NA,TRUE,4,0.6897,379.3277,382.3399,0,89,89,88,1,100,46,NA,NA,NA,NA,NA,1,90,"likert"
"BBF3557DBE1440E6A1E442881560D6FF",1,"01990a99-0785-75c3-a416-95d7bbf37a6a","01990a84-c4ee-73c2-a87b-ff46a7d3dde5","2025-09-02_09h25.34.068",NA,NA,385.6865,385.6865,385.6865,386.0363,NA,NA,NA,NA,NA,NA,NA,TRUE,3,1.4966,382.69,385.6865,0,90,90,43,1,30,27,NA,NA,NA,NA,NA,1,91,"likert"
"BBF3557DBE1440E6A1E442881560D6FF",1,"01990a99-0785-75c3-a416-95d7bbf37a6a","01990a84-c4ee-73c2-a87b-ff46a7d3dde5","2025-09-02_09h25.34.068",NA,NA,389.0332,389.0332,389.0332,389.3833,NA,NA,NA,NA,NA,NA,NA,TRUE,4,0.9787,386.0381,389.0332,0,91,91,86,1,100,38,NA,NA,NA,NA,NA,1,92,"likert"
"BBF3557DBE1440E6A1E442881560D6FF",1,"01990a99-0785-75c3-a416-95d7bbf37a6a","01990a84-c4ee-73c2-a87b-ff46a7d3dde5","2025-09-02_09h25.34.068",NA,NA,392.3802,392.3802,392.3802,392.7297,NA,NA,NA,NA,NA,NA,NA,TRUE,3,1.3328,389.3855,392.3802,0,92,92,31,1,25,29,NA,NA,NA,NA,NA,1,93,"likert"
"BBF3557DBE1440E6A1E442881560D6FF",1,"01990a99-0785-75c3-a416-95d7bbf37a6a","01990a84-c4ee-73c2-a87b-ff46a7d3dde5","2025-09-02_09h25.34.068",NA,NA,395.7267,395.7267,395.7268,396.0766,NA,NA,NA,NA,NA,NA,NA,TRUE,3,0.9029,392.7309,395.7267,0,93,93,84,1,100,26,NA,NA,NA,NA,NA,1,94,"likert"
"BBF3557DBE1440E6A1E442881560D6FF",1,"01990a99-0785-75c3-a416-95d7bbf37a6a","01990a84-c4ee-73c2-a87b-ff46a7d3dde5","2025-09-02_09h25.34.068",NA,NA,399.0911,399.0912,399.0912,399.4407,NA,NA,NA,NA,NA,NA,NA,TRUE,4,1.2151,396.0774,399.091,0,94,94,67,1,60,33,NA,NA,NA,NA,NA,1,95,"likert"
"BBF3557DBE1440E6A1E442881560D6FF",1,"01990a99-0785-75c3-a416-95d7bbf37a6a","01990a84-c4ee-73c2-a87b-ff46a7d3dde5","2025-09-02_09h25.34.068",NA,NA,402.4377,402.4378,402.4378,402.7871,NA,NA,NA,NA,NA,NA,NA,TRUE,4,1.5845,399.4425,402.4377,0,95,95,104,1,200,35,NA,NA,NA,NA,NA,1,96,"likert"
"BBF3557DBE1440E6A1E442881560D6FF",1,"01990a99-0785-75c3-a416-95d7bbf37a6a","01990a84-c4ee-73c2-a87b-ff46a7d3dde5","2025-09-02_09h25.34.068",NA,NA,405.7848,405.7848,405.7848,406.1339,NA,NA,NA,NA,NA,NA,NA,TRUE,4,0.7857,402.7886,405.7847,0,96,96,66,1,60,29,NA,NA,NA,NA,NA,1,97,"likert"
"BBF3557DBE1440E6A1E442881560D6FF",1,"01990a99-0785-75c3-a416-95d7bbf37a6a","01990a84-c4ee-73c2-a87b-ff46a7d3dde5","2025-09-02_09h25.34.068",NA,NA,409.1316,409.1316,409.1316,409.4811,NA,NA,NA,NA,NA,NA,NA,TRUE,4,0.8043,406.1345,409.1316,0,97,97,52,1,40,47,NA,NA,NA,NA,NA,1,98,"likert"
"BBF3557DBE1440E6A1E442881560D6FF",1,"01990a99-0785-75c3-a416-95d7bbf37a6a","01990a84-c4ee-73c2-a87b-ff46a7d3dde5","2025-09-02_09h25.34.068",NA,NA,412.4777,412.4777,412.4778,412.8276,NA,NA,NA,NA,NA,NA,NA,TRUE,4,1.2641,409.4831,412.4777,0,98,98,48,1,40,27,NA,NA,NA,NA,NA,1,99,"likert"
"BBF3557DBE1440E6A1E442881560D6FF",1,"01990a99-0785-75c3-a416-95d7bbf37a6a","01990a84-c4ee-73c2-a87b-ff46a7d3dde5","2025-09-02_09h25.34.068",NA,NA,415.8415,415.8416,415.8417,416.1915,NA,NA,NA,NA,NA,NA,NA,TRUE,4,1.4843,412.8293,415.8415,0,99,99,60,1,50,27,NA,NA,NA,NA,NA,1,100,"likert"
"BBF3557DBE1440E6A1E442881560D6FF",1,"01990a99-0785-75c3-a416-95d7bbf37a6a","01990a84-c4ee-73c2-a87b-ff46a7d3dde5","2025-09-02_09h25.34.068",NA,NA,419.1885,419.1885,419.1886,419.5383,NA,NA,NA,NA,NA,NA,NA,TRUE,4,0.7831,416.1933,419.1885,0,100,100,81,1,95,40,NA,NA,NA,NA,NA,1,101,"likert"
"BBF3557DBE1440E6A1E442881560D6FF",1,"01990a99-0785-75c3-a416-95d7bbf37a6a","01990a84-c4ee-73c2-a87b-ff46a7d3dde5","2025-09-02_09h25.34.068",NA,NA,422.5359,422.536,422.536,422.8853,NA,NA,NA,NA,NA,NA,NA,TRUE,3,1.7798,419.5402,422.5358,0,101,101,0,1,7,25,NA,NA,NA,NA,NA,1,102,"likert"
"BBF3557DBE1440E6A1E442881560D6FF",1,"01990a99-0785-75c3-a416-95d7bbf37a6a","01990a84-c4ee-73c2-a87b-ff46a7d3dde5","2025-09-02_09h25.34.068",NA,NA,425.8822,425.8822,425.8822,426.2317,NA,NA,NA,NA,NA,NA,NA,TRUE,4,0.8282,422.8871,425.8822,0,102,102,65,1,50,54,NA,NA,NA,NA,NA,1,103,"likert"
"BBF3557DBE1440E6A1E442881560D6FF",1,"01990a99-0785-75c3-a416-95d7bbf37a6a","01990a84-c4ee-73c2-a87b-ff46a7d3dde5","2025-09-02_09h25.34.068",NA,NA,429.2289,429.229,429.229,429.5788,NA,NA,NA,NA,NA,NA,NA,TRUE,4,0.8848,426.2326,429.2289,0,103,103,99,1,180,39,NA,NA,NA,NA,NA,1,104,"likert"
"BBF3557DBE1440E6A1E442881560D6FF",1,"01990a99-0785-75c3-a416-95d7bbf37a6a","01990a84-c4ee-73c2-a87b-ff46a7d3dde5","2025-09-02_09h25.34.068",NA,NA,432.5764,432.5764,432.5765,432.9257,NA,NA,NA,NA,NA,NA,NA,TRUE,4,0.645,429.5805,432.5764,0,104,104,73,1,90,30,NA,NA,NA,NA,NA,1,105,"likert"
"BBF3557DBE1440E6A1E442881560D6FF",1,"01990a99-0785-75c3-a416-95d7bbf37a6a","01990a84-c4ee-73c2-a87b-ff46a7d3dde5","2025-09-02_09h25.34.068",NA,NA,435.9398,435.9398,435.9398,436.2889,NA,NA,NA,NA,NA,NA,NA,TRUE,4,1.1709,432.9279,435.9397,0,105,105,26,1,21,29,NA,NA,NA,NA,NA,1,106,"likert"
"BBF3557DBE1440E6A1E442881560D6FF",1,"01990a99-0785-75c3-a416-95d7bbf37a6a","01990a84-c4ee-73c2-a87b-ff46a7d3dde5","2025-09-02_09h25.34.068",NA,NA,439.2869,439.287,439.2871,439.6359,NA,NA,NA,NA,NA,NA,NA,TRUE,4,0.652,436.2898,439.2868,0,106,106,69,1,60,40,NA,NA,NA,NA,NA,1,107,"likert"
"BBF3557DBE1440E6A1E442881560D6FF",1,"01990a99-0785-75c3-a416-95d7bbf37a6a","01990a84-c4ee-73c2-a87b-ff46a7d3dde5","2025-09-02_09h25.34.068",NA,NA,442.6336,442.6336,442.6337,442.983,NA,NA,NA,NA,NA,NA,NA,TRUE,4,0.7518,439.6376,442.6335,0,107,107,53,1,40,54,NA,NA,NA,NA,NA,1,108,"likert"
"BBF3557DBE1440E6A1E442881560D6FF",1,"01990a99-0785-75c3-a416-95d7bbf37a6a","01990a84-c4ee-73c2-a87b-ff46a7d3dde5","2025-09-02_09h25.34.068",NA,NA,449.7435,449.7435,449.7436,450.0933,NA,NA,NA,NA,NA,NA,NA,TRUE,3,1.4281,446.7878,449.7435,NA,NA,NA,NA,NA,40,27,0,0,0,48,1,2,1,"likert"
"BBF3557DBE1440E6A1E442881560D6FF",1,"01990a99-0785-75c3-a416-95d7bbf37a6a","01990a84-c4ee-73c2-a87b-ff46a7d3dde5","2025-09-02_09h25.34.068",NA,NA,453.0902,453.0902,453.0903,453.4401,NA,NA,NA,NA,NA,NA,NA,TRUE,4,1.2919,450.0951,453.0902,NA,NA,NA,NA,NA,40,35,0,1,1,50,1,2,2,"likert"
"BBF3557DBE1440E6A1E442881560D6FF",1,"01990a99-0785-75c3-a416-95d7bbf37a6a","01990a84-c4ee-73c2-a87b-ff46a7d3dde5","2025-09-02_09h25.34.068",NA,NA,456.4375,456.4375,456.4375,456.7863,NA,NA,NA,NA,NA,NA,NA,TRUE,4,0.7963,453.4417,456.4375,NA,NA,NA,NA,NA,95,40,0,2,2,81,1,2,3,"likert"
"BBF3557DBE1440E6A1E442881560D6FF",1,"01990a99-0785-75c3-a416-95d7bbf37a6a","01990a84-c4ee-73c2-a87b-ff46a7d3dde5","2025-09-02_09h25.34.068",NA,NA,459.8004,459.8005,459.8005,460.1502,NA,NA,NA,NA,NA,NA,NA,TRUE,4,0.9062,456.7868,459.8004,NA,NA,NA,NA,NA,90,33,0,3,3,74,1,2,4,"likert"
"BBF3557DBE1440E6A1E442881560D6FF",1,"01990a99-0785-75c3-a416-95d7bbf37a6a","01990a84-c4ee-73c2-a87b-ff46a7d3dde5","2025-09-02_09h25.34.068",NA,NA,463.1471,463.1471,463.1471,463.4973,NA,NA,NA,NA,NA,NA,NA,TRUE,4,0.8334,460.1516,463.147,NA,NA,NA,NA,NA,30,32,0,4,4,46,1,2,5,"likert"
"BBF3557DBE1440E6A1E442881560D6FF",1,"01990a99-0785-75c3-a416-95d7bbf37a6a","01990a84-c4ee-73c2-a87b-ff46a7d3dde5","2025-09-02_09h25.34.068",NA,NA,466.4944,466.4944,466.4945,466.8442,NA,NA,NA,NA,NA,NA,NA,TRUE,4,0.6226,463.4991,466.4944,NA,NA,NA,NA,NA,60,54,0,5,5,71,1,2,6,"likert"
"BBF3557DBE1440E6A1E442881560D6FF",1,"01990a99-0785-75c3-a416-95d7bbf37a6a","01990a84-c4ee-73c2-a87b-ff46a7d3dde5","2025-09-02_09h25.34.068",NA,NA,469.841,469.841,469.841,470.1912,NA,NA,NA,NA,NA,NA,NA,TRUE,4,0.5902,466.846,469.841,NA,NA,NA,NA,NA,150,47,0,6,6,94,1,2,7,"likert"
"BBF3557DBE1440E6A1E442881560D6FF",1,"01990a99-0785-75c3-a416-95d7bbf37a6a","01990a84-c4ee-73c2-a87b-ff46a7d3dde5","2025-09-02_09h25.34.068",NA,NA,473.1878,473.1878,473.1878,473.5376,NA,NA,NA,NA,NA,NA,NA,TRUE,4,0.6704,470.1931,473.1877,NA,NA,NA,NA,NA,14,39,0,7,7,23,1,2,8,"likert"
"BBF3557DBE1440E6A1E442881560D6FF",1,"01990a99-0785-75c3-a416-95d7bbf37a6a","01990a84-c4ee-73c2-a87b-ff46a7d3dde5","2025-09-02_09h25.34.068",NA,NA,476.5514,476.5516,476.5516,476.9015,NA,NA,NA,NA,NA,NA,NA,TRUE,4,0.451,473.5386,476.5514,NA,NA,NA,NA,NA,28,32,0,8,8,38,1,2,9,"likert"
"BBF3557DBE1440E6A1E442881560D6FF",1,"01990a99-0785-75c3-a416-95d7bbf37a6a","01990a84-c4ee-73c2-a87b-ff46a7d3dde5","2025-09-02_09h25.34.068",NA,NA,479.8987,479.8988,479.8989,480.2478,NA,NA,NA,NA,NA,NA,NA,TRUE,4,0.7313,476.9031,479.8987,NA,NA,NA,NA,NA,150,31,0,9,9,90,1,2,10,"likert"
"BBF3557DBE1440E6A1E442881560D6FF",1,"01990a99-0785-75c3-a416-95d7bbf37a6a","01990a84-c4ee-73c2-a87b-ff46a7d3dde5","2025-09-02_09h25.34.068",NA,NA,483.2456,483.2456,483.2456,483.5949,NA,NA,NA,NA,NA,NA,NA,TRUE,4,0.431,480.2487,483.2455,NA,NA,NA,NA,NA,100,39,0,10,10,87,1,2,11,"likert"
"BBF3557DBE1440E6A1E442881560D6FF",1,"01990a99-0785-75c3-a416-95d7bbf37a6a","01990a84-c4ee-73c2-a87b-ff46a7d3dde5","2025-09-02_09h25.34.068",NA,NA,486.5919,486.5919,486.592,486.9419,NA,NA,NA,NA,NA,NA,NA,TRUE,4,0.5261,483.5955,486.5918,NA,NA,NA,NA,NA,7,32,0,11,11,4,1,2,12,"likert"
"BBF3557DBE1440E6A1E442881560D6FF",1,"01990a99-0785-75c3-a416-95d7bbf37a6a","01990a84-c4ee-73c2-a87b-ff46a7d3dde5","2025-09-02_09h25.34.068",NA,NA,489.9392,489.9392,489.9392,490.2889,NA,NA,NA,NA,NA,NA,NA,TRUE,4,0.4553,486.9436,489.9391,NA,NA,NA,NA,NA,180,31,0,12,12,97,1,2,13,"likert"
"BBF3557DBE1440E6A1E442881560D6FF",1,"01990a99-0785-75c3-a416-95d7bbf37a6a","01990a84-c4ee-73c2-a87b-ff46a7d3dde5","2025-09-02_09h25.34.068",NA,NA,493.2861,493.2861,493.2861,493.6358,NA,NA,NA,NA,NA,NA,NA,TRUE,3,0.8939,490.2905,493.2861,NA,NA,NA,NA,NA,12,26,0,13,13,13,1,2,14,"likert"
"BBF3557DBE1440E6A1E442881560D6FF",1,"01990a99-0785-75c3-a416-95d7bbf37a6a","01990a84-c4ee-73c2-a87b-ff46a7d3dde5","2025-09-02_09h25.34.068",NA,NA,496.6495,496.6496,496.6496,496.9988,NA,NA,NA,NA,NA,NA,NA,TRUE,3,0.9018,493.6374,496.6495,NA,NA,NA,NA,NA,30,27,0,14,14,43,1,2,15,"likert"
"BBF3557DBE1440E6A1E442881560D6FF",1,"01990a99-0785-75c3-a416-95d7bbf37a6a","01990a84-c4ee-73c2-a87b-ff46a7d3dde5","2025-09-02_09h25.34.068",NA,NA,499.9964,499.9964,499.9964,500.3458,NA,NA,NA,NA,NA,NA,NA,TRUE,3,0.718,496.9994,499.9963,NA,NA,NA,NA,NA,10,27,0,15,15,8,1,2,16,"likert"
"BBF3557DBE1440E6A1E442881560D6FF",1,"01990a99-0785-75c3-a416-95d7bbf37a6a","01990a84-c4ee-73c2-a87b-ff46a7d3dde5","2025-09-02_09h25.34.068",NA,NA,503.3435,503.3435,503.3435,503.6928,NA,NA,NA,NA,NA,NA,NA,TRUE,4,0.716,500.3468,503.3435,NA,NA,NA,NA,NA,90,54,0,16,16,77,1,2,17,"likert"
"BBF3557DBE1440E6A1E442881560D6FF",1,"01990a99-0785-75c3-a416-95d7bbf37a6a","01990a84-c4ee-73c2-a87b-ff46a7d3dde5","2025-09-02_09h25.34.068",NA,NA,506.6904,506.6904,506.6905,507.0395,NA,NA,NA,NA,NA,NA,NA,TRUE,4,0.7096,503.6938,506.6904,NA,NA,NA,NA,NA,200,47,0,17,17,106,1,2,18,"likert"
"BBF3557DBE1440E6A1E442881560D6FF",1,"01990a99-0785-75c3-a416-95d7bbf37a6a","01990a84-c4ee-73c2-a87b-ff46a7d3dde5","2025-09-02_09h25.34.068",NA,NA,510.0368,510.0368,510.0369,510.387,NA,NA,NA,NA,NA,NA,NA,TRUE,3,1.4065,507.0402,510.0368,NA,NA,NA,NA,NA,14,28,0,18,18,20,1,2,19,"likert"
"BBF3557DBE1440E6A1E442881560D6FF",1,"01990a99-0785-75c3-a416-95d7bbf37a6a","01990a84-c4ee-73c2-a87b-ff46a7d3dde5","2025-09-02_09h25.34.068",NA,NA,513.4008,513.4008,513.4008,513.7501,NA,NA,NA,NA,NA,NA,NA,TRUE,4,0.6106,510.3889,513.4008,NA,NA,NA,NA,NA,150,54,0,19,19,95,1,2,20,"likert"
"BBF3557DBE1440E6A1E442881560D6FF",1,"01990a99-0785-75c3-a416-95d7bbf37a6a","01990a84-c4ee-73c2-a87b-ff46a7d3dde5","2025-09-02_09h25.34.068",NA,NA,516.7478,516.7478,516.7479,517.0969,NA,NA,NA,NA,NA,NA,NA,TRUE,4,0.7054,513.7511,516.7476,NA,NA,NA,NA,NA,28,39,0,20,20,40,1,2,21,"likert"
"BBF3557DBE1440E6A1E442881560D6FF",1,"01990a99-0785-75c3-a416-95d7bbf37a6a","01990a84-c4ee-73c2-a87b-ff46a7d3dde5","2025-09-02_09h25.34.068",NA,NA,520.0945,520.0946,520.0946,520.444,NA,NA,NA,NA,NA,NA,NA,TRUE,4,0.4875,517.0986,520.0945,NA,NA,NA,NA,NA,28,46,0,21,21,41,1,2,22,"likert"
"BBF3557DBE1440E6A1E442881560D6FF",1,"01990a99-0785-75c3-a416-95d7bbf37a6a","01990a84-c4ee-73c2-a87b-ff46a7d3dde5","2025-09-02_09h25.34.068",NA,NA,523.4414,523.4414,523.4414,523.7907,NA,NA,NA,NA,NA,NA,NA,TRUE,4,0.5165,520.4457,523.4414,NA,NA,NA,NA,NA,25,46,0,22,22,35,1,2,23,"likert"
"BBF3557DBE1440E6A1E442881560D6FF",1,"01990a99-0785-75c3-a416-95d7bbf37a6a","01990a84-c4ee-73c2-a87b-ff46a7d3dde5","2025-09-02_09h25.34.068",NA,NA,526.7882,526.7882,526.7882,527.1374,NA,NA,NA,NA,NA,NA,NA,TRUE,4,0.5209,523.7924,526.7881,NA,NA,NA,NA,NA,60,40,0,23,23,69,1,2,24,"likert"
"BBF3557DBE1440E6A1E442881560D6FF",1,"01990a99-0785-75c3-a416-95d7bbf37a6a","01990a84-c4ee-73c2-a87b-ff46a7d3dde5","2025-09-02_09h25.34.068",NA,NA,530.1357,530.1358,530.1358,530.5011,NA,NA,NA,NA,NA,NA,NA,TRUE,4,0.4875,527.1389,530.1357,NA,NA,NA,NA,NA,21,32,0,24,24,28,1,2,25,"likert"
"BBF3557DBE1440E6A1E442881560D6FF",1,"01990a99-0785-75c3-a416-95d7bbf37a6a","01990a84-c4ee-73c2-a87b-ff46a7d3dde5","2025-09-02_09h25.34.068",NA,NA,533.4984,533.4985,533.4985,533.8478,NA,NA,NA,NA,NA,NA,NA,TRUE,4,0.624,530.5022,533.4983,NA,NA,NA,NA,NA,25,31,0,25,25,32,1,2,26,"likert"
"BBF3557DBE1440E6A1E442881560D6FF",1,"01990a99-0785-75c3-a416-95d7bbf37a6a","01990a84-c4ee-73c2-a87b-ff46a7d3dde5","2025-09-02_09h25.34.068",NA,NA,536.8454,536.8454,536.8454,537.1946,NA,NA,NA,NA,NA,NA,NA,TRUE,4,0.9521,533.8497,536.8454,NA,NA,NA,NA,NA,180,35,0,26,26,98,1,2,27,"likert"
"BBF3557DBE1440E6A1E442881560D6FF",1,"01990a99-0785-75c3-a416-95d7bbf37a6a","01990a84-c4ee-73c2-a87b-ff46a7d3dde5","2025-09-02_09h25.34.068",NA,NA,540.1923,540.1923,540.1923,540.5417,NA,NA,NA,NA,NA,NA,NA,TRUE,4,0.7337,537.1958,540.1922,NA,NA,NA,NA,NA,45,40,0,27,27,58,1,2,28,"likert"
"BBF3557DBE1440E6A1E442881560D6FF",1,"01990a99-0785-75c3-a416-95d7bbf37a6a","01990a84-c4ee-73c2-a87b-ff46a7d3dde5","2025-09-02_09h25.34.068",NA,NA,543.539,543.539,543.539,543.8885,NA,NA,NA,NA,NA,NA,NA,TRUE,4,0.6017,540.5433,543.5389,NA,NA,NA,NA,NA,200,54,0,28,28,107,1,2,29,"likert"
"BBF3557DBE1440E6A1E442881560D6FF",1,"01990a99-0785-75c3-a416-95d7bbf37a6a","01990a84-c4ee-73c2-a87b-ff46a7d3dde5","2025-09-02_09h25.34.068",NA,NA,546.8861,546.8862,546.8862,547.2356,NA,NA,NA,NA,NA,NA,NA,TRUE,4,0.69,543.89,546.8861,NA,NA,NA,NA,NA,40,47,0,29,29,52,1,2,30,"likert"
"BBF3557DBE1440E6A1E442881560D6FF",1,"01990a99-0785-75c3-a416-95d7bbf37a6a","01990a84-c4ee-73c2-a87b-ff46a7d3dde5","2025-09-02_09h25.34.068",NA,NA,550.2493,550.2493,550.2494,550.5989,NA,NA,NA,NA,NA,NA,NA,TRUE,4,0.7178,547.2375,550.2493,NA,NA,NA,NA,NA,150,35,0,30,30,92,1,2,31,"likert"
"BBF3557DBE1440E6A1E442881560D6FF",1,"01990a99-0785-75c3-a416-95d7bbf37a6a","01990a84-c4ee-73c2-a87b-ff46a7d3dde5","2025-09-02_09h25.34.068",NA,NA,553.596,553.5961,553.5961,553.9459,NA,NA,NA,NA,NA,NA,NA,TRUE,3,1.0193,550.6,553.5959,NA,NA,NA,NA,NA,30,26,0,31,31,42,1,2,32,"likert"
"BBF3557DBE1440E6A1E442881560D6FF",1,"01990a99-0785-75c3-a416-95d7bbf37a6a","01990a84-c4ee-73c2-a87b-ff46a7d3dde5","2025-09-02_09h25.34.068",NA,NA,556.9429,556.9429,556.9429,557.2925,NA,NA,NA,NA,NA,NA,NA,TRUE,3,1.4357,553.9474,556.9428,NA,NA,NA,NA,NA,14,25,0,32,32,18,1,2,33,"likert"
"BBF3557DBE1440E6A1E442881560D6FF",1,"01990a99-0785-75c3-a416-95d7bbf37a6a","01990a84-c4ee-73c2-a87b-ff46a7d3dde5","2025-09-02_09h25.34.068",NA,NA,560.2898,560.2898,560.2898,560.6397,NA,NA,NA,NA,NA,NA,NA,TRUE,4,0.9754,557.2933,560.2897,NA,NA,NA,NA,NA,12,35,0,33,33,17,1,2,34,"likert"
"BBF3557DBE1440E6A1E442881560D6FF",1,"01990a99-0785-75c3-a416-95d7bbf37a6a","01990a84-c4ee-73c2-a87b-ff46a7d3dde5","2025-09-02_09h25.34.068",NA,NA,563.637,563.6371,563.6371,563.9866,NA,NA,NA,NA,NA,NA,NA,TRUE,4,0.6173,560.6413,563.637,NA,NA,NA,NA,NA,45,31,0,34,34,56,1,2,35,"likert"
"BBF3557DBE1440E6A1E442881560D6FF",1,"01990a99-0785-75c3-a416-95d7bbf37a6a","01990a84-c4ee-73c2-a87b-ff46a7d3dde5","2025-09-02_09h25.34.068",NA,NA,567.0002,567.0002,567.0002,567.3497,NA,NA,NA,NA,NA,NA,NA,TRUE,4,0.6553,563.9885,567.0002,NA,NA,NA,NA,NA,21,38,0,35,35,29,1,2,36,"likert"
"BBF3557DBE1440E6A1E442881560D6FF",1,"01990a99-0785-75c3-a416-95d7bbf37a6a","01990a84-c4ee-73c2-a87b-ff46a7d3dde5","2025-09-02_09h25.34.068",NA,NA,570.3467,570.3467,570.3467,570.6964,NA,NA,NA,NA,NA,NA,NA,TRUE,4,0.5521,567.3503,570.3467,NA,NA,NA,NA,NA,60,47,0,36,36,70,1,2,37,"likert"
"BBF3557DBE1440E6A1E442881560D6FF",1,"01990a99-0785-75c3-a416-95d7bbf37a6a","01990a84-c4ee-73c2-a87b-ff46a7d3dde5","2025-09-02_09h25.34.068",NA,NA,573.6944,573.6944,573.6944,574.0437,NA,NA,NA,NA,NA,NA,NA,TRUE,4,0.7357,570.6972,573.6943,NA,NA,NA,NA,NA,200,35,0,37,37,104,1,2,38,"likert"
"BBF3557DBE1440E6A1E442881560D6FF",1,"01990a99-0785-75c3-a416-95d7bbf37a6a","01990a84-c4ee-73c2-a87b-ff46a7d3dde5","2025-09-02_09h25.34.068",NA,NA,577.0413,577.0414,577.0414,577.3903,NA,NA,NA,NA,NA,NA,NA,TRUE,4,0.622,574.0445,577.0413,NA,NA,NA,NA,NA,180,39,0,38,38,99,1,2,39,"likert"
"BBF3557DBE1440E6A1E442881560D6FF",1,"01990a99-0785-75c3-a416-95d7bbf37a6a","01990a84-c4ee-73c2-a87b-ff46a7d3dde5","2025-09-02_09h25.34.068",NA,NA,580.3881,580.3881,580.3881,580.7376,NA,NA,NA,NA,NA,NA,NA,TRUE,4,0.6545,577.3912,580.388,NA,NA,NA,NA,NA,50,54,0,39,39,65,1,2,40,"likert"
"BBF3557DBE1440E6A1E442881560D6FF",1,"01990a99-0785-75c3-a416-95d7bbf37a6a","01990a84-c4ee-73c2-a87b-ff46a7d3dde5","2025-09-02_09h25.34.068",NA,NA,583.7509,583.7509,583.7509,584.0889,NA,NA,NA,NA,NA,NA,NA,TRUE,3,0.8528,580.7393,583.7509,NA,NA,NA,NA,NA,7,26,0,40,40,1,1,2,41,"likert"
"BBF3557DBE1440E6A1E442881560D6FF",1,"01990a99-0785-75c3-a416-95d7bbf37a6a","01990a84-c4ee-73c2-a87b-ff46a7d3dde5","2025-09-02_09h25.34.068",NA,NA,587.0855,587.0855,587.0855,587.4473,NA,NA,NA,NA,NA,NA,NA,TRUE,4,0.7506,584.0894,587.0855,NA,NA,NA,NA,NA,100,54,0,41,41,89,1,2,42,"likert"
"BBF3557DBE1440E6A1E442881560D6FF",1,"01990a99-0785-75c3-a416-95d7bbf37a6a","01990a84-c4ee-73c2-a87b-ff46a7d3dde5","2025-09-02_09h25.34.068",NA,NA,590.4446,590.4446,590.4446,590.7942,NA,NA,NA,NA,NA,NA,NA,TRUE,4,0.7838,587.4483,590.4445,NA,NA,NA,NA,NA,60,33,0,42,42,67,1,2,43,"likert"
"BBF3557DBE1440E6A1E442881560D6FF",1,"01990a99-0785-75c3-a416-95d7bbf37a6a","01990a84-c4ee-73c2-a87b-ff46a7d3dde5","2025-09-02_09h25.34.068",NA,NA,593.7915,593.7915,593.7915,594.1411,NA,NA,NA,NA,NA,NA,NA,TRUE,4,0.6354,590.7951,593.7914,NA,NA,NA,NA,NA,90,30,0,43,43,73,1,2,44,"likert"
"BBF3557DBE1440E6A1E442881560D6FF",1,"01990a99-0785-75c3-a416-95d7bbf37a6a","01990a84-c4ee-73c2-a87b-ff46a7d3dde5","2025-09-02_09h25.34.068",NA,NA,597.1382,597.1382,597.1383,597.4879,NA,NA,NA,NA,NA,NA,NA,TRUE,4,0.5511,594.1419,597.1382,NA,NA,NA,NA,NA,45,35,0,44,44,57,1,2,45,"likert"
"BBF3557DBE1440E6A1E442881560D6FF",1,"01990a99-0785-75c3-a416-95d7bbf37a6a","01990a84-c4ee-73c2-a87b-ff46a7d3dde5","2025-09-02_09h25.34.068",NA,NA,600.5018,600.5019,600.5019,600.8514,NA,NA,NA,NA,NA,NA,NA,TRUE,3,0.6392,597.4887,600.5018,NA,NA,NA,NA,NA,45,26,0,45,45,54,1,2,46,"likert"
"BBF3557DBE1440E6A1E442881560D6FF",1,"01990a99-0785-75c3-a416-95d7bbf37a6a","01990a84-c4ee-73c2-a87b-ff46a7d3dde5","2025-09-02_09h25.34.068",NA,NA,603.8486,603.8486,603.8487,604.1984,NA,NA,NA,NA,NA,NA,NA,TRUE,2,1.6363,600.8526,603.8486,NA,NA,NA,NA,NA,200,28,0,46,46,103,1,2,47,"likert"
"BBF3557DBE1440E6A1E442881560D6FF",1,"01990a99-0785-75c3-a416-95d7bbf37a6a","01990a84-c4ee-73c2-a87b-ff46a7d3dde5","2025-09-02_09h25.34.068",NA,NA,607.1955,607.1956,607.1956,607.545,NA,NA,NA,NA,NA,NA,NA,TRUE,4,0.6842,604.199,607.1955,NA,NA,NA,NA,NA,10,32,0,47,47,11,1,2,48,"likert"
"BBF3557DBE1440E6A1E442881560D6FF",1,"01990a99-0785-75c3-a416-95d7bbf37a6a","01990a84-c4ee-73c2-a87b-ff46a7d3dde5","2025-09-02_09h25.34.068",NA,NA,610.5425,610.5425,610.5425,610.8921,NA,NA,NA,NA,NA,NA,NA,TRUE,4,0.5542,607.5457,610.5425,NA,NA,NA,NA,NA,200,39,0,48,48,105,1,2,49,"likert"
"BBF3557DBE1440E6A1E442881560D6FF",1,"01990a99-0785-75c3-a416-95d7bbf37a6a","01990a84-c4ee-73c2-a87b-ff46a7d3dde5","2025-09-02_09h25.34.068",NA,NA,613.8893,613.8893,613.8893,614.239,NA,NA,NA,NA,NA,NA,NA,TRUE,3,1.4665,610.8928,613.8893,NA,NA,NA,NA,NA,28,26,0,49,49,36,1,2,50,"likert"
"BBF3557DBE1440E6A1E442881560D6FF",1,"01990a99-0785-75c3-a416-95d7bbf37a6a","01990a84-c4ee-73c2-a87b-ff46a7d3dde5","2025-09-02_09h25.34.068",NA,NA,617.2362,617.2362,617.2362,617.5858,NA,NA,NA,NA,NA,NA,NA,TRUE,4,1.0006,614.2397,617.2362,NA,NA,NA,NA,NA,25,29,0,50,50,31,1,2,51,"likert"
"BBF3557DBE1440E6A1E442881560D6FF",1,"01990a99-0785-75c3-a416-95d7bbf37a6a","01990a84-c4ee-73c2-a87b-ff46a7d3dde5","2025-09-02_09h25.34.068",NA,NA,620.5997,620.5997,620.5997,620.9493,NA,NA,NA,NA,NA,NA,NA,TRUE,4,0.992,617.5866,620.5997,NA,NA,NA,NA,NA,40,33,0,51,51,49,1,2,52,"likert"
"BBF3557DBE1440E6A1E442881560D6FF",1,"01990a99-0785-75c3-a416-95d7bbf37a6a","01990a84-c4ee-73c2-a87b-ff46a7d3dde5","2025-09-02_09h25.34.068",NA,NA,623.9466,623.9466,623.9466,624.2964,NA,NA,NA,NA,NA,NA,NA,TRUE,3,1.0671,620.95,623.9465,NA,NA,NA,NA,NA,14,26,0,52,52,19,1,2,53,"likert"
"BBF3557DBE1440E6A1E442881560D6FF",1,"01990a99-0785-75c3-a416-95d7bbf37a6a","01990a84-c4ee-73c2-a87b-ff46a7d3dde5","2025-09-02_09h25.34.068",NA,NA,627.2934,627.2934,627.2935,627.6432,NA,NA,NA,NA,NA,NA,NA,TRUE,4,0.5612,624.2969,627.2934,NA,NA,NA,NA,NA,40,40,0,53,53,51,1,2,54,"likert"
"BBF3557DBE1440E6A1E442881560D6FF",1,"01990a99-0785-75c3-a416-95d7bbf37a6a","01990a84-c4ee-73c2-a87b-ff46a7d3dde5","2025-09-02_09h25.34.068",NA,NA,630.6406,630.6407,630.6407,630.9901,NA,NA,NA,NA,NA,NA,NA,TRUE,2,0.9241,627.6439,630.6406,NA,NA,NA,NA,NA,90,26,0,54,54,72,1,2,55,"likert"
"BBF3557DBE1440E6A1E442881560D6FF",1,"01990a99-0785-75c3-a416-95d7bbf37a6a","01990a84-c4ee-73c2-a87b-ff46a7d3dde5","2025-09-02_09h25.34.068",NA,NA,633.9873,633.9873,633.9873,634.3368,NA,NA,NA,NA,NA,NA,NA,TRUE,4,0.6052,630.9907,633.9873,NA,NA,NA,NA,NA,90,40,0,55,55,75,1,2,56,"likert"
"BBF3557DBE1440E6A1E442881560D6FF",1,"01990a99-0785-75c3-a416-95d7bbf37a6a","01990a84-c4ee-73c2-a87b-ff46a7d3dde5","2025-09-02_09h25.34.068",NA,NA,637.3508,637.3509,637.3509,637.7004,NA,NA,NA,NA,NA,NA,NA,TRUE,4,0.5899,634.3376,637.3508,NA,NA,NA,NA,NA,180,46,0,56,56,100,1,2,57,"likert"
"BBF3557DBE1440E6A1E442881560D6FF",1,"01990a99-0785-75c3-a416-95d7bbf37a6a","01990a84-c4ee-73c2-a87b-ff46a7d3dde5","2025-09-02_09h25.34.068",NA,NA,640.6975,640.6975,640.6975,641.0472,NA,NA,NA,NA,NA,NA,NA,TRUE,4,0.5589,637.7012,640.6975,NA,NA,NA,NA,NA,150,40,0,57,57,93,1,2,58,"likert"
"BBF3557DBE1440E6A1E442881560D6FF",1,"01990a99-0785-75c3-a416-95d7bbf37a6a","01990a84-c4ee-73c2-a87b-ff46a7d3dde5","2025-09-02_09h25.34.068",NA,NA,644.0444,644.0444,644.0445,644.3941,NA,NA,NA,NA,NA,NA,NA,TRUE,4,0.5508,641.048,644.0444,NA,NA,NA,NA,NA,45,46,0,58,58,59,1,2,59,"likert"
"BBF3557DBE1440E6A1E442881560D6FF",1,"01990a99-0785-75c3-a416-95d7bbf37a6a","01990a84-c4ee-73c2-a87b-ff46a7d3dde5","2025-09-02_09h25.34.068",NA,NA,647.3913,647.3913,647.3913,647.7409,NA,NA,NA,NA,NA,NA,NA,TRUE,4,0.606,644.3947,647.3913,NA,NA,NA,NA,NA,28,35,0,59,59,39,1,2,60,"likert"
"BBF3557DBE1440E6A1E442881560D6FF",1,"01990a99-0785-75c3-a416-95d7bbf37a6a","01990a84-c4ee-73c2-a87b-ff46a7d3dde5","2025-09-02_09h25.34.068",NA,NA,650.7381,650.7382,650.7383,651.0878,NA,NA,NA,NA,NA,NA,NA,TRUE,4,0.4273,647.7416,650.7381,NA,NA,NA,NA,NA,100,46,0,60,60,88,1,2,61,"likert"
"BBF3557DBE1440E6A1E442881560D6FF",1,"01990a99-0785-75c3-a416-95d7bbf37a6a","01990a84-c4ee-73c2-a87b-ff46a7d3dde5","2025-09-02_09h25.34.068",NA,NA,654.1017,654.1017,654.1017,654.4514,NA,NA,NA,NA,NA,NA,NA,TRUE,3,1.1036,651.0896,654.1017,NA,NA,NA,NA,NA,21,29,0,61,61,26,1,2,62,"likert"
"BBF3557DBE1440E6A1E442881560D6FF",1,"01990a99-0785-75c3-a416-95d7bbf37a6a","01990a84-c4ee-73c2-a87b-ff46a7d3dde5","2025-09-02_09h25.34.068",NA,NA,657.4489,657.4489,657.4489,657.7989,NA,NA,NA,NA,NA,NA,NA,TRUE,4,0.6714,654.4521,657.4489,NA,NA,NA,NA,NA,12,31,0,62,62,15,1,2,63,"likert"
"BBF3557DBE1440E6A1E442881560D6FF",1,"01990a99-0785-75c3-a416-95d7bbf37a6a","01990a84-c4ee-73c2-a87b-ff46a7d3dde5","2025-09-02_09h25.34.068",NA,NA,660.7956,660.7956,660.7956,661.1455,NA,NA,NA,NA,NA,NA,NA,TRUE,3,1.3474,657.8003,660.7956,NA,NA,NA,NA,NA,60,29,0,63,63,66,1,2,64,"likert"
"BBF3557DBE1440E6A1E442881560D6FF",1,"01990a99-0785-75c3-a416-95d7bbf37a6a","01990a84-c4ee-73c2-a87b-ff46a7d3dde5","2025-09-02_09h25.34.068",NA,NA,664.1428,664.1428,664.1428,664.4923,NA,NA,NA,NA,NA,NA,NA,TRUE,4,0.6551,661.1467,664.1428,NA,NA,NA,NA,NA,7,30,0,64,64,3,1,2,65,"likert"
"BBF3557DBE1440E6A1E442881560D6FF",1,"01990a99-0785-75c3-a416-95d7bbf37a6a","01990a84-c4ee-73c2-a87b-ff46a7d3dde5","2025-09-02_09h25.34.068",NA,NA,667.4896,667.4896,667.4896,667.8395,NA,NA,NA,NA,NA,NA,NA,TRUE,4,0.5255,664.4938,667.4896,NA,NA,NA,NA,NA,30,30,0,65,65,45,1,2,66,"likert"
"BBF3557DBE1440E6A1E442881560D6FF",1,"01990a99-0785-75c3-a416-95d7bbf37a6a","01990a84-c4ee-73c2-a87b-ff46a7d3dde5","2025-09-02_09h25.34.068",NA,NA,670.8369,670.8369,670.8369,671.1861,NA,NA,NA,NA,NA,NA,NA,TRUE,4,0.5738,667.8412,670.8368,NA,NA,NA,NA,NA,90,46,0,66,66,76,1,2,67,"likert"
"BBF3557DBE1440E6A1E442881560D6FF",1,"01990a99-0785-75c3-a416-95d7bbf37a6a","01990a84-c4ee-73c2-a87b-ff46a7d3dde5","2025-09-02_09h25.34.068",NA,NA,674.1999,674.1999,674.1999,674.5495,NA,NA,NA,NA,NA,NA,NA,TRUE,5,0.8634,671.1869,674.1999,NA,NA,NA,NA,NA,7,35,0,67,67,5,1,2,68,"likert"
"BBF3557DBE1440E6A1E442881560D6FF",1,"01990a99-0785-75c3-a416-95d7bbf37a6a","01990a84-c4ee-73c2-a87b-ff46a7d3dde5","2025-09-02_09h25.34.068",NA,NA,677.5471,677.5471,677.5472,677.8961,NA,NA,NA,NA,NA,NA,NA,TRUE,4,0.8482,674.5502,677.5471,NA,NA,NA,NA,NA,100,38,0,68,68,86,1,2,69,"likert"
"BBF3557DBE1440E6A1E442881560D6FF",1,"01990a99-0785-75c3-a416-95d7bbf37a6a","01990a84-c4ee-73c2-a87b-ff46a7d3dde5","2025-09-02_09h25.34.068",NA,NA,680.8942,680.8942,680.8942,681.2431,NA,NA,NA,NA,NA,NA,NA,TRUE,3,1.2847,677.8971,680.8941,NA,NA,NA,NA,NA,180,27,0,69,69,96,1,2,70,"likert"
"BBF3557DBE1440E6A1E442881560D6FF",1,"01990a99-0785-75c3-a416-95d7bbf37a6a","01990a84-c4ee-73c2-a87b-ff46a7d3dde5","2025-09-02_09h25.34.068",NA,NA,684.2401,684.2401,684.2401,684.5898,NA,NA,NA,NA,NA,NA,NA,TRUE,3,1.6237,681.2439,684.2401,NA,NA,NA,NA,NA,50,27,0,70,70,60,1,2,71,"likert"
"BBF3557DBE1440E6A1E442881560D6FF",1,"01990a99-0785-75c3-a416-95d7bbf37a6a","01990a84-c4ee-73c2-a87b-ff46a7d3dde5","2025-09-02_09h25.34.068",NA,NA,687.5876,687.5877,687.5877,687.9372,NA,NA,NA,NA,NA,NA,NA,TRUE,4,1.3838,684.5908,687.5875,NA,NA,NA,NA,NA,7,28,0,71,71,2,1,2,72,"likert"
"BBF3557DBE1440E6A1E442881560D6FF",1,"01990a99-0785-75c3-a416-95d7bbf37a6a","01990a84-c4ee-73c2-a87b-ff46a7d3dde5","2025-09-02_09h25.34.068",NA,NA,690.9508,690.9508,690.9508,691.3008,NA,NA,NA,NA,NA,NA,NA,TRUE,1,1.377,687.9392,690.9508,NA,NA,NA,NA,NA,200,26,0,72,72,102,1,2,73,"likert"
"BBF3557DBE1440E6A1E442881560D6FF",1,"01990a99-0785-75c3-a416-95d7bbf37a6a","01990a84-c4ee-73c2-a87b-ff46a7d3dde5","2025-09-02_09h25.34.068",NA,NA,694.298,694.298,694.2981,694.6475,NA,NA,NA,NA,NA,NA,NA,TRUE,4,1.0038,691.3026,694.2979,NA,NA,NA,NA,NA,100,31,0,73,73,85,1,2,74,"likert"
"BBF3557DBE1440E6A1E442881560D6FF",1,"01990a99-0785-75c3-a416-95d7bbf37a6a","01990a84-c4ee-73c2-a87b-ff46a7d3dde5","2025-09-02_09h25.34.068",NA,NA,697.6452,697.6452,697.6452,697.9943,NA,NA,NA,NA,NA,NA,NA,TRUE,4,0.6535,694.6485,697.6451,NA,NA,NA,NA,NA,50,40,0,74,74,63,1,2,75,"likert"
"BBF3557DBE1440E6A1E442881560D6FF",1,"01990a99-0785-75c3-a416-95d7bbf37a6a","01990a84-c4ee-73c2-a87b-ff46a7d3dde5","2025-09-02_09h25.34.068",NA,NA,700.9917,700.9917,700.9917,701.3415,NA,NA,NA,NA,NA,NA,NA,TRUE,3,1.1204,697.9959,700.9916,NA,NA,NA,NA,NA,21,26,0,75,75,24,1,2,76,"likert"
"BBF3557DBE1440E6A1E442881560D6FF",1,"01990a99-0785-75c3-a416-95d7bbf37a6a","01990a84-c4ee-73c2-a87b-ff46a7d3dde5","2025-09-02_09h25.34.068",NA,NA,704.3383,704.3383,704.3383,704.688,NA,NA,NA,NA,NA,NA,NA,TRUE,4,0.6124,701.343,704.3383,NA,NA,NA,NA,NA,21,30,0,76,76,27,1,2,77,"likert"
"BBF3557DBE1440E6A1E442881560D6FF",1,"01990a99-0785-75c3-a416-95d7bbf37a6a","01990a84-c4ee-73c2-a87b-ff46a7d3dde5","2025-09-02_09h25.34.068",NA,NA,707.702,707.7021,707.7021,708.0519,NA,NA,NA,NA,NA,NA,NA,TRUE,4,1.192,704.6884,707.702,NA,NA,NA,NA,NA,10,29,0,77,77,9,1,2,78,"likert"
"BBF3557DBE1440E6A1E442881560D6FF",1,"01990a99-0785-75c3-a416-95d7bbf37a6a","01990a84-c4ee-73c2-a87b-ff46a7d3dde5","2025-09-02_09h25.34.068",NA,NA,711.0491,711.0491,711.0491,711.3987,NA,NA,NA,NA,NA,NA,NA,TRUE,4,0.912,708.0538,711.0491,NA,NA,NA,NA,NA,95,54,0,78,78,83,1,2,79,"likert"
"BBF3557DBE1440E6A1E442881560D6FF",1,"01990a99-0785-75c3-a416-95d7bbf37a6a","01990a84-c4ee-73c2-a87b-ff46a7d3dde5","2025-09-02_09h25.34.068",NA,NA,714.3958,714.3958,714.3958,714.7455,NA,NA,NA,NA,NA,NA,NA,TRUE,4,0.7739,711.3999,714.3958,NA,NA,NA,NA,NA,95,47,0,79,79,82,1,2,80,"likert"
"BBF3557DBE1440E6A1E442881560D6FF",1,"01990a99-0785-75c3-a416-95d7bbf37a6a","01990a84-c4ee-73c2-a87b-ff46a7d3dde5","2025-09-02_09h25.34.068",NA,NA,717.7429,717.743,717.743,718.0921,NA,NA,NA,NA,NA,NA,NA,TRUE,3,0.9751,714.7466,717.7428,NA,NA,NA,NA,NA,12,25,0,80,80,12,1,2,81,"likert"
"BBF3557DBE1440E6A1E442881560D6FF",1,"01990a99-0785-75c3-a416-95d7bbf37a6a","01990a84-c4ee-73c2-a87b-ff46a7d3dde5","2025-09-02_09h25.34.068",NA,NA,721.089,721.0891,721.0891,721.4391,NA,NA,NA,NA,NA,NA,NA,TRUE,4,0.8751,718.093,721.089,NA,NA,NA,NA,NA,10,30,0,81,81,10,1,2,82,"likert"
"BBF3557DBE1440E6A1E442881560D6FF",1,"01990a99-0785-75c3-a416-95d7bbf37a6a","01990a84-c4ee-73c2-a87b-ff46a7d3dde5","2025-09-02_09h25.34.068",NA,NA,724.4367,724.4367,724.4367,724.7859,NA,NA,NA,NA,NA,NA,NA,TRUE,4,0.5724,721.4407,724.4366,NA,NA,NA,NA,NA,25,33,0,82,82,33,1,2,83,"likert"
"BBF3557DBE1440E6A1E442881560D6FF",1,"01990a99-0785-75c3-a416-95d7bbf37a6a","01990a84-c4ee-73c2-a87b-ff46a7d3dde5","2025-09-02_09h25.34.068",NA,NA,727.8,727.8001,727.8001,728.1498,NA,NA,NA,NA,NA,NA,NA,TRUE,3,1.0953,724.7871,727.8,NA,NA,NA,NA,NA,10,25,0,83,83,6,1,2,84,"likert"
"BBF3557DBE1440E6A1E442881560D6FF",1,"01990a99-0785-75c3-a416-95d7bbf37a6a","01990a84-c4ee-73c2-a87b-ff46a7d3dde5","2025-09-02_09h25.34.068",NA,NA,731.147,731.1471,731.1471,731.4966,NA,NA,NA,NA,NA,NA,NA,TRUE,4,1.1035,728.1513,731.147,NA,NA,NA,NA,NA,21,27,0,84,84,25,1,2,85,"likert"
"BBF3557DBE1440E6A1E442881560D6FF",1,"01990a99-0785-75c3-a416-95d7bbf37a6a","01990a84-c4ee-73c2-a87b-ff46a7d3dde5","2025-09-02_09h25.34.068",NA,NA,734.4936,734.4936,734.4936,734.8431,NA,NA,NA,NA,NA,NA,NA,TRUE,2,1.4041,731.4985,734.4936,NA,NA,NA,NA,NA,100,26,0,85,85,84,1,2,86,"likert"
"BBF3557DBE1440E6A1E442881560D6FF",1,"01990a99-0785-75c3-a416-95d7bbf37a6a","01990a84-c4ee-73c2-a87b-ff46a7d3dde5","2025-09-02_09h25.34.068",NA,NA,737.8404,737.8404,737.8404,738.1903,NA,NA,NA,NA,NA,NA,NA,TRUE,4,0.9008,734.8443,737.8403,NA,NA,NA,NA,NA,150,33,0,86,86,91,1,2,87,"likert"
"BBF3557DBE1440E6A1E442881560D6FF",1,"01990a99-0785-75c3-a416-95d7bbf37a6a","01990a84-c4ee-73c2-a87b-ff46a7d3dde5","2025-09-02_09h25.34.068",NA,NA,741.1869,741.1869,741.1869,741.5375,NA,NA,NA,NA,NA,NA,NA,TRUE,4,0.8714,738.192,741.1869,NA,NA,NA,NA,NA,25,35,0,87,87,34,1,2,88,"likert"
"BBF3557DBE1440E6A1E442881560D6FF",1,"01990a99-0785-75c3-a416-95d7bbf37a6a","01990a84-c4ee-73c2-a87b-ff46a7d3dde5","2025-09-02_09h25.34.068",NA,NA,744.5511,744.5511,744.5512,744.9002,NA,NA,NA,NA,NA,NA,NA,TRUE,2,1.4754,741.5396,744.551,NA,NA,NA,NA,NA,7,25,0,88,88,0,1,2,89,"likert"
"BBF3557DBE1440E6A1E442881560D6FF",1,"01990a99-0785-75c3-a416-95d7bbf37a6a","01990a84-c4ee-73c2-a87b-ff46a7d3dde5","2025-09-02_09h25.34.068",NA,NA,747.8978,747.8978,747.8978,748.2469,NA,NA,NA,NA,NA,NA,NA,TRUE,4,0.6332,744.9009,747.8978,NA,NA,NA,NA,NA,50,35,0,89,89,62,1,2,90,"likert"
"BBF3557DBE1440E6A1E442881560D6FF",1,"01990a99-0785-75c3-a416-95d7bbf37a6a","01990a84-c4ee-73c2-a87b-ff46a7d3dde5","2025-09-02_09h25.34.068",NA,NA,751.2449,751.2449,751.2449,751.5941,NA,NA,NA,NA,NA,NA,NA,TRUE,3,1.2692,748.2474,751.2449,NA,NA,NA,NA,NA,10,26,0,90,90,7,1,2,91,"likert"
"BBF3557DBE1440E6A1E442881560D6FF",1,"01990a99-0785-75c3-a416-95d7bbf37a6a","01990a84-c4ee-73c2-a87b-ff46a7d3dde5","2025-09-02_09h25.34.068",NA,NA,754.5919,754.5919,754.5919,754.9409,NA,NA,NA,NA,NA,NA,NA,TRUE,4,0.8899,751.5947,754.5919,NA,NA,NA,NA,NA,40,54,0,91,91,53,1,2,92,"likert"
"BBF3557DBE1440E6A1E442881560D6FF",1,"01990a99-0785-75c3-a416-95d7bbf37a6a","01990a84-c4ee-73c2-a87b-ff46a7d3dde5","2025-09-02_09h25.34.068",NA,NA,757.9382,757.9382,757.9382,758.2881,NA,NA,NA,NA,NA,NA,NA,TRUE,4,0.6217,754.9417,757.9382,NA,NA,NA,NA,NA,180,54,0,92,92,101,1,2,93,"likert"
"BBF3557DBE1440E6A1E442881560D6FF",1,"01990a99-0785-75c3-a416-95d7bbf37a6a","01990a84-c4ee-73c2-a87b-ff46a7d3dde5","2025-09-02_09h25.34.068",NA,NA,761.3014,761.3014,761.3014,761.6511,NA,NA,NA,NA,NA,NA,NA,TRUE,4,0.4777,758.2898,761.3014,NA,NA,NA,NA,NA,60,35,0,93,93,68,1,2,94,"likert"
"BBF3557DBE1440E6A1E442881560D6FF",1,"01990a99-0785-75c3-a416-95d7bbf37a6a","01990a84-c4ee-73c2-a87b-ff46a7d3dde5","2025-09-02_09h25.34.068",NA,NA,764.6483,764.6483,764.6483,764.9979,NA,NA,NA,NA,NA,NA,NA,TRUE,4,0.3844,761.6517,764.6483,NA,NA,NA,NA,NA,30,38,0,94,94,47,1,2,95,"likert"
"BBF3557DBE1440E6A1E442881560D6FF",1,"01990a99-0785-75c3-a416-95d7bbf37a6a","01990a84-c4ee-73c2-a87b-ff46a7d3dde5","2025-09-02_09h25.34.068",NA,NA,767.9951,767.9951,767.9951,768.3448,NA,NA,NA,NA,NA,NA,NA,TRUE,4,0.5545,764.9986,767.9951,NA,NA,NA,NA,NA,95,35,0,95,95,80,1,2,96,"likert"
"BBF3557DBE1440E6A1E442881560D6FF",1,"01990a99-0785-75c3-a416-95d7bbf37a6a","01990a84-c4ee-73c2-a87b-ff46a7d3dde5","2025-09-02_09h25.34.068",NA,NA,771.342,771.342,771.342,771.6917,NA,NA,NA,NA,NA,NA,NA,TRUE,4,0.4841,768.3454,771.342,NA,NA,NA,NA,NA,14,35,0,96,96,22,1,2,97,"likert"
"BBF3557DBE1440E6A1E442881560D6FF",1,"01990a99-0785-75c3-a416-95d7bbf37a6a","01990a84-c4ee-73c2-a87b-ff46a7d3dde5","2025-09-02_09h25.34.068",NA,NA,774.6888,774.6888,774.6888,775.0385,NA,NA,NA,NA,NA,NA,NA,TRUE,4,0.5581,771.6923,774.6887,NA,NA,NA,NA,NA,50,46,0,97,97,64,1,2,98,"likert"
"BBF3557DBE1440E6A1E442881560D6FF",1,"01990a99-0785-75c3-a416-95d7bbf37a6a","01990a84-c4ee-73c2-a87b-ff46a7d3dde5","2025-09-02_09h25.34.068",NA,NA,778.0357,778.0357,778.0357,778.3854,NA,NA,NA,NA,NA,NA,NA,TRUE,4,0.5299,775.0391,778.0356,NA,NA,NA,NA,NA,95,31,0,98,98,78,1,2,99,"likert"
"BBF3557DBE1440E6A1E442881560D6FF",1,"01990a99-0785-75c3-a416-95d7bbf37a6a","01990a84-c4ee-73c2-a87b-ff46a7d3dde5","2025-09-02_09h25.34.068",NA,NA,781.3992,781.3992,781.3992,781.7489,NA,NA,NA,NA,NA,NA,NA,TRUE,4,0.4855,778.386,781.3992,NA,NA,NA,NA,NA,50,30,0,99,99,61,1,2,100,"likert"
"BBF3557DBE1440E6A1E442881560D6FF",1,"01990a99-0785-75c3-a416-95d7bbf37a6a","01990a84-c4ee-73c2-a87b-ff46a7d3dde5","2025-09-02_09h25.34.068",NA,NA,784.7462,784.7462,784.7462,785.0958,NA,NA,NA,NA,NA,NA,NA,TRUE,4,0.425,781.7496,784.7462,NA,NA,NA,NA,NA,14,32,0,100,100,21,1,2,101,"likert"
"BBF3557DBE1440E6A1E442881560D6FF",1,"01990a99-0785-75c3-a416-95d7bbf37a6a","01990a84-c4ee-73c2-a87b-ff46a7d3dde5","2025-09-02_09h25.34.068",NA,NA,788.093,788.093,788.093,788.4426,NA,NA,NA,NA,NA,NA,NA,TRUE,4,0.5174,785.0966,788.093,NA,NA,NA,NA,NA,12,33,0,101,101,16,1,2,102,"likert"
"BBF3557DBE1440E6A1E442881560D6FF",1,"01990a99-0785-75c3-a416-95d7bbf37a6a","01990a84-c4ee-73c2-a87b-ff46a7d3dde5","2025-09-02_09h25.34.068",NA,NA,791.4399,791.4399,791.4399,791.7895,NA,NA,NA,NA,NA,NA,NA,TRUE,4,0.4435,788.4433,791.4399,NA,NA,NA,NA,NA,28,28,0,102,102,37,1,2,103,"likert"
"BBF3557DBE1440E6A1E442881560D6FF",1,"01990a99-0785-75c3-a416-95d7bbf37a6a","01990a84-c4ee-73c2-a87b-ff46a7d3dde5","2025-09-02_09h25.34.068",NA,NA,794.7868,794.7868,794.7868,795.1364,NA,NA,NA,NA,NA,NA,NA,TRUE,4,0.755,791.79,794.7867,NA,NA,NA,NA,NA,30,29,0,103,103,44,1,2,104,"likert"
"BBF3557DBE1440E6A1E442881560D6FF",1,"01990a99-0785-75c3-a416-95d7bbf37a6a","01990a84-c4ee-73c2-a87b-ff46a7d3dde5","2025-09-02_09h25.34.068",NA,NA,798.1502,798.1502,798.1502,798.4999,NA,NA,NA,NA,NA,NA,NA,TRUE,3,1.0716,795.1372,798.1502,NA,NA,NA,NA,NA,25,27,0,104,104,30,1,2,105,"likert"
"BBF3557DBE1440E6A1E442881560D6FF",1,"01990a99-0785-75c3-a416-95d7bbf37a6a","01990a84-c4ee-73c2-a87b-ff46a7d3dde5","2025-09-02_09h25.34.068",NA,NA,801.4971,801.4971,801.4971,801.8467,NA,NA,NA,NA,NA,NA,NA,TRUE,4,0.6429,798.5006,801.4971,NA,NA,NA,NA,NA,95,33,0,105,105,79,1,2,106,"likert"
"BBF3557DBE1440E6A1E442881560D6FF",1,"01990a99-0785-75c3-a416-95d7bbf37a6a","01990a84-c4ee-73c2-a87b-ff46a7d3dde5","2025-09-02_09h25.34.068",NA,NA,804.844,804.844,804.844,805.1941,NA,NA,NA,NA,NA,NA,NA,TRUE,3,0.9014,801.8473,804.844,NA,NA,NA,NA,NA,12,28,0,106,106,14,1,2,107,"likert"
"BBF3557DBE1440E6A1E442881560D6FF",1,"01990a99-0785-75c3-a416-95d7bbf37a6a","01990a84-c4ee-73c2-a87b-ff46a7d3dde5","2025-09-02_09h25.34.068",NA,NA,808.1908,808.1908,808.1908,808.5405,NA,NA,NA,NA,NA,NA,NA,TRUE,4,0.8505,805.1955,808.1908,NA,NA,NA,NA,NA,45,29,0,107,107,55,1,2,108,"likert"
