"participant","session","assignmentId","projectId","date","practiceTrial.started","practiceTrial.stopped","tooLate.started","tooLate.stopped","blank.started","blank.stopped","trials_pract.thisRepN","trials_pract.thisTrialN","trials_pract.thisN","trials_pract.thisIndex","trials_pract.ran","delay_pract","amount_pract","responseMade","key","rt","trial.started","trial.stopped","trials.thisRepN","trials.thisTrialN","trials.thisN","trials.thisIndex","trials.ran","delay","amount","trials_2.thisRepN","trials_2.thisTrialN","trials_2.thisN","trials_2.thisIndex","trials_2.ran","block","trial","taskType"
"BCE4703DBF7B42AF99C9BA9CC4800C66",1,"0198f77d-4a41-7efa-a5b1-66f95662a0cc","0198f768-e4d2-711c-944b-6f03c09216de","2025-08-29_15h21.00.249",54.3315,57.3006,57.3021,57.5649,57.565,57.62,0,0,0,3,1,3,27,FALSE,NA,NA,NA,NA,NA,NA,NA,NA,NA,NA,NA,NA,NA,NA,NA,NA,0,1,"likert"
"BCE4703DBF7B42AF99C9BA9CC4800C66",1,"0198f77d-4a41-7efa-a5b1-66f95662a0cc","0198f768-e4d2-711c-944b-6f03c09216de","2025-08-29_15h21.00.249",57.6221,60.626,60.6262,60.6263,60.6263,61.0047,0,1,1,4,1,30,40,TRUE,5,1.3052,NA,NA,NA,NA,NA,NA,NA,NA,NA,NA,NA,NA,NA,NA,0,2,"likert"
"BCE4703DBF7B42AF99C9BA9CC4800C66",1,"0198f77d-4a41-7efa-a5b1-66f95662a0cc","0198f768-e4d2-711c-944b-6f03c09216de","2025-08-29_15h21.00.249",61.0057,63.9986,63.9988,63.9988,63.9989,64.3316,0,2,2,1,1,100,50,TRUE,5,0.7926,NA,NA,NA,NA,NA,NA,NA,NA,NA,NA,NA,NA,NA,NA,0,3,"likert"
"BCE4703DBF7B42AF99C9BA9CC4800C66",1,"0198f77d-4a41-7efa-a5b1-66f95662a0cc","0198f768-e4d2-711c-944b-6f03c09216de","2025-08-29_15h21.00.249",64.3327,67.3373,67.3374,67.3374,67.3375,67.6951,0,3,3,0,1,7,30,TRUE,5,1.3079,NA,NA,NA,NA,NA,NA,NA,NA,NA,NA,NA,NA,NA,NA,0,4,"likert"
"BCE4703DBF7B42AF99C9BA9CC4800C66",1,"0198f77d-4a41-7efa-a5b1-66f95662a0cc","0198f768-e4d2-711c-944b-6f03c09216de","2025-08-29_15h21.00.249",67.6965,70.6854,70.6856,70.6856,70.6856,71.0282,0,4,4,2,1,14,45,TRUE,5,1.134,NA,NA,NA,NA,NA,NA,NA,NA,NA,NA,NA,NA,NA,NA,0,5,"likert"
"BCE4703DBF7B42AF99C9BA9CC4800C66",1,"0198f77d-4a41-7efa-a5b1-66f95662a0cc","0198f768-e4d2-711c-944b-6f03c09216de","2025-08-29_15h21.00.249",NA,NA,93.8902,93.8903,93.8905,94.2351,NA,NA,NA,NA,NA,NA,NA,TRUE,5,1.1831,90.9263,93.8898,0,0,0,76,1,90,46,NA,NA,NA,NA,NA,1,1,"likert"
"BCE4703DBF7B42AF99C9BA9CC4800C66",1,"0198f77d-4a41-7efa-a5b1-66f95662a0cc","0198f768-e4d2-711c-944b-6f03c09216de","2025-08-29_15h21.00.249",NA,NA,97.2486,97.2486,97.2486,97.6024,NA,NA,NA,NA,NA,NA,NA,TRUE,5,1.0588,94.2367,97.2484,0,1,1,104,1,200,35,NA,NA,NA,NA,NA,1,2,"likert"
"BCE4703DBF7B42AF99C9BA9CC4800C66",1,"0198f77d-4a41-7efa-a5b1-66f95662a0cc","0198f768-e4d2-711c-944b-6f03c09216de","2025-08-29_15h21.00.249",NA,NA,100.6013,100.6013,100.6013,100.9416,NA,NA,NA,NA,NA,NA,NA,TRUE,5,0.9465,97.6037,100.6012,0,2,2,45,1,30,30,NA,NA,NA,NA,NA,1,3,"likert"
"BCE4703DBF7B42AF99C9BA9CC4800C66",1,"0198f77d-4a41-7efa-a5b1-66f95662a0cc","0198f768-e4d2-711c-944b-6f03c09216de","2025-08-29_15h21.00.249",NA,NA,103.945,103.945,103.945,104.2914,NA,NA,NA,NA,NA,NA,NA,TRUE,5,1.7758,100.9428,103.9449,0,3,3,106,1,200,47,NA,NA,NA,NA,NA,1,4,"likert"
"BCE4703DBF7B42AF99C9BA9CC4800C66",1,"0198f77d-4a41-7efa-a5b1-66f95662a0cc","0198f768-e4d2-711c-944b-6f03c09216de","2025-08-29_15h21.00.249",NA,NA,107.2871,107.2872,107.2872,107.6301,NA,NA,NA,NA,NA,NA,NA,TRUE,5,1.8563,104.2929,107.2869,0,4,4,48,1,40,27,NA,NA,NA,NA,NA,1,5,"likert"
"BCE4703DBF7B42AF99C9BA9CC4800C66",1,"0198f77d-4a41-7efa-a5b1-66f95662a0cc","0198f768-e4d2-711c-944b-6f03c09216de","2025-08-29_15h21.00.249",NA,NA,110.6427,110.6427,110.6427,110.9824,NA,NA,NA,NA,NA,NA,NA,TRUE,5,1.4941,107.6315,110.6424,0,5,5,14,1,12,28,NA,NA,NA,NA,NA,1,6,"likert"
"BCE4703DBF7B42AF99C9BA9CC4800C66",1,"0198f77d-4a41-7efa-a5b1-66f95662a0cc","0198f768-e4d2-711c-944b-6f03c09216de","2025-08-29_15h21.00.249",NA,NA,114.0036,114.0037,114.0037,114.3435,NA,NA,NA,NA,NA,NA,NA,TRUE,5,1.3782,110.9838,114.0034,0,6,6,43,1,30,27,NA,NA,NA,NA,NA,1,7,"likert"
"BCE4703DBF7B42AF99C9BA9CC4800C66",1,"0198f77d-4a41-7efa-a5b1-66f95662a0cc","0198f768-e4d2-711c-944b-6f03c09216de","2025-08-29_15h21.00.249",NA,NA,117.3358,117.3359,117.3359,117.679,NA,NA,NA,NA,NA,NA,NA,TRUE,5,1.8156,114.3447,117.3357,0,7,7,31,1,25,29,NA,NA,NA,NA,NA,1,8,"likert"
"BCE4703DBF7B42AF99C9BA9CC4800C66",1,"0198f77d-4a41-7efa-a5b1-66f95662a0cc","0198f768-e4d2-711c-944b-6f03c09216de","2025-08-29_15h21.00.249",NA,NA,120.6891,120.6892,120.6892,121.034,NA,NA,NA,NA,NA,NA,NA,TRUE,5,0.8931,117.6804,120.689,0,8,8,35,1,25,46,NA,NA,NA,NA,NA,1,9,"likert"
"BCE4703DBF7B42AF99C9BA9CC4800C66",1,"0198f77d-4a41-7efa-a5b1-66f95662a0cc","0198f768-e4d2-711c-944b-6f03c09216de","2025-08-29_15h21.00.249",NA,NA,124.0452,124.0454,124.0454,124.3943,NA,NA,NA,NA,NA,NA,NA,TRUE,5,0.8939,121.0356,124.0451,0,9,9,15,1,12,31,NA,NA,NA,NA,NA,1,10,"likert"
"BCE4703DBF7B42AF99C9BA9CC4800C66",1,"0198f77d-4a41-7efa-a5b1-66f95662a0cc","0198f768-e4d2-711c-944b-6f03c09216de","2025-08-29_15h21.00.249",NA,NA,127.3788,127.3789,127.3789,127.7457,NA,NA,NA,NA,NA,NA,NA,TRUE,5,1.1364,124.3954,127.3788,0,10,10,82,1,95,47,NA,NA,NA,NA,NA,1,11,"likert"
"BCE4703DBF7B42AF99C9BA9CC4800C66",1,"0198f77d-4a41-7efa-a5b1-66f95662a0cc","0198f768-e4d2-711c-944b-6f03c09216de","2025-08-29_15h21.00.249",NA,NA,130.7633,130.7635,130.7635,131.0858,NA,NA,NA,NA,NA,NA,NA,TRUE,5,1.2089,127.747,130.7632,0,11,11,37,1,28,28,NA,NA,NA,NA,NA,1,12,"likert"
"BCE4703DBF7B42AF99C9BA9CC4800C66",1,"0198f77d-4a41-7efa-a5b1-66f95662a0cc","0198f768-e4d2-711c-944b-6f03c09216de","2025-08-29_15h21.00.249",NA,NA,134.0894,134.0894,134.0895,134.4453,NA,NA,NA,NA,NA,NA,NA,TRUE,5,0.7988,131.0869,134.0893,0,12,12,65,1,50,54,NA,NA,NA,NA,NA,1,13,"likert"
"BCE4703DBF7B42AF99C9BA9CC4800C66",1,"0198f77d-4a41-7efa-a5b1-66f95662a0cc","0198f768-e4d2-711c-944b-6f03c09216de","2025-08-29_15h21.00.249",NA,NA,137.4547,137.4548,137.4548,137.787,NA,NA,NA,NA,NA,NA,NA,TRUE,5,0.613,134.4466,137.4545,0,13,13,4,1,7,32,NA,NA,NA,NA,NA,1,14,"likert"
"BCE4703DBF7B42AF99C9BA9CC4800C66",1,"0198f77d-4a41-7efa-a5b1-66f95662a0cc","0198f768-e4d2-711c-944b-6f03c09216de","2025-08-29_15h21.00.249",NA,NA,140.7894,140.7894,140.7894,141.1385,NA,NA,NA,NA,NA,NA,NA,TRUE,5,0.8741,137.7882,140.7892,0,14,14,56,1,45,31,NA,NA,NA,NA,NA,1,15,"likert"
"BCE4703DBF7B42AF99C9BA9CC4800C66",1,"0198f77d-4a41-7efa-a5b1-66f95662a0cc","0198f768-e4d2-711c-944b-6f03c09216de","2025-08-29_15h21.00.249",NA,NA,144.1651,144.1652,144.1653,144.4963,NA,NA,NA,NA,NA,NA,NA,TRUE,5,0.8702,141.1398,144.165,0,15,15,77,1,90,54,NA,NA,NA,NA,NA,1,16,"likert"
"BCE4703DBF7B42AF99C9BA9CC4800C66",1,"0198f77d-4a41-7efa-a5b1-66f95662a0cc","0198f768-e4d2-711c-944b-6f03c09216de","2025-08-29_15h21.00.249",NA,NA,147.5099,147.51,147.51,147.8338,NA,NA,NA,NA,NA,NA,NA,TRUE,4,1.8093,144.4974,147.5098,0,16,16,96,1,180,27,NA,NA,NA,NA,NA,1,17,"likert"
"BCE4703DBF7B42AF99C9BA9CC4800C66",1,"0198f77d-4a41-7efa-a5b1-66f95662a0cc","0198f768-e4d2-711c-944b-6f03c09216de","2025-08-29_15h21.00.249",NA,NA,150.8284,150.8284,150.8284,151.2043,NA,NA,NA,NA,NA,NA,NA,TRUE,5,1.9694,147.8349,150.8282,0,17,17,27,1,21,30,NA,NA,NA,NA,NA,1,18,"likert"
"BCE4703DBF7B42AF99C9BA9CC4800C66",1,"0198f77d-4a41-7efa-a5b1-66f95662a0cc","0198f768-e4d2-711c-944b-6f03c09216de","2025-08-29_15h21.00.249",NA,NA,154.1853,154.1853,154.1853,154.5364,NA,NA,NA,NA,NA,NA,NA,TRUE,5,1.0923,151.206,154.1852,0,18,18,9,1,10,29,NA,NA,NA,NA,NA,1,19,"likert"
"BCE4703DBF7B42AF99C9BA9CC4800C66",1,"0198f77d-4a41-7efa-a5b1-66f95662a0cc","0198f768-e4d2-711c-944b-6f03c09216de","2025-08-29_15h21.00.249",NA,NA,157.5573,157.5574,157.5575,157.8796,NA,NA,NA,NA,NA,NA,NA,TRUE,5,0.9627,154.5378,157.5572,0,19,19,87,1,100,39,NA,NA,NA,NA,NA,1,20,"likert"
"BCE4703DBF7B42AF99C9BA9CC4800C66",1,"0198f77d-4a41-7efa-a5b1-66f95662a0cc","0198f768-e4d2-711c-944b-6f03c09216de","2025-08-29_15h21.00.249",NA,NA,160.9012,160.9012,160.9013,161.2494,NA,NA,NA,NA,NA,NA,NA,TRUE,5,1.2001,157.8808,160.9011,0,20,20,80,1,95,35,NA,NA,NA,NA,NA,1,21,"likert"
"BCE4703DBF7B42AF99C9BA9CC4800C66",1,"0198f77d-4a41-7efa-a5b1-66f95662a0cc","0198f768-e4d2-711c-944b-6f03c09216de","2025-08-29_15h21.00.249",NA,NA,164.2563,164.2563,164.2564,164.6035,NA,NA,NA,NA,NA,NA,NA,TRUE,5,0.8478,161.2503,164.2561,0,21,21,60,1,50,27,NA,NA,NA,NA,NA,1,22,"likert"
"BCE4703DBF7B42AF99C9BA9CC4800C66",1,"0198f77d-4a41-7efa-a5b1-66f95662a0cc","0198f768-e4d2-711c-944b-6f03c09216de","2025-08-29_15h21.00.249",NA,NA,167.6013,167.6014,167.6014,167.9555,NA,NA,NA,NA,NA,NA,NA,TRUE,5,0.6975,164.6048,167.6011,0,22,22,52,1,40,47,NA,NA,NA,NA,NA,1,23,"likert"
"BCE4703DBF7B42AF99C9BA9CC4800C66",1,"0198f77d-4a41-7efa-a5b1-66f95662a0cc","0198f768-e4d2-711c-944b-6f03c09216de","2025-08-29_15h21.00.249",NA,NA,170.9468,170.9469,170.9469,171.2985,NA,NA,NA,NA,NA,NA,NA,TRUE,5,0.6763,167.9568,170.9466,0,23,23,32,1,25,31,NA,NA,NA,NA,NA,1,24,"likert"
"BCE4703DBF7B42AF99C9BA9CC4800C66",1,"0198f77d-4a41-7efa-a5b1-66f95662a0cc","0198f768-e4d2-711c-944b-6f03c09216de","2025-08-29_15h21.00.249",NA,NA,174.2927,174.2928,174.2928,174.6386,NA,NA,NA,NA,NA,NA,NA,TRUE,5,0.8593,171.2996,174.2926,0,24,24,11,1,10,32,NA,NA,NA,NA,NA,1,25,"likert"
"BCE4703DBF7B42AF99C9BA9CC4800C66",1,"0198f77d-4a41-7efa-a5b1-66f95662a0cc","0198f768-e4d2-711c-944b-6f03c09216de","2025-08-29_15h21.00.249",NA,NA,177.6343,177.6343,177.6343,177.983,NA,NA,NA,NA,NA,NA,NA,TRUE,5,0.8842,174.6398,177.6341,0,25,25,73,1,90,30,NA,NA,NA,NA,NA,1,26,"likert"
"BCE4703DBF7B42AF99C9BA9CC4800C66",1,"0198f77d-4a41-7efa-a5b1-66f95662a0cc","0198f768-e4d2-711c-944b-6f03c09216de","2025-08-29_15h21.00.249",NA,NA,181.0033,181.0033,181.0033,181.3312,NA,NA,NA,NA,NA,NA,NA,TRUE,5,0.7185,177.9843,181.0032,0,26,26,16,1,12,33,NA,NA,NA,NA,NA,1,27,"likert"
"BCE4703DBF7B42AF99C9BA9CC4800C66",1,"0198f77d-4a41-7efa-a5b1-66f95662a0cc","0198f768-e4d2-711c-944b-6f03c09216de","2025-08-29_15h21.00.249",NA,NA,184.3547,184.3547,184.3547,184.6767,NA,NA,NA,NA,NA,NA,NA,TRUE,5,0.7305,181.3322,184.3545,0,27,27,91,1,150,33,NA,NA,NA,NA,NA,1,28,"likert"
"BCE4703DBF7B42AF99C9BA9CC4800C66",1,"0198f77d-4a41-7efa-a5b1-66f95662a0cc","0198f768-e4d2-711c-944b-6f03c09216de","2025-08-29_15h21.00.249",NA,NA,187.6958,187.6958,187.6958,188.0477,NA,NA,NA,NA,NA,NA,NA,TRUE,5,1.2526,184.6781,187.6954,0,28,28,34,1,25,35,NA,NA,NA,NA,NA,1,29,"likert"
"BCE4703DBF7B42AF99C9BA9CC4800C66",1,"0198f77d-4a41-7efa-a5b1-66f95662a0cc","0198f768-e4d2-711c-944b-6f03c09216de","2025-08-29_15h21.00.249",NA,NA,191.0447,191.0447,191.0447,191.392,NA,NA,NA,NA,NA,NA,NA,TRUE,5,0.5223,188.0489,191.0446,0,29,29,39,1,28,35,NA,NA,NA,NA,NA,1,30,"likert"
"BCE4703DBF7B42AF99C9BA9CC4800C66",1,"0198f77d-4a41-7efa-a5b1-66f95662a0cc","0198f768-e4d2-711c-944b-6f03c09216de","2025-08-29_15h21.00.249",NA,NA,194.3986,194.3986,194.3987,194.751,NA,NA,NA,NA,NA,NA,NA,TRUE,5,0.8862,191.3932,194.3984,0,30,30,89,1,100,54,NA,NA,NA,NA,NA,1,31,"likert"
"BCE4703DBF7B42AF99C9BA9CC4800C66",1,"0198f77d-4a41-7efa-a5b1-66f95662a0cc","0198f768-e4d2-711c-944b-6f03c09216de","2025-08-29_15h21.00.249",NA,NA,197.7457,197.7457,197.7457,198.099,NA,NA,NA,NA,NA,NA,NA,TRUE,5,1.1665,194.7525,197.7456,0,31,31,42,1,30,26,NA,NA,NA,NA,NA,1,32,"likert"
"BCE4703DBF7B42AF99C9BA9CC4800C66",1,"0198f77d-4a41-7efa-a5b1-66f95662a0cc","0198f768-e4d2-711c-944b-6f03c09216de","2025-08-29_15h21.00.249",NA,NA,201.0908,201.3402,201.3402,201.445,NA,NA,NA,NA,NA,NA,NA,FALSE,NA,NA,198.1003,201.0906,0,32,32,12,1,12,25,NA,NA,NA,NA,NA,1,33,"likert"
"BCE4703DBF7B42AF99C9BA9CC4800C66",1,"0198f77d-4a41-7efa-a5b1-66f95662a0cc","0198f768-e4d2-711c-944b-6f03c09216de","2025-08-29_15h21.00.249",NA,NA,204.4439,204.4439,204.4439,204.8066,NA,NA,NA,NA,NA,NA,NA,TRUE,5,2.0106,201.4462,204.4437,0,33,33,64,1,50,46,NA,NA,NA,NA,NA,1,34,"likert"
"BCE4703DBF7B42AF99C9BA9CC4800C66",1,"0198f77d-4a41-7efa-a5b1-66f95662a0cc","0198f768-e4d2-711c-944b-6f03c09216de","2025-08-29_15h21.00.249",NA,NA,207.8051,207.8052,207.8052,208.1419,NA,NA,NA,NA,NA,NA,NA,TRUE,5,1.2409,204.8079,207.805,0,34,34,71,1,60,54,NA,NA,NA,NA,NA,1,35,"likert"
"BCE4703DBF7B42AF99C9BA9CC4800C66",1,"0198f77d-4a41-7efa-a5b1-66f95662a0cc","0198f768-e4d2-711c-944b-6f03c09216de","2025-08-29_15h21.00.249",NA,NA,211.1467,211.1468,211.1468,211.4987,NA,NA,NA,NA,NA,NA,NA,TRUE,5,1.0459,208.1431,211.1464,0,35,35,41,1,28,46,NA,NA,NA,NA,NA,1,36,"likert"
"BCE4703DBF7B42AF99C9BA9CC4800C66",1,"0198f77d-4a41-7efa-a5b1-66f95662a0cc","0198f768-e4d2-711c-944b-6f03c09216de","2025-08-29_15h21.00.249",NA,NA,214.492,214.4921,214.4921,214.8504,NA,NA,NA,NA,NA,NA,NA,TRUE,5,0.8182,211.4998,214.4918,0,36,36,61,1,50,30,NA,NA,NA,NA,NA,1,37,"likert"
"BCE4703DBF7B42AF99C9BA9CC4800C66",1,"0198f77d-4a41-7efa-a5b1-66f95662a0cc","0198f768-e4d2-711c-944b-6f03c09216de","2025-08-29_15h21.00.249",NA,NA,217.8285,217.8285,217.8285,218.1835,NA,NA,NA,NA,NA,NA,NA,TRUE,5,0.7365,214.8515,217.8284,0,37,37,49,1,40,33,NA,NA,NA,NA,NA,1,38,"likert"
"BCE4703DBF7B42AF99C9BA9CC4800C66",1,"0198f77d-4a41-7efa-a5b1-66f95662a0cc","0198f768-e4d2-711c-944b-6f03c09216de","2025-08-29_15h21.00.249",NA,NA,221.1895,221.1895,221.1895,221.5445,NA,NA,NA,NA,NA,NA,NA,TRUE,5,0.4379,218.1846,221.1894,0,38,38,88,1,100,46,NA,NA,NA,NA,NA,1,39,"likert"
"BCE4703DBF7B42AF99C9BA9CC4800C66",1,"0198f77d-4a41-7efa-a5b1-66f95662a0cc","0198f768-e4d2-711c-944b-6f03c09216de","2025-08-29_15h21.00.249",NA,NA,224.5268,224.5268,224.5268,224.8859,NA,NA,NA,NA,NA,NA,NA,TRUE,5,0.3213,221.546,224.5266,0,39,39,75,1,90,40,NA,NA,NA,NA,NA,1,40,"likert"
"BCE4703DBF7B42AF99C9BA9CC4800C66",1,"0198f77d-4a41-7efa-a5b1-66f95662a0cc","0198f768-e4d2-711c-944b-6f03c09216de","2025-08-29_15h21.00.249",NA,NA,227.8953,227.8953,227.8954,228.2296,NA,NA,NA,NA,NA,NA,NA,TRUE,5,0.4664,224.8873,227.8952,0,40,40,103,1,200,28,NA,NA,NA,NA,NA,1,41,"likert"
"BCE4703DBF7B42AF99C9BA9CC4800C66",1,"0198f77d-4a41-7efa-a5b1-66f95662a0cc","0198f768-e4d2-711c-944b-6f03c09216de","2025-08-29_15h21.00.249",NA,NA,231.2423,231.2423,231.2423,231.5946,NA,NA,NA,NA,NA,NA,NA,TRUE,5,0.8352,228.2308,231.2422,0,41,41,68,1,60,35,NA,NA,NA,NA,NA,1,42,"likert"
"BCE4703DBF7B42AF99C9BA9CC4800C66",1,"0198f77d-4a41-7efa-a5b1-66f95662a0cc","0198f768-e4d2-711c-944b-6f03c09216de","2025-08-29_15h21.00.249",NA,NA,234.6006,234.6007,234.6007,234.9532,NA,NA,NA,NA,NA,NA,NA,TRUE,5,0.6974,231.5963,234.6005,0,42,42,44,1,30,29,NA,NA,NA,NA,NA,1,43,"likert"
"BCE4703DBF7B42AF99C9BA9CC4800C66",1,"0198f77d-4a41-7efa-a5b1-66f95662a0cc","0198f768-e4d2-711c-944b-6f03c09216de","2025-08-29_15h21.00.249",NA,NA,237.9551,237.9552,237.9552,238.3039,NA,NA,NA,NA,NA,NA,NA,TRUE,5,0.3766,234.9544,237.955,0,43,43,10,1,10,30,NA,NA,NA,NA,NA,1,44,"likert"
"BCE4703DBF7B42AF99C9BA9CC4800C66",1,"0198f77d-4a41-7efa-a5b1-66f95662a0cc","0198f768-e4d2-711c-944b-6f03c09216de","2025-08-29_15h21.00.249",NA,NA,241.3031,241.3032,241.3032,241.6524,NA,NA,NA,NA,NA,NA,NA,TRUE,5,0.3529,238.3052,241.3029,0,44,44,94,1,150,47,NA,NA,NA,NA,NA,1,45,"likert"
"BCE4703DBF7B42AF99C9BA9CC4800C66",1,"0198f77d-4a41-7efa-a5b1-66f95662a0cc","0198f768-e4d2-711c-944b-6f03c09216de","2025-08-29_15h21.00.249",NA,NA,244.6476,244.6476,244.6477,244.9965,NA,NA,NA,NA,NA,NA,NA,TRUE,5,0.4355,241.6537,244.6474,0,45,45,74,1,90,33,NA,NA,NA,NA,NA,1,46,"likert"
"BCE4703DBF7B42AF99C9BA9CC4800C66",1,"0198f77d-4a41-7efa-a5b1-66f95662a0cc","0198f768-e4d2-711c-944b-6f03c09216de","2025-08-29_15h21.00.249",NA,NA,247.9965,247.9965,247.9965,248.3533,NA,NA,NA,NA,NA,NA,NA,TRUE,5,0.4005,244.9978,247.9962,0,46,46,90,1,150,31,NA,NA,NA,NA,NA,1,47,"likert"
"BCE4703DBF7B42AF99C9BA9CC4800C66",1,"0198f77d-4a41-7efa-a5b1-66f95662a0cc","0198f768-e4d2-711c-944b-6f03c09216de","2025-08-29_15h21.00.249",NA,NA,251.3323,251.3323,251.3323,251.6824,NA,NA,NA,NA,NA,NA,NA,TRUE,5,0.7053,248.3548,251.3322,0,47,47,24,1,21,26,NA,NA,NA,NA,NA,1,48,"likert"
"BCE4703DBF7B42AF99C9BA9CC4800C66",1,"0198f77d-4a41-7efa-a5b1-66f95662a0cc","0198f768-e4d2-711c-944b-6f03c09216de","2025-08-29_15h21.00.249",NA,NA,254.7039,254.704,254.704,255.0524,NA,NA,NA,NA,NA,NA,NA,TRUE,5,0.7127,251.6837,254.7038,0,48,48,8,1,10,27,NA,NA,NA,NA,NA,1,49,"likert"
"BCE4703DBF7B42AF99C9BA9CC4800C66",1,"0198f77d-4a41-7efa-a5b1-66f95662a0cc","0198f768-e4d2-711c-944b-6f03c09216de","2025-08-29_15h21.00.249",NA,NA,258.0524,258.0524,258.0524,258.382,NA,NA,NA,NA,NA,NA,NA,TRUE,5,0.3716,255.0537,258.0523,0,49,49,59,1,45,46,NA,NA,NA,NA,NA,1,50,"likert"
"BCE4703DBF7B42AF99C9BA9CC4800C66",1,"0198f77d-4a41-7efa-a5b1-66f95662a0cc","0198f768-e4d2-711c-944b-6f03c09216de","2025-08-29_15h21.00.249",NA,NA,261.3945,261.3945,261.3945,261.7388,NA,NA,NA,NA,NA,NA,NA,TRUE,5,0.6405,258.3832,261.3943,0,50,50,62,1,50,35,NA,NA,NA,NA,NA,1,51,"likert"
"BCE4703DBF7B42AF99C9BA9CC4800C66",1,"0198f77d-4a41-7efa-a5b1-66f95662a0cc","0198f768-e4d2-711c-944b-6f03c09216de","2025-08-29_15h21.00.249",NA,NA,264.7422,264.7423,264.7423,265.091,NA,NA,NA,NA,NA,NA,NA,TRUE,5,0.5326,261.7401,264.7421,0,51,51,53,1,40,54,NA,NA,NA,NA,NA,1,52,"likert"
"BCE4703DBF7B42AF99C9BA9CC4800C66",1,"0198f77d-4a41-7efa-a5b1-66f95662a0cc","0198f768-e4d2-711c-944b-6f03c09216de","2025-08-29_15h21.00.249",NA,NA,268.0941,268.0941,268.0941,268.4384,NA,NA,NA,NA,NA,NA,NA,TRUE,5,0.4478,265.0921,268.0939,0,52,52,21,1,14,32,NA,NA,NA,NA,NA,1,53,"likert"
"BCE4703DBF7B42AF99C9BA9CC4800C66",1,"0198f77d-4a41-7efa-a5b1-66f95662a0cc","0198f768-e4d2-711c-944b-6f03c09216de","2025-08-29_15h21.00.249",NA,NA,271.4471,271.4471,271.4471,271.7731,NA,NA,NA,NA,NA,NA,NA,TRUE,5,0.3693,268.4396,271.4469,0,53,53,105,1,200,39,NA,NA,NA,NA,NA,1,54,"likert"
"BCE4703DBF7B42AF99C9BA9CC4800C66",1,"0198f77d-4a41-7efa-a5b1-66f95662a0cc","0198f768-e4d2-711c-944b-6f03c09216de","2025-08-29_15h21.00.249",NA,NA,274.8048,274.8049,274.8049,275.1299,NA,NA,NA,NA,NA,NA,NA,TRUE,5,0.4251,271.7744,274.8045,0,54,54,13,1,12,26,NA,NA,NA,NA,NA,1,55,"likert"
"BCE4703DBF7B42AF99C9BA9CC4800C66",1,"0198f77d-4a41-7efa-a5b1-66f95662a0cc","0198f768-e4d2-711c-944b-6f03c09216de","2025-08-29_15h21.00.249",NA,NA,278.1445,278.1445,278.1445,278.4905,NA,NA,NA,NA,NA,NA,NA,TRUE,5,0.6477,275.131,278.1444,0,55,55,92,1,150,35,NA,NA,NA,NA,NA,1,56,"likert"
"BCE4703DBF7B42AF99C9BA9CC4800C66",1,"0198f77d-4a41-7efa-a5b1-66f95662a0cc","0198f768-e4d2-711c-944b-6f03c09216de","2025-08-29_15h21.00.249",NA,NA,281.497,281.4971,281.4971,281.8505,NA,NA,NA,NA,NA,NA,NA,TRUE,5,0.6572,278.4917,281.4967,0,56,56,86,1,100,38,NA,NA,NA,NA,NA,1,57,"likert"
"BCE4703DBF7B42AF99C9BA9CC4800C66",1,"0198f77d-4a41-7efa-a5b1-66f95662a0cc","0198f768-e4d2-711c-944b-6f03c09216de","2025-08-29_15h21.00.249",NA,NA,284.8546,284.8548,284.8548,285.185,NA,NA,NA,NA,NA,NA,NA,TRUE,5,0.6418,281.8517,284.8545,0,57,57,23,1,14,39,NA,NA,NA,NA,NA,1,58,"likert"
"BCE4703DBF7B42AF99C9BA9CC4800C66",1,"0198f77d-4a41-7efa-a5b1-66f95662a0cc","0198f768-e4d2-711c-944b-6f03c09216de","2025-08-29_15h21.00.249",NA,NA,288.1986,288.1987,288.1987,288.5299,NA,NA,NA,NA,NA,NA,NA,TRUE,5,0.3956,285.1864,288.1985,0,58,58,81,1,95,40,NA,NA,NA,NA,NA,1,59,"likert"
"BCE4703DBF7B42AF99C9BA9CC4800C66",1,"0198f77d-4a41-7efa-a5b1-66f95662a0cc","0198f768-e4d2-711c-944b-6f03c09216de","2025-08-29_15h21.00.249",NA,NA,291.5337,291.5338,291.5339,291.8819,NA,NA,NA,NA,NA,NA,NA,TRUE,5,0.3944,288.5312,291.5336,0,59,59,84,1,100,26,NA,NA,NA,NA,NA,1,60,"likert"
"BCE4703DBF7B42AF99C9BA9CC4800C66",1,"0198f77d-4a41-7efa-a5b1-66f95662a0cc","0198f768-e4d2-711c-944b-6f03c09216de","2025-08-29_15h21.00.249",NA,NA,294.8911,294.8911,294.8911,295.2393,NA,NA,NA,NA,NA,NA,NA,TRUE,5,0.3686,291.8831,294.8908,0,60,60,54,1,45,26,NA,NA,NA,NA,NA,1,61,"likert"
"BCE4703DBF7B42AF99C9BA9CC4800C66",1,"0198f77d-4a41-7efa-a5b1-66f95662a0cc","0198f768-e4d2-711c-944b-6f03c09216de","2025-08-29_15h21.00.249",NA,NA,298.2502,298.2503,298.2503,298.596,NA,NA,NA,NA,NA,NA,NA,TRUE,5,0.3941,295.2404,298.25,0,61,61,55,1,45,29,NA,NA,NA,NA,NA,1,62,"likert"
"BCE4703DBF7B42AF99C9BA9CC4800C66",1,"0198f77d-4a41-7efa-a5b1-66f95662a0cc","0198f768-e4d2-711c-944b-6f03c09216de","2025-08-29_15h21.00.249",NA,NA,301.5868,301.5868,301.5868,301.9328,NA,NA,NA,NA,NA,NA,NA,TRUE,5,0.4037,298.5972,301.5866,0,62,62,28,1,21,32,NA,NA,NA,NA,NA,1,63,"likert"
"BCE4703DBF7B42AF99C9BA9CC4800C66",1,"0198f77d-4a41-7efa-a5b1-66f95662a0cc","0198f768-e4d2-711c-944b-6f03c09216de","2025-08-29_15h21.00.249",NA,NA,304.9422,304.9423,304.9423,305.279,NA,NA,NA,NA,NA,NA,NA,TRUE,5,0.4748,301.9342,304.942,0,63,63,18,1,14,25,NA,NA,NA,NA,NA,1,64,"likert"
"BCE4703DBF7B42AF99C9BA9CC4800C66",1,"0198f77d-4a41-7efa-a5b1-66f95662a0cc","0198f768-e4d2-711c-944b-6f03c09216de","2025-08-29_15h21.00.249",NA,NA,308.2966,308.2966,308.2966,308.6437,NA,NA,NA,NA,NA,NA,NA,TRUE,5,0.7322,305.2802,308.2965,0,64,64,40,1,28,39,NA,NA,NA,NA,NA,1,65,"likert"
"BCE4703DBF7B42AF99C9BA9CC4800C66",1,"0198f77d-4a41-7efa-a5b1-66f95662a0cc","0198f768-e4d2-711c-944b-6f03c09216de","2025-08-29_15h21.00.249",NA,NA,311.632,311.632,311.632,311.9899,NA,NA,NA,NA,NA,NA,NA,TRUE,5,0.3447,308.6451,311.6317,0,65,65,67,1,60,33,NA,NA,NA,NA,NA,1,66,"likert"
"BCE4703DBF7B42AF99C9BA9CC4800C66",1,"0198f77d-4a41-7efa-a5b1-66f95662a0cc","0198f768-e4d2-711c-944b-6f03c09216de","2025-08-29_15h21.00.249",NA,NA,314.9938,314.9938,314.9939,315.3454,NA,NA,NA,NA,NA,NA,NA,TRUE,5,0.3476,311.991,314.9938,0,66,66,99,1,180,39,NA,NA,NA,NA,NA,1,67,"likert"
"BCE4703DBF7B42AF99C9BA9CC4800C66",1,"0198f77d-4a41-7efa-a5b1-66f95662a0cc","0198f768-e4d2-711c-944b-6f03c09216de","2025-08-29_15h21.00.249",NA,NA,318.3456,318.3456,318.3456,318.6922,NA,NA,NA,NA,NA,NA,NA,TRUE,5,0.3799,315.3467,318.3455,0,67,67,93,1,150,40,NA,NA,NA,NA,NA,1,68,"likert"
"BCE4703DBF7B42AF99C9BA9CC4800C66",1,"0198f77d-4a41-7efa-a5b1-66f95662a0cc","0198f768-e4d2-711c-944b-6f03c09216de","2025-08-29_15h21.00.249",NA,NA,321.68,321.68,321.68,322.0339,NA,NA,NA,NA,NA,NA,NA,TRUE,5,0.5598,318.6938,321.6798,0,68,68,72,1,90,26,NA,NA,NA,NA,NA,1,69,"likert"
"BCE4703DBF7B42AF99C9BA9CC4800C66",1,"0198f77d-4a41-7efa-a5b1-66f95662a0cc","0198f768-e4d2-711c-944b-6f03c09216de","2025-08-29_15h21.00.249",NA,NA,325.0475,325.0475,325.0475,325.3926,NA,NA,NA,NA,NA,NA,NA,TRUE,5,0.5465,322.0352,325.0473,0,69,69,58,1,45,40,NA,NA,NA,NA,NA,1,70,"likert"
"BCE4703DBF7B42AF99C9BA9CC4800C66",1,"0198f77d-4a41-7efa-a5b1-66f95662a0cc","0198f768-e4d2-711c-944b-6f03c09216de","2025-08-29_15h21.00.249",NA,NA,328.3874,328.3875,328.3875,328.7312,NA,NA,NA,NA,NA,NA,NA,TRUE,5,0.6675,325.3942,328.3872,0,70,70,26,1,21,29,NA,NA,NA,NA,NA,1,71,"likert"
"BCE4703DBF7B42AF99C9BA9CC4800C66",1,"0198f77d-4a41-7efa-a5b1-66f95662a0cc","0198f768-e4d2-711c-944b-6f03c09216de","2025-08-29_15h21.00.249",NA,NA,331.7362,331.7362,331.7362,332.0852,NA,NA,NA,NA,NA,NA,NA,TRUE,5,0.6434,328.7327,331.736,0,71,71,25,1,21,27,NA,NA,NA,NA,NA,1,72,"likert"
"BCE4703DBF7B42AF99C9BA9CC4800C66",1,"0198f77d-4a41-7efa-a5b1-66f95662a0cc","0198f768-e4d2-711c-944b-6f03c09216de","2025-08-29_15h21.00.249",NA,NA,335.1095,335.1096,335.1096,335.4312,NA,NA,NA,NA,NA,NA,NA,TRUE,5,0.4246,332.0865,335.1094,0,72,72,47,1,30,38,NA,NA,NA,NA,NA,1,73,"likert"
"BCE4703DBF7B42AF99C9BA9CC4800C66",1,"0198f77d-4a41-7efa-a5b1-66f95662a0cc","0198f768-e4d2-711c-944b-6f03c09216de","2025-08-29_15h21.00.249",NA,NA,338.4202,338.4202,338.4202,338.7983,NA,NA,NA,NA,NA,NA,NA,TRUE,5,0.4107,335.4324,338.4201,0,73,73,85,1,100,31,NA,NA,NA,NA,NA,1,74,"likert"
"BCE4703DBF7B42AF99C9BA9CC4800C66",1,"0198f77d-4a41-7efa-a5b1-66f95662a0cc","0198f768-e4d2-711c-944b-6f03c09216de","2025-08-29_15h21.00.249",NA,NA,341.7972,341.7972,341.7972,342.1455,NA,NA,NA,NA,NA,NA,NA,TRUE,5,0.429,338.7999,341.7971,0,74,74,102,1,200,26,NA,NA,NA,NA,NA,1,75,"likert"
"BCE4703DBF7B42AF99C9BA9CC4800C66",1,"0198f77d-4a41-7efa-a5b1-66f95662a0cc","0198f768-e4d2-711c-944b-6f03c09216de","2025-08-29_15h21.00.249",NA,NA,345.1336,345.1336,345.1336,345.4835,NA,NA,NA,NA,NA,NA,NA,TRUE,5,0.3697,342.1467,345.1334,0,75,75,1,1,7,26,NA,NA,NA,NA,NA,1,76,"likert"
"BCE4703DBF7B42AF99C9BA9CC4800C66",1,"0198f77d-4a41-7efa-a5b1-66f95662a0cc","0198f768-e4d2-711c-944b-6f03c09216de","2025-08-29_15h21.00.249",NA,NA,348.4852,348.4853,348.4853,348.832,NA,NA,NA,NA,NA,NA,NA,TRUE,5,0.3663,345.4847,348.4851,0,76,76,0,1,7,25,NA,NA,NA,NA,NA,1,77,"likert"
"BCE4703DBF7B42AF99C9BA9CC4800C66",1,"0198f77d-4a41-7efa-a5b1-66f95662a0cc","0198f768-e4d2-711c-944b-6f03c09216de","2025-08-29_15h21.00.249",NA,NA,351.8518,351.8518,351.8518,352.2048,NA,NA,NA,NA,NA,NA,NA,TRUE,5,0.3445,348.8332,351.8516,0,77,77,30,1,25,27,NA,NA,NA,NA,NA,1,78,"likert"
"BCE4703DBF7B42AF99C9BA9CC4800C66",1,"0198f77d-4a41-7efa-a5b1-66f95662a0cc","0198f768-e4d2-711c-944b-6f03c09216de","2025-08-29_15h21.00.249",NA,NA,355.1959,355.1959,355.1959,355.5491,NA,NA,NA,NA,NA,NA,NA,TRUE,5,0.2835,352.2061,355.1958,0,78,78,66,1,60,29,NA,NA,NA,NA,NA,1,79,"likert"
"BCE4703DBF7B42AF99C9BA9CC4800C66",1,"0198f77d-4a41-7efa-a5b1-66f95662a0cc","0198f768-e4d2-711c-944b-6f03c09216de","2025-08-29_15h21.00.249",NA,NA,358.5507,358.5507,358.5507,358.8982,NA,NA,NA,NA,NA,NA,NA,TRUE,5,0.3883,355.5504,358.5506,0,79,79,83,1,95,54,NA,NA,NA,NA,NA,1,80,"likert"
"BCE4703DBF7B42AF99C9BA9CC4800C66",1,"0198f77d-4a41-7efa-a5b1-66f95662a0cc","0198f768-e4d2-711c-944b-6f03c09216de","2025-08-29_15h21.00.249",NA,NA,361.9029,361.9029,361.9029,362.2534,NA,NA,NA,NA,NA,NA,NA,TRUE,5,0.3787,358.8994,361.9027,0,80,80,17,1,12,35,NA,NA,NA,NA,NA,1,81,"likert"
"BCE4703DBF7B42AF99C9BA9CC4800C66",1,"0198f77d-4a41-7efa-a5b1-66f95662a0cc","0198f768-e4d2-711c-944b-6f03c09216de","2025-08-29_15h21.00.249",NA,NA,365.2534,365.2534,365.2534,365.579,NA,NA,NA,NA,NA,NA,NA,TRUE,5,0.4185,362.2546,365.2532,0,81,81,95,1,150,54,NA,NA,NA,NA,NA,1,82,"likert"
"BCE4703DBF7B42AF99C9BA9CC4800C66",1,"0198f77d-4a41-7efa-a5b1-66f95662a0cc","0198f768-e4d2-711c-944b-6f03c09216de","2025-08-29_15h21.00.249",NA,NA,368.5809,368.581,368.581,368.9536,NA,NA,NA,NA,NA,NA,NA,TRUE,5,0.3051,365.5802,368.5807,0,82,82,79,1,95,33,NA,NA,NA,NA,NA,1,83,"likert"
"BCE4703DBF7B42AF99C9BA9CC4800C66",1,"0198f77d-4a41-7efa-a5b1-66f95662a0cc","0198f768-e4d2-711c-944b-6f03c09216de","2025-08-29_15h21.00.249",NA,NA,371.9498,371.9499,371.9499,372.2989,NA,NA,NA,NA,NA,NA,NA,TRUE,5,0.3194,368.9548,371.9496,0,83,83,70,1,60,47,NA,NA,NA,NA,NA,1,84,"likert"
"BCE4703DBF7B42AF99C9BA9CC4800C66",1,"0198f77d-4a41-7efa-a5b1-66f95662a0cc","0198f768-e4d2-711c-944b-6f03c09216de","2025-08-29_15h21.00.249",NA,NA,375.3067,375.3068,375.3068,375.6346,NA,NA,NA,NA,NA,NA,NA,TRUE,5,0.4447,372.3001,375.3066,0,84,84,22,1,14,35,NA,NA,NA,NA,NA,1,85,"likert"
"BCE4703DBF7B42AF99C9BA9CC4800C66",1,"0198f77d-4a41-7efa-a5b1-66f95662a0cc","0198f768-e4d2-711c-944b-6f03c09216de","2025-08-29_15h21.00.249",NA,NA,378.6373,378.6373,378.6373,378.9864,NA,NA,NA,NA,NA,NA,NA,TRUE,5,0.7062,375.6363,378.6372,0,85,85,46,1,30,32,NA,NA,NA,NA,NA,1,86,"likert"
"BCE4703DBF7B42AF99C9BA9CC4800C66",1,"0198f77d-4a41-7efa-a5b1-66f95662a0cc","0198f768-e4d2-711c-944b-6f03c09216de","2025-08-29_15h21.00.249",NA,NA,381.9824,381.9824,381.9825,382.3355,NA,NA,NA,NA,NA,NA,NA,TRUE,5,0.7635,378.9878,381.9822,0,86,86,38,1,28,32,NA,NA,NA,NA,NA,1,87,"likert"
"BCE4703DBF7B42AF99C9BA9CC4800C66",1,"0198f77d-4a41-7efa-a5b1-66f95662a0cc","0198f768-e4d2-711c-944b-6f03c09216de","2025-08-29_15h21.00.249",NA,NA,385.3431,385.3431,385.3431,385.6954,NA,NA,NA,NA,NA,NA,NA,TRUE,5,0.3255,382.3368,385.3429,0,87,87,3,1,7,30,NA,NA,NA,NA,NA,1,88,"likert"
"BCE4703DBF7B42AF99C9BA9CC4800C66",1,"0198f77d-4a41-7efa-a5b1-66f95662a0cc","0198f768-e4d2-711c-944b-6f03c09216de","2025-08-29_15h21.00.249",NA,NA,388.6824,388.6825,388.6825,389.0304,NA,NA,NA,NA,NA,NA,NA,TRUE,5,0.4212,385.6965,388.6823,0,88,88,20,1,14,28,NA,NA,NA,NA,NA,1,89,"likert"
"BCE4703DBF7B42AF99C9BA9CC4800C66",1,"0198f77d-4a41-7efa-a5b1-66f95662a0cc","0198f768-e4d2-711c-944b-6f03c09216de","2025-08-29_15h21.00.249",NA,NA,392.0504,392.0504,392.0504,392.3991,NA,NA,NA,NA,NA,NA,NA,TRUE,5,0.4268,389.0317,392.0503,0,89,89,57,1,45,35,NA,NA,NA,NA,NA,1,90,"likert"
"BCE4703DBF7B42AF99C9BA9CC4800C66",1,"0198f77d-4a41-7efa-a5b1-66f95662a0cc","0198f768-e4d2-711c-944b-6f03c09216de","2025-08-29_15h21.00.249",NA,NA,395.4096,395.4097,395.4097,395.76,NA,NA,NA,NA,NA,NA,NA,TRUE,5,0.5286,392.4004,395.4095,0,90,90,7,1,10,26,NA,NA,NA,NA,NA,1,91,"likert"
"BCE4703DBF7B42AF99C9BA9CC4800C66",1,"0198f77d-4a41-7efa-a5b1-66f95662a0cc","0198f768-e4d2-711c-944b-6f03c09216de","2025-08-29_15h21.00.249",NA,NA,398.7291,398.7291,398.7291,399.1015,NA,NA,NA,NA,NA,NA,NA,TRUE,5,0.399,395.7612,398.729,0,91,91,29,1,21,38,NA,NA,NA,NA,NA,1,92,"likert"
"BCE4703DBF7B42AF99C9BA9CC4800C66",1,"0198f77d-4a41-7efa-a5b1-66f95662a0cc","0198f768-e4d2-711c-944b-6f03c09216de","2025-08-29_15h21.00.249",NA,NA,402.0927,402.0927,402.0927,402.4363,NA,NA,NA,NA,NA,NA,NA,TRUE,5,0.371,399.103,402.0927,0,92,92,5,1,7,35,NA,NA,NA,NA,NA,1,93,"likert"
"BCE4703DBF7B42AF99C9BA9CC4800C66",1,"0198f77d-4a41-7efa-a5b1-66f95662a0cc","0198f768-e4d2-711c-944b-6f03c09216de","2025-08-29_15h21.00.249",NA,NA,405.4435,405.4436,405.4436,405.7922,NA,NA,NA,NA,NA,NA,NA,TRUE,5,0.7086,402.4376,405.4434,0,93,93,69,1,60,40,NA,NA,NA,NA,NA,1,94,"likert"
"BCE4703DBF7B42AF99C9BA9CC4800C66",1,"0198f77d-4a41-7efa-a5b1-66f95662a0cc","0198f768-e4d2-711c-944b-6f03c09216de","2025-08-29_15h21.00.249",NA,NA,408.8021,408.8021,408.8021,409.1215,NA,NA,NA,NA,NA,NA,NA,TRUE,5,0.4487,405.793,408.8019,0,94,94,33,1,25,33,NA,NA,NA,NA,NA,1,95,"likert"
"BCE4703DBF7B42AF99C9BA9CC4800C66",1,"0198f77d-4a41-7efa-a5b1-66f95662a0cc","0198f768-e4d2-711c-944b-6f03c09216de","2025-08-29_15h21.00.249",NA,NA,412.1472,412.1472,412.1472,412.494,NA,NA,NA,NA,NA,NA,NA,TRUE,5,0.3327,409.1228,412.1471,0,95,95,19,1,14,26,NA,NA,NA,NA,NA,1,96,"likert"
"BCE4703DBF7B42AF99C9BA9CC4800C66",1,"0198f77d-4a41-7efa-a5b1-66f95662a0cc","0198f768-e4d2-711c-944b-6f03c09216de","2025-08-29_15h21.00.249",NA,NA,415.4963,415.4963,415.4963,415.8548,NA,NA,NA,NA,NA,NA,NA,TRUE,5,0.3091,412.4954,415.4962,0,96,96,6,1,10,25,NA,NA,NA,NA,NA,1,97,"likert"
"BCE4703DBF7B42AF99C9BA9CC4800C66",1,"0198f77d-4a41-7efa-a5b1-66f95662a0cc","0198f768-e4d2-711c-944b-6f03c09216de","2025-08-29_15h21.00.249",NA,NA,418.8372,418.8372,418.8372,419.1804,NA,NA,NA,NA,NA,NA,NA,TRUE,5,0.4671,415.8561,418.8371,0,97,97,63,1,50,40,NA,NA,NA,NA,NA,1,98,"likert"
"BCE4703DBF7B42AF99C9BA9CC4800C66",1,"0198f77d-4a41-7efa-a5b1-66f95662a0cc","0198f768-e4d2-711c-944b-6f03c09216de","2025-08-29_15h21.00.249",NA,NA,422.1984,422.1985,422.1985,422.5527,NA,NA,NA,NA,NA,NA,NA,TRUE,5,0.3412,419.1818,422.1983,0,98,98,78,1,95,31,NA,NA,NA,NA,NA,1,99,"likert"
"BCE4703DBF7B42AF99C9BA9CC4800C66",1,"0198f77d-4a41-7efa-a5b1-66f95662a0cc","0198f768-e4d2-711c-944b-6f03c09216de","2025-08-29_15h21.00.249",NA,NA,425.5397,425.5397,425.5397,425.8889,NA,NA,NA,NA,NA,NA,NA,TRUE,5,0.314,422.5538,425.5395,0,99,99,50,1,40,35,NA,NA,NA,NA,NA,1,100,"likert"
"BCE4703DBF7B42AF99C9BA9CC4800C66",1,"0198f77d-4a41-7efa-a5b1-66f95662a0cc","0198f768-e4d2-711c-944b-6f03c09216de","2025-08-29_15h21.00.249",NA,NA,428.8958,428.8958,428.8958,429.2398,NA,NA,NA,NA,NA,NA,NA,TRUE,5,0.3909,425.8902,428.8956,0,100,100,36,1,28,26,NA,NA,NA,NA,NA,1,101,"likert"
"BCE4703DBF7B42AF99C9BA9CC4800C66",1,"0198f77d-4a41-7efa-a5b1-66f95662a0cc","0198f768-e4d2-711c-944b-6f03c09216de","2025-08-29_15h21.00.249",NA,NA,432.2489,432.2492,432.2493,432.5953,NA,NA,NA,NA,NA,NA,NA,TRUE,5,0.4969,429.2412,432.2487,0,101,101,51,1,40,40,NA,NA,NA,NA,NA,1,102,"likert"
"BCE4703DBF7B42AF99C9BA9CC4800C66",1,"0198f77d-4a41-7efa-a5b1-66f95662a0cc","0198f768-e4d2-711c-944b-6f03c09216de","2025-08-29_15h21.00.249",NA,NA,435.5835,435.5835,435.5835,435.934,NA,NA,NA,NA,NA,NA,NA,TRUE,5,0.4916,432.5971,435.5834,0,102,102,101,1,180,54,NA,NA,NA,NA,NA,1,103,"likert"
"BCE4703DBF7B42AF99C9BA9CC4800C66",1,"0198f77d-4a41-7efa-a5b1-66f95662a0cc","0198f768-e4d2-711c-944b-6f03c09216de","2025-08-29_15h21.00.249",NA,NA,438.9449,438.945,438.945,439.2897,NA,NA,NA,NA,NA,NA,NA,TRUE,5,0.4153,435.9352,438.9448,0,103,103,98,1,180,35,NA,NA,NA,NA,NA,1,104,"likert"
"BCE4703DBF7B42AF99C9BA9CC4800C66",1,"0198f77d-4a41-7efa-a5b1-66f95662a0cc","0198f768-e4d2-711c-944b-6f03c09216de","2025-08-29_15h21.00.249",NA,NA,442.2969,442.2969,442.2969,442.6454,NA,NA,NA,NA,NA,NA,NA,TRUE,5,0.3656,439.291,442.2968,0,104,104,97,1,180,31,NA,NA,NA,NA,NA,1,105,"likert"
"BCE4703DBF7B42AF99C9BA9CC4800C66",1,"0198f77d-4a41-7efa-a5b1-66f95662a0cc","0198f768-e4d2-711c-944b-6f03c09216de","2025-08-29_15h21.00.249",NA,NA,445.6429,445.6429,445.643,445.9885,NA,NA,NA,NA,NA,NA,NA,TRUE,5,0.1565,442.647,445.6428,0,105,105,2,1,7,28,NA,NA,NA,NA,NA,1,106,"likert"
"BCE4703DBF7B42AF99C9BA9CC4800C66",1,"0198f77d-4a41-7efa-a5b1-66f95662a0cc","0198f768-e4d2-711c-944b-6f03c09216de","2025-08-29_15h21.00.249",NA,NA,449.0026,449.0026,449.0026,449.3407,NA,NA,NA,NA,NA,NA,NA,TRUE,5,0.5494,445.9898,449.0024,0,106,106,100,1,180,46,NA,NA,NA,NA,NA,1,107,"likert"
"BCE4703DBF7B42AF99C9BA9CC4800C66",1,"0198f77d-4a41-7efa-a5b1-66f95662a0cc","0198f768-e4d2-711c-944b-6f03c09216de","2025-08-29_15h21.00.249",NA,NA,452.3274,452.3274,452.3274,452.7016,NA,NA,NA,NA,NA,NA,NA,TRUE,5,0.4204,449.3418,452.3273,0,107,107,107,1,200,54,NA,NA,NA,NA,NA,1,108,"likert"
"BCE4703DBF7B42AF99C9BA9CC4800C66",1,"0198f77d-4a41-7efa-a5b1-66f95662a0cc","0198f768-e4d2-711c-944b-6f03c09216de","2025-08-29_15h21.00.249",NA,NA,460.258,460.2581,460.2581,460.5974,NA,NA,NA,NA,NA,NA,NA,TRUE,5,1.3654,457.2765,460.2577,NA,NA,NA,NA,NA,200,26,0,0,0,102,1,2,1,"likert"
"BCE4703DBF7B42AF99C9BA9CC4800C66",1,"0198f77d-4a41-7efa-a5b1-66f95662a0cc","0198f768-e4d2-711c-944b-6f03c09216de","2025-08-29_15h21.00.249",NA,NA,463.6032,463.6035,463.6035,463.9489,NA,NA,NA,NA,NA,NA,NA,TRUE,5,0.3441,460.5987,463.6031,NA,NA,NA,NA,NA,60,47,0,1,1,70,1,2,2,"likert"
"BCE4703DBF7B42AF99C9BA9CC4800C66",1,"0198f77d-4a41-7efa-a5b1-66f95662a0cc","0198f768-e4d2-711c-944b-6f03c09216de","2025-08-29_15h21.00.249",NA,NA,466.9487,466.9487,466.9487,467.2894,NA,NA,NA,NA,NA,NA,NA,TRUE,5,0.6484,463.9504,466.9485,NA,NA,NA,NA,NA,14,32,0,2,2,21,1,2,3,"likert"
"BCE4703DBF7B42AF99C9BA9CC4800C66",1,"0198f77d-4a41-7efa-a5b1-66f95662a0cc","0198f768-e4d2-711c-944b-6f03c09216de","2025-08-29_15h21.00.249",NA,NA,470.2949,470.2949,470.2949,470.6622,NA,NA,NA,NA,NA,NA,NA,TRUE,4,1.2476,467.291,470.2948,NA,NA,NA,NA,NA,30,26,0,3,3,42,1,2,4,"likert"
"BCE4703DBF7B42AF99C9BA9CC4800C66",1,"0198f77d-4a41-7efa-a5b1-66f95662a0cc","0198f768-e4d2-711c-944b-6f03c09216de","2025-08-29_15h21.00.249",NA,NA,473.6432,473.6432,473.6432,474.0129,NA,NA,NA,NA,NA,NA,NA,TRUE,5,0.439,470.6635,473.6431,NA,NA,NA,NA,NA,30,38,0,4,4,47,1,2,5,"likert"
"BCE4703DBF7B42AF99C9BA9CC4800C66",1,"0198f77d-4a41-7efa-a5b1-66f95662a0cc","0198f768-e4d2-711c-944b-6f03c09216de","2025-08-29_15h21.00.249",NA,NA,477.0048,477.0048,477.0048,477.3461,NA,NA,NA,NA,NA,NA,NA,TRUE,5,0.462,474.0141,477.0044,NA,NA,NA,NA,NA,21,38,0,5,5,29,1,2,6,"likert"
"BCE4703DBF7B42AF99C9BA9CC4800C66",1,"0198f77d-4a41-7efa-a5b1-66f95662a0cc","0198f768-e4d2-711c-944b-6f03c09216de","2025-08-29_15h21.00.249",NA,NA,480.3401,480.3402,480.3402,480.7127,NA,NA,NA,NA,NA,NA,NA,TRUE,4,1.905,477.3473,480.3399,NA,NA,NA,NA,NA,100,26,0,6,6,84,1,2,7,"likert"
"BCE4703DBF7B42AF99C9BA9CC4800C66",1,"0198f77d-4a41-7efa-a5b1-66f95662a0cc","0198f768-e4d2-711c-944b-6f03c09216de","2025-08-29_15h21.00.249",NA,NA,483.6956,483.6956,483.6957,484.0386,NA,NA,NA,NA,NA,NA,NA,TRUE,5,0.4446,480.7142,483.6955,NA,NA,NA,NA,NA,100,46,0,7,7,88,1,2,8,"likert"
"BCE4703DBF7B42AF99C9BA9CC4800C66",1,"0198f77d-4a41-7efa-a5b1-66f95662a0cc","0198f768-e4d2-711c-944b-6f03c09216de","2025-08-29_15h21.00.249",NA,NA,487.0616,487.0617,487.0617,487.4023,NA,NA,NA,NA,NA,NA,NA,TRUE,5,0.3576,484.04,487.0614,NA,NA,NA,NA,NA,50,46,0,8,8,64,1,2,9,"likert"
"BCE4703DBF7B42AF99C9BA9CC4800C66",1,"0198f77d-4a41-7efa-a5b1-66f95662a0cc","0198f768-e4d2-711c-944b-6f03c09216de","2025-08-29_15h21.00.249",NA,NA,490.4122,490.4122,490.4122,490.7439,NA,NA,NA,NA,NA,NA,NA,TRUE,5,0.6018,487.4033,490.412,NA,NA,NA,NA,NA,21,32,0,9,9,28,1,2,10,"likert"
"BCE4703DBF7B42AF99C9BA9CC4800C66",1,"0198f77d-4a41-7efa-a5b1-66f95662a0cc","0198f768-e4d2-711c-944b-6f03c09216de","2025-08-29_15h21.00.249",NA,NA,493.7526,493.7528,493.7528,494.1078,NA,NA,NA,NA,NA,NA,NA,TRUE,5,0.9984,490.745,493.7526,NA,NA,NA,NA,NA,12,26,0,10,10,13,1,2,11,"likert"
"BCE4703DBF7B42AF99C9BA9CC4800C66",1,"0198f77d-4a41-7efa-a5b1-66f95662a0cc","0198f768-e4d2-711c-944b-6f03c09216de","2025-08-29_15h21.00.249",NA,NA,497.1144,497.1145,497.1145,497.4568,NA,NA,NA,NA,NA,NA,NA,TRUE,5,1.4392,494.1088,497.1143,NA,NA,NA,NA,NA,10,26,0,11,11,7,1,2,12,"likert"
"BCE4703DBF7B42AF99C9BA9CC4800C66",1,"0198f77d-4a41-7efa-a5b1-66f95662a0cc","0198f768-e4d2-711c-944b-6f03c09216de","2025-08-29_15h21.00.249",NA,NA,500.4438,500.4438,500.4438,500.8231,NA,NA,NA,NA,NA,NA,NA,TRUE,5,0.658,497.4577,500.4436,NA,NA,NA,NA,NA,150,35,0,12,12,92,1,2,13,"likert"
"BCE4703DBF7B42AF99C9BA9CC4800C66",1,"0198f77d-4a41-7efa-a5b1-66f95662a0cc","0198f768-e4d2-711c-944b-6f03c09216de","2025-08-29_15h21.00.249",NA,NA,503.8142,503.8144,503.8144,504.1557,NA,NA,NA,NA,NA,NA,NA,TRUE,5,0.4291,500.8242,503.8131,NA,NA,NA,NA,NA,12,31,0,13,13,15,1,2,14,"likert"
"BCE4703DBF7B42AF99C9BA9CC4800C66",1,"0198f77d-4a41-7efa-a5b1-66f95662a0cc","0198f768-e4d2-711c-944b-6f03c09216de","2025-08-29_15h21.00.249",NA,NA,507.1403,507.1404,507.1404,507.5073,NA,NA,NA,NA,NA,NA,NA,TRUE,5,0.4243,504.157,507.1402,NA,NA,NA,NA,NA,10,32,0,14,14,11,1,2,15,"likert"
"BCE4703DBF7B42AF99C9BA9CC4800C66",1,"0198f77d-4a41-7efa-a5b1-66f95662a0cc","0198f768-e4d2-711c-944b-6f03c09216de","2025-08-29_15h21.00.249",NA,NA,510.5176,510.5176,510.5177,510.8627,NA,NA,NA,NA,NA,NA,NA,TRUE,5,0.4423,507.5086,510.5175,NA,NA,NA,NA,NA,10,25,0,15,15,6,1,2,16,"likert"
"BCE4703DBF7B42AF99C9BA9CC4800C66",1,"0198f77d-4a41-7efa-a5b1-66f95662a0cc","0198f768-e4d2-711c-944b-6f03c09216de","2025-08-29_15h21.00.249",NA,NA,513.85,513.8501,513.8501,514.1978,NA,NA,NA,NA,NA,NA,NA,TRUE,5,0.7286,510.8638,513.8499,NA,NA,NA,NA,NA,21,27,0,16,16,25,1,2,17,"likert"
"BCE4703DBF7B42AF99C9BA9CC4800C66",1,"0198f77d-4a41-7efa-a5b1-66f95662a0cc","0198f768-e4d2-711c-944b-6f03c09216de","2025-08-29_15h21.00.249",NA,NA,517.2109,517.211,517.211,517.5532,NA,NA,NA,NA,NA,NA,NA,TRUE,5,1.5419,514.1989,517.2108,NA,NA,NA,NA,NA,28,26,0,17,17,36,1,2,18,"likert"
"BCE4703DBF7B42AF99C9BA9CC4800C66",1,"0198f77d-4a41-7efa-a5b1-66f95662a0cc","0198f768-e4d2-711c-944b-6f03c09216de","2025-08-29_15h21.00.249",NA,NA,520.5443,520.5443,520.5443,520.913,NA,NA,NA,NA,NA,NA,NA,TRUE,5,2.4571,517.5543,520.5442,NA,NA,NA,NA,NA,7,25,0,18,18,0,1,2,19,"likert"
"BCE4703DBF7B42AF99C9BA9CC4800C66",1,"0198f77d-4a41-7efa-a5b1-66f95662a0cc","0198f768-e4d2-711c-944b-6f03c09216de","2025-08-29_15h21.00.249",NA,NA,523.9095,523.9095,523.9096,524.25,NA,NA,NA,NA,NA,NA,NA,TRUE,5,0.6293,520.9142,523.9094,NA,NA,NA,NA,NA,100,38,0,19,19,86,1,2,20,"likert"
"BCE4703DBF7B42AF99C9BA9CC4800C66",1,"0198f77d-4a41-7efa-a5b1-66f95662a0cc","0198f768-e4d2-711c-944b-6f03c09216de","2025-08-29_15h21.00.249",NA,NA,527.2615,527.2615,527.2616,527.6102,NA,NA,NA,NA,NA,NA,NA,TRUE,5,0.6305,524.2512,527.2614,NA,NA,NA,NA,NA,45,29,0,20,20,55,1,2,21,"likert"
"BCE4703DBF7B42AF99C9BA9CC4800C66",1,"0198f77d-4a41-7efa-a5b1-66f95662a0cc","0198f768-e4d2-711c-944b-6f03c09216de","2025-08-29_15h21.00.249",NA,NA,530.5893,530.5893,530.5893,530.9551,NA,NA,NA,NA,NA,NA,NA,TRUE,5,0.8352,527.6114,530.5891,NA,NA,NA,NA,NA,30,32,0,21,21,46,1,2,22,"likert"
"BCE4703DBF7B42AF99C9BA9CC4800C66",1,"0198f77d-4a41-7efa-a5b1-66f95662a0cc","0198f768-e4d2-711c-944b-6f03c09216de","2025-08-29_15h21.00.249",NA,NA,533.9482,533.9482,533.9482,534.3087,NA,NA,NA,NA,NA,NA,NA,TRUE,5,1.2245,530.9564,533.948,NA,NA,NA,NA,NA,60,35,0,22,22,68,1,2,23,"likert"
"BCE4703DBF7B42AF99C9BA9CC4800C66",1,"0198f77d-4a41-7efa-a5b1-66f95662a0cc","0198f768-e4d2-711c-944b-6f03c09216de","2025-08-29_15h21.00.249",NA,NA,537.3058,537.3058,537.3059,537.6458,NA,NA,NA,NA,NA,NA,NA,TRUE,5,1.1727,534.3101,537.3057,NA,NA,NA,NA,NA,25,27,0,23,23,30,1,2,24,"likert"
"BCE4703DBF7B42AF99C9BA9CC4800C66",1,"0198f77d-4a41-7efa-a5b1-66f95662a0cc","0198f768-e4d2-711c-944b-6f03c09216de","2025-08-29_15h21.00.249",NA,NA,540.6487,540.6488,540.6488,541.013,NA,NA,NA,NA,NA,NA,NA,TRUE,5,0.6503,537.6469,540.6486,NA,NA,NA,NA,NA,50,27,0,24,24,60,1,2,25,"likert"
"BCE4703DBF7B42AF99C9BA9CC4800C66",1,"0198f77d-4a41-7efa-a5b1-66f95662a0cc","0198f768-e4d2-711c-944b-6f03c09216de","2025-08-29_15h21.00.249",NA,NA,543.9804,543.9805,543.9805,544.3631,NA,NA,NA,NA,NA,NA,NA,TRUE,5,0.5412,541.0143,543.9802,NA,NA,NA,NA,NA,25,46,0,25,25,35,1,2,26,"likert"
"BCE4703DBF7B42AF99C9BA9CC4800C66",1,"0198f77d-4a41-7efa-a5b1-66f95662a0cc","0198f768-e4d2-711c-944b-6f03c09216de","2025-08-29_15h21.00.249",NA,NA,547.3601,547.3601,547.3601,547.699,NA,NA,NA,NA,NA,NA,NA,TRUE,5,0.4387,544.3643,547.36,NA,NA,NA,NA,NA,90,30,0,26,26,73,1,2,27,"likert"
"BCE4703DBF7B42AF99C9BA9CC4800C66",1,"0198f77d-4a41-7efa-a5b1-66f95662a0cc","0198f768-e4d2-711c-944b-6f03c09216de","2025-08-29_15h21.00.249",NA,NA,550.6986,550.6986,550.6986,551.0706,NA,NA,NA,NA,NA,NA,NA,TRUE,5,0.6274,547.7001,550.6984,NA,NA,NA,NA,NA,150,33,0,27,27,91,1,2,28,"likert"
"BCE4703DBF7B42AF99C9BA9CC4800C66",1,"0198f77d-4a41-7efa-a5b1-66f95662a0cc","0198f768-e4d2-711c-944b-6f03c09216de","2025-08-29_15h21.00.249",NA,NA,554.0521,554.0521,554.0522,554.3904,NA,NA,NA,NA,NA,NA,NA,TRUE,5,0.8595,551.0719,554.052,NA,NA,NA,NA,NA,45,35,0,28,28,57,1,2,29,"likert"
"BCE4703DBF7B42AF99C9BA9CC4800C66",1,"0198f77d-4a41-7efa-a5b1-66f95662a0cc","0198f768-e4d2-711c-944b-6f03c09216de","2025-08-29_15h21.00.249",NA,NA,557.4082,557.4082,557.4083,557.7522,NA,NA,NA,NA,NA,NA,NA,TRUE,5,0.6519,554.3914,557.4082,NA,NA,NA,NA,NA,180,35,0,29,29,98,1,2,30,"likert"
"BCE4703DBF7B42AF99C9BA9CC4800C66",1,"0198f77d-4a41-7efa-a5b1-66f95662a0cc","0198f768-e4d2-711c-944b-6f03c09216de","2025-08-29_15h21.00.249",NA,NA,560.7577,560.7577,560.7577,561.1042,NA,NA,NA,NA,NA,NA,NA,TRUE,5,0.598,557.7533,560.7575,NA,NA,NA,NA,NA,50,35,0,30,30,62,1,2,31,"likert"
"BCE4703DBF7B42AF99C9BA9CC4800C66",1,"0198f77d-4a41-7efa-a5b1-66f95662a0cc","0198f768-e4d2-711c-944b-6f03c09216de","2025-08-29_15h21.00.249",NA,NA,564.1136,564.1136,564.1136,564.4618,NA,NA,NA,NA,NA,NA,NA,TRUE,5,0.4768,561.1054,564.1134,NA,NA,NA,NA,NA,25,33,0,31,31,33,1,2,32,"likert"
"BCE4703DBF7B42AF99C9BA9CC4800C66",1,"0198f77d-4a41-7efa-a5b1-66f95662a0cc","0198f768-e4d2-711c-944b-6f03c09216de","2025-08-29_15h21.00.249",NA,NA,567.4526,567.4527,567.4528,567.8132,NA,NA,NA,NA,NA,NA,NA,TRUE,5,0.8568,564.4632,567.4525,NA,NA,NA,NA,NA,50,54,0,32,32,65,1,2,33,"likert"
"BCE4703DBF7B42AF99C9BA9CC4800C66",1,"0198f77d-4a41-7efa-a5b1-66f95662a0cc","0198f768-e4d2-711c-944b-6f03c09216de","2025-08-29_15h21.00.249",NA,NA,570.8011,570.8011,570.8011,571.146,NA,NA,NA,NA,NA,NA,NA,TRUE,5,0.8049,567.8144,570.8009,NA,NA,NA,NA,NA,25,29,0,33,33,31,1,2,34,"likert"
"BCE4703DBF7B42AF99C9BA9CC4800C66",1,"0198f77d-4a41-7efa-a5b1-66f95662a0cc","0198f768-e4d2-711c-944b-6f03c09216de","2025-08-29_15h21.00.249",NA,NA,574.142,574.142,574.142,574.5118,NA,NA,NA,NA,NA,NA,NA,TRUE,5,0.8244,571.1473,574.1417,NA,NA,NA,NA,NA,14,39,0,34,34,23,1,2,35,"likert"
"BCE4703DBF7B42AF99C9BA9CC4800C66",1,"0198f77d-4a41-7efa-a5b1-66f95662a0cc","0198f768-e4d2-711c-944b-6f03c09216de","2025-08-29_15h21.00.249",NA,NA,577.4973,577.4973,577.4973,577.8608,NA,NA,NA,NA,NA,NA,NA,TRUE,5,0.5398,574.5133,577.4971,NA,NA,NA,NA,NA,21,30,0,35,35,27,1,2,36,"likert"
"BCE4703DBF7B42AF99C9BA9CC4800C66",1,"0198f77d-4a41-7efa-a5b1-66f95662a0cc","0198f768-e4d2-711c-944b-6f03c09216de","2025-08-29_15h21.00.249",NA,NA,580.8482,580.8482,580.8482,581.1942,NA,NA,NA,NA,NA,NA,NA,TRUE,5,0.6926,577.8622,580.8481,NA,NA,NA,NA,NA,200,35,0,36,36,104,1,2,37,"likert"
"BCE4703DBF7B42AF99C9BA9CC4800C66",1,"0198f77d-4a41-7efa-a5b1-66f95662a0cc","0198f768-e4d2-711c-944b-6f03c09216de","2025-08-29_15h21.00.249",NA,NA,584.192,584.4516,584.4517,584.5299,NA,NA,NA,NA,NA,NA,NA,FALSE,NA,NA,581.1954,584.1918,NA,NA,NA,NA,NA,10,30,0,37,37,10,1,2,38,"likert"
"BCE4703DBF7B42AF99C9BA9CC4800C66",1,"0198f77d-4a41-7efa-a5b1-66f95662a0cc","0198f768-e4d2-711c-944b-6f03c09216de","2025-08-29_15h21.00.249",NA,NA,587.5481,587.5481,587.5482,587.8936,NA,NA,NA,NA,NA,NA,NA,TRUE,5,1.003,584.5309,587.548,NA,NA,NA,NA,NA,12,33,0,38,38,16,1,2,39,"likert"
"BCE4703DBF7B42AF99C9BA9CC4800C66",1,"0198f77d-4a41-7efa-a5b1-66f95662a0cc","0198f768-e4d2-711c-944b-6f03c09216de","2025-08-29_15h21.00.249",NA,NA,590.907,590.907,590.907,591.2439,NA,NA,NA,NA,NA,NA,NA,TRUE,5,0.6162,587.895,590.9069,NA,NA,NA,NA,NA,30,30,0,39,39,45,1,2,40,"likert"
"BCE4703DBF7B42AF99C9BA9CC4800C66",1,"0198f77d-4a41-7efa-a5b1-66f95662a0cc","0198f768-e4d2-711c-944b-6f03c09216de","2025-08-29_15h21.00.249",NA,NA,594.2425,594.2425,594.2425,594.6037,NA,NA,NA,NA,NA,NA,NA,TRUE,5,0.3883,591.2451,594.2423,NA,NA,NA,NA,NA,60,54,0,40,40,71,1,2,41,"likert"
"BCE4703DBF7B42AF99C9BA9CC4800C66",1,"0198f77d-4a41-7efa-a5b1-66f95662a0cc","0198f768-e4d2-711c-944b-6f03c09216de","2025-08-29_15h21.00.249",NA,NA,597.5985,597.5986,597.5986,597.9647,NA,NA,NA,NA,NA,NA,NA,TRUE,5,0.359,594.6051,597.5984,NA,NA,NA,NA,NA,200,39,0,41,41,105,1,2,42,"likert"
"BCE4703DBF7B42AF99C9BA9CC4800C66",1,"0198f77d-4a41-7efa-a5b1-66f95662a0cc","0198f768-e4d2-711c-944b-6f03c09216de","2025-08-29_15h21.00.249",NA,NA,600.9406,600.9406,600.9406,601.3011,NA,NA,NA,NA,NA,NA,NA,TRUE,5,0.3859,597.9664,600.9404,NA,NA,NA,NA,NA,90,46,0,42,42,76,1,2,43,"likert"
"BCE4703DBF7B42AF99C9BA9CC4800C66",1,"0198f77d-4a41-7efa-a5b1-66f95662a0cc","0198f768-e4d2-711c-944b-6f03c09216de","2025-08-29_15h21.00.249",NA,NA,604.2986,604.2986,604.2986,604.6358,NA,NA,NA,NA,NA,NA,NA,TRUE,5,0.3371,601.3023,604.2984,NA,NA,NA,NA,NA,180,54,0,43,43,101,1,2,44,"likert"
"BCE4703DBF7B42AF99C9BA9CC4800C66",1,"0198f77d-4a41-7efa-a5b1-66f95662a0cc","0198f768-e4d2-711c-944b-6f03c09216de","2025-08-29_15h21.00.249",NA,NA,607.6439,607.6439,607.6439,608.0044,NA,NA,NA,NA,NA,NA,NA,TRUE,5,0.5126,604.6369,607.6437,NA,NA,NA,NA,NA,40,54,0,44,44,53,1,2,45,"likert"
"BCE4703DBF7B42AF99C9BA9CC4800C66",1,"0198f77d-4a41-7efa-a5b1-66f95662a0cc","0198f768-e4d2-711c-944b-6f03c09216de","2025-08-29_15h21.00.249",NA,NA,611.0124,611.0124,611.0125,611.346,NA,NA,NA,NA,NA,NA,NA,TRUE,5,0.4084,608.0055,611.0123,NA,NA,NA,NA,NA,7,35,0,45,45,5,1,2,46,"likert"
"BCE4703DBF7B42AF99C9BA9CC4800C66",1,"0198f77d-4a41-7efa-a5b1-66f95662a0cc","0198f768-e4d2-711c-944b-6f03c09216de","2025-08-29_15h21.00.249",NA,NA,614.3332,614.3332,614.3332,614.7049,NA,NA,NA,NA,NA,NA,NA,TRUE,5,0.3814,611.3472,614.3331,NA,NA,NA,NA,NA,12,35,0,46,46,17,1,2,47,"likert"
"BCE4703DBF7B42AF99C9BA9CC4800C66",1,"0198f77d-4a41-7efa-a5b1-66f95662a0cc","0198f768-e4d2-711c-944b-6f03c09216de","2025-08-29_15h21.00.249",NA,NA,617.714,617.7141,617.7141,618.0516,NA,NA,NA,NA,NA,NA,NA,TRUE,5,0.5944,614.7062,617.714,NA,NA,NA,NA,NA,14,26,0,47,47,19,1,2,48,"likert"
"BCE4703DBF7B42AF99C9BA9CC4800C66",1,"0198f77d-4a41-7efa-a5b1-66f95662a0cc","0198f768-e4d2-711c-944b-6f03c09216de","2025-08-29_15h21.00.249",NA,NA,621.0494,621.0495,621.0495,621.412,NA,NA,NA,NA,NA,NA,NA,TRUE,5,0.6498,618.0529,621.0493,NA,NA,NA,NA,NA,40,33,0,48,48,49,1,2,49,"likert"
"BCE4703DBF7B42AF99C9BA9CC4800C66",1,"0198f77d-4a41-7efa-a5b1-66f95662a0cc","0198f768-e4d2-711c-944b-6f03c09216de","2025-08-29_15h21.00.249",NA,NA,624.3897,624.3897,624.3897,624.752,NA,NA,NA,NA,NA,NA,NA,TRUE,5,0.7305,621.4137,624.3895,NA,NA,NA,NA,NA,25,31,0,49,49,32,1,2,50,"likert"
"BCE4703DBF7B42AF99C9BA9CC4800C66",1,"0198f77d-4a41-7efa-a5b1-66f95662a0cc","0198f768-e4d2-711c-944b-6f03c09216de","2025-08-29_15h21.00.249",NA,NA,627.7597,627.7598,627.7598,628.1076,NA,NA,NA,NA,NA,NA,NA,TRUE,5,0.9028,624.7535,627.7596,NA,NA,NA,NA,NA,200,54,0,50,50,107,1,2,51,"likert"
"BCE4703DBF7B42AF99C9BA9CC4800C66",1,"0198f77d-4a41-7efa-a5b1-66f95662a0cc","0198f768-e4d2-711c-944b-6f03c09216de","2025-08-29_15h21.00.249",NA,NA,631.1127,631.1128,631.1128,631.4508,NA,NA,NA,NA,NA,NA,NA,TRUE,5,0.6935,628.1093,631.1125,NA,NA,NA,NA,NA,12,28,0,51,51,14,1,2,52,"likert"
"BCE4703DBF7B42AF99C9BA9CC4800C66",1,"0198f77d-4a41-7efa-a5b1-66f95662a0cc","0198f768-e4d2-711c-944b-6f03c09216de","2025-08-29_15h21.00.249",NA,NA,634.444,634.444,634.444,634.8051,NA,NA,NA,NA,NA,NA,NA,TRUE,5,0.6942,631.452,634.4438,NA,NA,NA,NA,NA,90,26,0,52,52,72,1,2,53,"likert"
"BCE4703DBF7B42AF99C9BA9CC4800C66",1,"0198f77d-4a41-7efa-a5b1-66f95662a0cc","0198f768-e4d2-711c-944b-6f03c09216de","2025-08-29_15h21.00.249",NA,NA,637.8072,637.8073,637.8073,638.1457,NA,NA,NA,NA,NA,NA,NA,TRUE,5,0.515,634.8063,637.8071,NA,NA,NA,NA,NA,180,39,0,53,53,99,1,2,54,"likert"
"BCE4703DBF7B42AF99C9BA9CC4800C66",1,"0198f77d-4a41-7efa-a5b1-66f95662a0cc","0198f768-e4d2-711c-944b-6f03c09216de","2025-08-29_15h21.00.249",NA,NA,641.1624,641.1624,641.1624,641.5053,NA,NA,NA,NA,NA,NA,NA,TRUE,5,0.9017,638.1469,641.1622,NA,NA,NA,NA,NA,60,29,0,54,54,66,1,2,55,"likert"
"BCE4703DBF7B42AF99C9BA9CC4800C66",1,"0198f77d-4a41-7efa-a5b1-66f95662a0cc","0198f768-e4d2-711c-944b-6f03c09216de","2025-08-29_15h21.00.249",NA,NA,644.4952,644.4953,644.4953,644.8602,NA,NA,NA,NA,NA,NA,NA,TRUE,5,0.9825,641.5065,644.4951,NA,NA,NA,NA,NA,28,32,0,55,55,38,1,2,56,"likert"
"BCE4703DBF7B42AF99C9BA9CC4800C66",1,"0198f77d-4a41-7efa-a5b1-66f95662a0cc","0198f768-e4d2-711c-944b-6f03c09216de","2025-08-29_15h21.00.249",NA,NA,647.8467,647.8467,647.8467,648.1898,NA,NA,NA,NA,NA,NA,NA,TRUE,5,0.6876,644.8616,647.8465,NA,NA,NA,NA,NA,180,31,0,56,56,97,1,2,57,"likert"
"BCE4703DBF7B42AF99C9BA9CC4800C66",1,"0198f77d-4a41-7efa-a5b1-66f95662a0cc","0198f768-e4d2-711c-944b-6f03c09216de","2025-08-29_15h21.00.249",NA,NA,651.1966,651.1966,651.1966,651.5577,NA,NA,NA,NA,NA,NA,NA,TRUE,5,0.5443,648.191,651.1964,NA,NA,NA,NA,NA,150,40,0,57,57,93,1,2,58,"likert"
"BCE4703DBF7B42AF99C9BA9CC4800C66",1,"0198f77d-4a41-7efa-a5b1-66f95662a0cc","0198f768-e4d2-711c-944b-6f03c09216de","2025-08-29_15h21.00.249",NA,NA,654.544,654.5441,654.5442,654.9104,NA,NA,NA,NA,NA,NA,NA,TRUE,5,0.4403,651.5588,654.544,NA,NA,NA,NA,NA,40,40,0,58,58,51,1,2,59,"likert"
"BCE4703DBF7B42AF99C9BA9CC4800C66",1,"0198f77d-4a41-7efa-a5b1-66f95662a0cc","0198f768-e4d2-711c-944b-6f03c09216de","2025-08-29_15h21.00.249",NA,NA,657.9083,657.9083,657.9084,658.2539,NA,NA,NA,NA,NA,NA,NA,TRUE,5,0.4396,654.9116,657.9083,NA,NA,NA,NA,NA,7,28,0,59,59,2,1,2,60,"likert"
"BCE4703DBF7B42AF99C9BA9CC4800C66",1,"0198f77d-4a41-7efa-a5b1-66f95662a0cc","0198f768-e4d2-711c-944b-6f03c09216de","2025-08-29_15h21.00.249",NA,NA,661.2291,661.2291,661.2291,661.5922,NA,NA,NA,NA,NA,NA,NA,TRUE,5,0.6715,658.2551,661.2289,NA,NA,NA,NA,NA,45,40,0,60,60,58,1,2,61,"likert"
"BCE4703DBF7B42AF99C9BA9CC4800C66",1,"0198f77d-4a41-7efa-a5b1-66f95662a0cc","0198f768-e4d2-711c-944b-6f03c09216de","2025-08-29_15h21.00.249",NA,NA,664.6052,664.6052,664.6052,664.9444,NA,NA,NA,NA,NA,NA,NA,TRUE,5,0.437,661.5935,664.605,NA,NA,NA,NA,NA,95,54,0,61,61,83,1,2,62,"likert"
"BCE4703DBF7B42AF99C9BA9CC4800C66",1,"0198f77d-4a41-7efa-a5b1-66f95662a0cc","0198f768-e4d2-711c-944b-6f03c09216de","2025-08-29_15h21.00.249",NA,NA,667.9669,667.967,667.967,668.3044,NA,NA,NA,NA,NA,NA,NA,TRUE,5,0.308,664.9459,667.9667,NA,NA,NA,NA,NA,45,31,0,62,62,56,1,2,63,"likert"
"BCE4703DBF7B42AF99C9BA9CC4800C66",1,"0198f77d-4a41-7efa-a5b1-66f95662a0cc","0198f768-e4d2-711c-944b-6f03c09216de","2025-08-29_15h21.00.249",NA,NA,671.2911,671.2911,671.2911,671.6293,NA,NA,NA,NA,NA,NA,NA,TRUE,5,0.3837,668.3056,671.2909,NA,NA,NA,NA,NA,40,47,0,63,63,52,1,2,64,"likert"
"BCE4703DBF7B42AF99C9BA9CC4800C66",1,"0198f77d-4a41-7efa-a5b1-66f95662a0cc","0198f768-e4d2-711c-944b-6f03c09216de","2025-08-29_15h21.00.249",NA,NA,674.6441,674.6442,674.6442,675.0139,NA,NA,NA,NA,NA,NA,NA,TRUE,5,0.5942,671.6305,674.6441,NA,NA,NA,NA,NA,14,35,0,64,64,22,1,2,65,"likert"
"BCE4703DBF7B42AF99C9BA9CC4800C66",1,"0198f77d-4a41-7efa-a5b1-66f95662a0cc","0198f768-e4d2-711c-944b-6f03c09216de","2025-08-29_15h21.00.249",NA,NA,677.996,677.996,677.996,678.3629,NA,NA,NA,NA,NA,NA,NA,TRUE,5,0.411,675.0155,677.9959,NA,NA,NA,NA,NA,28,28,0,65,65,37,1,2,66,"likert"
"BCE4703DBF7B42AF99C9BA9CC4800C66",1,"0198f77d-4a41-7efa-a5b1-66f95662a0cc","0198f768-e4d2-711c-944b-6f03c09216de","2025-08-29_15h21.00.249",NA,NA,681.3618,681.3619,681.3619,681.6962,NA,NA,NA,NA,NA,NA,NA,TRUE,5,0.7239,678.3642,681.3617,NA,NA,NA,NA,NA,30,27,0,66,66,43,1,2,67,"likert"
"BCE4703DBF7B42AF99C9BA9CC4800C66",1,"0198f77d-4a41-7efa-a5b1-66f95662a0cc","0198f768-e4d2-711c-944b-6f03c09216de","2025-08-29_15h21.00.249",NA,NA,684.7031,684.7031,684.7031,685.0457,NA,NA,NA,NA,NA,NA,NA,TRUE,5,0.8684,681.6974,684.703,NA,NA,NA,NA,NA,150,54,0,67,67,95,1,2,68,"likert"
"BCE4703DBF7B42AF99C9BA9CC4800C66",1,"0198f77d-4a41-7efa-a5b1-66f95662a0cc","0198f768-e4d2-711c-944b-6f03c09216de","2025-08-29_15h21.00.249",NA,NA,688.0448,688.0448,688.0448,688.3911,NA,NA,NA,NA,NA,NA,NA,TRUE,5,0.4383,685.0468,688.0446,NA,NA,NA,NA,NA,60,33,0,68,68,67,1,2,69,"likert"
"BCE4703DBF7B42AF99C9BA9CC4800C66",1,"0198f77d-4a41-7efa-a5b1-66f95662a0cc","0198f768-e4d2-711c-944b-6f03c09216de","2025-08-29_15h21.00.249",NA,NA,691.4098,691.4099,691.4099,691.7443,NA,NA,NA,NA,NA,NA,NA,TRUE,5,0.7832,688.3928,691.4097,NA,NA,NA,NA,NA,90,33,0,69,69,74,1,2,70,"likert"
"BCE4703DBF7B42AF99C9BA9CC4800C66",1,"0198f77d-4a41-7efa-a5b1-66f95662a0cc","0198f768-e4d2-711c-944b-6f03c09216de","2025-08-29_15h21.00.249",NA,NA,694.7459,694.7459,694.7459,695.1094,NA,NA,NA,NA,NA,NA,NA,TRUE,5,0.2818,691.7454,694.7458,NA,NA,NA,NA,NA,180,46,0,70,70,100,1,2,71,"likert"
"BCE4703DBF7B42AF99C9BA9CC4800C66",1,"0198f77d-4a41-7efa-a5b1-66f95662a0cc","0198f768-e4d2-711c-944b-6f03c09216de","2025-08-29_15h21.00.249",NA,NA,698.1095,698.1095,698.1095,698.4458,NA,NA,NA,NA,NA,NA,NA,TRUE,5,0.386,695.1108,698.1094,NA,NA,NA,NA,NA,45,46,0,71,71,59,1,2,72,"likert"
"BCE4703DBF7B42AF99C9BA9CC4800C66",1,"0198f77d-4a41-7efa-a5b1-66f95662a0cc","0198f768-e4d2-711c-944b-6f03c09216de","2025-08-29_15h21.00.249",NA,NA,701.4433,701.4434,701.4434,701.8048,NA,NA,NA,NA,NA,NA,NA,TRUE,5,0.4666,698.4469,701.4432,NA,NA,NA,NA,NA,150,31,0,72,72,90,1,2,73,"likert"
"BCE4703DBF7B42AF99C9BA9CC4800C66",1,"0198f77d-4a41-7efa-a5b1-66f95662a0cc","0198f768-e4d2-711c-944b-6f03c09216de","2025-08-29_15h21.00.249",NA,NA,704.7912,704.7912,704.7912,705.1568,NA,NA,NA,NA,NA,NA,NA,TRUE,5,0.4392,701.806,704.7911,NA,NA,NA,NA,NA,12,25,0,73,73,12,1,2,74,"likert"
"BCE4703DBF7B42AF99C9BA9CC4800C66",1,"0198f77d-4a41-7efa-a5b1-66f95662a0cc","0198f768-e4d2-711c-944b-6f03c09216de","2025-08-29_15h21.00.249",NA,NA,708.1438,708.1438,708.1439,708.5045,NA,NA,NA,NA,NA,NA,NA,TRUE,5,0.4453,705.1579,708.1436,NA,NA,NA,NA,NA,95,40,0,74,74,81,1,2,75,"likert"
"BCE4703DBF7B42AF99C9BA9CC4800C66",1,"0198f77d-4a41-7efa-a5b1-66f95662a0cc","0198f768-e4d2-711c-944b-6f03c09216de","2025-08-29_15h21.00.249",NA,NA,711.4929,711.493,711.493,711.8609,NA,NA,NA,NA,NA,NA,NA,TRUE,5,0.5965,708.5056,711.4928,NA,NA,NA,NA,NA,90,40,0,75,75,75,1,2,76,"likert"
"BCE4703DBF7B42AF99C9BA9CC4800C66",1,"0198f77d-4a41-7efa-a5b1-66f95662a0cc","0198f768-e4d2-711c-944b-6f03c09216de","2025-08-29_15h21.00.249",NA,NA,714.8465,714.8466,714.8466,715.2108,NA,NA,NA,NA,NA,NA,NA,TRUE,5,0.2617,711.862,714.8464,NA,NA,NA,NA,NA,28,46,0,76,76,41,1,2,77,"likert"
"BCE4703DBF7B42AF99C9BA9CC4800C66",1,"0198f77d-4a41-7efa-a5b1-66f95662a0cc","0198f768-e4d2-711c-944b-6f03c09216de","2025-08-29_15h21.00.249",NA,NA,718.1975,718.1975,718.1975,718.5577,NA,NA,NA,NA,NA,NA,NA,TRUE,5,0.5438,715.212,718.1973,NA,NA,NA,NA,NA,21,29,0,77,77,26,1,2,78,"likert"
"BCE4703DBF7B42AF99C9BA9CC4800C66",1,"0198f77d-4a41-7efa-a5b1-66f95662a0cc","0198f768-e4d2-711c-944b-6f03c09216de","2025-08-29_15h21.00.249",NA,NA,721.5352,721.5352,721.5353,721.9025,NA,NA,NA,NA,NA,NA,NA,TRUE,5,0.7291,718.5591,721.5349,NA,NA,NA,NA,NA,95,35,0,78,78,80,1,2,79,"likert"
"BCE4703DBF7B42AF99C9BA9CC4800C66",1,"0198f77d-4a41-7efa-a5b1-66f95662a0cc","0198f768-e4d2-711c-944b-6f03c09216de","2025-08-29_15h21.00.249",NA,NA,724.9062,724.9062,724.9062,725.2707,NA,NA,NA,NA,NA,NA,NA,TRUE,5,0.675,721.9036,724.906,NA,NA,NA,NA,NA,50,40,0,79,79,63,1,2,80,"likert"
"BCE4703DBF7B42AF99C9BA9CC4800C66",1,"0198f77d-4a41-7efa-a5b1-66f95662a0cc","0198f768-e4d2-711c-944b-6f03c09216de","2025-08-29_15h21.00.249",NA,NA,728.2648,728.2649,728.2649,728.616,NA,NA,NA,NA,NA,NA,NA,TRUE,5,0.6213,725.2723,728.2646,NA,NA,NA,NA,NA,14,28,0,80,80,20,1,2,81,"likert"
"BCE4703DBF7B42AF99C9BA9CC4800C66",1,"0198f77d-4a41-7efa-a5b1-66f95662a0cc","0198f768-e4d2-711c-944b-6f03c09216de","2025-08-29_15h21.00.249",NA,NA,731.6106,731.6106,731.6107,731.9519,NA,NA,NA,NA,NA,NA,NA,TRUE,5,0.1,728.617,731.6105,NA,NA,NA,NA,NA,28,39,0,81,81,40,1,2,82,"likert"
"BCE4703DBF7B42AF99C9BA9CC4800C66",1,"0198f77d-4a41-7efa-a5b1-66f95662a0cc","0198f768-e4d2-711c-944b-6f03c09216de","2025-08-29_15h21.00.249",NA,NA,734.9494,734.9494,734.9494,735.312,NA,NA,NA,NA,NA,NA,NA,TRUE,5,0.3888,731.9529,734.9493,NA,NA,NA,NA,NA,7,32,0,82,82,4,1,2,83,"likert"
"BCE4703DBF7B42AF99C9BA9CC4800C66",1,"0198f77d-4a41-7efa-a5b1-66f95662a0cc","0198f768-e4d2-711c-944b-6f03c09216de","2025-08-29_15h21.00.249",NA,NA,738.2951,738.2951,738.2951,738.664,NA,NA,NA,NA,NA,NA,NA,TRUE,5,0.3613,735.3134,738.2949,NA,NA,NA,NA,NA,200,47,0,83,83,106,1,2,84,"likert"
"BCE4703DBF7B42AF99C9BA9CC4800C66",1,"0198f77d-4a41-7efa-a5b1-66f95662a0cc","0198f768-e4d2-711c-944b-6f03c09216de","2025-08-29_15h21.00.249",NA,NA,741.6546,741.6547,741.6547,741.999,NA,NA,NA,NA,NA,NA,NA,TRUE,5,0.4205,738.6651,741.6545,NA,NA,NA,NA,NA,180,27,0,84,84,96,1,2,85,"likert"
"BCE4703DBF7B42AF99C9BA9CC4800C66",1,"0198f77d-4a41-7efa-a5b1-66f95662a0cc","0198f768-e4d2-711c-944b-6f03c09216de","2025-08-29_15h21.00.249",NA,NA,744.9973,744.9973,744.9973,745.3639,NA,NA,NA,NA,NA,NA,NA,TRUE,5,0.5209,742.0005,744.9972,NA,NA,NA,NA,NA,100,54,0,85,85,89,1,2,86,"likert"
"BCE4703DBF7B42AF99C9BA9CC4800C66",1,"0198f77d-4a41-7efa-a5b1-66f95662a0cc","0198f768-e4d2-711c-944b-6f03c09216de","2025-08-29_15h21.00.249",NA,NA,748.3501,748.3501,748.3501,748.7142,NA,NA,NA,NA,NA,NA,NA,TRUE,5,0.3367,745.3651,748.35,NA,NA,NA,NA,NA,100,39,0,86,86,87,1,2,87,"likert"
"BCE4703DBF7B42AF99C9BA9CC4800C66",1,"0198f77d-4a41-7efa-a5b1-66f95662a0cc","0198f768-e4d2-711c-944b-6f03c09216de","2025-08-29_15h21.00.249",NA,NA,751.7039,751.704,751.704,752.0397,NA,NA,NA,NA,NA,NA,NA,TRUE,5,0.8968,748.7153,751.7038,NA,NA,NA,NA,NA,40,35,0,87,87,50,1,2,88,"likert"
"BCE4703DBF7B42AF99C9BA9CC4800C66",1,"0198f77d-4a41-7efa-a5b1-66f95662a0cc","0198f768-e4d2-711c-944b-6f03c09216de","2025-08-29_15h21.00.249",NA,NA,755.0582,755.0582,755.0582,755.3976,NA,NA,NA,NA,NA,NA,NA,TRUE,5,0.49,752.0408,755.0581,NA,NA,NA,NA,NA,100,31,0,88,88,85,1,2,89,"likert"
"BCE4703DBF7B42AF99C9BA9CC4800C66",1,"0198f77d-4a41-7efa-a5b1-66f95662a0cc","0198f768-e4d2-711c-944b-6f03c09216de","2025-08-29_15h21.00.249",NA,NA,758.4102,758.4102,758.4102,758.7496,NA,NA,NA,NA,NA,NA,NA,TRUE,5,0.5382,755.3989,758.41,NA,NA,NA,NA,NA,95,33,0,89,89,79,1,2,90,"likert"
"BCE4703DBF7B42AF99C9BA9CC4800C66",1,"0198f77d-4a41-7efa-a5b1-66f95662a0cc","0198f768-e4d2-711c-944b-6f03c09216de","2025-08-29_15h21.00.249",NA,NA,761.7565,761.7566,761.7566,762.0942,NA,NA,NA,NA,NA,NA,NA,TRUE,5,0.4649,758.7507,761.7564,NA,NA,NA,NA,NA,95,47,0,90,90,82,1,2,91,"likert"
"BCE4703DBF7B42AF99C9BA9CC4800C66",1,"0198f77d-4a41-7efa-a5b1-66f95662a0cc","0198f768-e4d2-711c-944b-6f03c09216de","2025-08-29_15h21.00.249",NA,NA,765.099,765.099,765.099,765.4627,NA,NA,NA,NA,NA,NA,NA,TRUE,5,0.5205,762.0956,765.0989,NA,NA,NA,NA,NA,60,40,0,91,91,69,1,2,92,"likert"
"BCE4703DBF7B42AF99C9BA9CC4800C66",1,"0198f77d-4a41-7efa-a5b1-66f95662a0cc","0198f768-e4d2-711c-944b-6f03c09216de","2025-08-29_15h21.00.249",NA,NA,768.4545,768.4545,768.4545,768.7914,NA,NA,NA,NA,NA,NA,NA,TRUE,5,0.3866,765.4642,768.4544,NA,NA,NA,NA,NA,7,30,0,92,92,3,1,2,93,"likert"
"BCE4703DBF7B42AF99C9BA9CC4800C66",1,"0198f77d-4a41-7efa-a5b1-66f95662a0cc","0198f768-e4d2-711c-944b-6f03c09216de","2025-08-29_15h21.00.249",NA,NA,771.7979,771.7979,771.798,772.1448,NA,NA,NA,NA,NA,NA,NA,TRUE,5,0.5375,768.7927,771.7977,NA,NA,NA,NA,NA,30,29,0,93,93,44,1,2,94,"likert"
"BCE4703DBF7B42AF99C9BA9CC4800C66",1,"0198f77d-4a41-7efa-a5b1-66f95662a0cc","0198f768-e4d2-711c-944b-6f03c09216de","2025-08-29_15h21.00.249",NA,NA,775.1646,775.1648,775.1649,775.5042,NA,NA,NA,NA,NA,NA,NA,TRUE,5,0.829,772.146,775.1642,NA,NA,NA,NA,NA,14,25,0,94,94,18,1,2,95,"likert"
"BCE4703DBF7B42AF99C9BA9CC4800C66",1,"0198f77d-4a41-7efa-a5b1-66f95662a0cc","0198f768-e4d2-711c-944b-6f03c09216de","2025-08-29_15h21.00.249",NA,NA,778.4911,778.4911,778.4911,778.8559,NA,NA,NA,NA,NA,NA,NA,TRUE,5,0.7567,775.5054,778.4909,NA,NA,NA,NA,NA,200,28,0,95,95,103,1,2,96,"likert"
"BCE4703DBF7B42AF99C9BA9CC4800C66",1,"0198f77d-4a41-7efa-a5b1-66f95662a0cc","0198f768-e4d2-711c-944b-6f03c09216de","2025-08-29_15h21.00.249",NA,NA,781.8539,781.854,781.854,782.1996,NA,NA,NA,NA,NA,NA,NA,TRUE,5,0.517,778.8573,781.8538,NA,NA,NA,NA,NA,28,35,0,96,96,39,1,2,97,"likert"
"BCE4703DBF7B42AF99C9BA9CC4800C66",1,"0198f77d-4a41-7efa-a5b1-66f95662a0cc","0198f768-e4d2-711c-944b-6f03c09216de","2025-08-29_15h21.00.249",NA,NA,785.2026,785.2027,785.2027,785.5452,NA,NA,NA,NA,NA,NA,NA,TRUE,5,0.554,782.2008,785.2025,NA,NA,NA,NA,NA,90,54,0,97,97,77,1,2,98,"likert"
"BCE4703DBF7B42AF99C9BA9CC4800C66",1,"0198f77d-4a41-7efa-a5b1-66f95662a0cc","0198f768-e4d2-711c-944b-6f03c09216de","2025-08-29_15h21.00.249",NA,NA,788.5582,788.5583,788.5583,788.9016,NA,NA,NA,NA,NA,NA,NA,TRUE,5,1.0651,785.5464,788.5581,NA,NA,NA,NA,NA,95,31,0,98,98,78,1,2,99,"likert"
"BCE4703DBF7B42AF99C9BA9CC4800C66",1,"0198f77d-4a41-7efa-a5b1-66f95662a0cc","0198f768-e4d2-711c-944b-6f03c09216de","2025-08-29_15h21.00.249",NA,NA,791.9073,791.9073,791.9073,792.2493,NA,NA,NA,NA,NA,NA,NA,TRUE,5,0.6959,788.9028,791.907,NA,NA,NA,NA,NA,10,27,0,99,99,8,1,2,100,"likert"
"BCE4703DBF7B42AF99C9BA9CC4800C66",1,"0198f77d-4a41-7efa-a5b1-66f95662a0cc","0198f768-e4d2-711c-944b-6f03c09216de","2025-08-29_15h21.00.249",NA,NA,795.2641,795.2643,795.2643,795.6018,NA,NA,NA,NA,NA,NA,NA,TRUE,5,0.6219,792.2509,795.264,NA,NA,NA,NA,NA,21,26,0,100,100,24,1,2,101,"likert"
"BCE4703DBF7B42AF99C9BA9CC4800C66",1,"0198f77d-4a41-7efa-a5b1-66f95662a0cc","0198f768-e4d2-711c-944b-6f03c09216de","2025-08-29_15h21.00.249",NA,NA,798.6126,798.6126,798.6126,798.9566,NA,NA,NA,NA,NA,NA,NA,TRUE,5,0.8859,795.6035,798.6124,NA,NA,NA,NA,NA,40,27,0,101,101,48,1,2,102,"likert"
"BCE4703DBF7B42AF99C9BA9CC4800C66",1,"0198f77d-4a41-7efa-a5b1-66f95662a0cc","0198f768-e4d2-711c-944b-6f03c09216de","2025-08-29_15h21.00.249",NA,NA,801.9676,801.9676,801.9677,802.307,NA,NA,NA,NA,NA,NA,NA,TRUE,5,0.3966,798.9579,801.9675,NA,NA,NA,NA,NA,25,35,0,102,102,34,1,2,103,"likert"
"BCE4703DBF7B42AF99C9BA9CC4800C66",1,"0198f77d-4a41-7efa-a5b1-66f95662a0cc","0198f768-e4d2-711c-944b-6f03c09216de","2025-08-29_15h21.00.249",NA,NA,805.3057,805.3057,805.3057,805.6509,NA,NA,NA,NA,NA,NA,NA,TRUE,5,0.4411,802.3084,805.3056,NA,NA,NA,NA,NA,10,29,0,103,103,9,1,2,104,"likert"
"BCE4703DBF7B42AF99C9BA9CC4800C66",1,"0198f77d-4a41-7efa-a5b1-66f95662a0cc","0198f768-e4d2-711c-944b-6f03c09216de","2025-08-29_15h21.00.249",NA,NA,808.6435,808.6435,808.6435,808.9911,NA,NA,NA,NA,NA,NA,NA,TRUE,5,0.3951,805.6527,808.6434,NA,NA,NA,NA,NA,50,30,0,104,104,61,1,2,105,"likert"
"BCE4703DBF7B42AF99C9BA9CC4800C66",1,"0198f77d-4a41-7efa-a5b1-66f95662a0cc","0198f768-e4d2-711c-944b-6f03c09216de","2025-08-29_15h21.00.249",NA,NA,812.0101,812.0101,812.0102,812.3302,NA,NA,NA,NA,NA,NA,NA,TRUE,5,0.4973,808.9923,812.01,NA,NA,NA,NA,NA,150,47,0,105,105,94,1,2,106,"likert"
"BCE4703DBF7B42AF99C9BA9CC4800C66",1,"0198f77d-4a41-7efa-a5b1-66f95662a0cc","0198f768-e4d2-711c-944b-6f03c09216de","2025-08-29_15h21.00.249",NA,NA,815.3605,815.3606,815.3606,815.6994,NA,NA,NA,NA,NA,NA,NA,TRUE,5,0.4963,812.3316,815.3604,NA,NA,NA,NA,NA,7,26,0,106,106,1,1,2,107,"likert"
"BCE4703DBF7B42AF99C9BA9CC4800C66",1,"0198f77d-4a41-7efa-a5b1-66f95662a0cc","0198f768-e4d2-711c-944b-6f03c09216de","2025-08-29_15h21.00.249",NA,NA,818.6905,818.6905,818.6905,819.057,NA,NA,NA,NA,NA,NA,NA,TRUE,5,1.015,815.7007,818.6903,NA,NA,NA,NA,NA,45,26,0,107,107,54,1,2,108,"likert"
