"participant","session","assignmentId","projectId","date","practiceTrial.started","practiceTrial.stopped","tooLate.started","tooLate.stopped","blank.started","blank.stopped","trials_pract.thisRepN","trials_pract.thisTrialN","trials_pract.thisN","trials_pract.thisIndex","trials_pract.ran","delay_pract","amount_pract","responseMade","key","rt","trial.started","trial.stopped","trials.thisRepN","trials.thisTrialN","trials.thisN","trials.thisIndex","trials.ran","delay","amount","trials_2.thisRepN","trials_2.thisTrialN","trials_2.thisN","trials_2.thisIndex","trials_2.ran","block","trial","taskType"
"C4BC1E1B8EDD46EBB9A1D01528042AF8",1,"01990a98-f8ad-72e4-a860-763b59495355","01990a84-c4ee-73c2-a87b-ff46a7d3dde5","2025-09-02_09h25.23.907",238.458,241.4349,241.4354,241.6647,241.6648,241.7696,0,0,0,2,1,14,45,FALSE,NA,NA,NA,NA,NA,NA,NA,NA,NA,NA,NA,NA,NA,NA,NA,NA,0,1,"likert"
"C4BC1E1B8EDD46EBB9A1D01528042AF8",1,"01990a98-f8ad-72e4-a860-763b59495355","01990a84-c4ee-73c2-a87b-ff46a7d3dde5","2025-09-02_09h25.23.907",241.771,244.7653,244.7655,244.7655,244.7656,245.1362,0,1,1,1,1,100,50,TRUE,2,1.8627,NA,NA,NA,NA,NA,NA,NA,NA,NA,NA,NA,NA,NA,NA,0,2,"likert"
"C4BC1E1B8EDD46EBB9A1D01528042AF8",1,"01990a98-f8ad-72e4-a860-763b59495355","01990a84-c4ee-73c2-a87b-ff46a7d3dde5","2025-09-02_09h25.23.907",245.1375,248.1349,248.1355,248.1358,248.1358,248.4697,0,2,2,4,1,30,40,TRUE,2,1.8939,NA,NA,NA,NA,NA,NA,NA,NA,NA,NA,NA,NA,NA,NA,0,3,"likert"
"C4BC1E1B8EDD46EBB9A1D01528042AF8",1,"01990a98-f8ad-72e4-a860-763b59495355","01990a84-c4ee-73c2-a87b-ff46a7d3dde5","2025-09-02_09h25.23.907",248.4709,251.4675,251.468,251.468,251.4681,251.8352,0,3,3,0,1,7,30,TRUE,1,2.6756,NA,NA,NA,NA,NA,NA,NA,NA,NA,NA,NA,NA,NA,NA,0,4,"likert"
"C4BC1E1B8EDD46EBB9A1D01528042AF8",1,"01990a98-f8ad-72e4-a860-763b59495355","01990a84-c4ee-73c2-a87b-ff46a7d3dde5","2025-09-02_09h25.23.907",251.8363,254.8315,254.8316,254.8316,254.8317,255.1672,0,4,4,3,1,3,27,TRUE,1,2.1911,NA,NA,NA,NA,NA,NA,NA,NA,NA,NA,NA,NA,NA,NA,0,5,"likert"
"C4BC1E1B8EDD46EBB9A1D01528042AF8",1,"01990a98-f8ad-72e4-a860-763b59495355","01990a84-c4ee-73c2-a87b-ff46a7d3dde5","2025-09-02_09h25.23.907",NA,NA,320.0232,320.0236,320.0237,320.3558,NA,NA,NA,NA,NA,NA,NA,TRUE,1,1.9986,317.0376,320.0229,0,0,0,91,1,150,33,NA,NA,NA,NA,NA,1,1,"likert"
"C4BC1E1B8EDD46EBB9A1D01528042AF8",1,"01990a98-f8ad-72e4-a860-763b59495355","01990a84-c4ee-73c2-a87b-ff46a7d3dde5","2025-09-02_09h25.23.907",NA,NA,323.3581,323.3581,323.3581,323.723,NA,NA,NA,NA,NA,NA,NA,TRUE,1,1.9946,320.3571,323.3581,0,1,1,76,1,90,46,NA,NA,NA,NA,NA,1,2,"likert"
"C4BC1E1B8EDD46EBB9A1D01528042AF8",1,"01990a98-f8ad-72e4-a860-763b59495355","01990a84-c4ee-73c2-a87b-ff46a7d3dde5","2025-09-02_09h25.23.907",NA,NA,326.7229,326.7229,326.723,327.0585,NA,NA,NA,NA,NA,NA,NA,TRUE,1,0.9433,323.7239,326.7225,0,2,2,30,1,25,27,NA,NA,NA,NA,NA,1,3,"likert"
"C4BC1E1B8EDD46EBB9A1D01528042AF8",1,"01990a98-f8ad-72e4-a860-763b59495355","01990a84-c4ee-73c2-a87b-ff46a7d3dde5","2025-09-02_09h25.23.907",NA,NA,330.0572,330.0573,330.0573,330.4251,NA,NA,NA,NA,NA,NA,NA,TRUE,1,1.1298,327.0594,330.0571,0,3,3,24,1,21,26,NA,NA,NA,NA,NA,1,4,"likert"
"C4BC1E1B8EDD46EBB9A1D01528042AF8",1,"01990a98-f8ad-72e4-a860-763b59495355","01990a84-c4ee-73c2-a87b-ff46a7d3dde5","2025-09-02_09h25.23.907",NA,NA,333.4247,333.4248,333.4248,333.7558,NA,NA,NA,NA,NA,NA,NA,TRUE,1,1.4961,330.4262,333.4242,0,4,4,28,1,21,32,NA,NA,NA,NA,NA,1,5,"likert"
"C4BC1E1B8EDD46EBB9A1D01528042AF8",1,"01990a98-f8ad-72e4-a860-763b59495355","01990a84-c4ee-73c2-a87b-ff46a7d3dde5","2025-09-02_09h25.23.907",NA,NA,336.7607,336.7608,336.7608,337.1258,NA,NA,NA,NA,NA,NA,NA,TRUE,1,1.2446,333.757,336.7601,0,5,5,106,1,200,47,NA,NA,NA,NA,NA,1,6,"likert"
"C4BC1E1B8EDD46EBB9A1D01528042AF8",1,"01990a98-f8ad-72e4-a860-763b59495355","01990a84-c4ee-73c2-a87b-ff46a7d3dde5","2025-09-02_09h25.23.907",NA,NA,340.1238,340.1238,340.1238,340.4569,NA,NA,NA,NA,NA,NA,NA,TRUE,1,1.0272,337.1273,340.1234,0,6,6,102,1,200,26,NA,NA,NA,NA,NA,1,7,"likert"
"C4BC1E1B8EDD46EBB9A1D01528042AF8",1,"01990a98-f8ad-72e4-a860-763b59495355","01990a84-c4ee-73c2-a87b-ff46a7d3dde5","2025-09-02_09h25.23.907",NA,NA,343.4566,343.4567,343.4567,343.8227,NA,NA,NA,NA,NA,NA,NA,TRUE,1,0.9895,340.4581,343.4565,0,7,7,84,1,100,26,NA,NA,NA,NA,NA,1,8,"likert"
"C4BC1E1B8EDD46EBB9A1D01528042AF8",1,"01990a98-f8ad-72e4-a860-763b59495355","01990a84-c4ee-73c2-a87b-ff46a7d3dde5","2025-09-02_09h25.23.907",NA,NA,346.8224,346.8225,346.8228,347.1582,NA,NA,NA,NA,NA,NA,NA,TRUE,1,0.8832,343.8242,346.822,0,8,8,69,1,60,40,NA,NA,NA,NA,NA,1,9,"likert"
"C4BC1E1B8EDD46EBB9A1D01528042AF8",1,"01990a98-f8ad-72e4-a860-763b59495355","01990a84-c4ee-73c2-a87b-ff46a7d3dde5","2025-09-02_09h25.23.907",NA,NA,350.1557,350.1558,350.1558,350.5223,NA,NA,NA,NA,NA,NA,NA,TRUE,1,1.1018,347.1592,350.1554,0,9,9,77,1,90,54,NA,NA,NA,NA,NA,1,10,"likert"
"C4BC1E1B8EDD46EBB9A1D01528042AF8",1,"01990a98-f8ad-72e4-a860-763b59495355","01990a84-c4ee-73c2-a87b-ff46a7d3dde5","2025-09-02_09h25.23.907",NA,NA,353.527,353.527,353.5271,353.8584,NA,NA,NA,NA,NA,NA,NA,TRUE,1,1.5297,350.5232,353.5268,0,10,10,63,1,50,40,NA,NA,NA,NA,NA,1,11,"likert"
"C4BC1E1B8EDD46EBB9A1D01528042AF8",1,"01990a98-f8ad-72e4-a860-763b59495355","01990a84-c4ee-73c2-a87b-ff46a7d3dde5","2025-09-02_09h25.23.907",NA,NA,356.8586,356.8586,356.8586,357.225,NA,NA,NA,NA,NA,NA,NA,TRUE,1,1.1087,353.8592,356.8581,0,11,11,71,1,60,54,NA,NA,NA,NA,NA,1,12,"likert"
"C4BC1E1B8EDD46EBB9A1D01528042AF8",1,"01990a98-f8ad-72e4-a860-763b59495355","01990a84-c4ee-73c2-a87b-ff46a7d3dde5","2025-09-02_09h25.23.907",NA,NA,360.2252,360.2253,360.2253,360.5596,NA,NA,NA,NA,NA,NA,NA,TRUE,1,0.9067,357.2264,360.2249,0,12,12,54,1,45,26,NA,NA,NA,NA,NA,1,13,"likert"
"C4BC1E1B8EDD46EBB9A1D01528042AF8",1,"01990a98-f8ad-72e4-a860-763b59495355","01990a84-c4ee-73c2-a87b-ff46a7d3dde5","2025-09-02_09h25.23.907",NA,NA,363.5583,363.5584,363.5584,363.9238,NA,NA,NA,NA,NA,NA,NA,TRUE,1,0.8102,360.5607,363.5581,0,13,13,45,1,30,30,NA,NA,NA,NA,NA,1,14,"likert"
"C4BC1E1B8EDD46EBB9A1D01528042AF8",1,"01990a98-f8ad-72e4-a860-763b59495355","01990a84-c4ee-73c2-a87b-ff46a7d3dde5","2025-09-02_09h25.23.907",NA,NA,366.9227,366.9227,366.9227,367.2601,NA,NA,NA,NA,NA,NA,NA,TRUE,1,0.9071,363.9249,366.9221,0,14,14,19,1,14,26,NA,NA,NA,NA,NA,1,15,"likert"
"C4BC1E1B8EDD46EBB9A1D01528042AF8",1,"01990a98-f8ad-72e4-a860-763b59495355","01990a84-c4ee-73c2-a87b-ff46a7d3dde5","2025-09-02_09h25.23.907",NA,NA,370.2566,370.2567,370.2567,370.6228,NA,NA,NA,NA,NA,NA,NA,TRUE,1,1.0474,367.2612,370.2563,0,15,15,104,1,200,35,NA,NA,NA,NA,NA,1,16,"likert"
"C4BC1E1B8EDD46EBB9A1D01528042AF8",1,"01990a98-f8ad-72e4-a860-763b59495355","01990a84-c4ee-73c2-a87b-ff46a7d3dde5","2025-09-02_09h25.23.907",NA,NA,373.6242,373.6242,373.6243,373.959,NA,NA,NA,NA,NA,NA,NA,TRUE,1,0.5865,370.6238,373.624,0,16,16,78,1,95,31,NA,NA,NA,NA,NA,1,17,"likert"
"C4BC1E1B8EDD46EBB9A1D01528042AF8",1,"01990a98-f8ad-72e4-a860-763b59495355","01990a84-c4ee-73c2-a87b-ff46a7d3dde5","2025-09-02_09h25.23.907",NA,NA,376.9553,376.9554,376.9554,377.3266,NA,NA,NA,NA,NA,NA,NA,TRUE,1,0.5028,373.96,376.955,0,17,17,85,1,100,31,NA,NA,NA,NA,NA,1,18,"likert"
"C4BC1E1B8EDD46EBB9A1D01528042AF8",1,"01990a98-f8ad-72e4-a860-763b59495355","01990a84-c4ee-73c2-a87b-ff46a7d3dde5","2025-09-02_09h25.23.907",NA,NA,380.3263,380.3264,380.3264,380.6588,NA,NA,NA,NA,NA,NA,NA,TRUE,1,0.5411,377.3276,380.3258,0,18,18,0,1,7,25,NA,NA,NA,NA,NA,1,19,"likert"
"C4BC1E1B8EDD46EBB9A1D01528042AF8",1,"01990a98-f8ad-72e4-a860-763b59495355","01990a84-c4ee-73c2-a87b-ff46a7d3dde5","2025-09-02_09h25.23.907",NA,NA,383.6603,383.6603,383.6604,384.022,NA,NA,NA,NA,NA,NA,NA,TRUE,1,0.7315,380.6599,383.6601,0,19,19,15,1,12,31,NA,NA,NA,NA,NA,1,20,"likert"
"C4BC1E1B8EDD46EBB9A1D01528042AF8",1,"01990a98-f8ad-72e4-a860-763b59495355","01990a84-c4ee-73c2-a87b-ff46a7d3dde5","2025-09-02_09h25.23.907",NA,NA,387.0248,387.0249,387.0249,387.3549,NA,NA,NA,NA,NA,NA,NA,TRUE,1,0.6069,384.0227,387.0245,0,20,20,74,1,90,33,NA,NA,NA,NA,NA,1,21,"likert"
"C4BC1E1B8EDD46EBB9A1D01528042AF8",1,"01990a98-f8ad-72e4-a860-763b59495355","01990a84-c4ee-73c2-a87b-ff46a7d3dde5","2025-09-02_09h25.23.907",NA,NA,390.3558,390.356,390.356,390.7245,NA,NA,NA,NA,NA,NA,NA,TRUE,1,0.7623,387.3564,390.3554,0,21,21,22,1,14,35,NA,NA,NA,NA,NA,1,22,"likert"
"C4BC1E1B8EDD46EBB9A1D01528042AF8",1,"01990a98-f8ad-72e4-a860-763b59495355","01990a84-c4ee-73c2-a87b-ff46a7d3dde5","2025-09-02_09h25.23.907",NA,NA,393.7251,393.7253,393.7253,394.0576,NA,NA,NA,NA,NA,NA,NA,TRUE,1,0.6658,390.7254,393.725,0,22,22,32,1,25,31,NA,NA,NA,NA,NA,1,23,"likert"
"C4BC1E1B8EDD46EBB9A1D01528042AF8",1,"01990a98-f8ad-72e4-a860-763b59495355","01990a84-c4ee-73c2-a87b-ff46a7d3dde5","2025-09-02_09h25.23.907",NA,NA,397.057,397.0571,397.0571,397.4235,NA,NA,NA,NA,NA,NA,NA,TRUE,1,0.7424,394.0587,397.0567,0,23,23,53,1,40,54,NA,NA,NA,NA,NA,1,24,"likert"
"C4BC1E1B8EDD46EBB9A1D01528042AF8",1,"01990a98-f8ad-72e4-a860-763b59495355","01990a84-c4ee-73c2-a87b-ff46a7d3dde5","2025-09-02_09h25.23.907",NA,NA,400.4235,400.4236,400.4236,400.756,NA,NA,NA,NA,NA,NA,NA,TRUE,1,0.5114,397.4246,400.4227,0,24,24,48,1,40,27,NA,NA,NA,NA,NA,1,25,"likert"
"C4BC1E1B8EDD46EBB9A1D01528042AF8",1,"01990a98-f8ad-72e4-a860-763b59495355","01990a84-c4ee-73c2-a87b-ff46a7d3dde5","2025-09-02_09h25.23.907",NA,NA,403.7558,403.7558,403.7558,404.123,NA,NA,NA,NA,NA,NA,NA,TRUE,1,0.5422,400.7567,403.7558,0,25,25,41,1,28,46,NA,NA,NA,NA,NA,1,26,"likert"
"C4BC1E1B8EDD46EBB9A1D01528042AF8",1,"01990a98-f8ad-72e4-a860-763b59495355","01990a84-c4ee-73c2-a87b-ff46a7d3dde5","2025-09-02_09h25.23.907",NA,NA,407.1252,407.1253,407.1253,407.4595,NA,NA,NA,NA,NA,NA,NA,TRUE,1,0.8949,404.1241,407.1248,0,26,26,72,1,90,26,NA,NA,NA,NA,NA,1,27,"likert"
"C4BC1E1B8EDD46EBB9A1D01528042AF8",1,"01990a98-f8ad-72e4-a860-763b59495355","01990a84-c4ee-73c2-a87b-ff46a7d3dde5","2025-09-02_09h25.23.907",NA,NA,410.457,410.457,410.4571,410.8252,NA,NA,NA,NA,NA,NA,NA,TRUE,1,0.5508,407.4605,410.4565,0,27,27,49,1,40,33,NA,NA,NA,NA,NA,1,28,"likert"
"C4BC1E1B8EDD46EBB9A1D01528042AF8",1,"01990a98-f8ad-72e4-a860-763b59495355","01990a84-c4ee-73c2-a87b-ff46a7d3dde5","2025-09-02_09h25.23.907",NA,NA,413.8232,413.8232,413.8233,414.156,NA,NA,NA,NA,NA,NA,NA,TRUE,1,0.6933,410.8263,413.8232,0,28,28,56,1,45,31,NA,NA,NA,NA,NA,1,29,"likert"
"C4BC1E1B8EDD46EBB9A1D01528042AF8",1,"01990a98-f8ad-72e4-a860-763b59495355","01990a84-c4ee-73c2-a87b-ff46a7d3dde5","2025-09-02_09h25.23.907",NA,NA,417.1586,417.1587,417.1587,417.5258,NA,NA,NA,NA,NA,NA,NA,TRUE,1,1.1084,414.157,417.1581,0,29,29,14,1,12,28,NA,NA,NA,NA,NA,1,30,"likert"
"C4BC1E1B8EDD46EBB9A1D01528042AF8",1,"01990a98-f8ad-72e4-a860-763b59495355","01990a84-c4ee-73c2-a87b-ff46a7d3dde5","2025-09-02_09h25.23.907",NA,NA,420.5213,420.5214,420.5214,420.8588,NA,NA,NA,NA,NA,NA,NA,TRUE,1,0.6628,417.5269,420.5209,0,30,30,39,1,28,35,NA,NA,NA,NA,NA,1,31,"likert"
"C4BC1E1B8EDD46EBB9A1D01528042AF8",1,"01990a98-f8ad-72e4-a860-763b59495355","01990a84-c4ee-73c2-a87b-ff46a7d3dde5","2025-09-02_09h25.23.907",NA,NA,423.8545,423.8545,423.8547,424.225,NA,NA,NA,NA,NA,NA,NA,TRUE,1,0.8211,420.8599,423.8544,0,31,31,92,1,150,35,NA,NA,NA,NA,NA,1,32,"likert"
"C4BC1E1B8EDD46EBB9A1D01528042AF8",1,"01990a98-f8ad-72e4-a860-763b59495355","01990a84-c4ee-73c2-a87b-ff46a7d3dde5","2025-09-02_09h25.23.907",NA,NA,427.2221,427.2221,427.2221,427.5578,NA,NA,NA,NA,NA,NA,NA,TRUE,1,0.7836,424.2262,427.2217,0,32,32,9,1,10,29,NA,NA,NA,NA,NA,1,33,"likert"
"C4BC1E1B8EDD46EBB9A1D01528042AF8",1,"01990a98-f8ad-72e4-a860-763b59495355","01990a84-c4ee-73c2-a87b-ff46a7d3dde5","2025-09-02_09h25.23.907",NA,NA,430.5588,430.5589,430.5589,430.9249,NA,NA,NA,NA,NA,NA,NA,TRUE,1,0.8957,427.559,430.5583,0,33,33,50,1,40,35,NA,NA,NA,NA,NA,1,34,"likert"
"C4BC1E1B8EDD46EBB9A1D01528042AF8",1,"01990a98-f8ad-72e4-a860-763b59495355","01990a84-c4ee-73c2-a87b-ff46a7d3dde5","2025-09-02_09h25.23.907",NA,NA,433.9253,433.9254,433.9254,434.2544,NA,NA,NA,NA,NA,NA,NA,TRUE,1,1.3041,430.9257,433.9252,0,34,34,52,1,40,47,NA,NA,NA,NA,NA,1,35,"likert"
"C4BC1E1B8EDD46EBB9A1D01528042AF8",1,"01990a98-f8ad-72e4-a860-763b59495355","01990a84-c4ee-73c2-a87b-ff46a7d3dde5","2025-09-02_09h25.23.907",NA,NA,437.2587,437.2587,437.2587,437.6238,NA,NA,NA,NA,NA,NA,NA,TRUE,1,0.7444,434.2554,437.2582,0,35,35,38,1,28,32,NA,NA,NA,NA,NA,1,36,"likert"
"C4BC1E1B8EDD46EBB9A1D01528042AF8",1,"01990a98-f8ad-72e4-a860-763b59495355","01990a84-c4ee-73c2-a87b-ff46a7d3dde5","2025-09-02_09h25.23.907",NA,NA,440.6216,440.6217,440.6217,440.9557,NA,NA,NA,NA,NA,NA,NA,TRUE,1,1.0716,437.6249,440.6211,0,36,36,96,1,180,27,NA,NA,NA,NA,NA,1,37,"likert"
"C4BC1E1B8EDD46EBB9A1D01528042AF8",1,"01990a98-f8ad-72e4-a860-763b59495355","01990a84-c4ee-73c2-a87b-ff46a7d3dde5","2025-09-02_09h25.23.907",NA,NA,443.9573,443.9573,443.9573,444.324,NA,NA,NA,NA,NA,NA,NA,TRUE,1,0.4481,440.957,443.9571,0,37,37,44,1,30,29,NA,NA,NA,NA,NA,1,38,"likert"
"C4BC1E1B8EDD46EBB9A1D01528042AF8",1,"01990a98-f8ad-72e4-a860-763b59495355","01990a84-c4ee-73c2-a87b-ff46a7d3dde5","2025-09-02_09h25.23.907",NA,NA,447.3236,447.3237,447.3238,447.6607,NA,NA,NA,NA,NA,NA,NA,TRUE,1,0.48,444.3255,447.3229,0,38,38,68,1,60,35,NA,NA,NA,NA,NA,1,39,"likert"
"C4BC1E1B8EDD46EBB9A1D01528042AF8",1,"01990a98-f8ad-72e4-a860-763b59495355","01990a84-c4ee-73c2-a87b-ff46a7d3dde5","2025-09-02_09h25.23.907",NA,NA,450.6564,450.6565,450.6565,451.0224,NA,NA,NA,NA,NA,NA,NA,TRUE,1,0.471,447.6631,450.6559,0,39,39,61,1,50,30,NA,NA,NA,NA,NA,1,40,"likert"
"C4BC1E1B8EDD46EBB9A1D01528042AF8",1,"01990a98-f8ad-72e4-a860-763b59495355","01990a84-c4ee-73c2-a87b-ff46a7d3dde5","2025-09-02_09h25.23.907",NA,NA,454.0225,454.0225,454.0226,454.3574,NA,NA,NA,NA,NA,NA,NA,TRUE,1,0.4199,451.0238,454.0224,0,40,40,17,1,12,35,NA,NA,NA,NA,NA,1,41,"likert"
"C4BC1E1B8EDD46EBB9A1D01528042AF8",1,"01990a98-f8ad-72e4-a860-763b59495355","01990a84-c4ee-73c2-a87b-ff46a7d3dde5","2025-09-02_09h25.23.907",NA,NA,457.3545,457.3546,457.3546,457.7251,NA,NA,NA,NA,NA,NA,NA,TRUE,1,0.7002,454.3585,457.3539,0,41,41,81,1,95,40,NA,NA,NA,NA,NA,1,42,"likert"
"C4BC1E1B8EDD46EBB9A1D01528042AF8",1,"01990a98-f8ad-72e4-a860-763b59495355","01990a84-c4ee-73c2-a87b-ff46a7d3dde5","2025-09-02_09h25.23.907",NA,NA,460.7215,460.7218,460.722,461.0585,NA,NA,NA,NA,NA,NA,NA,TRUE,1,0.7095,457.7264,460.7208,0,42,42,89,1,100,54,NA,NA,NA,NA,NA,1,43,"likert"
"C4BC1E1B8EDD46EBB9A1D01528042AF8",1,"01990a98-f8ad-72e4-a860-763b59495355","01990a84-c4ee-73c2-a87b-ff46a7d3dde5","2025-09-02_09h25.23.907",NA,NA,464.0544,464.0545,464.0545,464.4253,NA,NA,NA,NA,NA,NA,NA,TRUE,1,0.6458,461.0597,464.0544,0,43,43,46,1,30,32,NA,NA,NA,NA,NA,1,44,"likert"
"C4BC1E1B8EDD46EBB9A1D01528042AF8",1,"01990a98-f8ad-72e4-a860-763b59495355","01990a84-c4ee-73c2-a87b-ff46a7d3dde5","2025-09-02_09h25.23.907",NA,NA,467.4214,467.4214,467.4214,467.7555,NA,NA,NA,NA,NA,NA,NA,TRUE,1,0.6735,464.4263,467.4209,0,44,44,90,1,150,31,NA,NA,NA,NA,NA,1,45,"likert"
"C4BC1E1B8EDD46EBB9A1D01528042AF8",1,"01990a98-f8ad-72e4-a860-763b59495355","01990a84-c4ee-73c2-a87b-ff46a7d3dde5","2025-09-02_09h25.23.907",NA,NA,470.7794,470.7795,470.7795,471.1209,NA,NA,NA,NA,NA,NA,NA,TRUE,1,0.6325,467.7568,470.7789,0,45,45,29,1,21,38,NA,NA,NA,NA,NA,1,46,"likert"
"C4BC1E1B8EDD46EBB9A1D01528042AF8",1,"01990a98-f8ad-72e4-a860-763b59495355","01990a84-c4ee-73c2-a87b-ff46a7d3dde5","2025-09-02_09h25.23.907",NA,NA,474.1245,474.1248,474.1248,474.4557,NA,NA,NA,NA,NA,NA,NA,TRUE,1,0.7646,471.122,474.1243,0,46,46,105,1,200,39,NA,NA,NA,NA,NA,1,47,"likert"
"C4BC1E1B8EDD46EBB9A1D01528042AF8",1,"01990a98-f8ad-72e4-a860-763b59495355","01990a84-c4ee-73c2-a87b-ff46a7d3dde5","2025-09-02_09h25.23.907",NA,NA,477.4545,477.4545,477.4545,477.8216,NA,NA,NA,NA,NA,NA,NA,TRUE,1,0.6781,474.4567,477.4539,0,47,47,98,1,180,35,NA,NA,NA,NA,NA,1,48,"likert"
"C4BC1E1B8EDD46EBB9A1D01528042AF8",1,"01990a98-f8ad-72e4-a860-763b59495355","01990a84-c4ee-73c2-a87b-ff46a7d3dde5","2025-09-02_09h25.23.907",NA,NA,480.8243,480.8243,480.8244,481.1555,NA,NA,NA,NA,NA,NA,NA,TRUE,1,0.4826,477.8238,480.8238,0,48,48,11,1,10,32,NA,NA,NA,NA,NA,1,49,"likert"
"C4BC1E1B8EDD46EBB9A1D01528042AF8",1,"01990a98-f8ad-72e4-a860-763b59495355","01990a84-c4ee-73c2-a87b-ff46a7d3dde5","2025-09-02_09h25.23.907",NA,NA,484.1571,484.1572,484.1573,484.5211,NA,NA,NA,NA,NA,NA,NA,TRUE,1,0.5512,481.1568,484.1571,0,49,49,8,1,10,27,NA,NA,NA,NA,NA,1,50,"likert"
"C4BC1E1B8EDD46EBB9A1D01528042AF8",1,"01990a98-f8ad-72e4-a860-763b59495355","01990a84-c4ee-73c2-a87b-ff46a7d3dde5","2025-09-02_09h25.23.907",NA,NA,487.5209,487.521,487.521,487.8577,NA,NA,NA,NA,NA,NA,NA,TRUE,1,0.36,484.5221,487.5203,0,50,50,6,1,10,25,NA,NA,NA,NA,NA,1,51,"likert"
"C4BC1E1B8EDD46EBB9A1D01528042AF8",1,"01990a98-f8ad-72e4-a860-763b59495355","01990a84-c4ee-73c2-a87b-ff46a7d3dde5","2025-09-02_09h25.23.907",NA,NA,490.8565,490.8566,490.8566,491.2214,NA,NA,NA,NA,NA,NA,NA,TRUE,1,0.5064,487.8591,490.8558,0,51,51,62,1,50,35,NA,NA,NA,NA,NA,1,52,"likert"
"C4BC1E1B8EDD46EBB9A1D01528042AF8",1,"01990a98-f8ad-72e4-a860-763b59495355","01990a84-c4ee-73c2-a87b-ff46a7d3dde5","2025-09-02_09h25.23.907",NA,NA,494.2226,494.2229,494.2229,494.5579,NA,NA,NA,NA,NA,NA,NA,TRUE,1,0.4634,491.2226,494.2224,0,52,52,36,1,28,26,NA,NA,NA,NA,NA,1,53,"likert"
"C4BC1E1B8EDD46EBB9A1D01528042AF8",1,"01990a98-f8ad-72e4-a860-763b59495355","01990a84-c4ee-73c2-a87b-ff46a7d3dde5","2025-09-02_09h25.23.907",NA,NA,497.5566,497.5566,497.5566,497.9211,NA,NA,NA,NA,NA,NA,NA,TRUE,1,0.4128,494.559,497.556,0,53,53,103,1,200,28,NA,NA,NA,NA,NA,1,54,"likert"
"C4BC1E1B8EDD46EBB9A1D01528042AF8",1,"01990a98-f8ad-72e4-a860-763b59495355","01990a84-c4ee-73c2-a87b-ff46a7d3dde5","2025-09-02_09h25.23.907",NA,NA,500.9219,500.922,500.922,501.257,NA,NA,NA,NA,NA,NA,NA,TRUE,1,0.3767,497.9224,500.9212,0,54,54,70,1,60,47,NA,NA,NA,NA,NA,1,55,"likert"
"C4BC1E1B8EDD46EBB9A1D01528042AF8",1,"01990a98-f8ad-72e4-a860-763b59495355","01990a84-c4ee-73c2-a87b-ff46a7d3dde5","2025-09-02_09h25.23.907",NA,NA,504.2573,504.2573,504.2576,504.625,NA,NA,NA,NA,NA,NA,NA,TRUE,1,0.5133,501.2581,504.2572,0,55,55,75,1,90,40,NA,NA,NA,NA,NA,1,56,"likert"
"C4BC1E1B8EDD46EBB9A1D01528042AF8",1,"01990a98-f8ad-72e4-a860-763b59495355","01990a84-c4ee-73c2-a87b-ff46a7d3dde5","2025-09-02_09h25.23.907",NA,NA,507.6232,507.6234,507.6235,507.9565,NA,NA,NA,NA,NA,NA,NA,TRUE,1,0.675,504.6262,507.6227,0,56,56,27,1,21,30,NA,NA,NA,NA,NA,1,57,"likert"
"C4BC1E1B8EDD46EBB9A1D01528042AF8",1,"01990a98-f8ad-72e4-a860-763b59495355","01990a84-c4ee-73c2-a87b-ff46a7d3dde5","2025-09-02_09h25.23.907",NA,NA,510.9544,510.9545,510.9545,511.3231,NA,NA,NA,NA,NA,NA,NA,TRUE,1,0.5192,507.958,510.954,0,57,57,67,1,60,33,NA,NA,NA,NA,NA,1,58,"likert"
"C4BC1E1B8EDD46EBB9A1D01528042AF8",1,"01990a98-f8ad-72e4-a860-763b59495355","01990a84-c4ee-73c2-a87b-ff46a7d3dde5","2025-09-02_09h25.23.907",NA,NA,514.3242,514.3244,514.3244,514.656,NA,NA,NA,NA,NA,NA,NA,TRUE,1,0.3411,511.3242,514.324,0,58,58,35,1,25,46,NA,NA,NA,NA,NA,1,59,"likert"
"C4BC1E1B8EDD46EBB9A1D01528042AF8",1,"01990a98-f8ad-72e4-a860-763b59495355","01990a84-c4ee-73c2-a87b-ff46a7d3dde5","2025-09-02_09h25.23.907",NA,NA,517.6539,517.6539,517.6539,518.0228,NA,NA,NA,NA,NA,NA,NA,TRUE,1,1.1454,514.6573,517.6533,0,59,59,55,1,45,29,NA,NA,NA,NA,NA,1,60,"likert"
"C4BC1E1B8EDD46EBB9A1D01528042AF8",1,"01990a98-f8ad-72e4-a860-763b59495355","01990a84-c4ee-73c2-a87b-ff46a7d3dde5","2025-09-02_09h25.23.907",NA,NA,521.0202,521.0204,521.0204,521.3532,NA,NA,NA,NA,NA,NA,NA,TRUE,1,0.6156,518.0241,521.0198,0,60,60,31,1,25,29,NA,NA,NA,NA,NA,1,61,"likert"
"C4BC1E1B8EDD46EBB9A1D01528042AF8",1,"01990a98-f8ad-72e4-a860-763b59495355","01990a84-c4ee-73c2-a87b-ff46a7d3dde5","2025-09-02_09h25.23.907",NA,NA,524.3562,524.3563,524.3563,524.7197,NA,NA,NA,NA,NA,NA,NA,TRUE,1,0.6947,521.3544,524.3561,0,61,61,58,1,45,40,NA,NA,NA,NA,NA,1,62,"likert"
"C4BC1E1B8EDD46EBB9A1D01528042AF8",1,"01990a98-f8ad-72e4-a860-763b59495355","01990a84-c4ee-73c2-a87b-ff46a7d3dde5","2025-09-02_09h25.23.907",NA,NA,527.7231,527.7231,527.7233,528.0571,NA,NA,NA,NA,NA,NA,NA,TRUE,1,0.6275,524.7209,527.7225,0,62,62,94,1,150,47,NA,NA,NA,NA,NA,1,63,"likert"
"C4BC1E1B8EDD46EBB9A1D01528042AF8",1,"01990a98-f8ad-72e4-a860-763b59495355","01990a84-c4ee-73c2-a87b-ff46a7d3dde5","2025-09-02_09h25.23.907",NA,NA,531.0559,531.056,531.056,531.4211,NA,NA,NA,NA,NA,NA,NA,TRUE,1,0.5338,528.0582,531.0554,0,63,63,3,1,7,30,NA,NA,NA,NA,NA,1,64,"likert"
"C4BC1E1B8EDD46EBB9A1D01528042AF8",1,"01990a98-f8ad-72e4-a860-763b59495355","01990a84-c4ee-73c2-a87b-ff46a7d3dde5","2025-09-02_09h25.23.907",NA,NA,534.4214,534.4215,534.4215,534.7542,NA,NA,NA,NA,NA,NA,NA,TRUE,1,0.3003,531.4223,534.4214,0,64,64,83,1,95,54,NA,NA,NA,NA,NA,1,65,"likert"
"C4BC1E1B8EDD46EBB9A1D01528042AF8",1,"01990a98-f8ad-72e4-a860-763b59495355","01990a84-c4ee-73c2-a87b-ff46a7d3dde5","2025-09-02_09h25.23.907",NA,NA,537.7588,537.7588,537.7589,538.1221,NA,NA,NA,NA,NA,NA,NA,TRUE,1,0.1873,534.7556,537.758,0,65,65,13,1,12,26,NA,NA,NA,NA,NA,1,66,"likert"
"C4BC1E1B8EDD46EBB9A1D01528042AF8",1,"01990a98-f8ad-72e4-a860-763b59495355","01990a84-c4ee-73c2-a87b-ff46a7d3dde5","2025-09-02_09h25.23.907",NA,NA,541.1245,541.1247,541.1247,541.4533,NA,NA,NA,NA,NA,NA,NA,TRUE,1,0.3356,538.123,541.1239,0,66,66,64,1,50,46,NA,NA,NA,NA,NA,1,67,"likert"
"C4BC1E1B8EDD46EBB9A1D01528042AF8",1,"01990a98-f8ad-72e4-a860-763b59495355","01990a84-c4ee-73c2-a87b-ff46a7d3dde5","2025-09-02_09h25.23.907",NA,NA,544.4552,544.4552,544.4553,544.8237,NA,NA,NA,NA,NA,NA,NA,TRUE,1,0.7755,541.4542,544.455,0,67,67,10,1,10,30,NA,NA,NA,NA,NA,1,68,"likert"
"C4BC1E1B8EDD46EBB9A1D01528042AF8",1,"01990a98-f8ad-72e4-a860-763b59495355","01990a84-c4ee-73c2-a87b-ff46a7d3dde5","2025-09-02_09h25.23.907",NA,NA,547.8218,547.8218,547.8219,548.155,NA,NA,NA,NA,NA,NA,NA,TRUE,1,0.659,544.825,547.8213,0,68,68,18,1,14,25,NA,NA,NA,NA,NA,1,69,"likert"
"C4BC1E1B8EDD46EBB9A1D01528042AF8",1,"01990a98-f8ad-72e4-a860-763b59495355","01990a84-c4ee-73c2-a87b-ff46a7d3dde5","2025-09-02_09h25.23.907",NA,NA,551.1533,551.1533,551.1533,551.5224,NA,NA,NA,NA,NA,NA,NA,TRUE,1,0.2671,548.1565,551.1528,0,69,69,97,1,180,31,NA,NA,NA,NA,NA,1,70,"likert"
"C4BC1E1B8EDD46EBB9A1D01528042AF8",1,"01990a98-f8ad-72e4-a860-763b59495355","01990a84-c4ee-73c2-a87b-ff46a7d3dde5","2025-09-02_09h25.23.907",NA,NA,554.5196,554.5198,554.5198,554.8528,NA,NA,NA,NA,NA,NA,NA,TRUE,1,0.5342,551.5236,554.5196,0,70,70,21,1,14,32,NA,NA,NA,NA,NA,1,71,"likert"
"C4BC1E1B8EDD46EBB9A1D01528042AF8",1,"01990a98-f8ad-72e4-a860-763b59495355","01990a84-c4ee-73c2-a87b-ff46a7d3dde5","2025-09-02_09h25.23.907",NA,NA,557.8575,557.8575,557.8575,558.2223,NA,NA,NA,NA,NA,NA,NA,TRUE,1,0.5967,554.8542,557.8568,0,71,71,12,1,12,25,NA,NA,NA,NA,NA,1,72,"likert"
"C4BC1E1B8EDD46EBB9A1D01528042AF8",1,"01990a98-f8ad-72e4-a860-763b59495355","01990a84-c4ee-73c2-a87b-ff46a7d3dde5","2025-09-02_09h25.23.907",NA,NA,561.2246,561.2247,561.2247,561.5538,NA,NA,NA,NA,NA,NA,NA,TRUE,1,1.3139,558.2233,561.2241,0,72,72,25,1,21,27,NA,NA,NA,NA,NA,1,73,"likert"
"C4BC1E1B8EDD46EBB9A1D01528042AF8",1,"01990a98-f8ad-72e4-a860-763b59495355","01990a84-c4ee-73c2-a87b-ff46a7d3dde5","2025-09-02_09h25.23.907",NA,NA,564.556,564.556,564.5561,564.9207,NA,NA,NA,NA,NA,NA,NA,TRUE,1,2.186,561.5549,564.5559,0,73,73,33,1,25,33,NA,NA,NA,NA,NA,1,74,"likert"
"C4BC1E1B8EDD46EBB9A1D01528042AF8",1,"01990a98-f8ad-72e4-a860-763b59495355","01990a84-c4ee-73c2-a87b-ff46a7d3dde5","2025-09-02_09h25.23.907",NA,NA,567.9238,567.9239,567.9239,568.2525,NA,NA,NA,NA,NA,NA,NA,TRUE,1,1.3352,564.9219,567.9231,0,74,74,20,1,14,28,NA,NA,NA,NA,NA,1,75,"likert"
"C4BC1E1B8EDD46EBB9A1D01528042AF8",1,"01990a98-f8ad-72e4-a860-763b59495355","01990a84-c4ee-73c2-a87b-ff46a7d3dde5","2025-09-02_09h25.23.907",NA,NA,571.2553,571.2554,571.2554,571.6234,NA,NA,NA,NA,NA,NA,NA,TRUE,2,1.1745,568.2538,571.2547,0,75,75,42,1,30,26,NA,NA,NA,NA,NA,1,76,"likert"
"C4BC1E1B8EDD46EBB9A1D01528042AF8",1,"01990a98-f8ad-72e4-a860-763b59495355","01990a84-c4ee-73c2-a87b-ff46a7d3dde5","2025-09-02_09h25.23.907",NA,NA,574.6198,574.6198,574.6198,574.976,NA,NA,NA,NA,NA,NA,NA,TRUE,1,0.6129,571.6245,574.6197,0,76,76,86,1,100,38,NA,NA,NA,NA,NA,1,77,"likert"
"C4BC1E1B8EDD46EBB9A1D01528042AF8",1,"01990a98-f8ad-72e4-a860-763b59495355","01990a84-c4ee-73c2-a87b-ff46a7d3dde5","2025-09-02_09h25.23.907",NA,NA,577.9718,577.9719,577.972,578.3207,NA,NA,NA,NA,NA,NA,NA,TRUE,1,0.9932,574.9769,577.9714,0,77,77,73,1,90,30,NA,NA,NA,NA,NA,1,78,"likert"
"C4BC1E1B8EDD46EBB9A1D01528042AF8",1,"01990a98-f8ad-72e4-a860-763b59495355","01990a84-c4ee-73c2-a87b-ff46a7d3dde5","2025-09-02_09h25.23.907",NA,NA,581.3209,581.3209,581.3209,581.6736,NA,NA,NA,NA,NA,NA,NA,TRUE,1,0.9295,578.3218,581.3205,0,78,78,5,1,7,35,NA,NA,NA,NA,NA,1,79,"likert"
"C4BC1E1B8EDD46EBB9A1D01528042AF8",1,"01990a98-f8ad-72e4-a860-763b59495355","01990a84-c4ee-73c2-a87b-ff46a7d3dde5","2025-09-02_09h25.23.907",NA,NA,584.5539,584.554,584.554,585.0214,NA,NA,NA,NA,NA,NA,NA,TRUE,1,0.4105,581.6751,584.5539,0,79,79,100,1,180,46,NA,NA,NA,NA,NA,1,80,"likert"
"C4BC1E1B8EDD46EBB9A1D01528042AF8",1,"01990a98-f8ad-72e4-a860-763b59495355","01990a84-c4ee-73c2-a87b-ff46a7d3dde5","2025-09-02_09h25.23.907",NA,NA,588.0196,588.0196,588.0196,588.3699,NA,NA,NA,NA,NA,NA,NA,TRUE,1,0.644,585.0229,588.0192,0,80,80,65,1,50,54,NA,NA,NA,NA,NA,1,81,"likert"
"C4BC1E1B8EDD46EBB9A1D01528042AF8",1,"01990a98-f8ad-72e4-a860-763b59495355","01990a84-c4ee-73c2-a87b-ff46a7d3dde5","2025-09-02_09h25.23.907",NA,NA,591.3714,591.3715,591.3715,591.7214,NA,NA,NA,NA,NA,NA,NA,TRUE,1,0.6907,588.3711,591.371,0,81,81,80,1,95,35,NA,NA,NA,NA,NA,1,82,"likert"
"C4BC1E1B8EDD46EBB9A1D01528042AF8",1,"01990a98-f8ad-72e4-a860-763b59495355","01990a84-c4ee-73c2-a87b-ff46a7d3dde5","2025-09-02_09h25.23.907",NA,NA,594.7187,594.7187,594.7187,595.0702,NA,NA,NA,NA,NA,NA,NA,TRUE,1,0.5662,591.7223,594.7187,0,82,82,87,1,100,39,NA,NA,NA,NA,NA,1,83,"likert"
"C4BC1E1B8EDD46EBB9A1D01528042AF8",1,"01990a98-f8ad-72e4-a860-763b59495355","01990a84-c4ee-73c2-a87b-ff46a7d3dde5","2025-09-02_09h25.23.907",NA,NA,598.0708,598.0709,598.0709,598.4196,NA,NA,NA,NA,NA,NA,NA,TRUE,1,0.6629,595.0715,598.0705,0,83,83,95,1,150,54,NA,NA,NA,NA,NA,1,84,"likert"
"C4BC1E1B8EDD46EBB9A1D01528042AF8",1,"01990a98-f8ad-72e4-a860-763b59495355","01990a84-c4ee-73c2-a87b-ff46a7d3dde5","2025-09-02_09h25.23.907",NA,NA,601.4194,601.4194,601.4195,601.7687,NA,NA,NA,NA,NA,NA,NA,TRUE,1,0.6035,598.4209,601.4189,0,84,84,79,1,95,33,NA,NA,NA,NA,NA,1,85,"likert"
"C4BC1E1B8EDD46EBB9A1D01528042AF8",1,"01990a98-f8ad-72e4-a860-763b59495355","01990a84-c4ee-73c2-a87b-ff46a7d3dde5","2025-09-02_09h25.23.907",NA,NA,604.7694,604.7694,604.7694,605.1188,NA,NA,NA,NA,NA,NA,NA,TRUE,1,0.4616,601.7696,604.7693,0,85,85,1,1,7,26,NA,NA,NA,NA,NA,1,86,"likert"
"C4BC1E1B8EDD46EBB9A1D01528042AF8",1,"01990a98-f8ad-72e4-a860-763b59495355","01990a84-c4ee-73c2-a87b-ff46a7d3dde5","2025-09-02_09h25.23.907",NA,NA,608.1192,608.1192,608.1196,608.47,NA,NA,NA,NA,NA,NA,NA,TRUE,1,0.9784,605.1198,608.1188,0,86,86,57,1,45,35,NA,NA,NA,NA,NA,1,87,"likert"
"C4BC1E1B8EDD46EBB9A1D01528042AF8",1,"01990a98-f8ad-72e4-a860-763b59495355","01990a84-c4ee-73c2-a87b-ff46a7d3dde5","2025-09-02_09h25.23.907",NA,NA,611.47,611.47,611.47,611.8206,NA,NA,NA,NA,NA,NA,NA,TRUE,1,1.4119,608.4709,611.4697,0,87,87,7,1,10,26,NA,NA,NA,NA,NA,1,88,"likert"
"C4BC1E1B8EDD46EBB9A1D01528042AF8",1,"01990a98-f8ad-72e4-a860-763b59495355","01990a84-c4ee-73c2-a87b-ff46a7d3dde5","2025-09-02_09h25.23.907",NA,NA,614.8207,614.8207,614.8207,615.1686,NA,NA,NA,NA,NA,NA,NA,TRUE,1,1.2955,611.8215,614.8206,0,88,88,4,1,7,32,NA,NA,NA,NA,NA,1,89,"likert"
"C4BC1E1B8EDD46EBB9A1D01528042AF8",1,"01990a98-f8ad-72e4-a860-763b59495355","01990a84-c4ee-73c2-a87b-ff46a7d3dde5","2025-09-02_09h25.23.907",NA,NA,618.1699,618.1699,618.1699,618.5202,NA,NA,NA,NA,NA,NA,NA,TRUE,1,1.3447,615.17,618.1694,0,89,89,66,1,60,29,NA,NA,NA,NA,NA,1,90,"likert"
"C4BC1E1B8EDD46EBB9A1D01528042AF8",1,"01990a98-f8ad-72e4-a860-763b59495355","01990a84-c4ee-73c2-a87b-ff46a7d3dde5","2025-09-02_09h25.23.907",NA,NA,621.5207,621.5207,621.5208,621.8686,NA,NA,NA,NA,NA,NA,NA,TRUE,1,1.2769,618.5209,621.5202,0,90,90,23,1,14,39,NA,NA,NA,NA,NA,1,91,"likert"
"C4BC1E1B8EDD46EBB9A1D01528042AF8",1,"01990a98-f8ad-72e4-a860-763b59495355","01990a84-c4ee-73c2-a87b-ff46a7d3dde5","2025-09-02_09h25.23.907",NA,NA,624.8705,624.8706,624.8707,625.2197,NA,NA,NA,NA,NA,NA,NA,TRUE,1,0.7275,621.8694,624.8705,0,91,91,2,1,7,28,NA,NA,NA,NA,NA,1,92,"likert"
"C4BC1E1B8EDD46EBB9A1D01528042AF8",1,"01990a98-f8ad-72e4-a860-763b59495355","01990a84-c4ee-73c2-a87b-ff46a7d3dde5","2025-09-02_09h25.23.907",NA,NA,628.2191,628.2191,628.2191,628.5685,NA,NA,NA,NA,NA,NA,NA,TRUE,1,1.0606,625.2208,628.2188,0,92,92,93,1,150,40,NA,NA,NA,NA,NA,1,93,"likert"
"C4BC1E1B8EDD46EBB9A1D01528042AF8",1,"01990a98-f8ad-72e4-a860-763b59495355","01990a84-c4ee-73c2-a87b-ff46a7d3dde5","2025-09-02_09h25.23.907",NA,NA,631.5689,631.569,631.569,631.9183,NA,NA,NA,NA,NA,NA,NA,TRUE,1,0.5604,628.5693,631.5685,0,93,93,26,1,21,29,NA,NA,NA,NA,NA,1,94,"likert"
"C4BC1E1B8EDD46EBB9A1D01528042AF8",1,"01990a98-f8ad-72e4-a860-763b59495355","01990a84-c4ee-73c2-a87b-ff46a7d3dde5","2025-09-02_09h25.23.907",NA,NA,634.9203,634.9204,634.9204,635.2709,NA,NA,NA,NA,NA,NA,NA,TRUE,1,0.8469,631.9195,634.9202,0,94,94,82,1,95,47,NA,NA,NA,NA,NA,1,95,"likert"
"C4BC1E1B8EDD46EBB9A1D01528042AF8",1,"01990a98-f8ad-72e4-a860-763b59495355","01990a84-c4ee-73c2-a87b-ff46a7d3dde5","2025-09-02_09h25.23.907",NA,NA,638.2687,638.2687,638.2687,638.6199,NA,NA,NA,NA,NA,NA,NA,TRUE,1,0.6602,635.2719,638.2684,0,95,95,37,1,28,28,NA,NA,NA,NA,NA,1,96,"likert"
"C4BC1E1B8EDD46EBB9A1D01528042AF8",1,"01990a98-f8ad-72e4-a860-763b59495355","01990a84-c4ee-73c2-a87b-ff46a7d3dde5","2025-09-02_09h25.23.907",NA,NA,641.619,641.619,641.619,641.9682,NA,NA,NA,NA,NA,NA,NA,TRUE,1,0.9654,638.6203,641.6186,0,96,96,51,1,40,40,NA,NA,NA,NA,NA,1,97,"likert"
"C4BC1E1B8EDD46EBB9A1D01528042AF8",1,"01990a98-f8ad-72e4-a860-763b59495355","01990a84-c4ee-73c2-a87b-ff46a7d3dde5","2025-09-02_09h25.23.907",NA,NA,644.9688,644.9688,644.9688,645.3196,NA,NA,NA,NA,NA,NA,NA,TRUE,1,0.472,641.9691,644.9687,0,97,97,34,1,25,35,NA,NA,NA,NA,NA,1,98,"likert"
"C4BC1E1B8EDD46EBB9A1D01528042AF8",1,"01990a98-f8ad-72e4-a860-763b59495355","01990a84-c4ee-73c2-a87b-ff46a7d3dde5","2025-09-02_09h25.23.907",NA,NA,648.3204,648.3205,648.3205,648.669,NA,NA,NA,NA,NA,NA,NA,TRUE,1,0.7568,645.3207,648.32,0,98,98,107,1,200,54,NA,NA,NA,NA,NA,1,99,"likert"
"C4BC1E1B8EDD46EBB9A1D01528042AF8",1,"01990a98-f8ad-72e4-a860-763b59495355","01990a84-c4ee-73c2-a87b-ff46a7d3dde5","2025-09-02_09h25.23.907",NA,NA,651.6706,651.6709,651.6709,652.018,NA,NA,NA,NA,NA,NA,NA,TRUE,1,0.7512,648.6699,651.6702,0,99,99,88,1,100,46,NA,NA,NA,NA,NA,1,100,"likert"
"C4BC1E1B8EDD46EBB9A1D01528042AF8",1,"01990a98-f8ad-72e4-a860-763b59495355","01990a84-c4ee-73c2-a87b-ff46a7d3dde5","2025-09-02_09h25.23.907",NA,NA,655.0182,655.0183,655.0183,655.368,NA,NA,NA,NA,NA,NA,NA,TRUE,1,0.8799,652.0189,655.0182,0,100,100,101,1,180,54,NA,NA,NA,NA,NA,1,101,"likert"
"C4BC1E1B8EDD46EBB9A1D01528042AF8",1,"01990a98-f8ad-72e4-a860-763b59495355","01990a84-c4ee-73c2-a87b-ff46a7d3dde5","2025-09-02_09h25.23.907",NA,NA,658.3697,658.3697,658.3697,658.7176,NA,NA,NA,NA,NA,NA,NA,TRUE,1,0.4635,655.3694,658.3694,0,101,101,40,1,28,39,NA,NA,NA,NA,NA,1,102,"likert"
"C4BC1E1B8EDD46EBB9A1D01528042AF8",1,"01990a98-f8ad-72e4-a860-763b59495355","01990a84-c4ee-73c2-a87b-ff46a7d3dde5","2025-09-02_09h25.23.907",NA,NA,661.7183,661.7184,661.7184,662.0678,NA,NA,NA,NA,NA,NA,NA,TRUE,1,0.8825,658.7182,661.718,0,102,102,99,1,180,39,NA,NA,NA,NA,NA,1,103,"likert"
"C4BC1E1B8EDD46EBB9A1D01528042AF8",1,"01990a98-f8ad-72e4-a860-763b59495355","01990a84-c4ee-73c2-a87b-ff46a7d3dde5","2025-09-02_09h25.23.907",NA,NA,665.0695,665.0695,665.0695,665.4179,NA,NA,NA,NA,NA,NA,NA,TRUE,1,0.5302,662.0687,665.0694,0,103,103,43,1,30,27,NA,NA,NA,NA,NA,1,104,"likert"
"C4BC1E1B8EDD46EBB9A1D01528042AF8",1,"01990a98-f8ad-72e4-a860-763b59495355","01990a84-c4ee-73c2-a87b-ff46a7d3dde5","2025-09-02_09h25.23.907",NA,NA,668.4191,668.4192,668.4192,668.7688,NA,NA,NA,NA,NA,NA,NA,TRUE,1,0.3646,665.4186,668.4187,0,104,104,59,1,45,46,NA,NA,NA,NA,NA,1,105,"likert"
"C4BC1E1B8EDD46EBB9A1D01528042AF8",1,"01990a98-f8ad-72e4-a860-763b59495355","01990a84-c4ee-73c2-a87b-ff46a7d3dde5","2025-09-02_09h25.23.907",NA,NA,671.7688,671.7688,671.7688,672.12,NA,NA,NA,NA,NA,NA,NA,TRUE,1,0.2993,668.77,671.7684,0,105,105,60,1,50,27,NA,NA,NA,NA,NA,1,106,"likert"
"C4BC1E1B8EDD46EBB9A1D01528042AF8",1,"01990a98-f8ad-72e4-a860-763b59495355","01990a84-c4ee-73c2-a87b-ff46a7d3dde5","2025-09-02_09h25.23.907",NA,NA,675.118,675.118,675.118,675.4675,NA,NA,NA,NA,NA,NA,NA,TRUE,1,0.3905,672.121,675.1179,0,106,106,47,1,30,38,NA,NA,NA,NA,NA,1,107,"likert"
"C4BC1E1B8EDD46EBB9A1D01528042AF8",1,"01990a98-f8ad-72e4-a860-763b59495355","01990a84-c4ee-73c2-a87b-ff46a7d3dde5","2025-09-02_09h25.23.907",NA,NA,678.4684,678.4687,678.4688,678.8195,NA,NA,NA,NA,NA,NA,NA,TRUE,1,0.4276,675.4688,678.4679,0,107,107,16,1,12,33,NA,NA,NA,NA,NA,1,108,"likert"
"C4BC1E1B8EDD46EBB9A1D01528042AF8",1,"01990a98-f8ad-72e4-a860-763b59495355","01990a84-c4ee-73c2-a87b-ff46a7d3dde5","2025-09-02_09h25.23.907",NA,NA,891.7321,891.7321,891.7321,892.0808,NA,NA,NA,NA,NA,NA,NA,TRUE,1,1.0984,888.7462,891.7316,NA,NA,NA,NA,NA,28,39,0,0,0,40,1,2,1,"likert"
"C4BC1E1B8EDD46EBB9A1D01528042AF8",1,"01990a98-f8ad-72e4-a860-763b59495355","01990a84-c4ee-73c2-a87b-ff46a7d3dde5","2025-09-02_09h25.23.907",NA,NA,895.0833,895.0834,895.0834,895.4303,NA,NA,NA,NA,NA,NA,NA,TRUE,1,1.0906,892.0819,895.0829,NA,NA,NA,NA,NA,45,40,0,1,1,58,1,2,2,"likert"
"C4BC1E1B8EDD46EBB9A1D01528042AF8",1,"01990a98-f8ad-72e4-a860-763b59495355","01990a84-c4ee-73c2-a87b-ff46a7d3dde5","2025-09-02_09h25.23.907",NA,NA,898.4328,898.4328,898.4328,898.781,NA,NA,NA,NA,NA,NA,NA,TRUE,1,0.8882,895.4311,898.4328,NA,NA,NA,NA,NA,100,54,0,2,2,89,1,2,3,"likert"
"C4BC1E1B8EDD46EBB9A1D01528042AF8",1,"01990a98-f8ad-72e4-a860-763b59495355","01990a84-c4ee-73c2-a87b-ff46a7d3dde5","2025-09-02_09h25.23.907",NA,NA,901.7813,901.7813,901.7813,902.1326,NA,NA,NA,NA,NA,NA,NA,TRUE,1,0.959,898.7823,901.7808,NA,NA,NA,NA,NA,30,26,0,3,3,42,1,2,4,"likert"
"C4BC1E1B8EDD46EBB9A1D01528042AF8",1,"01990a98-f8ad-72e4-a860-763b59495355","01990a84-c4ee-73c2-a87b-ff46a7d3dde5","2025-09-02_09h25.23.907",NA,NA,905.1329,905.133,905.133,905.4809,NA,NA,NA,NA,NA,NA,NA,TRUE,1,0.5416,902.1334,905.1326,NA,NA,NA,NA,NA,7,26,0,4,4,1,1,2,5,"likert"
"C4BC1E1B8EDD46EBB9A1D01528042AF8",1,"01990a98-f8ad-72e4-a860-763b59495355","01990a84-c4ee-73c2-a87b-ff46a7d3dde5","2025-09-02_09h25.23.907",NA,NA,908.4818,908.4818,908.4818,908.83,NA,NA,NA,NA,NA,NA,NA,TRUE,1,0.9614,905.4821,908.4817,NA,NA,NA,NA,NA,200,54,0,5,5,107,1,2,6,"likert"
"C4BC1E1B8EDD46EBB9A1D01528042AF8",1,"01990a98-f8ad-72e4-a860-763b59495355","01990a84-c4ee-73c2-a87b-ff46a7d3dde5","2025-09-02_09h25.23.907",NA,NA,911.8307,911.8307,911.8308,912.1814,NA,NA,NA,NA,NA,NA,NA,TRUE,1,1.0115,908.8311,911.8301,NA,NA,NA,NA,NA,50,40,0,6,6,63,1,2,7,"likert"
"C4BC1E1B8EDD46EBB9A1D01528042AF8",1,"01990a98-f8ad-72e4-a860-763b59495355","01990a84-c4ee-73c2-a87b-ff46a7d3dde5","2025-09-02_09h25.23.907",NA,NA,915.1829,915.183,915.183,915.5305,NA,NA,NA,NA,NA,NA,NA,TRUE,1,0.3005,912.1824,915.1826,NA,NA,NA,NA,NA,30,29,0,7,7,44,1,2,8,"likert"
"C4BC1E1B8EDD46EBB9A1D01528042AF8",1,"01990a98-f8ad-72e4-a860-763b59495355","01990a84-c4ee-73c2-a87b-ff46a7d3dde5","2025-09-02_09h25.23.907",NA,NA,918.5312,918.5312,918.5312,918.8805,NA,NA,NA,NA,NA,NA,NA,TRUE,1,0.4892,915.531,918.531,NA,NA,NA,NA,NA,7,28,0,8,8,2,1,2,9,"likert"
"C4BC1E1B8EDD46EBB9A1D01528042AF8",1,"01990a98-f8ad-72e4-a860-763b59495355","01990a84-c4ee-73c2-a87b-ff46a7d3dde5","2025-09-02_09h25.23.907",NA,NA,923.3237,923.3238,923.3238,923.3238,NA,NA,NA,NA,NA,NA,NA,TRUE,1,0.5363,918.8818,923.3234,NA,NA,NA,NA,NA,60,40,0,9,9,69,1,2,10,"likert"
"C4BC1E1B8EDD46EBB9A1D01528042AF8",1,"01990a98-f8ad-72e4-a860-763b59495355","01990a84-c4ee-73c2-a87b-ff46a7d3dde5","2025-09-02_09h25.23.907",NA,NA,923.3433,925.4812,925.4812,925.5827,NA,NA,NA,NA,NA,NA,NA,FALSE,NA,NA,923.3243,923.3432,NA,NA,NA,NA,NA,21,38,0,10,10,29,1,2,11,"likert"
"C4BC1E1B8EDD46EBB9A1D01528042AF8",1,"01990a98-f8ad-72e4-a860-763b59495355","01990a84-c4ee-73c2-a87b-ff46a7d3dde5","2025-09-02_09h25.23.907",NA,NA,928.5819,928.5819,928.5819,928.9329,NA,NA,NA,NA,NA,NA,NA,TRUE,1,0.347,925.5841,928.5815,NA,NA,NA,NA,NA,40,47,0,11,11,52,1,2,12,"likert"
"C4BC1E1B8EDD46EBB9A1D01528042AF8",1,"01990a98-f8ad-72e4-a860-763b59495355","01990a84-c4ee-73c2-a87b-ff46a7d3dde5","2025-09-02_09h25.23.907",NA,NA,931.9306,931.9306,931.9306,932.2811,NA,NA,NA,NA,NA,NA,NA,TRUE,1,0.8323,928.9343,931.9303,NA,NA,NA,NA,NA,90,33,0,12,12,74,1,2,13,"likert"
"C4BC1E1B8EDD46EBB9A1D01528042AF8",1,"01990a98-f8ad-72e4-a860-763b59495355","01990a84-c4ee-73c2-a87b-ff46a7d3dde5","2025-09-02_09h25.23.907",NA,NA,935.2805,935.5303,935.5304,935.634,NA,NA,NA,NA,NA,NA,NA,FALSE,NA,NA,932.282,935.28,NA,NA,NA,NA,NA,28,28,0,13,13,37,1,2,14,"likert"
"C4BC1E1B8EDD46EBB9A1D01528042AF8",1,"01990a98-f8ad-72e4-a860-763b59495355","01990a84-c4ee-73c2-a87b-ff46a7d3dde5","2025-09-02_09h25.23.907",NA,NA,938.6305,938.6306,938.6306,938.9813,NA,NA,NA,NA,NA,NA,NA,TRUE,1,1.0246,935.6354,938.6305,NA,NA,NA,NA,NA,14,28,0,14,14,20,1,2,15,"likert"
"C4BC1E1B8EDD46EBB9A1D01528042AF8",1,"01990a98-f8ad-72e4-a860-763b59495355","01990a84-c4ee-73c2-a87b-ff46a7d3dde5","2025-09-02_09h25.23.907",NA,NA,941.9798,941.9798,941.9798,942.3319,NA,NA,NA,NA,NA,NA,NA,TRUE,1,1.2607,938.9821,941.9795,NA,NA,NA,NA,NA,95,31,0,15,15,78,1,2,16,"likert"
"C4BC1E1B8EDD46EBB9A1D01528042AF8",1,"01990a98-f8ad-72e4-a860-763b59495355","01990a84-c4ee-73c2-a87b-ff46a7d3dde5","2025-09-02_09h25.23.907",NA,NA,945.3311,945.3312,945.3312,945.6803,NA,NA,NA,NA,NA,NA,NA,TRUE,1,0.5639,942.3326,945.3308,NA,NA,NA,NA,NA,21,26,0,16,16,24,1,2,17,"likert"
"C4BC1E1B8EDD46EBB9A1D01528042AF8",1,"01990a98-f8ad-72e4-a860-763b59495355","01990a84-c4ee-73c2-a87b-ff46a7d3dde5","2025-09-02_09h25.23.907",NA,NA,948.6794,948.6794,948.6794,949.0307,NA,NA,NA,NA,NA,NA,NA,TRUE,1,0.6137,945.6817,948.6793,NA,NA,NA,NA,NA,180,39,0,17,17,99,1,2,18,"likert"
"C4BC1E1B8EDD46EBB9A1D01528042AF8",1,"01990a98-f8ad-72e4-a860-763b59495355","01990a84-c4ee-73c2-a87b-ff46a7d3dde5","2025-09-02_09h25.23.907",NA,NA,952.032,952.032,952.0321,952.381,NA,NA,NA,NA,NA,NA,NA,TRUE,1,0.7406,949.0317,952.0313,NA,NA,NA,NA,NA,180,31,0,18,18,97,1,2,19,"likert"
"C4BC1E1B8EDD46EBB9A1D01528042AF8",1,"01990a98-f8ad-72e4-a860-763b59495355","01990a84-c4ee-73c2-a87b-ff46a7d3dde5","2025-09-02_09h25.23.907",NA,NA,955.3829,955.383,955.383,955.7295,NA,NA,NA,NA,NA,NA,NA,TRUE,1,0.4114,952.382,955.3825,NA,NA,NA,NA,NA,14,35,0,19,19,22,1,2,20,"likert"
"C4BC1E1B8EDD46EBB9A1D01528042AF8",1,"01990a98-f8ad-72e4-a860-763b59495355","01990a84-c4ee-73c2-a87b-ff46a7d3dde5","2025-09-02_09h25.23.907",NA,NA,958.7319,958.7319,958.7319,959.0809,NA,NA,NA,NA,NA,NA,NA,TRUE,1,0.6327,955.7308,958.7318,NA,NA,NA,NA,NA,150,47,0,20,20,94,1,2,21,"likert"
"C4BC1E1B8EDD46EBB9A1D01528042AF8",1,"01990a98-f8ad-72e4-a860-763b59495355","01990a84-c4ee-73c2-a87b-ff46a7d3dde5","2025-09-02_09h25.23.907",NA,NA,962.08,962.08,962.0801,962.4294,NA,NA,NA,NA,NA,NA,NA,TRUE,1,0.4656,959.0819,962.0796,NA,NA,NA,NA,NA,12,35,0,21,21,17,1,2,22,"likert"
"C4BC1E1B8EDD46EBB9A1D01528042AF8",1,"01990a98-f8ad-72e4-a860-763b59495355","01990a84-c4ee-73c2-a87b-ff46a7d3dde5","2025-09-02_09h25.23.907",NA,NA,965.4315,965.4315,965.4316,965.7807,NA,NA,NA,NA,NA,NA,NA,TRUE,1,0.7137,962.4304,965.4309,NA,NA,NA,NA,NA,7,30,0,22,22,3,1,2,23,"likert"
"C4BC1E1B8EDD46EBB9A1D01528042AF8",1,"01990a98-f8ad-72e4-a860-763b59495355","01990a84-c4ee-73c2-a87b-ff46a7d3dde5","2025-09-02_09h25.23.907",NA,NA,968.7823,968.7823,968.7823,969.1295,NA,NA,NA,NA,NA,NA,NA,TRUE,1,0.4466,965.7824,968.7822,NA,NA,NA,NA,NA,100,31,0,23,23,85,1,2,24,"likert"
"C4BC1E1B8EDD46EBB9A1D01528042AF8",1,"01990a98-f8ad-72e4-a860-763b59495355","01990a84-c4ee-73c2-a87b-ff46a7d3dde5","2025-09-02_09h25.23.907",NA,NA,972.1297,972.1297,972.13,972.4799,NA,NA,NA,NA,NA,NA,NA,TRUE,1,0.6847,969.1307,972.1292,NA,NA,NA,NA,NA,25,35,0,24,24,34,1,2,25,"likert"
"C4BC1E1B8EDD46EBB9A1D01528042AF8",1,"01990a98-f8ad-72e4-a860-763b59495355","01990a84-c4ee-73c2-a87b-ff46a7d3dde5","2025-09-02_09h25.23.907",NA,NA,975.4812,975.4813,975.4814,975.8318,NA,NA,NA,NA,NA,NA,NA,TRUE,1,0.3242,972.4807,975.4809,NA,NA,NA,NA,NA,200,47,0,25,25,106,1,2,26,"likert"
"C4BC1E1B8EDD46EBB9A1D01528042AF8",1,"01990a98-f8ad-72e4-a860-763b59495355","01990a84-c4ee-73c2-a87b-ff46a7d3dde5","2025-09-02_09h25.23.907",NA,NA,978.8309,978.8309,978.8309,979.1803,NA,NA,NA,NA,NA,NA,NA,TRUE,1,0.348,975.8326,978.8308,NA,NA,NA,NA,NA,200,26,0,26,26,102,1,2,27,"likert"
"C4BC1E1B8EDD46EBB9A1D01528042AF8",1,"01990a98-f8ad-72e4-a860-763b59495355","01990a84-c4ee-73c2-a87b-ff46a7d3dde5","2025-09-02_09h25.23.907",NA,NA,982.1796,982.1796,982.1797,982.5303,NA,NA,NA,NA,NA,NA,NA,TRUE,1,0.4231,979.1813,982.1791,NA,NA,NA,NA,NA,12,26,0,27,27,13,1,2,28,"likert"
"C4BC1E1B8EDD46EBB9A1D01528042AF8",1,"01990a98-f8ad-72e4-a860-763b59495355","01990a84-c4ee-73c2-a87b-ff46a7d3dde5","2025-09-02_09h25.23.907",NA,NA,985.5306,985.5306,985.5306,985.8806,NA,NA,NA,NA,NA,NA,NA,TRUE,1,0.4466,982.5312,985.5302,NA,NA,NA,NA,NA,14,39,0,28,28,23,1,2,29,"likert"
"C4BC1E1B8EDD46EBB9A1D01528042AF8",1,"01990a98-f8ad-72e4-a860-763b59495355","01990a84-c4ee-73c2-a87b-ff46a7d3dde5","2025-09-02_09h25.23.907",NA,NA,988.8802,988.8803,988.8803,989.2302,NA,NA,NA,NA,NA,NA,NA,TRUE,1,0.713,985.8817,988.8801,NA,NA,NA,NA,NA,100,38,0,29,29,86,1,2,30,"likert"
"C4BC1E1B8EDD46EBB9A1D01528042AF8",1,"01990a98-f8ad-72e4-a860-763b59495355","01990a84-c4ee-73c2-a87b-ff46a7d3dde5","2025-09-02_09h25.23.907",NA,NA,992.2311,992.2311,992.2312,992.5802,NA,NA,NA,NA,NA,NA,NA,TRUE,1,0.2606,989.2313,992.2306,NA,NA,NA,NA,NA,180,35,0,30,30,98,1,2,31,"likert"
"C4BC1E1B8EDD46EBB9A1D01528042AF8",1,"01990a98-f8ad-72e4-a860-763b59495355","01990a84-c4ee-73c2-a87b-ff46a7d3dde5","2025-09-02_09h25.23.907",NA,NA,995.5806,995.5806,995.5806,995.9301,NA,NA,NA,NA,NA,NA,NA,TRUE,1,0.4617,992.5812,995.5801,NA,NA,NA,NA,NA,25,46,0,31,31,35,1,2,32,"likert"
"C4BC1E1B8EDD46EBB9A1D01528042AF8",1,"01990a98-f8ad-72e4-a860-763b59495355","01990a84-c4ee-73c2-a87b-ff46a7d3dde5","2025-09-02_09h25.23.907",NA,NA,998.929,998.929,998.929,999.2804,NA,NA,NA,NA,NA,NA,NA,TRUE,1,0.4638,995.931,998.9288,NA,NA,NA,NA,NA,28,32,0,32,32,38,1,2,33,"likert"
"C4BC1E1B8EDD46EBB9A1D01528042AF8",1,"01990a98-f8ad-72e4-a860-763b59495355","01990a84-c4ee-73c2-a87b-ff46a7d3dde5","2025-09-02_09h25.23.907",NA,NA,1002.2802,1002.2803,1002.2803,1002.6298,NA,NA,NA,NA,NA,NA,NA,TRUE,1,0.3808,999.2814,1002.2798,NA,NA,NA,NA,NA,45,29,0,33,33,55,1,2,34,"likert"
"C4BC1E1B8EDD46EBB9A1D01528042AF8",1,"01990a98-f8ad-72e4-a860-763b59495355","01990a84-c4ee-73c2-a87b-ff46a7d3dde5","2025-09-02_09h25.23.907",NA,NA,1005.635,1005.6351,1005.6351,1005.979,NA,NA,NA,NA,NA,NA,NA,TRUE,1,0.2956,1002.631,1005.6346,NA,NA,NA,NA,NA,12,31,0,34,34,15,1,2,35,"likert"
"C4BC1E1B8EDD46EBB9A1D01528042AF8",1,"01990a98-f8ad-72e4-a860-763b59495355","01990a84-c4ee-73c2-a87b-ff46a7d3dde5","2025-09-02_09h25.23.907",NA,NA,1008.9803,1008.9803,1008.9803,1009.3298,NA,NA,NA,NA,NA,NA,NA,TRUE,1,0.3132,1005.98,1008.9801,NA,NA,NA,NA,NA,10,26,0,35,35,7,1,2,36,"likert"
"C4BC1E1B8EDD46EBB9A1D01528042AF8",1,"01990a98-f8ad-72e4-a860-763b59495355","01990a84-c4ee-73c2-a87b-ff46a7d3dde5","2025-09-02_09h25.23.907",NA,NA,1012.3293,1012.3293,1012.3293,1012.6803,NA,NA,NA,NA,NA,NA,NA,TRUE,1,0.3268,1009.3309,1012.3288,NA,NA,NA,NA,NA,40,54,0,36,36,53,1,2,37,"likert"
"C4BC1E1B8EDD46EBB9A1D01528042AF8",1,"01990a98-f8ad-72e4-a860-763b59495355","01990a84-c4ee-73c2-a87b-ff46a7d3dde5","2025-09-02_09h25.23.907",NA,NA,1015.6813,1015.6813,1015.6814,1016.03,NA,NA,NA,NA,NA,NA,NA,TRUE,1,0.3792,1012.6815,1015.6809,NA,NA,NA,NA,NA,90,54,0,37,37,77,1,2,38,"likert"
"C4BC1E1B8EDD46EBB9A1D01528042AF8",1,"01990a98-f8ad-72e4-a860-763b59495355","01990a84-c4ee-73c2-a87b-ff46a7d3dde5","2025-09-02_09h25.23.907",NA,NA,1019.0285,1019.0285,1019.0285,1019.3786,NA,NA,NA,NA,NA,NA,NA,TRUE,1,0.4818,1016.0313,1019.0284,NA,NA,NA,NA,NA,28,26,0,38,38,36,1,2,39,"likert"
"C4BC1E1B8EDD46EBB9A1D01528042AF8",1,"01990a98-f8ad-72e4-a860-763b59495355","01990a84-c4ee-73c2-a87b-ff46a7d3dde5","2025-09-02_09h25.23.907",NA,NA,1022.3801,1022.3801,1022.3801,1022.7304,NA,NA,NA,NA,NA,NA,NA,TRUE,1,0.6108,1019.3794,1022.3798,NA,NA,NA,NA,NA,50,35,0,39,39,62,1,2,40,"likert"
"C4BC1E1B8EDD46EBB9A1D01528042AF8",1,"01990a98-f8ad-72e4-a860-763b59495355","01990a84-c4ee-73c2-a87b-ff46a7d3dde5","2025-09-02_09h25.23.907",NA,NA,1025.7292,1025.7292,1025.7296,1026.0802,NA,NA,NA,NA,NA,NA,NA,TRUE,1,0.3974,1022.7313,1025.7286,NA,NA,NA,NA,NA,25,31,0,40,40,32,1,2,41,"likert"
"C4BC1E1B8EDD46EBB9A1D01528042AF8",1,"01990a98-f8ad-72e4-a860-763b59495355","01990a84-c4ee-73c2-a87b-ff46a7d3dde5","2025-09-02_09h25.23.907",NA,NA,1029.0793,1029.0793,1029.0795,1029.4303,NA,NA,NA,NA,NA,NA,NA,TRUE,1,1.3766,1026.0812,1029.0793,NA,NA,NA,NA,NA,28,35,0,41,41,39,1,2,42,"likert"
"C4BC1E1B8EDD46EBB9A1D01528042AF8",1,"01990a98-f8ad-72e4-a860-763b59495355","01990a84-c4ee-73c2-a87b-ff46a7d3dde5","2025-09-02_09h25.23.907",NA,NA,1032.4289,1032.4289,1032.429,1032.7798,NA,NA,NA,NA,NA,NA,NA,TRUE,1,0.4436,1029.4313,1032.4284,NA,NA,NA,NA,NA,25,33,0,42,42,33,1,2,43,"likert"
"C4BC1E1B8EDD46EBB9A1D01528042AF8",1,"01990a98-f8ad-72e4-a860-763b59495355","01990a84-c4ee-73c2-a87b-ff46a7d3dde5","2025-09-02_09h25.23.907",NA,NA,1035.7797,1035.7797,1035.7797,1036.1307,NA,NA,NA,NA,NA,NA,NA,TRUE,1,0.5053,1032.7806,1035.7793,NA,NA,NA,NA,NA,21,30,0,43,43,27,1,2,44,"likert"
"C4BC1E1B8EDD46EBB9A1D01528042AF8",1,"01990a98-f8ad-72e4-a860-763b59495355","01990a84-c4ee-73c2-a87b-ff46a7d3dde5","2025-09-02_09h25.23.907",NA,NA,1039.13,1039.13,1039.13,1039.4783,NA,NA,NA,NA,NA,NA,NA,TRUE,1,0.6787,1036.1315,1039.1299,NA,NA,NA,NA,NA,150,35,0,44,44,92,1,2,45,"likert"
"C4BC1E1B8EDD46EBB9A1D01528042AF8",1,"01990a98-f8ad-72e4-a860-763b59495355","01990a84-c4ee-73c2-a87b-ff46a7d3dde5","2025-09-02_09h25.23.907",NA,NA,1042.4801,1042.4802,1042.4802,1042.8306,NA,NA,NA,NA,NA,NA,NA,TRUE,1,0.531,1039.4793,1042.4797,NA,NA,NA,NA,NA,45,26,0,45,45,54,1,2,46,"likert"
"C4BC1E1B8EDD46EBB9A1D01528042AF8",1,"01990a98-f8ad-72e4-a860-763b59495355","01990a84-c4ee-73c2-a87b-ff46a7d3dde5","2025-09-02_09h25.23.907",NA,NA,1045.8306,1045.8306,1045.8306,1046.179,NA,NA,NA,NA,NA,NA,NA,TRUE,1,0.6456,1042.8317,1045.8302,NA,NA,NA,NA,NA,30,27,0,46,46,43,1,2,47,"likert"
"C4BC1E1B8EDD46EBB9A1D01528042AF8",1,"01990a98-f8ad-72e4-a860-763b59495355","01990a84-c4ee-73c2-a87b-ff46a7d3dde5","2025-09-02_09h25.23.907",NA,NA,1049.1783,1049.1783,1049.1783,1049.5283,NA,NA,NA,NA,NA,NA,NA,TRUE,1,0.2765,1046.1801,1049.1782,NA,NA,NA,NA,NA,95,40,0,47,47,81,1,2,48,"likert"
"C4BC1E1B8EDD46EBB9A1D01528042AF8",1,"01990a98-f8ad-72e4-a860-763b59495355","01990a84-c4ee-73c2-a87b-ff46a7d3dde5","2025-09-02_09h25.23.907",NA,NA,1052.5316,1052.5317,1052.5318,1052.8799,NA,NA,NA,NA,NA,NA,NA,TRUE,1,0.2651,1049.5296,1052.5312,NA,NA,NA,NA,NA,180,27,0,48,48,96,1,2,49,"likert"
"C4BC1E1B8EDD46EBB9A1D01528042AF8",1,"01990a98-f8ad-72e4-a860-763b59495355","01990a84-c4ee-73c2-a87b-ff46a7d3dde5","2025-09-02_09h25.23.907",NA,NA,1055.8789,1055.8789,1055.879,1056.2287,NA,NA,NA,NA,NA,NA,NA,TRUE,1,0.3809,1052.8808,1055.8786,NA,NA,NA,NA,NA,200,35,0,49,49,104,1,2,50,"likert"
"C4BC1E1B8EDD46EBB9A1D01528042AF8",1,"01990a98-f8ad-72e4-a860-763b59495355","01990a84-c4ee-73c2-a87b-ff46a7d3dde5","2025-09-02_09h25.23.907",NA,NA,1059.2282,1059.2282,1059.2282,1059.5808,NA,NA,NA,NA,NA,NA,NA,TRUE,1,0.3132,1056.2302,1059.2281,NA,NA,NA,NA,NA,60,54,0,50,50,71,1,2,51,"likert"
"C4BC1E1B8EDD46EBB9A1D01528042AF8",1,"01990a98-f8ad-72e4-a860-763b59495355","01990a84-c4ee-73c2-a87b-ff46a7d3dde5","2025-09-02_09h25.23.907",NA,NA,1062.5787,1062.5787,1062.5787,1062.9302,NA,NA,NA,NA,NA,NA,NA,TRUE,1,0.7785,1059.5822,1062.5781,NA,NA,NA,NA,NA,14,26,0,51,51,19,1,2,52,"likert"
"C4BC1E1B8EDD46EBB9A1D01528042AF8",1,"01990a98-f8ad-72e4-a860-763b59495355","01990a84-c4ee-73c2-a87b-ff46a7d3dde5","2025-09-02_09h25.23.907",NA,NA,1065.9284,1065.9285,1065.9285,1066.2801,NA,NA,NA,NA,NA,NA,NA,TRUE,1,0.3076,1062.9315,1065.9279,NA,NA,NA,NA,NA,180,54,0,52,52,101,1,2,53,"likert"
"C4BC1E1B8EDD46EBB9A1D01528042AF8",1,"01990a98-f8ad-72e4-a860-763b59495355","01990a84-c4ee-73c2-a87b-ff46a7d3dde5","2025-09-02_09h25.23.907",NA,NA,1069.2781,1069.2782,1069.2782,1069.6372,NA,NA,NA,NA,NA,NA,NA,TRUE,1,0.3797,1066.2818,1069.278,NA,NA,NA,NA,NA,21,29,0,53,53,26,1,2,54,"likert"
"C4BC1E1B8EDD46EBB9A1D01528042AF8",1,"01990a98-f8ad-72e4-a860-763b59495355","01990a84-c4ee-73c2-a87b-ff46a7d3dde5","2025-09-02_09h25.23.907",NA,NA,1072.6296,1072.6296,1072.6296,1072.979,NA,NA,NA,NA,NA,NA,NA,TRUE,1,0.7363,1069.6378,1072.6291,NA,NA,NA,NA,NA,21,32,0,54,54,28,1,2,55,"likert"
"C4BC1E1B8EDD46EBB9A1D01528042AF8",1,"01990a98-f8ad-72e4-a860-763b59495355","01990a84-c4ee-73c2-a87b-ff46a7d3dde5","2025-09-02_09h25.23.907",NA,NA,1075.9806,1075.9806,1075.9806,1076.3277,NA,NA,NA,NA,NA,NA,NA,TRUE,1,0.5467,1072.9799,1075.9799,NA,NA,NA,NA,NA,50,54,0,55,55,65,1,2,56,"likert"
"C4BC1E1B8EDD46EBB9A1D01528042AF8",1,"01990a98-f8ad-72e4-a860-763b59495355","01990a84-c4ee-73c2-a87b-ff46a7d3dde5","2025-09-02_09h25.23.907",NA,NA,1079.3291,1079.3291,1079.3291,1079.6795,NA,NA,NA,NA,NA,NA,NA,TRUE,1,0.361,1076.3289,1079.329,NA,NA,NA,NA,NA,12,33,0,56,56,16,1,2,57,"likert"
"C4BC1E1B8EDD46EBB9A1D01528042AF8",1,"01990a98-f8ad-72e4-a860-763b59495355","01990a84-c4ee-73c2-a87b-ff46a7d3dde5","2025-09-02_09h25.23.907",NA,NA,1082.6782,1082.6783,1082.6783,1083.0292,NA,NA,NA,NA,NA,NA,NA,TRUE,1,0.4474,1079.6806,1082.6779,NA,NA,NA,NA,NA,90,30,0,57,57,73,1,2,58,"likert"
"C4BC1E1B8EDD46EBB9A1D01528042AF8",1,"01990a98-f8ad-72e4-a860-763b59495355","01990a84-c4ee-73c2-a87b-ff46a7d3dde5","2025-09-02_09h25.23.907",NA,NA,1086.0293,1086.0293,1086.0293,1086.3798,NA,NA,NA,NA,NA,NA,NA,TRUE,1,0.5039,1083.03,1086.0289,NA,NA,NA,NA,NA,100,26,0,58,58,84,1,2,59,"likert"
"C4BC1E1B8EDD46EBB9A1D01528042AF8",1,"01990a98-f8ad-72e4-a860-763b59495355","01990a84-c4ee-73c2-a87b-ff46a7d3dde5","2025-09-02_09h25.23.907",NA,NA,1089.378,1089.3781,1089.3781,1089.7298,NA,NA,NA,NA,NA,NA,NA,TRUE,1,0.4443,1086.3807,1089.3778,NA,NA,NA,NA,NA,50,27,0,59,59,60,1,2,60,"likert"
"C4BC1E1B8EDD46EBB9A1D01528042AF8",1,"01990a98-f8ad-72e4-a860-763b59495355","01990a84-c4ee-73c2-a87b-ff46a7d3dde5","2025-09-02_09h25.23.907",NA,NA,1092.7319,1092.732,1092.732,1093.0788,NA,NA,NA,NA,NA,NA,NA,TRUE,1,0.8458,1089.7307,1092.7299,NA,NA,NA,NA,NA,14,32,0,60,60,21,1,2,61,"likert"
"C4BC1E1B8EDD46EBB9A1D01528042AF8",1,"01990a98-f8ad-72e4-a860-763b59495355","01990a84-c4ee-73c2-a87b-ff46a7d3dde5","2025-09-02_09h25.23.907",NA,NA,1096.082,1096.0821,1096.0821,1096.4292,NA,NA,NA,NA,NA,NA,NA,TRUE,1,0.7123,1093.0799,1096.0814,NA,NA,NA,NA,NA,12,25,0,61,61,12,1,2,62,"likert"
"C4BC1E1B8EDD46EBB9A1D01528042AF8",1,"01990a98-f8ad-72e4-a860-763b59495355","01990a84-c4ee-73c2-a87b-ff46a7d3dde5","2025-09-02_09h25.23.907",NA,NA,1099.4288,1099.4288,1099.4288,1099.7789,NA,NA,NA,NA,NA,NA,NA,TRUE,1,0.431,1096.4301,1099.4287,NA,NA,NA,NA,NA,10,30,0,62,62,10,1,2,63,"likert"
"C4BC1E1B8EDD46EBB9A1D01528042AF8",1,"01990a98-f8ad-72e4-a860-763b59495355","01990a84-c4ee-73c2-a87b-ff46a7d3dde5","2025-09-02_09h25.23.907",NA,NA,1102.7793,1102.7793,1102.7793,1103.1314,NA,NA,NA,NA,NA,NA,NA,TRUE,1,0.4961,1099.7799,1102.779,NA,NA,NA,NA,NA,30,38,0,63,63,47,1,2,64,"likert"
"C4BC1E1B8EDD46EBB9A1D01528042AF8",1,"01990a98-f8ad-72e4-a860-763b59495355","01990a84-c4ee-73c2-a87b-ff46a7d3dde5","2025-09-02_09h25.23.907",NA,NA,1106.1309,1106.1309,1106.131,1106.4803,NA,NA,NA,NA,NA,NA,NA,TRUE,1,0.8496,1103.1331,1106.1305,NA,NA,NA,NA,NA,45,46,0,64,64,59,1,2,65,"likert"
"C4BC1E1B8EDD46EBB9A1D01528042AF8",1,"01990a98-f8ad-72e4-a860-763b59495355","01990a84-c4ee-73c2-a87b-ff46a7d3dde5","2025-09-02_09h25.23.907",NA,NA,1109.4774,1109.4775,1109.4775,1109.8319,NA,NA,NA,NA,NA,NA,NA,TRUE,1,0.5689,1106.482,1109.4774,NA,NA,NA,NA,NA,40,35,0,65,65,50,1,2,66,"likert"
"C4BC1E1B8EDD46EBB9A1D01528042AF8",1,"01990a98-f8ad-72e4-a860-763b59495355","01990a84-c4ee-73c2-a87b-ff46a7d3dde5","2025-09-02_09h25.23.907",NA,NA,1112.8313,1112.8315,1112.8315,1113.1795,NA,NA,NA,NA,NA,NA,NA,TRUE,1,0.3145,1109.8329,1112.8308,NA,NA,NA,NA,NA,95,35,0,66,66,80,1,2,67,"likert"
"C4BC1E1B8EDD46EBB9A1D01528042AF8",1,"01990a98-f8ad-72e4-a860-763b59495355","01990a84-c4ee-73c2-a87b-ff46a7d3dde5","2025-09-02_09h25.23.907",NA,NA,1116.1811,1116.1811,1116.1811,1116.5288,NA,NA,NA,NA,NA,NA,NA,TRUE,1,0.3459,1113.1805,1116.1805,NA,NA,NA,NA,NA,45,35,0,67,67,57,1,2,68,"likert"
"C4BC1E1B8EDD46EBB9A1D01528042AF8",1,"01990a98-f8ad-72e4-a860-763b59495355","01990a84-c4ee-73c2-a87b-ff46a7d3dde5","2025-09-02_09h25.23.907",NA,NA,1119.5286,1119.5286,1119.5286,1119.8788,NA,NA,NA,NA,NA,NA,NA,TRUE,1,0.3961,1116.5302,1119.5284,NA,NA,NA,NA,NA,180,46,0,68,68,100,1,2,69,"likert"
"C4BC1E1B8EDD46EBB9A1D01528042AF8",1,"01990a98-f8ad-72e4-a860-763b59495355","01990a84-c4ee-73c2-a87b-ff46a7d3dde5","2025-09-02_09h25.23.907",NA,NA,1122.8796,1122.8796,1122.8796,1123.2293,NA,NA,NA,NA,NA,NA,NA,TRUE,1,0.6295,1119.8797,1122.8789,NA,NA,NA,NA,NA,7,35,0,69,69,5,1,2,70,"likert"
"C4BC1E1B8EDD46EBB9A1D01528042AF8",1,"01990a98-f8ad-72e4-a860-763b59495355","01990a84-c4ee-73c2-a87b-ff46a7d3dde5","2025-09-02_09h25.23.907",NA,NA,1126.229,1126.229,1126.229,1126.5772,NA,NA,NA,NA,NA,NA,NA,TRUE,1,0.3641,1123.2305,1126.2287,NA,NA,NA,NA,NA,10,29,0,70,70,9,1,2,71,"likert"
"C4BC1E1B8EDD46EBB9A1D01528042AF8",1,"01990a98-f8ad-72e4-a860-763b59495355","01990a84-c4ee-73c2-a87b-ff46a7d3dde5","2025-09-02_09h25.23.907",NA,NA,1129.579,1129.579,1129.579,1129.9284,NA,NA,NA,NA,NA,NA,NA,TRUE,1,0.3783,1126.5783,1129.5789,NA,NA,NA,NA,NA,95,33,0,71,71,79,1,2,72,"likert"
"C4BC1E1B8EDD46EBB9A1D01528042AF8",1,"01990a98-f8ad-72e4-a860-763b59495355","01990a84-c4ee-73c2-a87b-ff46a7d3dde5","2025-09-02_09h25.23.907",NA,NA,1132.9291,1132.9292,1132.9292,1133.2785,NA,NA,NA,NA,NA,NA,NA,TRUE,1,0.362,1129.9297,1132.9286,NA,NA,NA,NA,NA,60,29,0,72,72,66,1,2,73,"likert"
"C4BC1E1B8EDD46EBB9A1D01528042AF8",1,"01990a98-f8ad-72e4-a860-763b59495355","01990a84-c4ee-73c2-a87b-ff46a7d3dde5","2025-09-02_09h25.23.907",NA,NA,1136.2796,1136.2796,1136.2796,1136.6273,NA,NA,NA,NA,NA,NA,NA,TRUE,1,0.3212,1133.2803,1136.2792,NA,NA,NA,NA,NA,150,33,0,73,73,91,1,2,74,"likert"
"C4BC1E1B8EDD46EBB9A1D01528042AF8",1,"01990a98-f8ad-72e4-a860-763b59495355","01990a84-c4ee-73c2-a87b-ff46a7d3dde5","2025-09-02_09h25.23.907",NA,NA,1139.6277,1139.6277,1139.6277,1139.9793,NA,NA,NA,NA,NA,NA,NA,TRUE,1,0.3316,1136.6282,1139.6276,NA,NA,NA,NA,NA,12,28,0,74,74,14,1,2,75,"likert"
"C4BC1E1B8EDD46EBB9A1D01528042AF8",1,"01990a98-f8ad-72e4-a860-763b59495355","01990a84-c4ee-73c2-a87b-ff46a7d3dde5","2025-09-02_09h25.23.907",NA,NA,1142.9792,1142.9792,1142.9792,1143.3266,NA,NA,NA,NA,NA,NA,NA,TRUE,1,0.3275,1139.9806,1142.9788,NA,NA,NA,NA,NA,90,26,0,75,75,72,1,2,76,"likert"
"C4BC1E1B8EDD46EBB9A1D01528042AF8",1,"01990a98-f8ad-72e4-a860-763b59495355","01990a84-c4ee-73c2-a87b-ff46a7d3dde5","2025-09-02_09h25.23.907",NA,NA,1146.3269,1146.3269,1146.3269,1146.6787,NA,NA,NA,NA,NA,NA,NA,TRUE,1,0.4071,1143.3281,1146.3265,NA,NA,NA,NA,NA,90,40,0,76,76,75,1,2,77,"likert"
"C4BC1E1B8EDD46EBB9A1D01528042AF8",1,"01990a98-f8ad-72e4-a860-763b59495355","01990a84-c4ee-73c2-a87b-ff46a7d3dde5","2025-09-02_09h25.23.907",NA,NA,1149.6783,1149.6783,1149.6784,1150.0286,NA,NA,NA,NA,NA,NA,NA,TRUE,1,0.4618,1146.6799,1149.6782,NA,NA,NA,NA,NA,30,30,0,77,77,45,1,2,78,"likert"
"C4BC1E1B8EDD46EBB9A1D01528042AF8",1,"01990a98-f8ad-72e4-a860-763b59495355","01990a84-c4ee-73c2-a87b-ff46a7d3dde5","2025-09-02_09h25.23.907",NA,NA,1153.0283,1153.0283,1153.0284,1153.3782,NA,NA,NA,NA,NA,NA,NA,TRUE,1,0.332,1150.0296,1153.0279,NA,NA,NA,NA,NA,40,33,0,78,78,49,1,2,79,"likert"
"C4BC1E1B8EDD46EBB9A1D01528042AF8",1,"01990a98-f8ad-72e4-a860-763b59495355","01990a84-c4ee-73c2-a87b-ff46a7d3dde5","2025-09-02_09h25.23.907",NA,NA,1156.3795,1156.3796,1156.3796,1156.7266,NA,NA,NA,NA,NA,NA,NA,TRUE,1,0.3787,1153.3792,1156.3792,NA,NA,NA,NA,NA,40,40,0,79,79,51,1,2,80,"likert"
"C4BC1E1B8EDD46EBB9A1D01528042AF8",1,"01990a98-f8ad-72e4-a860-763b59495355","01990a84-c4ee-73c2-a87b-ff46a7d3dde5","2025-09-02_09h25.23.907",NA,NA,1159.7293,1159.7293,1159.7293,1160.0767,NA,NA,NA,NA,NA,NA,NA,TRUE,1,0.7632,1156.7274,1159.7292,NA,NA,NA,NA,NA,95,54,0,80,80,83,1,2,81,"likert"
"C4BC1E1B8EDD46EBB9A1D01528042AF8",1,"01990a98-f8ad-72e4-a860-763b59495355","01990a84-c4ee-73c2-a87b-ff46a7d3dde5","2025-09-02_09h25.23.907",NA,NA,1163.0782,1163.0782,1163.0783,1163.4278,NA,NA,NA,NA,NA,NA,NA,TRUE,1,0.5315,1160.0779,1163.0778,NA,NA,NA,NA,NA,25,29,0,81,81,31,1,2,82,"likert"
"C4BC1E1B8EDD46EBB9A1D01528042AF8",1,"01990a98-f8ad-72e4-a860-763b59495355","01990a84-c4ee-73c2-a87b-ff46a7d3dde5","2025-09-02_09h25.23.907",NA,NA,1166.4275,1166.4275,1166.4275,1166.7791,NA,NA,NA,NA,NA,NA,NA,TRUE,1,0.313,1163.4288,1166.4271,NA,NA,NA,NA,NA,28,46,0,82,82,41,1,2,83,"likert"
"C4BC1E1B8EDD46EBB9A1D01528042AF8",1,"01990a98-f8ad-72e4-a860-763b59495355","01990a84-c4ee-73c2-a87b-ff46a7d3dde5","2025-09-02_09h25.23.907",NA,NA,1169.7773,1169.7773,1169.7774,1170.1263,NA,NA,NA,NA,NA,NA,NA,TRUE,1,0.3295,1166.7799,1169.7772,NA,NA,NA,NA,NA,60,47,0,83,83,70,1,2,84,"likert"
"C4BC1E1B8EDD46EBB9A1D01528042AF8",1,"01990a98-f8ad-72e4-a860-763b59495355","01990a84-c4ee-73c2-a87b-ff46a7d3dde5","2025-09-02_09h25.23.907",NA,NA,1173.1279,1173.1279,1173.128,1173.477,NA,NA,NA,NA,NA,NA,NA,TRUE,1,0.2829,1170.1271,1173.1274,NA,NA,NA,NA,NA,150,54,0,84,84,95,1,2,85,"likert"
"C4BC1E1B8EDD46EBB9A1D01528042AF8",1,"01990a98-f8ad-72e4-a860-763b59495355","01990a84-c4ee-73c2-a87b-ff46a7d3dde5","2025-09-02_09h25.23.907",NA,NA,1176.4803,1176.4803,1176.4806,1176.8262,NA,NA,NA,NA,NA,NA,NA,TRUE,1,0.3062,1173.478,1176.4797,NA,NA,NA,NA,NA,100,46,0,85,85,88,1,2,86,"likert"
"C4BC1E1B8EDD46EBB9A1D01528042AF8",1,"01990a98-f8ad-72e4-a860-763b59495355","01990a84-c4ee-73c2-a87b-ff46a7d3dde5","2025-09-02_09h25.23.907",NA,NA,1179.8278,1179.8279,1179.8279,1180.1761,NA,NA,NA,NA,NA,NA,NA,TRUE,1,0.2615,1176.8267,1179.8277,NA,NA,NA,NA,NA,10,25,0,86,86,6,1,2,87,"likert"
"C4BC1E1B8EDD46EBB9A1D01528042AF8",1,"01990a98-f8ad-72e4-a860-763b59495355","01990a84-c4ee-73c2-a87b-ff46a7d3dde5","2025-09-02_09h25.23.907",NA,NA,1183.1772,1183.1772,1183.1773,1183.5297,NA,NA,NA,NA,NA,NA,NA,TRUE,1,0.4039,1180.1768,1183.1769,NA,NA,NA,NA,NA,50,46,0,87,87,64,1,2,88,"likert"
"C4BC1E1B8EDD46EBB9A1D01528042AF8",1,"01990a98-f8ad-72e4-a860-763b59495355","01990a84-c4ee-73c2-a87b-ff46a7d3dde5","2025-09-02_09h25.23.907",NA,NA,1186.5267,1186.5268,1186.5268,1186.879,NA,NA,NA,NA,NA,NA,NA,TRUE,1,0.6604,1183.5313,1186.5263,NA,NA,NA,NA,NA,150,40,0,88,88,93,1,2,89,"likert"
"C4BC1E1B8EDD46EBB9A1D01528042AF8",1,"01990a98-f8ad-72e4-a860-763b59495355","01990a84-c4ee-73c2-a87b-ff46a7d3dde5","2025-09-02_09h25.23.907",NA,NA,1189.8792,1189.8795,1189.8795,1190.2283,NA,NA,NA,NA,NA,NA,NA,TRUE,1,0.6511,1186.8802,1189.8792,NA,NA,NA,NA,NA,21,27,0,89,89,25,1,2,90,"likert"
"C4BC1E1B8EDD46EBB9A1D01528042AF8",1,"01990a98-f8ad-72e4-a860-763b59495355","01990a84-c4ee-73c2-a87b-ff46a7d3dde5","2025-09-02_09h25.23.907",NA,NA,1193.2294,1193.2295,1193.2295,1193.5774,NA,NA,NA,NA,NA,NA,NA,TRUE,1,0.6802,1190.2296,1193.2289,NA,NA,NA,NA,NA,25,27,0,90,90,30,1,2,91,"likert"
"C4BC1E1B8EDD46EBB9A1D01528042AF8",1,"01990a98-f8ad-72e4-a860-763b59495355","01990a84-c4ee-73c2-a87b-ff46a7d3dde5","2025-09-02_09h25.23.907",NA,NA,1196.5774,1196.5775,1196.5775,1196.9259,NA,NA,NA,NA,NA,NA,NA,TRUE,1,0.4034,1193.5788,1196.5771,NA,NA,NA,NA,NA,150,31,0,91,91,90,1,2,92,"likert"
"C4BC1E1B8EDD46EBB9A1D01528042AF8",1,"01990a98-f8ad-72e4-a860-763b59495355","01990a84-c4ee-73c2-a87b-ff46a7d3dde5","2025-09-02_09h25.23.907",NA,NA,1199.9286,1199.9286,1199.9287,1200.2777,NA,NA,NA,NA,NA,NA,NA,TRUE,1,0.3532,1196.9267,1199.9286,NA,NA,NA,NA,NA,14,25,0,92,92,18,1,2,93,"likert"
"C4BC1E1B8EDD46EBB9A1D01528042AF8",1,"01990a98-f8ad-72e4-a860-763b59495355","01990a84-c4ee-73c2-a87b-ff46a7d3dde5","2025-09-02_09h25.23.907",NA,NA,1203.2779,1203.2779,1203.2779,1203.6335,NA,NA,NA,NA,NA,NA,NA,TRUE,1,0.4256,1200.2787,1203.2776,NA,NA,NA,NA,NA,90,46,0,93,93,76,1,2,94,"likert"
"C4BC1E1B8EDD46EBB9A1D01528042AF8",1,"01990a98-f8ad-72e4-a860-763b59495355","01990a84-c4ee-73c2-a87b-ff46a7d3dde5","2025-09-02_09h25.23.907",NA,NA,1206.6266,1206.6266,1206.6267,1206.976,NA,NA,NA,NA,NA,NA,NA,TRUE,1,0.3055,1203.634,1206.626,NA,NA,NA,NA,NA,40,27,0,94,94,48,1,2,95,"likert"
"C4BC1E1B8EDD46EBB9A1D01528042AF8",1,"01990a98-f8ad-72e4-a860-763b59495355","01990a84-c4ee-73c2-a87b-ff46a7d3dde5","2025-09-02_09h25.23.907",NA,NA,1209.9767,1209.9767,1209.9767,1210.326,NA,NA,NA,NA,NA,NA,NA,TRUE,1,0.4164,1206.9767,1209.9764,NA,NA,NA,NA,NA,60,35,0,95,95,68,1,2,96,"likert"
"C4BC1E1B8EDD46EBB9A1D01528042AF8",1,"01990a98-f8ad-72e4-a860-763b59495355","01990a84-c4ee-73c2-a87b-ff46a7d3dde5","2025-09-02_09h25.23.907",NA,NA,1213.3259,1213.3259,1213.326,1213.6781,NA,NA,NA,NA,NA,NA,NA,TRUE,1,0.4484,1210.3266,1213.3259,NA,NA,NA,NA,NA,100,39,0,96,96,87,1,2,97,"likert"
"C4BC1E1B8EDD46EBB9A1D01528042AF8",1,"01990a98-f8ad-72e4-a860-763b59495355","01990a84-c4ee-73c2-a87b-ff46a7d3dde5","2025-09-02_09h25.23.907",NA,NA,1216.6777,1216.6777,1216.6778,1217.0258,NA,NA,NA,NA,NA,NA,NA,TRUE,1,0.2469,1213.6793,1216.6773,NA,NA,NA,NA,NA,200,39,0,97,97,105,1,2,98,"likert"
"C4BC1E1B8EDD46EBB9A1D01528042AF8",1,"01990a98-f8ad-72e4-a860-763b59495355","01990a84-c4ee-73c2-a87b-ff46a7d3dde5","2025-09-02_09h25.23.907",NA,NA,1220.0291,1220.0291,1220.0292,1220.3765,NA,NA,NA,NA,NA,NA,NA,TRUE,1,0.4049,1217.0267,1220.0287,NA,NA,NA,NA,NA,30,32,0,98,98,46,1,2,99,"likert"
"C4BC1E1B8EDD46EBB9A1D01528042AF8",1,"01990a98-f8ad-72e4-a860-763b59495355","01990a84-c4ee-73c2-a87b-ff46a7d3dde5","2025-09-02_09h25.23.907",NA,NA,1223.3775,1223.3775,1223.3775,1223.7274,NA,NA,NA,NA,NA,NA,NA,TRUE,1,0.422,1220.3771,1223.3773,NA,NA,NA,NA,NA,60,33,0,99,99,67,1,2,100,"likert"
"C4BC1E1B8EDD46EBB9A1D01528042AF8",1,"01990a98-f8ad-72e4-a860-763b59495355","01990a84-c4ee-73c2-a87b-ff46a7d3dde5","2025-09-02_09h25.23.907",NA,NA,1226.7287,1226.7287,1226.7287,1227.0771,NA,NA,NA,NA,NA,NA,NA,TRUE,1,0.4272,1223.7288,1226.7282,NA,NA,NA,NA,NA,50,30,0,100,100,61,1,2,101,"likert"
"C4BC1E1B8EDD46EBB9A1D01528042AF8",1,"01990a98-f8ad-72e4-a860-763b59495355","01990a84-c4ee-73c2-a87b-ff46a7d3dde5","2025-09-02_09h25.23.907",NA,NA,1230.0777,1230.0777,1230.0777,1230.4265,NA,NA,NA,NA,NA,NA,NA,TRUE,1,0.5791,1227.078,1230.0772,NA,NA,NA,NA,NA,45,31,0,101,101,56,1,2,102,"likert"
"C4BC1E1B8EDD46EBB9A1D01528042AF8",1,"01990a98-f8ad-72e4-a860-763b59495355","01990a84-c4ee-73c2-a87b-ff46a7d3dde5","2025-09-02_09h25.23.907",NA,NA,1233.4267,1233.4267,1233.4267,1233.7766,NA,NA,NA,NA,NA,NA,NA,TRUE,1,0.3289,1230.4281,1233.4266,NA,NA,NA,NA,NA,200,28,0,102,102,103,1,2,103,"likert"
"C4BC1E1B8EDD46EBB9A1D01528042AF8",1,"01990a98-f8ad-72e4-a860-763b59495355","01990a84-c4ee-73c2-a87b-ff46a7d3dde5","2025-09-02_09h25.23.907",NA,NA,1236.7808,1236.7808,1236.7809,1237.1272,NA,NA,NA,NA,NA,NA,NA,TRUE,1,0.1973,1233.7772,1236.78,NA,NA,NA,NA,NA,7,32,0,103,103,4,1,2,104,"likert"
"C4BC1E1B8EDD46EBB9A1D01528042AF8",1,"01990a98-f8ad-72e4-a860-763b59495355","01990a84-c4ee-73c2-a87b-ff46a7d3dde5","2025-09-02_09h25.23.907",NA,NA,1240.1261,1240.1262,1240.1262,1240.4766,NA,NA,NA,NA,NA,NA,NA,TRUE,1,0.2592,1237.1281,1240.1257,NA,NA,NA,NA,NA,7,25,0,104,104,0,1,2,105,"likert"
"C4BC1E1B8EDD46EBB9A1D01528042AF8",1,"01990a98-f8ad-72e4-a860-763b59495355","01990a84-c4ee-73c2-a87b-ff46a7d3dde5","2025-09-02_09h25.23.907",NA,NA,1243.4779,1243.4779,1243.4779,1243.8257,NA,NA,NA,NA,NA,NA,NA,TRUE,1,0.4966,1240.4779,1243.4778,NA,NA,NA,NA,NA,10,32,0,105,105,11,1,2,106,"likert"
"C4BC1E1B8EDD46EBB9A1D01528042AF8",1,"01990a98-f8ad-72e4-a860-763b59495355","01990a84-c4ee-73c2-a87b-ff46a7d3dde5","2025-09-02_09h25.23.907",NA,NA,1246.8269,1246.8269,1246.827,1247.1763,NA,NA,NA,NA,NA,NA,NA,TRUE,1,0.6173,1243.8269,1246.8265,NA,NA,NA,NA,NA,95,47,0,106,106,82,1,2,107,"likert"
"C4BC1E1B8EDD46EBB9A1D01528042AF8",1,"01990a98-f8ad-72e4-a860-763b59495355","01990a84-c4ee-73c2-a87b-ff46a7d3dde5","2025-09-02_09h25.23.907",NA,NA,1250.177,1250.1771,1250.1771,1250.5276,NA,NA,NA,NA,NA,NA,NA,TRUE,1,0.3833,1247.1773,1250.1767,NA,NA,NA,NA,NA,10,27,0,107,107,8,1,2,108,"likert"
