"participant","session","assignmentId","projectId","date","practiceTrial.started","practiceTrial.stopped","tooLate.started","tooLate.stopped","blank.started","blank.stopped","trials_pract.thisRepN","trials_pract.thisTrialN","trials_pract.thisN","trials_pract.thisIndex","trials_pract.ran","delay_pract","amount_pract","responseMade","key","rt","trial.started","trial.stopped","trials.thisRepN","trials.thisTrialN","trials.thisN","trials.thisIndex","trials.ran","delay","amount","trials_2.thisRepN","trials_2.thisTrialN","trials_2.thisN","trials_2.thisIndex","trials_2.ran","block","trial","taskType"
"C76FCB51E7934762B3B3ADF124E25A7A",1,"01990a98-493b-7445-ba9d-f89e421270d6","01990a84-c4ee-73c2-a87b-ff46a7d3dde5","2025-09-02_08h24.28.605",62.1764,65.1397,65.1403,65.3905,65.3909,65.4905,0,0,0,3,1,3,27,FALSE,NA,NA,NA,NA,NA,NA,NA,NA,NA,NA,NA,NA,NA,NA,NA,NA,0,1,"likert"
"C76FCB51E7934762B3B3ADF124E25A7A",1,"01990a98-493b-7445-ba9d-f89e421270d6","01990a84-c4ee-73c2-a87b-ff46a7d3dde5","2025-09-02_08h24.28.605",65.4953,68.4898,68.4904,68.4907,68.4909,68.8395,0,1,1,4,1,30,40,TRUE,1,1.6979,NA,NA,NA,NA,NA,NA,NA,NA,NA,NA,NA,NA,NA,NA,0,2,"likert"
"C76FCB51E7934762B3B3ADF124E25A7A",1,"01990a98-493b-7445-ba9d-f89e421270d6","01990a84-c4ee-73c2-a87b-ff46a7d3dde5","2025-09-02_08h24.28.605",68.8438,71.8388,71.839,71.8392,71.8393,72.1891,0,2,2,0,1,7,30,TRUE,3,1.9048,NA,NA,NA,NA,NA,NA,NA,NA,NA,NA,NA,NA,NA,NA,0,3,"likert"
"C76FCB51E7934762B3B3ADF124E25A7A",1,"01990a98-493b-7445-ba9d-f89e421270d6","01990a84-c4ee-73c2-a87b-ff46a7d3dde5","2025-09-02_08h24.28.605",72.1921,75.1886,75.1887,75.1887,75.1889,75.5388,0,3,3,1,1,100,50,TRUE,5,1.7093,NA,NA,NA,NA,NA,NA,NA,NA,NA,NA,NA,NA,NA,NA,0,4,"likert"
"C76FCB51E7934762B3B3ADF124E25A7A",1,"01990a98-493b-7445-ba9d-f89e421270d6","01990a84-c4ee-73c2-a87b-ff46a7d3dde5","2025-09-02_08h24.28.605",75.5423,78.5388,78.5391,78.5391,78.5393,78.8886,0,4,4,2,1,14,45,TRUE,5,2.7896,NA,NA,NA,NA,NA,NA,NA,NA,NA,NA,NA,NA,NA,NA,0,5,"likert"
"C76FCB51E7934762B3B3ADF124E25A7A",1,"01990a98-493b-7445-ba9d-f89e421270d6","01990a84-c4ee-73c2-a87b-ff46a7d3dde5","2025-09-02_08h24.28.605",NA,NA,159.5835,159.5841,159.5846,159.9325,NA,NA,NA,NA,NA,NA,NA,TRUE,5,2.6245,156.6429,159.5829,0,0,0,89,1,100,54,NA,NA,NA,NA,NA,1,1,"likert"
"C76FCB51E7934762B3B3ADF124E25A7A",1,"01990a98-493b-7445-ba9d-f89e421270d6","01990a84-c4ee-73c2-a87b-ff46a7d3dde5","2025-09-02_08h24.28.605",NA,NA,162.9325,163.1812,163.1812,163.2815,NA,NA,NA,NA,NA,NA,NA,FALSE,NA,NA,159.9373,162.9323,0,1,1,96,1,180,27,NA,NA,NA,NA,NA,1,2,"likert"
"C76FCB51E7934762B3B3ADF124E25A7A",1,"01990a98-493b-7445-ba9d-f89e421270d6","01990a84-c4ee-73c2-a87b-ff46a7d3dde5","2025-09-02_08h24.28.605",NA,NA,166.2822,166.2825,166.2826,166.6316,NA,NA,NA,NA,NA,NA,NA,TRUE,1,2.1526,163.2835,166.2819,0,2,2,3,1,7,30,NA,NA,NA,NA,NA,1,3,"likert"
"C76FCB51E7934762B3B3ADF124E25A7A",1,"01990a98-493b-7445-ba9d-f89e421270d6","01990a84-c4ee-73c2-a87b-ff46a7d3dde5","2025-09-02_08h24.28.605",NA,NA,169.6319,169.6321,169.6322,169.9815,NA,NA,NA,NA,NA,NA,NA,TRUE,5,1.9563,166.6346,169.6316,0,3,3,106,1,200,47,NA,NA,NA,NA,NA,1,4,"likert"
"C76FCB51E7934762B3B3ADF124E25A7A",1,"01990a98-493b-7445-ba9d-f89e421270d6","01990a84-c4ee-73c2-a87b-ff46a7d3dde5","2025-09-02_08h24.28.605",NA,NA,172.9815,172.9816,172.9817,173.3314,NA,NA,NA,NA,NA,NA,NA,TRUE,3,2.4367,169.9859,172.9813,0,4,4,78,1,95,31,NA,NA,NA,NA,NA,1,5,"likert"
"C76FCB51E7934762B3B3ADF124E25A7A",1,"01990a98-493b-7445-ba9d-f89e421270d6","01990a84-c4ee-73c2-a87b-ff46a7d3dde5","2025-09-02_08h24.28.605",NA,NA,176.3312,176.3313,176.3313,176.6808,NA,NA,NA,NA,NA,NA,NA,TRUE,5,2.0351,173.3347,176.331,0,5,5,30,1,25,27,NA,NA,NA,NA,NA,1,6,"likert"
"C76FCB51E7934762B3B3ADF124E25A7A",1,"01990a98-493b-7445-ba9d-f89e421270d6","01990a84-c4ee-73c2-a87b-ff46a7d3dde5","2025-09-02_08h24.28.605",NA,NA,179.6812,179.6812,179.6814,180.0307,NA,NA,NA,NA,NA,NA,NA,TRUE,1,2.0771,176.6838,179.681,0,6,6,23,1,14,39,NA,NA,NA,NA,NA,1,7,"likert"
"C76FCB51E7934762B3B3ADF124E25A7A",1,"01990a98-493b-7445-ba9d-f89e421270d6","01990a84-c4ee-73c2-a87b-ff46a7d3dde5","2025-09-02_08h24.28.605",NA,NA,183.0351,183.0355,183.0357,183.3851,NA,NA,NA,NA,NA,NA,NA,TRUE,1,1.9244,180.0339,183.0348,0,7,7,31,1,25,29,NA,NA,NA,NA,NA,1,8,"likert"
"C76FCB51E7934762B3B3ADF124E25A7A",1,"01990a98-493b-7445-ba9d-f89e421270d6","01990a84-c4ee-73c2-a87b-ff46a7d3dde5","2025-09-02_08h24.28.605",NA,NA,186.3851,186.3854,186.3854,186.7353,NA,NA,NA,NA,NA,NA,NA,TRUE,3,2.4987,183.3874,186.3849,0,8,8,98,1,180,35,NA,NA,NA,NA,NA,1,9,"likert"
"C76FCB51E7934762B3B3ADF124E25A7A",1,"01990a98-493b-7445-ba9d-f89e421270d6","01990a84-c4ee-73c2-a87b-ff46a7d3dde5","2025-09-02_08h24.28.605",NA,NA,189.7353,189.7356,189.7357,190.0844,NA,NA,NA,NA,NA,NA,NA,TRUE,5,1.8009,186.7374,189.735,0,9,9,90,1,150,31,NA,NA,NA,NA,NA,1,10,"likert"
"C76FCB51E7934762B3B3ADF124E25A7A",1,"01990a98-493b-7445-ba9d-f89e421270d6","01990a84-c4ee-73c2-a87b-ff46a7d3dde5","2025-09-02_08h24.28.605",NA,NA,193.0847,193.0851,193.0851,193.4342,NA,NA,NA,NA,NA,NA,NA,TRUE,1,2.2335,190.0868,193.0846,0,10,10,18,1,14,25,NA,NA,NA,NA,NA,1,11,"likert"
"C76FCB51E7934762B3B3ADF124E25A7A",1,"01990a98-493b-7445-ba9d-f89e421270d6","01990a84-c4ee-73c2-a87b-ff46a7d3dde5","2025-09-02_08h24.28.605",NA,NA,196.4347,196.4349,196.435,196.7845,NA,NA,NA,NA,NA,NA,NA,TRUE,5,2.5332,193.4367,196.4344,0,11,11,74,1,90,33,NA,NA,NA,NA,NA,1,12,"likert"
"C76FCB51E7934762B3B3ADF124E25A7A",1,"01990a98-493b-7445-ba9d-f89e421270d6","01990a84-c4ee-73c2-a87b-ff46a7d3dde5","2025-09-02_08h24.28.605",NA,NA,199.7845,199.7846,199.7847,200.1341,NA,NA,NA,NA,NA,NA,NA,TRUE,5,1.6658,196.7871,199.7843,0,12,12,28,1,21,32,NA,NA,NA,NA,NA,1,13,"likert"
"C76FCB51E7934762B3B3ADF124E25A7A",1,"01990a98-493b-7445-ba9d-f89e421270d6","01990a84-c4ee-73c2-a87b-ff46a7d3dde5","2025-09-02_08h24.28.605",NA,NA,203.1341,203.1343,203.1344,203.4826,NA,NA,NA,NA,NA,NA,NA,TRUE,1,2.1151,200.1373,203.1339,0,13,13,94,1,150,47,NA,NA,NA,NA,NA,1,14,"likert"
"C76FCB51E7934762B3B3ADF124E25A7A",1,"01990a98-493b-7445-ba9d-f89e421270d6","01990a84-c4ee-73c2-a87b-ff46a7d3dde5","2025-09-02_08h24.28.605",NA,NA,206.4841,206.4843,206.4844,206.8334,NA,NA,NA,NA,NA,NA,NA,TRUE,4,1.8194,203.4841,206.4839,0,14,14,77,1,90,54,NA,NA,NA,NA,NA,1,15,"likert"
"C76FCB51E7934762B3B3ADF124E25A7A",1,"01990a98-493b-7445-ba9d-f89e421270d6","01990a84-c4ee-73c2-a87b-ff46a7d3dde5","2025-09-02_08h24.28.605",NA,NA,209.8338,209.8339,209.8341,210.1831,NA,NA,NA,NA,NA,NA,NA,TRUE,4,1.8842,206.8356,209.8335,0,15,15,65,1,50,54,NA,NA,NA,NA,NA,1,16,"likert"
"C76FCB51E7934762B3B3ADF124E25A7A",1,"01990a98-493b-7445-ba9d-f89e421270d6","01990a84-c4ee-73c2-a87b-ff46a7d3dde5","2025-09-02_08h24.28.605",NA,NA,213.1837,213.1837,213.1838,213.533,NA,NA,NA,NA,NA,NA,NA,TRUE,1,2.5819,210.1864,213.1834,0,16,16,42,1,30,26,NA,NA,NA,NA,NA,1,17,"likert"
"C76FCB51E7934762B3B3ADF124E25A7A",1,"01990a98-493b-7445-ba9d-f89e421270d6","01990a84-c4ee-73c2-a87b-ff46a7d3dde5","2025-09-02_08h24.28.605",NA,NA,216.5333,216.5335,216.5335,216.8834,NA,NA,NA,NA,NA,NA,NA,TRUE,1,2.115,213.5355,216.5331,0,17,17,105,1,200,39,NA,NA,NA,NA,NA,1,18,"likert"
"C76FCB51E7934762B3B3ADF124E25A7A",1,"01990a98-493b-7445-ba9d-f89e421270d6","01990a84-c4ee-73c2-a87b-ff46a7d3dde5","2025-09-02_08h24.28.605",NA,NA,219.883,219.8831,219.8833,220.2327,NA,NA,NA,NA,NA,NA,NA,TRUE,5,2.4318,216.8857,219.8828,0,18,18,5,1,7,35,NA,NA,NA,NA,NA,1,19,"likert"
"C76FCB51E7934762B3B3ADF124E25A7A",1,"01990a98-493b-7445-ba9d-f89e421270d6","01990a84-c4ee-73c2-a87b-ff46a7d3dde5","2025-09-02_08h24.28.605",NA,NA,223.2311,223.2311,223.2311,223.581,NA,NA,NA,NA,NA,NA,NA,TRUE,4,1.9988,220.2354,223.231,0,19,19,34,1,25,35,NA,NA,NA,NA,NA,1,20,"likert"
"C76FCB51E7934762B3B3ADF124E25A7A",1,"01990a98-493b-7445-ba9d-f89e421270d6","01990a84-c4ee-73c2-a87b-ff46a7d3dde5","2025-09-02_08h24.28.605",NA,NA,226.5826,226.5827,226.5829,226.9315,NA,NA,NA,NA,NA,NA,NA,TRUE,1,2.1856,223.5822,226.5824,0,20,20,66,1,60,29,NA,NA,NA,NA,NA,1,21,"likert"
"C76FCB51E7934762B3B3ADF124E25A7A",1,"01990a98-493b-7445-ba9d-f89e421270d6","01990a84-c4ee-73c2-a87b-ff46a7d3dde5","2025-09-02_08h24.28.605",NA,NA,229.9322,229.9324,229.9324,230.2819,NA,NA,NA,NA,NA,NA,NA,TRUE,1,2.6333,226.934,229.9319,0,21,21,41,1,28,46,NA,NA,NA,NA,NA,1,22,"likert"
"C76FCB51E7934762B3B3ADF124E25A7A",1,"01990a98-493b-7445-ba9d-f89e421270d6","01990a84-c4ee-73c2-a87b-ff46a7d3dde5","2025-09-02_08h24.28.605",NA,NA,233.2819,233.2819,233.282,233.6317,NA,NA,NA,NA,NA,NA,NA,TRUE,1,1.5832,230.2842,233.2816,0,22,22,81,1,95,40,NA,NA,NA,NA,NA,1,23,"likert"
"C76FCB51E7934762B3B3ADF124E25A7A",1,"01990a98-493b-7445-ba9d-f89e421270d6","01990a84-c4ee-73c2-a87b-ff46a7d3dde5","2025-09-02_08h24.28.605",NA,NA,236.6321,236.6322,236.6323,236.9814,NA,NA,NA,NA,NA,NA,NA,TRUE,1,1.3311,233.6344,236.6319,0,23,23,103,1,200,28,NA,NA,NA,NA,NA,1,24,"likert"
"C76FCB51E7934762B3B3ADF124E25A7A",1,"01990a98-493b-7445-ba9d-f89e421270d6","01990a84-c4ee-73c2-a87b-ff46a7d3dde5","2025-09-02_08h24.28.605",NA,NA,239.9813,239.9813,239.9815,240.3296,NA,NA,NA,NA,NA,NA,NA,TRUE,1,1.4179,236.9838,239.9811,0,24,24,51,1,40,40,NA,NA,NA,NA,NA,1,25,"likert"
"C76FCB51E7934762B3B3ADF124E25A7A",1,"01990a98-493b-7445-ba9d-f89e421270d6","01990a84-c4ee-73c2-a87b-ff46a7d3dde5","2025-09-02_08h24.28.605",NA,NA,243.3311,243.3311,243.3311,243.6803,NA,NA,NA,NA,NA,NA,NA,TRUE,5,1.852,240.3305,243.3308,0,25,25,9,1,10,29,NA,NA,NA,NA,NA,1,26,"likert"
"C76FCB51E7934762B3B3ADF124E25A7A",1,"01990a98-493b-7445-ba9d-f89e421270d6","01990a84-c4ee-73c2-a87b-ff46a7d3dde5","2025-09-02_08h24.28.605",NA,NA,246.6812,246.6812,246.6813,247.0303,NA,NA,NA,NA,NA,NA,NA,TRUE,4,2.051,243.6829,246.6809,0,26,26,53,1,40,54,NA,NA,NA,NA,NA,1,27,"likert"
"C76FCB51E7934762B3B3ADF124E25A7A",1,"01990a98-493b-7445-ba9d-f89e421270d6","01990a84-c4ee-73c2-a87b-ff46a7d3dde5","2025-09-02_08h24.28.605",NA,NA,250.0305,250.0306,250.0306,250.3796,NA,NA,NA,NA,NA,NA,NA,TRUE,1,2.7988,247.0332,250.0303,0,27,27,73,1,90,30,NA,NA,NA,NA,NA,1,28,"likert"
"C76FCB51E7934762B3B3ADF124E25A7A",1,"01990a98-493b-7445-ba9d-f89e421270d6","01990a84-c4ee-73c2-a87b-ff46a7d3dde5","2025-09-02_08h24.28.605",NA,NA,253.3801,253.3802,253.3802,253.7299,NA,NA,NA,NA,NA,NA,NA,TRUE,3,2.051,250.3817,253.3799,0,28,28,63,1,50,40,NA,NA,NA,NA,NA,1,29,"likert"
"C76FCB51E7934762B3B3ADF124E25A7A",1,"01990a98-493b-7445-ba9d-f89e421270d6","01990a84-c4ee-73c2-a87b-ff46a7d3dde5","2025-09-02_08h24.28.605",NA,NA,256.7289,256.729,256.729,257.0791,NA,NA,NA,NA,NA,NA,NA,TRUE,5,1.9178,253.7318,256.7288,0,29,29,35,1,25,46,NA,NA,NA,NA,NA,1,30,"likert"
"C76FCB51E7934762B3B3ADF124E25A7A",1,"01990a98-493b-7445-ba9d-f89e421270d6","01990a84-c4ee-73c2-a87b-ff46a7d3dde5","2025-09-02_08h24.28.605",NA,NA,260.0799,260.08,260.08,260.4292,NA,NA,NA,NA,NA,NA,NA,TRUE,5,2.3847,257.0814,260.0797,0,30,30,70,1,60,47,NA,NA,NA,NA,NA,1,31,"likert"
"C76FCB51E7934762B3B3ADF124E25A7A",1,"01990a98-493b-7445-ba9d-f89e421270d6","01990a84-c4ee-73c2-a87b-ff46a7d3dde5","2025-09-02_08h24.28.605",NA,NA,263.43,263.4301,263.4302,263.7782,NA,NA,NA,NA,NA,NA,NA,TRUE,5,1.6176,260.4317,263.4297,0,31,31,22,1,14,35,NA,NA,NA,NA,NA,1,32,"likert"
"C76FCB51E7934762B3B3ADF124E25A7A",1,"01990a98-493b-7445-ba9d-f89e421270d6","01990a84-c4ee-73c2-a87b-ff46a7d3dde5","2025-09-02_08h24.28.605",NA,NA,266.7799,266.78,266.78,267.1295,NA,NA,NA,NA,NA,NA,NA,TRUE,1,1.6502,263.7795,266.7796,0,32,32,86,1,100,38,NA,NA,NA,NA,NA,1,33,"likert"
"C76FCB51E7934762B3B3ADF124E25A7A",1,"01990a98-493b-7445-ba9d-f89e421270d6","01990a84-c4ee-73c2-a87b-ff46a7d3dde5","2025-09-02_08h24.28.605",NA,NA,270.1291,270.1291,270.1293,270.4785,NA,NA,NA,NA,NA,NA,NA,TRUE,5,1.7308,267.132,270.1288,0,33,33,20,1,14,28,NA,NA,NA,NA,NA,1,34,"likert"
"C76FCB51E7934762B3B3ADF124E25A7A",1,"01990a98-493b-7445-ba9d-f89e421270d6","01990a84-c4ee-73c2-a87b-ff46a7d3dde5","2025-09-02_08h24.28.605",NA,NA,273.4774,273.4775,273.4775,273.8271,NA,NA,NA,NA,NA,NA,NA,TRUE,1,1.3849,270.4809,273.4773,0,34,34,91,1,150,33,NA,NA,NA,NA,NA,1,35,"likert"
"C76FCB51E7934762B3B3ADF124E25A7A",1,"01990a98-493b-7445-ba9d-f89e421270d6","01990a84-c4ee-73c2-a87b-ff46a7d3dde5","2025-09-02_08h24.28.605",NA,NA,276.8286,276.8288,276.8289,277.1787,NA,NA,NA,NA,NA,NA,NA,TRUE,1,1.0357,273.8282,276.8284,0,35,35,100,1,180,46,NA,NA,NA,NA,NA,1,36,"likert"
"C76FCB51E7934762B3B3ADF124E25A7A",1,"01990a98-493b-7445-ba9d-f89e421270d6","01990a84-c4ee-73c2-a87b-ff46a7d3dde5","2025-09-02_08h24.28.605",NA,NA,280.1776,280.1777,280.1777,280.5286,NA,NA,NA,NA,NA,NA,NA,TRUE,1,0.9351,277.1809,280.1775,0,36,36,54,1,45,26,NA,NA,NA,NA,NA,1,37,"likert"
"C76FCB51E7934762B3B3ADF124E25A7A",1,"01990a98-493b-7445-ba9d-f89e421270d6","01990a84-c4ee-73c2-a87b-ff46a7d3dde5","2025-09-02_08h24.28.605",NA,NA,283.5285,283.5285,283.5286,283.8778,NA,NA,NA,NA,NA,NA,NA,TRUE,5,1.8167,280.5312,283.5282,0,37,37,19,1,14,26,NA,NA,NA,NA,NA,1,38,"likert"
"C76FCB51E7934762B3B3ADF124E25A7A",1,"01990a98-493b-7445-ba9d-f89e421270d6","01990a84-c4ee-73c2-a87b-ff46a7d3dde5","2025-09-02_08h24.28.605",NA,NA,286.8779,286.8781,286.8782,287.2279,NA,NA,NA,NA,NA,NA,NA,TRUE,1,1.2352,283.8808,286.8777,0,38,38,87,1,100,39,NA,NA,NA,NA,NA,1,39,"likert"
"C76FCB51E7934762B3B3ADF124E25A7A",1,"01990a98-493b-7445-ba9d-f89e421270d6","01990a84-c4ee-73c2-a87b-ff46a7d3dde5","2025-09-02_08h24.28.605",NA,NA,290.2279,290.228,290.2281,290.577,NA,NA,NA,NA,NA,NA,NA,TRUE,3,2.2667,287.2306,290.2276,0,39,39,39,1,28,35,NA,NA,NA,NA,NA,1,40,"likert"
"C76FCB51E7934762B3B3ADF124E25A7A",1,"01990a98-493b-7445-ba9d-f89e421270d6","01990a84-c4ee-73c2-a87b-ff46a7d3dde5","2025-09-02_08h24.28.605",NA,NA,293.5791,293.5792,293.5793,293.9267,NA,NA,NA,NA,NA,NA,NA,TRUE,4,1.9336,290.5794,293.579,0,40,40,24,1,21,26,NA,NA,NA,NA,NA,1,41,"likert"
"C76FCB51E7934762B3B3ADF124E25A7A",1,"01990a98-493b-7445-ba9d-f89e421270d6","01990a84-c4ee-73c2-a87b-ff46a7d3dde5","2025-09-02_08h24.28.605",NA,NA,296.9275,296.9276,296.9278,297.2759,NA,NA,NA,NA,NA,NA,NA,TRUE,5,1.5158,293.9294,296.9274,0,41,41,10,1,10,30,NA,NA,NA,NA,NA,1,42,"likert"
"C76FCB51E7934762B3B3ADF124E25A7A",1,"01990a98-493b-7445-ba9d-f89e421270d6","01990a84-c4ee-73c2-a87b-ff46a7d3dde5","2025-09-02_08h24.28.605",NA,NA,300.2756,300.2756,300.2757,300.6253,NA,NA,NA,NA,NA,NA,NA,TRUE,1,1.9852,297.2774,300.2753,0,42,42,17,1,12,35,NA,NA,NA,NA,NA,1,43,"likert"
"C76FCB51E7934762B3B3ADF124E25A7A",1,"01990a98-493b-7445-ba9d-f89e421270d6","01990a84-c4ee-73c2-a87b-ff46a7d3dde5","2025-09-02_08h24.28.605",NA,NA,303.627,303.627,303.627,303.9767,NA,NA,NA,NA,NA,NA,NA,TRUE,2,2.5693,300.6269,303.6267,0,43,43,12,1,12,25,NA,NA,NA,NA,NA,1,44,"likert"
"C76FCB51E7934762B3B3ADF124E25A7A",1,"01990a98-493b-7445-ba9d-f89e421270d6","01990a84-c4ee-73c2-a87b-ff46a7d3dde5","2025-09-02_08h24.28.605",NA,NA,306.9765,306.9765,306.9766,307.3261,NA,NA,NA,NA,NA,NA,NA,TRUE,4,2.7162,303.9793,306.9762,0,44,44,14,1,12,28,NA,NA,NA,NA,NA,1,45,"likert"
"C76FCB51E7934762B3B3ADF124E25A7A",1,"01990a98-493b-7445-ba9d-f89e421270d6","01990a84-c4ee-73c2-a87b-ff46a7d3dde5","2025-09-02_08h24.28.605",NA,NA,310.3257,310.3257,310.3257,310.6751,NA,NA,NA,NA,NA,NA,NA,TRUE,5,2.568,307.3284,310.3255,0,45,45,47,1,30,38,NA,NA,NA,NA,NA,1,46,"likert"
"C76FCB51E7934762B3B3ADF124E25A7A",1,"01990a98-493b-7445-ba9d-f89e421270d6","01990a84-c4ee-73c2-a87b-ff46a7d3dde5","2025-09-02_08h24.28.605",NA,NA,313.6759,313.676,313.6761,314.0243,NA,NA,NA,NA,NA,NA,NA,TRUE,5,2.5,310.677,313.6756,0,46,46,71,1,60,54,NA,NA,NA,NA,NA,1,47,"likert"
"C76FCB51E7934762B3B3ADF124E25A7A",1,"01990a98-493b-7445-ba9d-f89e421270d6","01990a84-c4ee-73c2-a87b-ff46a7d3dde5","2025-09-02_08h24.28.605",NA,NA,317.0254,317.0256,317.0257,317.3747,NA,NA,NA,NA,NA,NA,NA,TRUE,5,1.269,314.0256,317.0252,0,47,47,8,1,10,27,NA,NA,NA,NA,NA,1,48,"likert"
"C76FCB51E7934762B3B3ADF124E25A7A",1,"01990a98-493b-7445-ba9d-f89e421270d6","01990a84-c4ee-73c2-a87b-ff46a7d3dde5","2025-09-02_08h24.28.605",NA,NA,320.3758,320.3759,320.3759,320.7252,NA,NA,NA,NA,NA,NA,NA,TRUE,5,0.9352,317.3772,320.3755,0,48,48,45,1,30,30,NA,NA,NA,NA,NA,1,49,"likert"
"C76FCB51E7934762B3B3ADF124E25A7A",1,"01990a98-493b-7445-ba9d-f89e421270d6","01990a84-c4ee-73c2-a87b-ff46a7d3dde5","2025-09-02_08h24.28.605",NA,NA,323.7253,323.7254,323.7255,324.075,NA,NA,NA,NA,NA,NA,NA,TRUE,1,1.2168,320.7278,323.7249,0,49,49,56,1,45,31,NA,NA,NA,NA,NA,1,50,"likert"
"C76FCB51E7934762B3B3ADF124E25A7A",1,"01990a98-493b-7445-ba9d-f89e421270d6","01990a84-c4ee-73c2-a87b-ff46a7d3dde5","2025-09-02_08h24.28.605",NA,NA,327.0733,327.0734,327.0735,327.4241,NA,NA,NA,NA,NA,NA,NA,TRUE,1,1.5513,324.0772,327.0733,0,50,50,80,1,95,35,NA,NA,NA,NA,NA,1,51,"likert"
"C76FCB51E7934762B3B3ADF124E25A7A",1,"01990a98-493b-7445-ba9d-f89e421270d6","01990a84-c4ee-73c2-a87b-ff46a7d3dde5","2025-09-02_08h24.28.605",NA,NA,330.4237,330.4238,330.4238,330.774,NA,NA,NA,NA,NA,NA,NA,TRUE,1,1.8991,327.4267,330.4235,0,51,51,55,1,45,29,NA,NA,NA,NA,NA,1,52,"likert"
"C76FCB51E7934762B3B3ADF124E25A7A",1,"01990a98-493b-7445-ba9d-f89e421270d6","01990a84-c4ee-73c2-a87b-ff46a7d3dde5","2025-09-02_08h24.28.605",NA,NA,333.7744,333.7745,333.7745,334.1243,NA,NA,NA,NA,NA,NA,NA,TRUE,5,1.6847,330.7762,333.7742,0,52,52,2,1,7,28,NA,NA,NA,NA,NA,1,53,"likert"
"C76FCB51E7934762B3B3ADF124E25A7A",1,"01990a98-493b-7445-ba9d-f89e421270d6","01990a84-c4ee-73c2-a87b-ff46a7d3dde5","2025-09-02_08h24.28.605",NA,NA,337.1246,337.1247,337.1248,337.474,NA,NA,NA,NA,NA,NA,NA,TRUE,3,2.8351,334.1269,337.1245,0,53,53,21,1,14,32,NA,NA,NA,NA,NA,1,54,"likert"
"C76FCB51E7934762B3B3ADF124E25A7A",1,"01990a98-493b-7445-ba9d-f89e421270d6","01990a84-c4ee-73c2-a87b-ff46a7d3dde5","2025-09-02_08h24.28.605",NA,NA,340.4744,340.4745,340.4745,340.8239,NA,NA,NA,NA,NA,NA,NA,TRUE,3,1.983,337.4765,340.474,0,54,54,43,1,30,27,NA,NA,NA,NA,NA,1,55,"likert"
"C76FCB51E7934762B3B3ADF124E25A7A",1,"01990a98-493b-7445-ba9d-f89e421270d6","01990a84-c4ee-73c2-a87b-ff46a7d3dde5","2025-09-02_08h24.28.605",NA,NA,343.8235,343.8235,343.8235,344.1741,NA,NA,NA,NA,NA,NA,NA,TRUE,1,1.2835,340.8265,343.8232,0,55,55,88,1,100,46,NA,NA,NA,NA,NA,1,56,"likert"
"C76FCB51E7934762B3B3ADF124E25A7A",1,"01990a98-493b-7445-ba9d-f89e421270d6","01990a84-c4ee-73c2-a87b-ff46a7d3dde5","2025-09-02_08h24.28.605",NA,NA,347.1732,347.1733,347.1735,347.5217,NA,NA,NA,NA,NA,NA,NA,TRUE,4,1.8643,344.1766,347.1728,0,56,56,6,1,10,25,NA,NA,NA,NA,NA,1,57,"likert"
"C76FCB51E7934762B3B3ADF124E25A7A",1,"01990a98-493b-7445-ba9d-f89e421270d6","01990a84-c4ee-73c2-a87b-ff46a7d3dde5","2025-09-02_08h24.28.605",NA,NA,350.5233,350.5235,350.5235,350.888,NA,NA,NA,NA,NA,NA,NA,TRUE,1,2.1504,347.5235,350.5231,0,57,57,67,1,60,33,NA,NA,NA,NA,NA,1,58,"likert"
"C76FCB51E7934762B3B3ADF124E25A7A",1,"01990a98-493b-7445-ba9d-f89e421270d6","01990a84-c4ee-73c2-a87b-ff46a7d3dde5","2025-09-02_08h24.28.605",NA,NA,353.8732,353.8733,353.8733,354.2222,NA,NA,NA,NA,NA,NA,NA,TRUE,1,1.7007,350.8894,353.873,0,58,58,76,1,90,46,NA,NA,NA,NA,NA,1,59,"likert"
"C76FCB51E7934762B3B3ADF124E25A7A",1,"01990a98-493b-7445-ba9d-f89e421270d6","01990a84-c4ee-73c2-a87b-ff46a7d3dde5","2025-09-02_08h24.28.605",NA,NA,357.2227,357.2227,357.2229,357.572,NA,NA,NA,NA,NA,NA,NA,TRUE,3,2.1842,354.2245,357.2223,0,59,59,49,1,40,33,NA,NA,NA,NA,NA,1,60,"likert"
"C76FCB51E7934762B3B3ADF124E25A7A",1,"01990a98-493b-7445-ba9d-f89e421270d6","01990a84-c4ee-73c2-a87b-ff46a7d3dde5","2025-09-02_08h24.28.605",NA,NA,360.5726,360.5728,360.5729,360.9218,NA,NA,NA,NA,NA,NA,NA,TRUE,2,1.7493,357.5748,360.5724,0,60,60,69,1,60,40,NA,NA,NA,NA,NA,1,61,"likert"
"C76FCB51E7934762B3B3ADF124E25A7A",1,"01990a98-493b-7445-ba9d-f89e421270d6","01990a84-c4ee-73c2-a87b-ff46a7d3dde5","2025-09-02_08h24.28.605",NA,NA,363.9373,363.9374,363.9375,364.2871,NA,NA,NA,NA,NA,NA,NA,TRUE,3,1.9825,360.9241,363.9372,0,61,61,38,1,28,32,NA,NA,NA,NA,NA,1,62,"likert"
"C76FCB51E7934762B3B3ADF124E25A7A",1,"01990a98-493b-7445-ba9d-f89e421270d6","01990a84-c4ee-73c2-a87b-ff46a7d3dde5","2025-09-02_08h24.28.605",NA,NA,367.2883,367.2886,367.2886,367.6378,NA,NA,NA,NA,NA,NA,NA,TRUE,4,1.618,364.2881,367.288,0,62,62,0,1,7,25,NA,NA,NA,NA,NA,1,63,"likert"
"C76FCB51E7934762B3B3ADF124E25A7A",1,"01990a98-493b-7445-ba9d-f89e421270d6","01990a84-c4ee-73c2-a87b-ff46a7d3dde5","2025-09-02_08h24.28.605",NA,NA,370.6371,370.6374,370.6375,370.9876,NA,NA,NA,NA,NA,NA,NA,TRUE,1,1.2839,367.6405,370.637,0,63,63,75,1,90,40,NA,NA,NA,NA,NA,1,64,"likert"
"C76FCB51E7934762B3B3ADF124E25A7A",1,"01990a98-493b-7445-ba9d-f89e421270d6","01990a84-c4ee-73c2-a87b-ff46a7d3dde5","2025-09-02_08h24.28.605",NA,NA,373.9882,373.9884,373.9886,374.3378,NA,NA,NA,NA,NA,NA,NA,TRUE,1,1.1335,370.99,373.988,0,64,64,58,1,45,40,NA,NA,NA,NA,NA,1,65,"likert"
"C76FCB51E7934762B3B3ADF124E25A7A",1,"01990a98-493b-7445-ba9d-f89e421270d6","01990a84-c4ee-73c2-a87b-ff46a7d3dde5","2025-09-02_08h24.28.605",NA,NA,377.338,377.3381,377.3384,377.687,NA,NA,NA,NA,NA,NA,NA,TRUE,1,0.9143,374.3405,377.3377,0,65,65,85,1,100,31,NA,NA,NA,NA,NA,1,66,"likert"
"C76FCB51E7934762B3B3ADF124E25A7A",1,"01990a98-493b-7445-ba9d-f89e421270d6","01990a84-c4ee-73c2-a87b-ff46a7d3dde5","2025-09-02_08h24.28.605",NA,NA,380.6882,380.6884,380.6885,381.0366,NA,NA,NA,NA,NA,NA,NA,TRUE,1,2.1167,377.69,380.6878,0,66,66,82,1,95,47,NA,NA,NA,NA,NA,1,67,"likert"
"C76FCB51E7934762B3B3ADF124E25A7A",1,"01990a98-493b-7445-ba9d-f89e421270d6","01990a84-c4ee-73c2-a87b-ff46a7d3dde5","2025-09-02_08h24.28.605",NA,NA,384.0368,384.037,384.037,384.3861,NA,NA,NA,NA,NA,NA,NA,TRUE,1,1.0005,381.0391,384.0366,0,67,67,84,1,100,26,NA,NA,NA,NA,NA,1,68,"likert"
"C76FCB51E7934762B3B3ADF124E25A7A",1,"01990a98-493b-7445-ba9d-f89e421270d6","01990a84-c4ee-73c2-a87b-ff46a7d3dde5","2025-09-02_08h24.28.605",NA,NA,387.3872,387.3873,387.3876,387.7366,NA,NA,NA,NA,NA,NA,NA,TRUE,2,1.4678,384.3882,387.387,0,68,68,33,1,25,33,NA,NA,NA,NA,NA,1,69,"likert"
"C76FCB51E7934762B3B3ADF124E25A7A",1,"01990a98-493b-7445-ba9d-f89e421270d6","01990a84-c4ee-73c2-a87b-ff46a7d3dde5","2025-09-02_08h24.28.605",NA,NA,390.736,390.7362,390.7363,391.0855,NA,NA,NA,NA,NA,NA,NA,TRUE,1,1.1827,387.7393,390.7358,0,69,69,104,1,200,35,NA,NA,NA,NA,NA,1,70,"likert"
"C76FCB51E7934762B3B3ADF124E25A7A",1,"01990a98-493b-7445-ba9d-f89e421270d6","01990a84-c4ee-73c2-a87b-ff46a7d3dde5","2025-09-02_08h24.28.605",NA,NA,394.0865,394.0871,394.0872,394.436,NA,NA,NA,NA,NA,NA,NA,TRUE,3,2.085,391.0874,394.0861,0,70,70,57,1,45,35,NA,NA,NA,NA,NA,1,71,"likert"
"C76FCB51E7934762B3B3ADF124E25A7A",1,"01990a98-493b-7445-ba9d-f89e421270d6","01990a84-c4ee-73c2-a87b-ff46a7d3dde5","2025-09-02_08h24.28.605",NA,NA,397.4367,397.4369,397.437,397.781,NA,NA,NA,NA,NA,NA,NA,TRUE,3,2.2987,394.4382,397.4364,0,71,71,37,1,28,28,NA,NA,NA,NA,NA,1,72,"likert"
"C76FCB51E7934762B3B3ADF124E25A7A",1,"01990a98-493b-7445-ba9d-f89e421270d6","01990a84-c4ee-73c2-a87b-ff46a7d3dde5","2025-09-02_08h24.28.605",NA,NA,400.7822,400.7824,400.7824,401.1301,NA,NA,NA,NA,NA,NA,NA,TRUE,4,1.5065,397.7841,400.7814,0,72,72,1,1,7,26,NA,NA,NA,NA,NA,1,73,"likert"
"C76FCB51E7934762B3B3ADF124E25A7A",1,"01990a98-493b-7445-ba9d-f89e421270d6","01990a84-c4ee-73c2-a87b-ff46a7d3dde5","2025-09-02_08h24.28.605",NA,NA,404.1319,404.132,404.1321,404.4808,NA,NA,NA,NA,NA,NA,NA,TRUE,5,2.0684,401.1323,404.1311,0,73,73,15,1,12,31,NA,NA,NA,NA,NA,1,74,"likert"
"C76FCB51E7934762B3B3ADF124E25A7A",1,"01990a98-493b-7445-ba9d-f89e421270d6","01990a84-c4ee-73c2-a87b-ff46a7d3dde5","2025-09-02_08h24.28.605",NA,NA,407.4808,407.481,407.4812,407.8305,NA,NA,NA,NA,NA,NA,NA,TRUE,1,1.2008,404.485,407.4805,0,74,74,72,1,90,26,NA,NA,NA,NA,NA,1,75,"likert"
"C76FCB51E7934762B3B3ADF124E25A7A",1,"01990a98-493b-7445-ba9d-f89e421270d6","01990a84-c4ee-73c2-a87b-ff46a7d3dde5","2025-09-02_08h24.28.605",NA,NA,410.8307,410.8312,410.8313,411.1803,NA,NA,NA,NA,NA,NA,NA,TRUE,1,1.5722,407.8336,410.8304,0,75,75,44,1,30,29,NA,NA,NA,NA,NA,1,76,"likert"
"C76FCB51E7934762B3B3ADF124E25A7A",1,"01990a98-493b-7445-ba9d-f89e421270d6","01990a84-c4ee-73c2-a87b-ff46a7d3dde5","2025-09-02_08h24.28.605",NA,NA,414.1798,414.18,414.1802,414.5299,NA,NA,NA,NA,NA,NA,NA,TRUE,1,0.913,411.1835,414.1795,0,76,76,102,1,200,26,NA,NA,NA,NA,NA,1,77,"likert"
"C76FCB51E7934762B3B3ADF124E25A7A",1,"01990a98-493b-7445-ba9d-f89e421270d6","01990a84-c4ee-73c2-a87b-ff46a7d3dde5","2025-09-02_08h24.28.605",NA,NA,417.53,417.5304,417.5304,417.8799,NA,NA,NA,NA,NA,NA,NA,TRUE,4,1.5736,414.5331,417.5297,0,77,77,11,1,10,32,NA,NA,NA,NA,NA,1,78,"likert"
"C76FCB51E7934762B3B3ADF124E25A7A",1,"01990a98-493b-7445-ba9d-f89e421270d6","01990a84-c4ee-73c2-a87b-ff46a7d3dde5","2025-09-02_08h24.28.605",NA,NA,420.8825,420.8826,420.8826,421.229,NA,NA,NA,NA,NA,NA,NA,TRUE,1,1.7077,417.8836,420.8823,0,78,78,83,1,95,54,NA,NA,NA,NA,NA,1,79,"likert"
"C76FCB51E7934762B3B3ADF124E25A7A",1,"01990a98-493b-7445-ba9d-f89e421270d6","01990a84-c4ee-73c2-a87b-ff46a7d3dde5","2025-09-02_08h24.28.605",NA,NA,424.2298,424.2298,424.2299,424.5796,NA,NA,NA,NA,NA,NA,NA,TRUE,1,1.0701,421.2316,424.2295,0,79,79,99,1,180,39,NA,NA,NA,NA,NA,1,80,"likert"
"C76FCB51E7934762B3B3ADF124E25A7A",1,"01990a98-493b-7445-ba9d-f89e421270d6","01990a84-c4ee-73c2-a87b-ff46a7d3dde5","2025-09-02_08h24.28.605",NA,NA,427.5794,427.58,427.5801,427.9292,NA,NA,NA,NA,NA,NA,NA,TRUE,1,1.2846,424.582,427.5791,0,80,80,61,1,50,30,NA,NA,NA,NA,NA,1,81,"likert"
"C76FCB51E7934762B3B3ADF124E25A7A",1,"01990a98-493b-7445-ba9d-f89e421270d6","01990a84-c4ee-73c2-a87b-ff46a7d3dde5","2025-09-02_08h24.28.605",NA,NA,430.9298,430.9299,430.93,431.279,NA,NA,NA,NA,NA,NA,NA,TRUE,1,0.9871,427.933,430.929,0,81,81,93,1,150,40,NA,NA,NA,NA,NA,1,82,"likert"
"C76FCB51E7934762B3B3ADF124E25A7A",1,"01990a98-493b-7445-ba9d-f89e421270d6","01990a84-c4ee-73c2-a87b-ff46a7d3dde5","2025-09-02_08h24.28.605",NA,NA,434.2794,434.2795,434.2797,434.6287,NA,NA,NA,NA,NA,NA,NA,TRUE,5,1.403,431.2826,434.2787,0,82,82,16,1,12,33,NA,NA,NA,NA,NA,1,83,"likert"
"C76FCB51E7934762B3B3ADF124E25A7A",1,"01990a98-493b-7445-ba9d-f89e421270d6","01990a84-c4ee-73c2-a87b-ff46a7d3dde5","2025-09-02_08h24.28.605",NA,NA,437.6292,437.6295,437.6295,437.9783,NA,NA,NA,NA,NA,NA,NA,TRUE,5,1.2495,434.6322,437.6285,0,83,83,7,1,10,26,NA,NA,NA,NA,NA,1,84,"likert"
"C76FCB51E7934762B3B3ADF124E25A7A",1,"01990a98-493b-7445-ba9d-f89e421270d6","01990a84-c4ee-73c2-a87b-ff46a7d3dde5","2025-09-02_08h24.28.605",NA,NA,440.9794,440.9795,440.9796,441.3282,NA,NA,NA,NA,NA,NA,NA,TRUE,2,1.7758,437.9819,440.979,0,84,84,68,1,60,35,NA,NA,NA,NA,NA,1,85,"likert"
"C76FCB51E7934762B3B3ADF124E25A7A",1,"01990a98-493b-7445-ba9d-f89e421270d6","01990a84-c4ee-73c2-a87b-ff46a7d3dde5","2025-09-02_08h24.28.605",NA,NA,444.328,444.3283,444.3284,444.6768,NA,NA,NA,NA,NA,NA,NA,TRUE,5,1.4759,441.3315,444.3277,0,85,85,13,1,12,26,NA,NA,NA,NA,NA,1,86,"likert"
"C76FCB51E7934762B3B3ADF124E25A7A",1,"01990a98-493b-7445-ba9d-f89e421270d6","01990a84-c4ee-73c2-a87b-ff46a7d3dde5","2025-09-02_08h24.28.605",NA,NA,447.6823,447.6825,447.6825,448.0273,NA,NA,NA,NA,NA,NA,NA,TRUE,4,2.4404,444.6791,447.6821,0,86,86,40,1,28,39,NA,NA,NA,NA,NA,1,87,"likert"
"C76FCB51E7934762B3B3ADF124E25A7A",1,"01990a98-493b-7445-ba9d-f89e421270d6","01990a84-c4ee-73c2-a87b-ff46a7d3dde5","2025-09-02_08h24.28.605",NA,NA,451.0282,451.0284,451.0284,451.3765,NA,NA,NA,NA,NA,NA,NA,TRUE,3,2.1993,448.0299,451.0275,0,87,87,52,1,40,47,NA,NA,NA,NA,NA,1,88,"likert"
"C76FCB51E7934762B3B3ADF124E25A7A",1,"01990a98-493b-7445-ba9d-f89e421270d6","01990a84-c4ee-73c2-a87b-ff46a7d3dde5","2025-09-02_08h24.28.605",NA,NA,454.3767,454.3769,454.377,454.727,NA,NA,NA,NA,NA,NA,NA,TRUE,1,1.1946,451.3788,454.3764,0,88,88,107,1,200,54,NA,NA,NA,NA,NA,1,89,"likert"
"C76FCB51E7934762B3B3ADF124E25A7A",1,"01990a98-493b-7445-ba9d-f89e421270d6","01990a84-c4ee-73c2-a87b-ff46a7d3dde5","2025-09-02_08h24.28.605",NA,NA,457.7266,457.7269,457.727,458.0769,NA,NA,NA,NA,NA,NA,NA,TRUE,4,1.9098,454.7304,457.7263,0,89,89,29,1,21,38,NA,NA,NA,NA,NA,1,90,"likert"
"C76FCB51E7934762B3B3ADF124E25A7A",1,"01990a98-493b-7445-ba9d-f89e421270d6","01990a84-c4ee-73c2-a87b-ff46a7d3dde5","2025-09-02_08h24.28.605",NA,NA,461.0766,461.0768,461.0769,461.4261,NA,NA,NA,NA,NA,NA,NA,TRUE,1,1.7343,458.0803,461.0763,0,90,90,50,1,40,35,NA,NA,NA,NA,NA,1,91,"likert"
"C76FCB51E7934762B3B3ADF124E25A7A",1,"01990a98-493b-7445-ba9d-f89e421270d6","01990a84-c4ee-73c2-a87b-ff46a7d3dde5","2025-09-02_08h24.28.605",NA,NA,464.4302,464.4303,464.4304,464.7758,NA,NA,NA,NA,NA,NA,NA,TRUE,3,2.0933,461.4288,464.43,0,91,91,46,1,30,32,NA,NA,NA,NA,NA,1,92,"likert"
"C76FCB51E7934762B3B3ADF124E25A7A",1,"01990a98-493b-7445-ba9d-f89e421270d6","01990a84-c4ee-73c2-a87b-ff46a7d3dde5","2025-09-02_08h24.28.605",NA,NA,467.7767,467.7769,467.7771,468.1259,NA,NA,NA,NA,NA,NA,NA,TRUE,4,2.2368,464.7784,467.7765,0,92,92,26,1,21,29,NA,NA,NA,NA,NA,1,93,"likert"
"C76FCB51E7934762B3B3ADF124E25A7A",1,"01990a98-493b-7445-ba9d-f89e421270d6","01990a84-c4ee-73c2-a87b-ff46a7d3dde5","2025-09-02_08h24.28.605",NA,NA,471.1266,471.1268,471.1269,471.4754,NA,NA,NA,NA,NA,NA,NA,TRUE,4,2.1775,468.1299,471.1261,0,93,93,32,1,25,31,NA,NA,NA,NA,NA,1,94,"likert"
"C76FCB51E7934762B3B3ADF124E25A7A",1,"01990a98-493b-7445-ba9d-f89e421270d6","01990a84-c4ee-73c2-a87b-ff46a7d3dde5","2025-09-02_08h24.28.605",NA,NA,474.4757,474.4759,474.476,474.8251,NA,NA,NA,NA,NA,NA,NA,TRUE,1,1.1195,471.4781,474.4754,0,94,94,97,1,180,31,NA,NA,NA,NA,NA,1,95,"likert"
"C76FCB51E7934762B3B3ADF124E25A7A",1,"01990a98-493b-7445-ba9d-f89e421270d6","01990a84-c4ee-73c2-a87b-ff46a7d3dde5","2025-09-02_08h24.28.605",NA,NA,477.8256,477.8257,477.8258,478.1749,NA,NA,NA,NA,NA,NA,NA,TRUE,5,1.4363,474.8279,477.8253,0,95,95,4,1,7,32,NA,NA,NA,NA,NA,1,96,"likert"
"C76FCB51E7934762B3B3ADF124E25A7A",1,"01990a98-493b-7445-ba9d-f89e421270d6","01990a84-c4ee-73c2-a87b-ff46a7d3dde5","2025-09-02_08h24.28.605",NA,NA,481.1758,481.1762,481.1762,481.5249,NA,NA,NA,NA,NA,NA,NA,TRUE,3,1.9349,478.1779,481.1751,0,96,96,59,1,45,46,NA,NA,NA,NA,NA,1,97,"likert"
"C76FCB51E7934762B3B3ADF124E25A7A",1,"01990a98-493b-7445-ba9d-f89e421270d6","01990a84-c4ee-73c2-a87b-ff46a7d3dde5","2025-09-02_08h24.28.605",NA,NA,484.5245,484.5248,484.5249,484.8742,NA,NA,NA,NA,NA,NA,NA,TRUE,1,1.4428,481.5286,484.5243,0,97,97,60,1,50,27,NA,NA,NA,NA,NA,1,98,"likert"
"C76FCB51E7934762B3B3ADF124E25A7A",1,"01990a98-493b-7445-ba9d-f89e421270d6","01990a84-c4ee-73c2-a87b-ff46a7d3dde5","2025-09-02_08h24.28.605",NA,NA,487.8755,487.8757,487.876,488.2244,NA,NA,NA,NA,NA,NA,NA,TRUE,1,0.8982,484.8766,487.8748,0,98,98,101,1,180,54,NA,NA,NA,NA,NA,1,99,"likert"
"C76FCB51E7934762B3B3ADF124E25A7A",1,"01990a98-493b-7445-ba9d-f89e421270d6","01990a84-c4ee-73c2-a87b-ff46a7d3dde5","2025-09-02_08h24.28.605",NA,NA,491.2244,491.4739,491.474,491.5738,NA,NA,NA,NA,NA,NA,NA,FALSE,NA,NA,488.2284,491.224,0,99,99,25,1,21,27,NA,NA,NA,NA,NA,1,100,"likert"
"C76FCB51E7934762B3B3ADF124E25A7A",1,"01990a98-493b-7445-ba9d-f89e421270d6","01990a84-c4ee-73c2-a87b-ff46a7d3dde5","2025-09-02_08h24.28.605",NA,NA,494.5746,494.5746,494.5748,494.9239,NA,NA,NA,NA,NA,NA,NA,TRUE,1,1.492,491.5767,494.5743,0,100,100,95,1,150,54,NA,NA,NA,NA,NA,1,101,"likert"
"C76FCB51E7934762B3B3ADF124E25A7A",1,"01990a98-493b-7445-ba9d-f89e421270d6","01990a84-c4ee-73c2-a87b-ff46a7d3dde5","2025-09-02_08h24.28.605",NA,NA,497.9238,497.924,497.9244,498.2738,NA,NA,NA,NA,NA,NA,NA,TRUE,1,1.0223,494.9271,497.9233,0,101,101,79,1,95,33,NA,NA,NA,NA,NA,1,102,"likert"
"C76FCB51E7934762B3B3ADF124E25A7A",1,"01990a98-493b-7445-ba9d-f89e421270d6","01990a84-c4ee-73c2-a87b-ff46a7d3dde5","2025-09-02_08h24.28.605",NA,NA,501.2745,501.2746,501.2748,501.6236,NA,NA,NA,NA,NA,NA,NA,TRUE,1,1.0741,498.2774,501.2738,0,102,102,62,1,50,35,NA,NA,NA,NA,NA,1,103,"likert"
"C76FCB51E7934762B3B3ADF124E25A7A",1,"01990a98-493b-7445-ba9d-f89e421270d6","01990a84-c4ee-73c2-a87b-ff46a7d3dde5","2025-09-02_08h24.28.605",NA,NA,504.6242,504.6244,504.6244,504.9733,NA,NA,NA,NA,NA,NA,NA,TRUE,1,0.6667,501.6274,504.6236,0,103,103,92,1,150,35,NA,NA,NA,NA,NA,1,104,"likert"
"C76FCB51E7934762B3B3ADF124E25A7A",1,"01990a98-493b-7445-ba9d-f89e421270d6","01990a84-c4ee-73c2-a87b-ff46a7d3dde5","2025-09-02_08h24.28.605",NA,NA,507.9738,507.9739,507.974,508.3228,NA,NA,NA,NA,NA,NA,NA,TRUE,3,1.5284,504.9773,507.973,0,104,104,36,1,28,26,NA,NA,NA,NA,NA,1,105,"likert"
"C76FCB51E7934762B3B3ADF124E25A7A",1,"01990a98-493b-7445-ba9d-f89e421270d6","01990a84-c4ee-73c2-a87b-ff46a7d3dde5","2025-09-02_08h24.28.605",NA,NA,511.3221,511.3223,511.3223,511.6724,NA,NA,NA,NA,NA,NA,NA,TRUE,1,1.6947,508.3261,511.3218,0,105,105,64,1,50,46,NA,NA,NA,NA,NA,1,106,"likert"
"C76FCB51E7934762B3B3ADF124E25A7A",1,"01990a98-493b-7445-ba9d-f89e421270d6","01990a84-c4ee-73c2-a87b-ff46a7d3dde5","2025-09-02_08h24.28.605",NA,NA,514.6727,514.673,514.673,515.0217,NA,NA,NA,NA,NA,NA,NA,TRUE,1,2.0545,511.6755,514.6725,0,106,106,48,1,40,27,NA,NA,NA,NA,NA,1,107,"likert"
"C76FCB51E7934762B3B3ADF124E25A7A",1,"01990a98-493b-7445-ba9d-f89e421270d6","01990a84-c4ee-73c2-a87b-ff46a7d3dde5","2025-09-02_08h24.28.605",NA,NA,518.0234,518.0235,518.0237,518.3722,NA,NA,NA,NA,NA,NA,NA,TRUE,5,2.2298,515.0239,518.0232,0,107,107,27,1,21,30,NA,NA,NA,NA,NA,1,108,"likert"
"C76FCB51E7934762B3B3ADF124E25A7A",1,"01990a98-493b-7445-ba9d-f89e421270d6","01990a84-c4ee-73c2-a87b-ff46a7d3dde5","2025-09-02_08h24.28.605",NA,NA,535.3215,535.3219,535.322,535.6703,NA,NA,NA,NA,NA,NA,NA,TRUE,5,2.5085,532.3624,535.3213,NA,NA,NA,NA,NA,45,46,0,0,0,59,1,2,1,"likert"
"C76FCB51E7934762B3B3ADF124E25A7A",1,"01990a98-493b-7445-ba9d-f89e421270d6","01990a84-c4ee-73c2-a87b-ff46a7d3dde5","2025-09-02_08h24.28.605",NA,NA,538.671,538.6711,538.6712,539.0204,NA,NA,NA,NA,NA,NA,NA,TRUE,1,1.1915,535.6726,538.6707,NA,NA,NA,NA,NA,90,46,0,1,1,76,1,2,2,"likert"
"C76FCB51E7934762B3B3ADF124E25A7A",1,"01990a98-493b-7445-ba9d-f89e421270d6","01990a84-c4ee-73c2-a87b-ff46a7d3dde5","2025-09-02_08h24.28.605",NA,NA,542.02,542.0201,542.0202,542.3701,NA,NA,NA,NA,NA,NA,NA,TRUE,1,1.291,539.0233,542.0196,NA,NA,NA,NA,NA,60,40,0,2,2,69,1,2,3,"likert"
"C76FCB51E7934762B3B3ADF124E25A7A",1,"01990a98-493b-7445-ba9d-f89e421270d6","01990a84-c4ee-73c2-a87b-ff46a7d3dde5","2025-09-02_08h24.28.605",NA,NA,545.3711,545.3712,545.3713,545.7202,NA,NA,NA,NA,NA,NA,NA,TRUE,1,0.725,542.373,545.3704,NA,NA,NA,NA,NA,150,40,0,3,3,93,1,2,4,"likert"
"C76FCB51E7934762B3B3ADF124E25A7A",1,"01990a98-493b-7445-ba9d-f89e421270d6","01990a84-c4ee-73c2-a87b-ff46a7d3dde5","2025-09-02_08h24.28.605",NA,NA,548.7209,548.7211,548.7212,549.0702,NA,NA,NA,NA,NA,NA,NA,TRUE,1,0.9929,545.7239,548.7203,NA,NA,NA,NA,NA,95,31,0,4,4,78,1,2,5,"likert"
"C76FCB51E7934762B3B3ADF124E25A7A",1,"01990a98-493b-7445-ba9d-f89e421270d6","01990a84-c4ee-73c2-a87b-ff46a7d3dde5","2025-09-02_08h24.28.605",NA,NA,552.0705,552.0705,552.0707,552.4199,NA,NA,NA,NA,NA,NA,NA,TRUE,5,1.3084,549.0738,552.0701,NA,NA,NA,NA,NA,10,27,0,5,5,8,1,2,6,"likert"
"C76FCB51E7934762B3B3ADF124E25A7A",1,"01990a98-493b-7445-ba9d-f89e421270d6","01990a84-c4ee-73c2-a87b-ff46a7d3dde5","2025-09-02_08h24.28.605",NA,NA,555.4203,555.4204,555.4204,555.7696,NA,NA,NA,NA,NA,NA,NA,TRUE,4,2.2221,552.4236,555.4201,NA,NA,NA,NA,NA,50,46,0,6,6,64,1,2,7,"likert"
"C76FCB51E7934762B3B3ADF124E25A7A",1,"01990a98-493b-7445-ba9d-f89e421270d6","01990a84-c4ee-73c2-a87b-ff46a7d3dde5","2025-09-02_08h24.28.605",NA,NA,558.7701,558.7702,558.7702,559.1193,NA,NA,NA,NA,NA,NA,NA,TRUE,4,1.1258,555.7732,558.7696,NA,NA,NA,NA,NA,14,32,0,7,7,21,1,2,8,"likert"
"C76FCB51E7934762B3B3ADF124E25A7A",1,"01990a98-493b-7445-ba9d-f89e421270d6","01990a84-c4ee-73c2-a87b-ff46a7d3dde5","2025-09-02_08h24.28.605",NA,NA,562.1196,562.1198,562.1199,562.4686,NA,NA,NA,NA,NA,NA,NA,TRUE,5,1.3896,559.1232,562.1191,NA,NA,NA,NA,NA,7,28,0,8,8,2,1,2,9,"likert"
"C76FCB51E7934762B3B3ADF124E25A7A",1,"01990a98-493b-7445-ba9d-f89e421270d6","01990a84-c4ee-73c2-a87b-ff46a7d3dde5","2025-09-02_08h24.28.605",NA,NA,565.4695,565.4695,565.4697,565.8183,NA,NA,NA,NA,NA,NA,NA,TRUE,1,1.1617,562.4715,565.4688,NA,NA,NA,NA,NA,90,40,0,9,9,75,1,2,10,"likert"
"C76FCB51E7934762B3B3ADF124E25A7A",1,"01990a98-493b-7445-ba9d-f89e421270d6","01990a84-c4ee-73c2-a87b-ff46a7d3dde5","2025-09-02_08h24.28.605",NA,NA,568.8205,568.8207,568.8208,569.1679,NA,NA,NA,NA,NA,NA,NA,TRUE,1,1.1357,565.8214,568.8203,NA,NA,NA,NA,NA,45,26,0,10,10,54,1,2,11,"likert"
"C76FCB51E7934762B3B3ADF124E25A7A",1,"01990a98-493b-7445-ba9d-f89e421270d6","01990a84-c4ee-73c2-a87b-ff46a7d3dde5","2025-09-02_08h24.28.605",NA,NA,572.168,572.1682,572.1684,572.5176,NA,NA,NA,NA,NA,NA,NA,TRUE,5,1.0609,569.171,572.1677,NA,NA,NA,NA,NA,14,39,0,11,11,23,1,2,12,"likert"
"C76FCB51E7934762B3B3ADF124E25A7A",1,"01990a98-493b-7445-ba9d-f89e421270d6","01990a84-c4ee-73c2-a87b-ff46a7d3dde5","2025-09-02_08h24.28.605",NA,NA,575.5183,575.5188,575.5189,575.867,NA,NA,NA,NA,NA,NA,NA,TRUE,1,1.0023,572.5204,575.5178,NA,NA,NA,NA,NA,95,35,0,12,12,80,1,2,13,"likert"
"C76FCB51E7934762B3B3ADF124E25A7A",1,"01990a98-493b-7445-ba9d-f89e421270d6","01990a84-c4ee-73c2-a87b-ff46a7d3dde5","2025-09-02_08h24.28.605",NA,NA,578.8687,578.8689,578.8689,579.2172,NA,NA,NA,NA,NA,NA,NA,TRUE,1,1.1141,575.8693,578.8679,NA,NA,NA,NA,NA,200,28,0,13,13,103,1,2,14,"likert"
"C76FCB51E7934762B3B3ADF124E25A7A",1,"01990a98-493b-7445-ba9d-f89e421270d6","01990a84-c4ee-73c2-a87b-ff46a7d3dde5","2025-09-02_08h24.28.605",NA,NA,582.2178,582.2183,582.2184,582.5669,NA,NA,NA,NA,NA,NA,NA,TRUE,1,0.7279,579.2196,582.2175,NA,NA,NA,NA,NA,150,47,0,14,14,94,1,2,15,"likert"
"C76FCB51E7934762B3B3ADF124E25A7A",1,"01990a98-493b-7445-ba9d-f89e421270d6","01990a84-c4ee-73c2-a87b-ff46a7d3dde5","2025-09-02_08h24.28.605",NA,NA,585.5669,585.567,585.5671,585.9162,NA,NA,NA,NA,NA,NA,NA,TRUE,1,1.6017,582.5695,585.5667,NA,NA,NA,NA,NA,45,40,0,15,15,58,1,2,16,"likert"
"C76FCB51E7934762B3B3ADF124E25A7A",1,"01990a98-493b-7445-ba9d-f89e421270d6","01990a84-c4ee-73c2-a87b-ff46a7d3dde5","2025-09-02_08h24.28.605",NA,NA,588.9171,588.9174,588.9174,589.2666,NA,NA,NA,NA,NA,NA,NA,TRUE,1,1.1249,585.9183,588.9168,NA,NA,NA,NA,NA,200,39,0,16,16,105,1,2,17,"likert"
"C76FCB51E7934762B3B3ADF124E25A7A",1,"01990a98-493b-7445-ba9d-f89e421270d6","01990a84-c4ee-73c2-a87b-ff46a7d3dde5","2025-09-02_08h24.28.605",NA,NA,592.2667,592.267,592.2673,592.6159,NA,NA,NA,NA,NA,NA,NA,TRUE,5,1.3341,589.2694,592.2663,NA,NA,NA,NA,NA,10,25,0,17,17,6,1,2,18,"likert"
"C76FCB51E7934762B3B3ADF124E25A7A",1,"01990a98-493b-7445-ba9d-f89e421270d6","01990a84-c4ee-73c2-a87b-ff46a7d3dde5","2025-09-02_08h24.28.605",NA,NA,595.6194,595.6195,595.6196,595.9664,NA,NA,NA,NA,NA,NA,NA,TRUE,1,0.9374,592.6185,595.619,NA,NA,NA,NA,NA,95,40,0,18,18,81,1,2,19,"likert"
"C76FCB51E7934762B3B3ADF124E25A7A",1,"01990a98-493b-7445-ba9d-f89e421270d6","01990a84-c4ee-73c2-a87b-ff46a7d3dde5","2025-09-02_08h24.28.605",NA,NA,598.9665,598.9667,598.9668,599.3159,NA,NA,NA,NA,NA,NA,NA,TRUE,1,1.4754,595.9702,598.9662,NA,NA,NA,NA,NA,40,35,0,19,19,50,1,2,20,"likert"
"C76FCB51E7934762B3B3ADF124E25A7A",1,"01990a98-493b-7445-ba9d-f89e421270d6","01990a84-c4ee-73c2-a87b-ff46a7d3dde5","2025-09-02_08h24.28.605",NA,NA,602.3154,602.3155,602.3157,602.6657,NA,NA,NA,NA,NA,NA,NA,TRUE,3,2.0886,599.3191,602.315,NA,NA,NA,NA,NA,30,32,0,20,20,46,1,2,21,"likert"
"C76FCB51E7934762B3B3ADF124E25A7A",1,"01990a98-493b-7445-ba9d-f89e421270d6","01990a84-c4ee-73c2-a87b-ff46a7d3dde5","2025-09-02_08h24.28.605",NA,NA,605.6656,605.666,605.6661,606.0156,NA,NA,NA,NA,NA,NA,NA,TRUE,1,1.1723,602.6687,605.6654,NA,NA,NA,NA,NA,200,47,0,21,21,106,1,2,22,"likert"
"C76FCB51E7934762B3B3ADF124E25A7A",1,"01990a98-493b-7445-ba9d-f89e421270d6","01990a84-c4ee-73c2-a87b-ff46a7d3dde5","2025-09-02_08h24.28.605",NA,NA,609.0164,609.0166,609.0167,609.3654,NA,NA,NA,NA,NA,NA,NA,TRUE,3,1.3255,606.0192,609.0157,NA,NA,NA,NA,NA,30,27,0,22,22,43,1,2,23,"likert"
"C76FCB51E7934762B3B3ADF124E25A7A",1,"01990a98-493b-7445-ba9d-f89e421270d6","01990a84-c4ee-73c2-a87b-ff46a7d3dde5","2025-09-02_08h24.28.605",NA,NA,612.3662,612.3663,612.3665,612.7152,NA,NA,NA,NA,NA,NA,NA,TRUE,5,1.2218,609.3696,612.3655,NA,NA,NA,NA,NA,10,29,0,23,23,9,1,2,24,"likert"
"C76FCB51E7934762B3B3ADF124E25A7A",1,"01990a98-493b-7445-ba9d-f89e421270d6","01990a84-c4ee-73c2-a87b-ff46a7d3dde5","2025-09-02_08h24.28.605",NA,NA,615.7153,615.7153,615.7158,616.0648,NA,NA,NA,NA,NA,NA,NA,TRUE,2,2.4992,612.7191,615.7149,NA,NA,NA,NA,NA,28,39,0,24,24,40,1,2,25,"likert"
"C76FCB51E7934762B3B3ADF124E25A7A",1,"01990a98-493b-7445-ba9d-f89e421270d6","01990a84-c4ee-73c2-a87b-ff46a7d3dde5","2025-09-02_08h24.28.605",NA,NA,619.0657,619.0658,619.0659,619.4148,NA,NA,NA,NA,NA,NA,NA,TRUE,5,1.5178,616.0681,619.065,NA,NA,NA,NA,NA,12,28,0,25,25,14,1,2,26,"likert"
"C76FCB51E7934762B3B3ADF124E25A7A",1,"01990a98-493b-7445-ba9d-f89e421270d6","01990a84-c4ee-73c2-a87b-ff46a7d3dde5","2025-09-02_08h24.28.605",NA,NA,622.4143,622.4146,622.4147,622.7644,NA,NA,NA,NA,NA,NA,NA,TRUE,5,1.3274,619.4191,622.414,NA,NA,NA,NA,NA,21,26,0,26,26,24,1,2,27,"likert"
"C76FCB51E7934762B3B3ADF124E25A7A",1,"01990a98-493b-7445-ba9d-f89e421270d6","01990a84-c4ee-73c2-a87b-ff46a7d3dde5","2025-09-02_08h24.28.605",NA,NA,625.7646,625.765,625.7652,626.114,NA,NA,NA,NA,NA,NA,NA,TRUE,1,1.2778,622.7675,625.7642,NA,NA,NA,NA,NA,150,54,0,27,27,95,1,2,28,"likert"
"C76FCB51E7934762B3B3ADF124E25A7A",1,"01990a98-493b-7445-ba9d-f89e421270d6","01990a84-c4ee-73c2-a87b-ff46a7d3dde5","2025-09-02_08h24.28.605",NA,NA,629.1138,629.1141,629.1142,629.4638,NA,NA,NA,NA,NA,NA,NA,TRUE,4,1.5413,626.1185,629.1135,NA,NA,NA,NA,NA,12,35,0,28,28,17,1,2,29,"likert"
"C76FCB51E7934762B3B3ADF124E25A7A",1,"01990a98-493b-7445-ba9d-f89e421270d6","01990a84-c4ee-73c2-a87b-ff46a7d3dde5","2025-09-02_08h24.28.605",NA,NA,632.4648,632.4651,632.4651,632.8132,NA,NA,NA,NA,NA,NA,NA,TRUE,1,1.1564,629.4671,632.464,NA,NA,NA,NA,NA,60,35,0,29,29,68,1,2,30,"likert"
"C76FCB51E7934762B3B3ADF124E25A7A",1,"01990a98-493b-7445-ba9d-f89e421270d6","01990a84-c4ee-73c2-a87b-ff46a7d3dde5","2025-09-02_08h24.28.605",NA,NA,635.8136,635.8139,635.8141,636.1631,NA,NA,NA,NA,NA,NA,NA,TRUE,1,1.6874,632.8152,635.8133,NA,NA,NA,NA,NA,25,31,0,30,30,32,1,2,31,"likert"
"C76FCB51E7934762B3B3ADF124E25A7A",1,"01990a98-493b-7445-ba9d-f89e421270d6","01990a84-c4ee-73c2-a87b-ff46a7d3dde5","2025-09-02_08h24.28.605",NA,NA,639.1632,639.1635,639.1636,639.5124,NA,NA,NA,NA,NA,NA,NA,TRUE,4,1.9355,636.1663,639.1629,NA,NA,NA,NA,NA,40,54,0,31,31,53,1,2,32,"likert"
"C76FCB51E7934762B3B3ADF124E25A7A",1,"01990a98-493b-7445-ba9d-f89e421270d6","01990a84-c4ee-73c2-a87b-ff46a7d3dde5","2025-09-02_08h24.28.605",NA,NA,642.5172,642.5173,642.5173,642.8629,NA,NA,NA,NA,NA,NA,NA,TRUE,4,1.5485,639.5148,642.5171,NA,NA,NA,NA,NA,30,30,0,32,32,45,1,2,33,"likert"
"C76FCB51E7934762B3B3ADF124E25A7A",1,"01990a98-493b-7445-ba9d-f89e421270d6","01990a84-c4ee-73c2-a87b-ff46a7d3dde5","2025-09-02_08h24.28.605",NA,NA,645.8622,645.8623,645.8624,646.2127,NA,NA,NA,NA,NA,NA,NA,TRUE,1,1.5915,642.8657,645.8619,NA,NA,NA,NA,NA,100,54,0,33,33,89,1,2,34,"likert"
"C76FCB51E7934762B3B3ADF124E25A7A",1,"01990a98-493b-7445-ba9d-f89e421270d6","01990a84-c4ee-73c2-a87b-ff46a7d3dde5","2025-09-02_08h24.28.605",NA,NA,649.2126,649.2131,649.2132,649.5615,NA,NA,NA,NA,NA,NA,NA,TRUE,1,0.6023,646.216,649.2123,NA,NA,NA,NA,NA,100,39,0,34,34,87,1,2,35,"likert"
"C76FCB51E7934762B3B3ADF124E25A7A",1,"01990a98-493b-7445-ba9d-f89e421270d6","01990a84-c4ee-73c2-a87b-ff46a7d3dde5","2025-09-02_08h24.28.605",NA,NA,652.5633,652.5634,652.5634,652.9122,NA,NA,NA,NA,NA,NA,NA,TRUE,3,1.7544,649.5641,652.563,NA,NA,NA,NA,NA,40,47,0,35,35,52,1,2,36,"likert"
"C76FCB51E7934762B3B3ADF124E25A7A",1,"01990a98-493b-7445-ba9d-f89e421270d6","01990a84-c4ee-73c2-a87b-ff46a7d3dde5","2025-09-02_08h24.28.605",NA,NA,655.9128,655.913,655.9131,656.2621,NA,NA,NA,NA,NA,NA,NA,TRUE,3,1.3384,652.9156,655.9122,NA,NA,NA,NA,NA,50,30,0,36,36,61,1,2,37,"likert"
"C76FCB51E7934762B3B3ADF124E25A7A",1,"01990a98-493b-7445-ba9d-f89e421270d6","01990a84-c4ee-73c2-a87b-ff46a7d3dde5","2025-09-02_08h24.28.605",NA,NA,659.2624,659.2625,659.2626,659.6119,NA,NA,NA,NA,NA,NA,NA,TRUE,4,1.9212,656.2653,659.262,NA,NA,NA,NA,NA,7,32,0,37,37,4,1,2,38,"likert"
"C76FCB51E7934762B3B3ADF124E25A7A",1,"01990a98-493b-7445-ba9d-f89e421270d6","01990a84-c4ee-73c2-a87b-ff46a7d3dde5","2025-09-02_08h24.28.605",NA,NA,662.6116,662.6117,662.6119,662.9613,NA,NA,NA,NA,NA,NA,NA,TRUE,1,0.917,659.6149,662.6113,NA,NA,NA,NA,NA,180,35,0,38,38,98,1,2,39,"likert"
"C76FCB51E7934762B3B3ADF124E25A7A",1,"01990a98-493b-7445-ba9d-f89e421270d6","01990a84-c4ee-73c2-a87b-ff46a7d3dde5","2025-09-02_08h24.28.605",NA,NA,665.9614,665.9615,665.9615,666.3278,NA,NA,NA,NA,NA,NA,NA,TRUE,3,2.3942,662.9647,665.9611,NA,NA,NA,NA,NA,45,35,0,39,39,57,1,2,40,"likert"
"C76FCB51E7934762B3B3ADF124E25A7A",1,"01990a98-493b-7445-ba9d-f89e421270d6","01990a84-c4ee-73c2-a87b-ff46a7d3dde5","2025-09-02_08h24.28.605",NA,NA,669.3279,669.3285,669.3286,669.6778,NA,NA,NA,NA,NA,NA,NA,TRUE,1,0.9678,666.3303,669.3276,NA,NA,NA,NA,NA,150,35,0,40,40,92,1,2,41,"likert"
"C76FCB51E7934762B3B3ADF124E25A7A",1,"01990a98-493b-7445-ba9d-f89e421270d6","01990a84-c4ee-73c2-a87b-ff46a7d3dde5","2025-09-02_08h24.28.605",NA,NA,672.6776,672.6783,672.6784,673.0275,NA,NA,NA,NA,NA,NA,NA,TRUE,5,1.0547,669.6816,672.6774,NA,NA,NA,NA,NA,10,32,0,41,41,11,1,2,42,"likert"
"C76FCB51E7934762B3B3ADF124E25A7A",1,"01990a98-493b-7445-ba9d-f89e421270d6","01990a84-c4ee-73c2-a87b-ff46a7d3dde5","2025-09-02_08h24.28.605",NA,NA,676.0296,676.03,676.0301,676.3786,NA,NA,NA,NA,NA,NA,NA,TRUE,4,1.3261,673.0309,676.0294,NA,NA,NA,NA,NA,12,26,0,42,42,13,1,2,43,"likert"
"C76FCB51E7934762B3B3ADF124E25A7A",1,"01990a98-493b-7445-ba9d-f89e421270d6","01990a84-c4ee-73c2-a87b-ff46a7d3dde5","2025-09-02_08h24.28.605",NA,NA,679.378,679.3784,679.3784,679.7268,NA,NA,NA,NA,NA,NA,NA,TRUE,1,0.9219,676.3818,679.3777,NA,NA,NA,NA,NA,200,35,0,43,43,104,1,2,44,"likert"
"C76FCB51E7934762B3B3ADF124E25A7A",1,"01990a98-493b-7445-ba9d-f89e421270d6","01990a84-c4ee-73c2-a87b-ff46a7d3dde5","2025-09-02_08h24.28.605",NA,NA,682.7259,682.7262,682.7263,683.0757,NA,NA,NA,NA,NA,NA,NA,TRUE,1,0.7621,679.7303,682.7256,NA,NA,NA,NA,NA,180,31,0,44,44,97,1,2,45,"likert"
"C76FCB51E7934762B3B3ADF124E25A7A",1,"01990a98-493b-7445-ba9d-f89e421270d6","01990a84-c4ee-73c2-a87b-ff46a7d3dde5","2025-09-02_08h24.28.605",NA,NA,686.0773,686.0776,686.0777,686.4262,NA,NA,NA,NA,NA,NA,NA,TRUE,5,1.3993,683.0777,686.0766,NA,NA,NA,NA,NA,25,46,0,45,45,35,1,2,46,"likert"
"C76FCB51E7934762B3B3ADF124E25A7A",1,"01990a98-493b-7445-ba9d-f89e421270d6","01990a84-c4ee-73c2-a87b-ff46a7d3dde5","2025-09-02_08h24.28.605",NA,NA,689.4264,689.427,689.4271,689.776,NA,NA,NA,NA,NA,NA,NA,TRUE,5,1.155,686.4296,689.426,NA,NA,NA,NA,NA,7,26,0,46,46,1,1,2,47,"likert"
"C76FCB51E7934762B3B3ADF124E25A7A",1,"01990a98-493b-7445-ba9d-f89e421270d6","01990a84-c4ee-73c2-a87b-ff46a7d3dde5","2025-09-02_08h24.28.605",NA,NA,692.7749,692.7754,692.7755,693.1248,NA,NA,NA,NA,NA,NA,NA,TRUE,4,1.5173,689.7798,692.7748,NA,NA,NA,NA,NA,21,27,0,47,47,25,1,2,48,"likert"
"C76FCB51E7934762B3B3ADF124E25A7A",1,"01990a98-493b-7445-ba9d-f89e421270d6","01990a84-c4ee-73c2-a87b-ff46a7d3dde5","2025-09-02_08h24.28.605",NA,NA,696.1254,696.1259,696.1259,696.4749,NA,NA,NA,NA,NA,NA,NA,TRUE,1,1.9924,693.1269,696.1251,NA,NA,NA,NA,NA,95,54,0,48,48,83,1,2,49,"likert"
"C76FCB51E7934762B3B3ADF124E25A7A",1,"01990a98-493b-7445-ba9d-f89e421270d6","01990a84-c4ee-73c2-a87b-ff46a7d3dde5","2025-09-02_08h24.28.605",NA,NA,699.4755,699.4759,699.476,699.825,NA,NA,NA,NA,NA,NA,NA,TRUE,1,1.7102,696.4777,699.4751,NA,NA,NA,NA,NA,60,29,0,49,49,66,1,2,50,"likert"
"C76FCB51E7934762B3B3ADF124E25A7A",1,"01990a98-493b-7445-ba9d-f89e421270d6","01990a84-c4ee-73c2-a87b-ff46a7d3dde5","2025-09-02_08h24.28.605",NA,NA,702.826,702.8264,702.8265,703.1741,NA,NA,NA,NA,NA,NA,NA,TRUE,1,2.2272,699.8285,702.8253,NA,NA,NA,NA,NA,90,30,0,50,50,73,1,2,51,"likert"
"C76FCB51E7934762B3B3ADF124E25A7A",1,"01990a98-493b-7445-ba9d-f89e421270d6","01990a84-c4ee-73c2-a87b-ff46a7d3dde5","2025-09-02_08h24.28.605",NA,NA,706.1759,706.1763,706.1764,706.5249,NA,NA,NA,NA,NA,NA,NA,TRUE,1,0.7437,703.1762,706.1752,NA,NA,NA,NA,NA,90,54,0,51,51,77,1,2,52,"likert"
"C76FCB51E7934762B3B3ADF124E25A7A",1,"01990a98-493b-7445-ba9d-f89e421270d6","01990a84-c4ee-73c2-a87b-ff46a7d3dde5","2025-09-02_08h24.28.605",NA,NA,709.529,709.5293,709.5294,709.8744,NA,NA,NA,NA,NA,NA,NA,TRUE,1,1.2624,706.5287,709.5288,NA,NA,NA,NA,NA,45,31,0,52,52,56,1,2,53,"likert"
"C76FCB51E7934762B3B3ADF124E25A7A",1,"01990a98-493b-7445-ba9d-f89e421270d6","01990a84-c4ee-73c2-a87b-ff46a7d3dde5","2025-09-02_08h24.28.605",NA,NA,712.874,712.8742,712.8742,713.2243,NA,NA,NA,NA,NA,NA,NA,TRUE,1,2.2279,709.8781,712.8738,NA,NA,NA,NA,NA,25,27,0,53,53,30,1,2,54,"likert"
"C76FCB51E7934762B3B3ADF124E25A7A",1,"01990a98-493b-7445-ba9d-f89e421270d6","01990a84-c4ee-73c2-a87b-ff46a7d3dde5","2025-09-02_08h24.28.605",NA,NA,716.2245,716.2253,716.2253,716.5742,NA,NA,NA,NA,NA,NA,NA,TRUE,5,1.6848,713.2278,716.2241,NA,NA,NA,NA,NA,10,26,0,54,54,7,1,2,55,"likert"
"C76FCB51E7934762B3B3ADF124E25A7A",1,"01990a98-493b-7445-ba9d-f89e421270d6","01990a84-c4ee-73c2-a87b-ff46a7d3dde5","2025-09-02_08h24.28.605",NA,NA,719.5747,719.5749,719.575,719.9236,NA,NA,NA,NA,NA,NA,NA,TRUE,1,0.9918,716.5778,719.5741,NA,NA,NA,NA,NA,95,33,0,55,55,79,1,2,56,"likert"
"C76FCB51E7934762B3B3ADF124E25A7A",1,"01990a98-493b-7445-ba9d-f89e421270d6","01990a84-c4ee-73c2-a87b-ff46a7d3dde5","2025-09-02_08h24.28.605",NA,NA,722.923,722.923,722.9232,723.2731,NA,NA,NA,NA,NA,NA,NA,TRUE,1,2.2175,719.9269,722.9226,NA,NA,NA,NA,NA,40,27,0,56,56,48,1,2,57,"likert"
"C76FCB51E7934762B3B3ADF124E25A7A",1,"01990a98-493b-7445-ba9d-f89e421270d6","01990a84-c4ee-73c2-a87b-ff46a7d3dde5","2025-09-02_08h24.28.605",NA,NA,726.2736,726.2739,726.274,726.6231,NA,NA,NA,NA,NA,NA,NA,TRUE,1,1.0204,723.2758,726.273,NA,NA,NA,NA,NA,180,27,0,57,57,96,1,2,58,"likert"
"C76FCB51E7934762B3B3ADF124E25A7A",1,"01990a98-493b-7445-ba9d-f89e421270d6","01990a84-c4ee-73c2-a87b-ff46a7d3dde5","2025-09-02_08h24.28.605",NA,NA,729.6241,729.6245,729.6245,729.973,NA,NA,NA,NA,NA,NA,NA,TRUE,5,1.3081,726.6253,729.6233,NA,NA,NA,NA,NA,12,33,0,58,58,16,1,2,59,"likert"
"C76FCB51E7934762B3B3ADF124E25A7A",1,"01990a98-493b-7445-ba9d-f89e421270d6","01990a84-c4ee-73c2-a87b-ff46a7d3dde5","2025-09-02_08h24.28.605",NA,NA,732.9723,732.9725,732.9725,733.3226,NA,NA,NA,NA,NA,NA,NA,TRUE,1,0.9505,729.977,732.972,NA,NA,NA,NA,NA,150,31,0,59,59,90,1,2,60,"likert"
"C76FCB51E7934762B3B3ADF124E25A7A",1,"01990a98-493b-7445-ba9d-f89e421270d6","01990a84-c4ee-73c2-a87b-ff46a7d3dde5","2025-09-02_08h24.28.605",NA,NA,736.323,736.3231,736.3233,736.6724,NA,NA,NA,NA,NA,NA,NA,TRUE,5,1.6382,733.326,736.3228,NA,NA,NA,NA,NA,21,32,0,60,60,28,1,2,61,"likert"
"C76FCB51E7934762B3B3ADF124E25A7A",1,"01990a98-493b-7445-ba9d-f89e421270d6","01990a84-c4ee-73c2-a87b-ff46a7d3dde5","2025-09-02_08h24.28.605",NA,NA,739.6732,739.6732,739.6733,740.0225,NA,NA,NA,NA,NA,NA,NA,TRUE,3,2.5222,736.6755,739.6725,NA,NA,NA,NA,NA,60,54,0,61,61,71,1,2,62,"likert"
"C76FCB51E7934762B3B3ADF124E25A7A",1,"01990a98-493b-7445-ba9d-f89e421270d6","01990a84-c4ee-73c2-a87b-ff46a7d3dde5","2025-09-02_08h24.28.605",NA,NA,743.022,743.0223,743.0227,743.3716,NA,NA,NA,NA,NA,NA,NA,TRUE,4,1.752,740.0263,743.0218,NA,NA,NA,NA,NA,14,35,0,62,62,22,1,2,63,"likert"
"C76FCB51E7934762B3B3ADF124E25A7A",1,"01990a98-493b-7445-ba9d-f89e421270d6","01990a84-c4ee-73c2-a87b-ff46a7d3dde5","2025-09-02_08h24.28.605",NA,NA,746.3729,746.373,746.373,746.7218,NA,NA,NA,NA,NA,NA,NA,TRUE,4,1.5594,743.3744,746.372,NA,NA,NA,NA,NA,21,29,0,63,63,26,1,2,64,"likert"
"C76FCB51E7934762B3B3ADF124E25A7A",1,"01990a98-493b-7445-ba9d-f89e421270d6","01990a84-c4ee-73c2-a87b-ff46a7d3dde5","2025-09-02_08h24.28.605",NA,NA,749.7224,749.7225,749.7227,750.0706,NA,NA,NA,NA,NA,NA,NA,TRUE,1,1.2717,746.7255,749.7217,NA,NA,NA,NA,NA,30,29,0,64,64,44,1,2,65,"likert"
"C76FCB51E7934762B3B3ADF124E25A7A",1,"01990a98-493b-7445-ba9d-f89e421270d6","01990a84-c4ee-73c2-a87b-ff46a7d3dde5","2025-09-02_08h24.28.605",NA,NA,753.0711,753.0714,753.0715,753.4209,NA,NA,NA,NA,NA,NA,NA,TRUE,1,1.1518,750.0726,753.0708,NA,NA,NA,NA,NA,40,33,0,65,65,49,1,2,66,"likert"
"C76FCB51E7934762B3B3ADF124E25A7A",1,"01990a98-493b-7445-ba9d-f89e421270d6","01990a84-c4ee-73c2-a87b-ff46a7d3dde5","2025-09-02_08h24.28.605",NA,NA,756.4221,756.4222,756.4223,756.7711,NA,NA,NA,NA,NA,NA,NA,TRUE,1,0.7946,753.4233,756.4218,NA,NA,NA,NA,NA,150,33,0,66,66,91,1,2,67,"likert"
"C76FCB51E7934762B3B3ADF124E25A7A",1,"01990a98-493b-7445-ba9d-f89e421270d6","01990a84-c4ee-73c2-a87b-ff46a7d3dde5","2025-09-02_08h24.28.605",NA,NA,759.772,759.7722,759.7723,760.1206,NA,NA,NA,NA,NA,NA,NA,TRUE,1,0.561,756.7749,759.7719,NA,NA,NA,NA,NA,180,46,0,67,67,100,1,2,68,"likert"
"C76FCB51E7934762B3B3ADF124E25A7A",1,"01990a98-493b-7445-ba9d-f89e421270d6","01990a84-c4ee-73c2-a87b-ff46a7d3dde5","2025-09-02_08h24.28.605",NA,NA,763.1205,763.1209,763.121,763.4703,NA,NA,NA,NA,NA,NA,NA,TRUE,5,1.0177,760.1236,763.1202,NA,NA,NA,NA,NA,7,35,0,68,68,5,1,2,69,"likert"
"C76FCB51E7934762B3B3ADF124E25A7A",1,"01990a98-493b-7445-ba9d-f89e421270d6","01990a84-c4ee-73c2-a87b-ff46a7d3dde5","2025-09-02_08h24.28.605",NA,NA,766.4711,766.4713,766.4716,766.8197,NA,NA,NA,NA,NA,NA,NA,TRUE,5,1.0085,763.4732,766.4705,NA,NA,NA,NA,NA,7,25,0,69,69,0,1,2,70,"likert"
"C76FCB51E7934762B3B3ADF124E25A7A",1,"01990a98-493b-7445-ba9d-f89e421270d6","01990a84-c4ee-73c2-a87b-ff46a7d3dde5","2025-09-02_08h24.28.605",NA,NA,769.8198,769.8199,769.82,770.1701,NA,NA,NA,NA,NA,NA,NA,TRUE,4,1.3603,766.8227,769.8197,NA,NA,NA,NA,NA,14,25,0,70,70,18,1,2,71,"likert"
"C76FCB51E7934762B3B3ADF124E25A7A",1,"01990a98-493b-7445-ba9d-f89e421270d6","01990a84-c4ee-73c2-a87b-ff46a7d3dde5","2025-09-02_08h24.28.605",NA,NA,773.17,773.1702,773.1703,773.5192,NA,NA,NA,NA,NA,NA,NA,TRUE,1,0.9216,770.1736,773.1696,NA,NA,NA,NA,NA,100,38,0,71,71,86,1,2,72,"likert"
"C76FCB51E7934762B3B3ADF124E25A7A",1,"01990a98-493b-7445-ba9d-f89e421270d6","01990a84-c4ee-73c2-a87b-ff46a7d3dde5","2025-09-02_08h24.28.605",NA,NA,776.5243,776.5245,776.5247,776.8697,NA,NA,NA,NA,NA,NA,NA,TRUE,3,1.4492,773.522,776.5241,NA,NA,NA,NA,NA,30,26,0,72,72,42,1,2,73,"likert"
"C76FCB51E7934762B3B3ADF124E25A7A",1,"01990a98-493b-7445-ba9d-f89e421270d6","01990a84-c4ee-73c2-a87b-ff46a7d3dde5","2025-09-02_08h24.28.605",NA,NA,779.8692,779.8696,779.8697,780.2188,NA,NA,NA,NA,NA,NA,NA,TRUE,3,2.0952,776.8731,779.869,NA,NA,NA,NA,NA,25,33,0,73,73,33,1,2,74,"likert"
"C76FCB51E7934762B3B3ADF124E25A7A",1,"01990a98-493b-7445-ba9d-f89e421270d6","01990a84-c4ee-73c2-a87b-ff46a7d3dde5","2025-09-02_08h24.28.605",NA,NA,783.2193,783.2194,783.2194,783.5692,NA,NA,NA,NA,NA,NA,NA,TRUE,1,1.0888,780.2213,783.2191,NA,NA,NA,NA,NA,180,54,0,74,74,101,1,2,75,"likert"
"C76FCB51E7934762B3B3ADF124E25A7A",1,"01990a98-493b-7445-ba9d-f89e421270d6","01990a84-c4ee-73c2-a87b-ff46a7d3dde5","2025-09-02_08h24.28.605",NA,NA,786.5693,786.5693,786.5694,786.9188,NA,NA,NA,NA,NA,NA,NA,TRUE,1,1.7225,783.5721,786.5691,NA,NA,NA,NA,NA,45,29,0,75,75,55,1,2,76,"likert"
"C76FCB51E7934762B3B3ADF124E25A7A",1,"01990a98-493b-7445-ba9d-f89e421270d6","01990a84-c4ee-73c2-a87b-ff46a7d3dde5","2025-09-02_08h24.28.605",NA,NA,789.919,789.9191,789.9191,790.2686,NA,NA,NA,NA,NA,NA,NA,TRUE,5,1.5009,786.9214,789.9188,NA,NA,NA,NA,NA,7,30,0,76,76,3,1,2,77,"likert"
"C76FCB51E7934762B3B3ADF124E25A7A",1,"01990a98-493b-7445-ba9d-f89e421270d6","01990a84-c4ee-73c2-a87b-ff46a7d3dde5","2025-09-02_08h24.28.605",NA,NA,793.2692,793.2694,793.2694,793.6184,NA,NA,NA,NA,NA,NA,NA,TRUE,5,1.0696,790.2713,793.2686,NA,NA,NA,NA,NA,10,30,0,77,77,10,1,2,78,"likert"
"C76FCB51E7934762B3B3ADF124E25A7A",1,"01990a98-493b-7445-ba9d-f89e421270d6","01990a84-c4ee-73c2-a87b-ff46a7d3dde5","2025-09-02_08h24.28.605",NA,NA,796.6186,796.6187,796.6187,796.9674,NA,NA,NA,NA,NA,NA,NA,TRUE,1,0.9883,793.6212,796.6183,NA,NA,NA,NA,NA,100,31,0,78,78,85,1,2,79,"likert"
"C76FCB51E7934762B3B3ADF124E25A7A",1,"01990a98-493b-7445-ba9d-f89e421270d6","01990a84-c4ee-73c2-a87b-ff46a7d3dde5","2025-09-02_08h24.28.605",NA,NA,799.9683,799.9687,799.9687,800.3178,NA,NA,NA,NA,NA,NA,NA,TRUE,1,1.4376,796.9695,799.9681,NA,NA,NA,NA,NA,60,33,0,79,79,67,1,2,80,"likert"
"C76FCB51E7934762B3B3ADF124E25A7A",1,"01990a98-493b-7445-ba9d-f89e421270d6","01990a84-c4ee-73c2-a87b-ff46a7d3dde5","2025-09-02_08h24.28.605",NA,NA,803.3183,803.3183,803.3184,803.6676,NA,NA,NA,NA,NA,NA,NA,TRUE,3,1.6111,800.3208,803.318,NA,NA,NA,NA,NA,30,38,0,80,80,47,1,2,81,"likert"
"C76FCB51E7934762B3B3ADF124E25A7A",1,"01990a98-493b-7445-ba9d-f89e421270d6","01990a84-c4ee-73c2-a87b-ff46a7d3dde5","2025-09-02_08h24.28.605",NA,NA,806.6675,806.6675,806.6677,807.0165,NA,NA,NA,NA,NA,NA,NA,TRUE,1,1.3639,803.6716,806.6672,NA,NA,NA,NA,NA,200,26,0,81,81,102,1,2,82,"likert"
"C76FCB51E7934762B3B3ADF124E25A7A",1,"01990a98-493b-7445-ba9d-f89e421270d6","01990a84-c4ee-73c2-a87b-ff46a7d3dde5","2025-09-02_08h24.28.605",NA,NA,810.0166,810.0167,810.0168,810.3667,NA,NA,NA,NA,NA,NA,NA,TRUE,1,0.7034,807.0186,810.0162,NA,NA,NA,NA,NA,90,26,0,82,82,72,1,2,83,"likert"
"C76FCB51E7934762B3B3ADF124E25A7A",1,"01990a98-493b-7445-ba9d-f89e421270d6","01990a84-c4ee-73c2-a87b-ff46a7d3dde5","2025-09-02_08h24.28.605",NA,NA,813.367,813.3672,813.3672,813.717,NA,NA,NA,NA,NA,NA,NA,TRUE,1,2.4062,810.3692,813.3668,NA,NA,NA,NA,NA,50,27,0,83,83,60,1,2,84,"likert"
"C76FCB51E7934762B3B3ADF124E25A7A",1,"01990a98-493b-7445-ba9d-f89e421270d6","01990a84-c4ee-73c2-a87b-ff46a7d3dde5","2025-09-02_08h24.28.605",NA,NA,816.7176,816.7178,816.7179,817.0659,NA,NA,NA,NA,NA,NA,NA,TRUE,1,0.9356,813.721,816.7174,NA,NA,NA,NA,NA,200,54,0,84,84,107,1,2,85,"likert"
"C76FCB51E7934762B3B3ADF124E25A7A",1,"01990a98-493b-7445-ba9d-f89e421270d6","01990a84-c4ee-73c2-a87b-ff46a7d3dde5","2025-09-02_08h24.28.605",NA,NA,820.0673,820.0674,820.0675,820.4166,NA,NA,NA,NA,NA,NA,NA,TRUE,1,1.8222,817.0683,820.0667,NA,NA,NA,NA,NA,28,28,0,85,85,37,1,2,86,"likert"
"C76FCB51E7934762B3B3ADF124E25A7A",1,"01990a98-493b-7445-ba9d-f89e421270d6","01990a84-c4ee-73c2-a87b-ff46a7d3dde5","2025-09-02_08h24.28.605",NA,NA,823.4169,823.417,823.4171,823.7658,NA,NA,NA,NA,NA,NA,NA,TRUE,1,1.1705,820.4207,823.4162,NA,NA,NA,NA,NA,95,47,0,86,86,82,1,2,87,"likert"
"C76FCB51E7934762B3B3ADF124E25A7A",1,"01990a98-493b-7445-ba9d-f89e421270d6","01990a84-c4ee-73c2-a87b-ff46a7d3dde5","2025-09-02_08h24.28.605",NA,NA,826.766,826.7661,826.7662,827.1154,NA,NA,NA,NA,NA,NA,NA,TRUE,5,1.8084,823.7691,826.7657,NA,NA,NA,NA,NA,14,28,0,87,87,20,1,2,88,"likert"
"C76FCB51E7934762B3B3ADF124E25A7A",1,"01990a98-493b-7445-ba9d-f89e421270d6","01990a84-c4ee-73c2-a87b-ff46a7d3dde5","2025-09-02_08h24.28.605",NA,NA,830.116,830.1164,830.1165,830.4657,NA,NA,NA,NA,NA,NA,NA,TRUE,1,1.7702,827.1188,830.1158,NA,NA,NA,NA,NA,28,46,0,88,88,41,1,2,89,"likert"
"C76FCB51E7934762B3B3ADF124E25A7A",1,"01990a98-493b-7445-ba9d-f89e421270d6","01990a84-c4ee-73c2-a87b-ff46a7d3dde5","2025-09-02_08h24.28.605",NA,NA,833.4658,833.4661,833.4661,833.8152,NA,NA,NA,NA,NA,NA,NA,TRUE,5,1.5468,830.4688,833.4656,NA,NA,NA,NA,NA,12,31,0,89,89,15,1,2,90,"likert"
"C76FCB51E7934762B3B3ADF124E25A7A",1,"01990a98-493b-7445-ba9d-f89e421270d6","01990a84-c4ee-73c2-a87b-ff46a7d3dde5","2025-09-02_08h24.28.605",NA,NA,836.8145,836.8145,836.8146,837.1642,NA,NA,NA,NA,NA,NA,NA,TRUE,5,1.4043,833.8181,836.8141,NA,NA,NA,NA,NA,12,25,0,90,90,12,1,2,91,"likert"
"C76FCB51E7934762B3B3ADF124E25A7A",1,"01990a98-493b-7445-ba9d-f89e421270d6","01990a84-c4ee-73c2-a87b-ff46a7d3dde5","2025-09-02_08h24.28.605",NA,NA,840.166,840.1661,840.1663,840.5147,NA,NA,NA,NA,NA,NA,NA,TRUE,1,1.028,837.1662,840.1658,NA,NA,NA,NA,NA,100,26,0,91,91,84,1,2,92,"likert"
"C76FCB51E7934762B3B3ADF124E25A7A",1,"01990a98-493b-7445-ba9d-f89e421270d6","01990a84-c4ee-73c2-a87b-ff46a7d3dde5","2025-09-02_08h24.28.605",NA,NA,843.5136,843.5136,843.5137,843.8634,NA,NA,NA,NA,NA,NA,NA,TRUE,3,1.538,840.519,843.5135,NA,NA,NA,NA,NA,21,38,0,92,92,29,1,2,93,"likert"
"C76FCB51E7934762B3B3ADF124E25A7A",1,"01990a98-493b-7445-ba9d-f89e421270d6","01990a84-c4ee-73c2-a87b-ff46a7d3dde5","2025-09-02_08h24.28.605",NA,NA,846.8634,846.8634,846.8634,847.2134,NA,NA,NA,NA,NA,NA,NA,TRUE,1,1.1807,843.8648,846.8633,NA,NA,NA,NA,NA,180,39,0,93,93,99,1,2,94,"likert"
"C76FCB51E7934762B3B3ADF124E25A7A",1,"01990a98-493b-7445-ba9d-f89e421270d6","01990a84-c4ee-73c2-a87b-ff46a7d3dde5","2025-09-02_08h24.28.605",NA,NA,850.2138,850.2138,850.2138,850.5635,NA,NA,NA,NA,NA,NA,NA,TRUE,1,1.0144,847.2147,850.2136,NA,NA,NA,NA,NA,100,46,0,94,94,88,1,2,95,"likert"
"C76FCB51E7934762B3B3ADF124E25A7A",1,"01990a98-493b-7445-ba9d-f89e421270d6","01990a84-c4ee-73c2-a87b-ff46a7d3dde5","2025-09-02_08h24.28.605",NA,NA,853.5636,853.5637,853.5638,853.9132,NA,NA,NA,NA,NA,NA,NA,TRUE,3,1.3946,850.5663,853.5634,NA,NA,NA,NA,NA,25,35,0,95,95,34,1,2,96,"likert"
"C76FCB51E7934762B3B3ADF124E25A7A",1,"01990a98-493b-7445-ba9d-f89e421270d6","01990a84-c4ee-73c2-a87b-ff46a7d3dde5","2025-09-02_08h24.28.605",NA,NA,856.9134,856.9134,856.9134,857.263,NA,NA,NA,NA,NA,NA,NA,TRUE,1,1.5219,853.9153,856.9131,NA,NA,NA,NA,NA,90,33,0,96,96,74,1,2,97,"likert"
"C76FCB51E7934762B3B3ADF124E25A7A",1,"01990a98-493b-7445-ba9d-f89e421270d6","01990a84-c4ee-73c2-a87b-ff46a7d3dde5","2025-09-02_08h24.28.605",NA,NA,860.2637,860.2638,860.2639,860.6127,NA,NA,NA,NA,NA,NA,NA,TRUE,3,2.0283,857.2652,860.2634,NA,NA,NA,NA,NA,25,29,0,97,97,31,1,2,98,"likert"
"C76FCB51E7934762B3B3ADF124E25A7A",1,"01990a98-493b-7445-ba9d-f89e421270d6","01990a84-c4ee-73c2-a87b-ff46a7d3dde5","2025-09-02_08h24.28.605",NA,NA,863.613,863.6131,863.6132,863.9628,NA,NA,NA,NA,NA,NA,NA,TRUE,1,1.5968,860.6148,863.6128,NA,NA,NA,NA,NA,50,35,0,98,98,62,1,2,99,"likert"
"C76FCB51E7934762B3B3ADF124E25A7A",1,"01990a98-493b-7445-ba9d-f89e421270d6","01990a84-c4ee-73c2-a87b-ff46a7d3dde5","2025-09-02_08h24.28.605",NA,NA,866.9624,866.9625,866.9625,867.3123,NA,NA,NA,NA,NA,NA,NA,TRUE,1,1.6101,863.965,866.9622,NA,NA,NA,NA,NA,28,26,0,99,99,36,1,2,100,"likert"
"C76FCB51E7934762B3B3ADF124E25A7A",1,"01990a98-493b-7445-ba9d-f89e421270d6","01990a84-c4ee-73c2-a87b-ff46a7d3dde5","2025-09-02_08h24.28.605",NA,NA,870.3124,870.3126,870.3126,870.6621,NA,NA,NA,NA,NA,NA,NA,TRUE,1,1.4134,867.3143,870.3123,NA,NA,NA,NA,NA,60,47,0,100,100,70,1,2,101,"likert"
"C76FCB51E7934762B3B3ADF124E25A7A",1,"01990a98-493b-7445-ba9d-f89e421270d6","01990a84-c4ee-73c2-a87b-ff46a7d3dde5","2025-09-02_08h24.28.605",NA,NA,873.6617,873.6617,873.6618,874.0111,NA,NA,NA,NA,NA,NA,NA,TRUE,3,1.2437,870.6644,873.6615,NA,NA,NA,NA,NA,28,32,0,101,101,38,1,2,102,"likert"
"C76FCB51E7934762B3B3ADF124E25A7A",1,"01990a98-493b-7445-ba9d-f89e421270d6","01990a84-c4ee-73c2-a87b-ff46a7d3dde5","2025-09-02_08h24.28.605",NA,NA,877.0119,877.0119,877.0119,877.3608,NA,NA,NA,NA,NA,NA,NA,TRUE,3,1.6005,874.0127,877.0118,NA,NA,NA,NA,NA,28,35,0,102,102,39,1,2,103,"likert"
"C76FCB51E7934762B3B3ADF124E25A7A",1,"01990a98-493b-7445-ba9d-f89e421270d6","01990a84-c4ee-73c2-a87b-ff46a7d3dde5","2025-09-02_08h24.28.605",NA,NA,880.3615,880.3617,880.3617,880.7113,NA,NA,NA,NA,NA,NA,NA,TRUE,4,1.6657,877.3621,880.3614,NA,NA,NA,NA,NA,14,26,0,103,103,19,1,2,104,"likert"
"C76FCB51E7934762B3B3ADF124E25A7A",1,"01990a98-493b-7445-ba9d-f89e421270d6","01990a84-c4ee-73c2-a87b-ff46a7d3dde5","2025-09-02_08h24.28.605",NA,NA,883.7273,883.7274,883.7274,884.0771,NA,NA,NA,NA,NA,NA,NA,TRUE,4,1.6113,880.7136,883.7272,NA,NA,NA,NA,NA,21,30,0,104,104,27,1,2,105,"likert"
"C76FCB51E7934762B3B3ADF124E25A7A",1,"01990a98-493b-7445-ba9d-f89e421270d6","01990a84-c4ee-73c2-a87b-ff46a7d3dde5","2025-09-02_08h24.28.605",NA,NA,887.0777,887.0779,887.078,887.4273,NA,NA,NA,NA,NA,NA,NA,TRUE,5,1.4296,884.0784,887.0776,NA,NA,NA,NA,NA,50,54,0,105,105,65,1,2,106,"likert"
"C76FCB51E7934762B3B3ADF124E25A7A",1,"01990a98-493b-7445-ba9d-f89e421270d6","01990a84-c4ee-73c2-a87b-ff46a7d3dde5","2025-09-02_08h24.28.605",NA,NA,890.4274,890.428,890.4281,890.7774,NA,NA,NA,NA,NA,NA,NA,TRUE,5,1.8067,887.4303,890.4273,NA,NA,NA,NA,NA,40,40,0,106,106,51,1,2,107,"likert"
"C76FCB51E7934762B3B3ADF124E25A7A",1,"01990a98-493b-7445-ba9d-f89e421270d6","01990a84-c4ee-73c2-a87b-ff46a7d3dde5","2025-09-02_08h24.28.605",NA,NA,893.7774,893.7777,893.7778,894.127,NA,NA,NA,NA,NA,NA,NA,TRUE,1,1.4712,890.7809,893.7772,NA,NA,NA,NA,NA,50,40,0,107,107,63,1,2,108,"likert"
