"participant","session","assignmentId","projectId","date","practiceTrial.started","practiceTrial.stopped","tooLate.started","tooLate.stopped","blank.started","blank.stopped","trials_pract.thisRepN","trials_pract.thisTrialN","trials_pract.thisN","trials_pract.thisIndex","trials_pract.ran","delay_pract","amount_pract","responseMade","key","rt","trial.started","trial.stopped","trials.thisRepN","trials.thisTrialN","trials.thisN","trials.thisIndex","trials.ran","delay","amount","trials_2.thisRepN","trials_2.thisTrialN","trials_2.thisN","trials_2.thisIndex","trials_2.ran","block","trial","taskType"
"CA38010E742E404DB30BC161531E10FF",1,"0198f77d-25e2-7392-939b-a2efe3470d7d","0198f768-e4d2-711c-944b-6f03c09216de","2025-08-29_16h21.19.137",45.109,48.064,48.065,48.314,48.314,48.413,0,0,0,4,1,30,40,FALSE,NA,NA,NA,NA,NA,NA,NA,NA,NA,NA,NA,NA,NA,NA,NA,NA,0,1,"likert"
"CA38010E742E404DB30BC161531E10FF",1,"0198f77d-25e2-7392-939b-a2efe3470d7d","0198f768-e4d2-711c-944b-6f03c09216de","2025-08-29_16h21.19.137",48.419,51.425,51.425,51.425,51.425,51.763,0,1,1,0,1,7,30,TRUE,1,1.028,NA,NA,NA,NA,NA,NA,NA,NA,NA,NA,NA,NA,NA,NA,0,2,"likert"
"CA38010E742E404DB30BC161531E10FF",1,"0198f77d-25e2-7392-939b-a2efe3470d7d","0198f768-e4d2-711c-944b-6f03c09216de","2025-08-29_16h21.19.137",51.768,54.762,54.762,54.763,54.763,55.113,0,2,2,1,1,100,50,TRUE,1,1.253,NA,NA,NA,NA,NA,NA,NA,NA,NA,NA,NA,NA,NA,NA,0,3,"likert"
"CA38010E742E404DB30BC161531E10FF",1,"0198f77d-25e2-7392-939b-a2efe3470d7d","0198f768-e4d2-711c-944b-6f03c09216de","2025-08-29_16h21.19.137",55.117,58.113,58.113,58.114,58.114,58.466,0,3,3,2,1,14,45,TRUE,3,1.553,NA,NA,NA,NA,NA,NA,NA,NA,NA,NA,NA,NA,NA,NA,0,4,"likert"
"CA38010E742E404DB30BC161531E10FF",1,"0198f77d-25e2-7392-939b-a2efe3470d7d","0198f768-e4d2-711c-944b-6f03c09216de","2025-08-29_16h21.19.137",58.468,61.478,61.479,61.481,61.481,61.828,0,4,4,3,1,3,27,TRUE,4,1.774,NA,NA,NA,NA,NA,NA,NA,NA,NA,NA,NA,NA,NA,NA,0,5,"likert"
"CA38010E742E404DB30BC161531E10FF",1,"0198f77d-25e2-7392-939b-a2efe3470d7d","0198f768-e4d2-711c-944b-6f03c09216de","2025-08-29_16h21.19.137",NA,NA,101.708,101.708,101.708,102.056,NA,NA,NA,NA,NA,NA,NA,TRUE,3,2.067,98.759,101.707,0,0,0,11,1,10,32,NA,NA,NA,NA,NA,1,1,"likert"
"CA38010E742E404DB30BC161531E10FF",1,"0198f77d-25e2-7392-939b-a2efe3470d7d","0198f768-e4d2-711c-944b-6f03c09216de","2025-08-29_16h21.19.137",NA,NA,105.053,105.053,105.053,105.405,NA,NA,NA,NA,NA,NA,NA,TRUE,1,1.568,102.061,105.052,0,1,1,26,1,21,29,NA,NA,NA,NA,NA,1,2,"likert"
"CA38010E742E404DB30BC161531E10FF",1,"0198f77d-25e2-7392-939b-a2efe3470d7d","0198f768-e4d2-711c-944b-6f03c09216de","2025-08-29_16h21.19.137",NA,NA,108.407,108.407,108.407,108.755,NA,NA,NA,NA,NA,NA,NA,TRUE,1,1.321,105.41,108.407,0,2,2,27,1,21,30,NA,NA,NA,NA,NA,1,3,"likert"
"CA38010E742E404DB30BC161531E10FF",1,"0198f77d-25e2-7392-939b-a2efe3470d7d","0198f768-e4d2-711c-944b-6f03c09216de","2025-08-29_16h21.19.137",NA,NA,111.746,111.746,111.746,112.105,NA,NA,NA,NA,NA,NA,NA,TRUE,1,1.284,108.759,111.745,0,3,3,76,1,90,46,NA,NA,NA,NA,NA,1,4,"likert"
"CA38010E742E404DB30BC161531E10FF",1,"0198f77d-25e2-7392-939b-a2efe3470d7d","0198f768-e4d2-711c-944b-6f03c09216de","2025-08-29_16h21.19.137",NA,NA,115.105,115.105,115.105,115.454,NA,NA,NA,NA,NA,NA,NA,TRUE,1,1.743,112.111,115.104,0,4,4,96,1,180,27,NA,NA,NA,NA,NA,1,5,"likert"
"CA38010E742E404DB30BC161531E10FF",1,"0198f77d-25e2-7392-939b-a2efe3470d7d","0198f768-e4d2-711c-944b-6f03c09216de","2025-08-29_16h21.19.137",NA,NA,118.454,118.454,118.454,118.803,NA,NA,NA,NA,NA,NA,NA,TRUE,3,1.491,115.456,118.453,0,5,5,0,1,7,25,NA,NA,NA,NA,NA,1,6,"likert"
"CA38010E742E404DB30BC161531E10FF",1,"0198f77d-25e2-7392-939b-a2efe3470d7d","0198f768-e4d2-711c-944b-6f03c09216de","2025-08-29_16h21.19.137",NA,NA,121.803,121.803,121.803,122.153,NA,NA,NA,NA,NA,NA,NA,TRUE,1,1.798,118.806,121.803,0,6,6,12,1,12,25,NA,NA,NA,NA,NA,1,7,"likert"
"CA38010E742E404DB30BC161531E10FF",1,"0198f77d-25e2-7392-939b-a2efe3470d7d","0198f768-e4d2-711c-944b-6f03c09216de","2025-08-29_16h21.19.137",NA,NA,125.164,125.165,125.165,125.507,NA,NA,NA,NA,NA,NA,NA,TRUE,1,1.975,122.155,125.164,0,7,7,62,1,50,35,NA,NA,NA,NA,NA,1,8,"likert"
"CA38010E742E404DB30BC161531E10FF",1,"0198f77d-25e2-7392-939b-a2efe3470d7d","0198f768-e4d2-711c-944b-6f03c09216de","2025-08-29_16h21.19.137",NA,NA,128.488,128.488,128.488,128.859,NA,NA,NA,NA,NA,NA,NA,TRUE,1,1.715,125.522,128.487,0,8,8,24,1,21,26,NA,NA,NA,NA,NA,1,9,"likert"
"CA38010E742E404DB30BC161531E10FF",1,"0198f77d-25e2-7392-939b-a2efe3470d7d","0198f768-e4d2-711c-944b-6f03c09216de","2025-08-29_16h21.19.137",NA,NA,131.853,131.853,131.853,132.204,NA,NA,NA,NA,NA,NA,NA,TRUE,2,1.462,128.863,131.852,0,9,9,43,1,30,27,NA,NA,NA,NA,NA,1,10,"likert"
"CA38010E742E404DB30BC161531E10FF",1,"0198f77d-25e2-7392-939b-a2efe3470d7d","0198f768-e4d2-711c-944b-6f03c09216de","2025-08-29_16h21.19.137",NA,NA,135.203,135.203,135.203,135.551,NA,NA,NA,NA,NA,NA,NA,TRUE,1,1.622,132.206,135.202,0,10,10,95,1,150,54,NA,NA,NA,NA,NA,1,11,"likert"
"CA38010E742E404DB30BC161531E10FF",1,"0198f77d-25e2-7392-939b-a2efe3470d7d","0198f768-e4d2-711c-944b-6f03c09216de","2025-08-29_16h21.19.137",NA,NA,138.552,138.553,138.553,138.9,NA,NA,NA,NA,NA,NA,NA,TRUE,2,1.964,135.56,138.551,0,11,11,36,1,28,26,NA,NA,NA,NA,NA,1,12,"likert"
"CA38010E742E404DB30BC161531E10FF",1,"0198f77d-25e2-7392-939b-a2efe3470d7d","0198f768-e4d2-711c-944b-6f03c09216de","2025-08-29_16h21.19.137",NA,NA,141.901,141.901,141.901,142.251,NA,NA,NA,NA,NA,NA,NA,TRUE,1,1.853,138.902,141.901,0,12,12,74,1,90,33,NA,NA,NA,NA,NA,1,13,"likert"
"CA38010E742E404DB30BC161531E10FF",1,"0198f77d-25e2-7392-939b-a2efe3470d7d","0198f768-e4d2-711c-944b-6f03c09216de","2025-08-29_16h21.19.137",NA,NA,145.255,145.255,145.255,145.603,NA,NA,NA,NA,NA,NA,NA,TRUE,1,2.524,142.253,145.254,0,13,13,103,1,200,28,NA,NA,NA,NA,NA,1,14,"likert"
"CA38010E742E404DB30BC161531E10FF",1,"0198f77d-25e2-7392-939b-a2efe3470d7d","0198f768-e4d2-711c-944b-6f03c09216de","2025-08-29_16h21.19.137",NA,NA,148.601,148.601,148.601,148.95,NA,NA,NA,NA,NA,NA,NA,TRUE,2,1.668,145.605,148.601,0,14,14,41,1,28,46,NA,NA,NA,NA,NA,1,15,"likert"
"CA38010E742E404DB30BC161531E10FF",1,"0198f77d-25e2-7392-939b-a2efe3470d7d","0198f768-e4d2-711c-944b-6f03c09216de","2025-08-29_16h21.19.137",NA,NA,151.951,151.951,151.951,152.3,NA,NA,NA,NA,NA,NA,NA,TRUE,4,1.886,148.954,151.95,0,15,15,23,1,14,39,NA,NA,NA,NA,NA,1,16,"likert"
"CA38010E742E404DB30BC161531E10FF",1,"0198f77d-25e2-7392-939b-a2efe3470d7d","0198f768-e4d2-711c-944b-6f03c09216de","2025-08-29_16h21.19.137",NA,NA,155.301,155.301,155.301,155.65,NA,NA,NA,NA,NA,NA,NA,TRUE,2,1.881,152.303,155.3,0,16,16,46,1,30,32,NA,NA,NA,NA,NA,1,17,"likert"
"CA38010E742E404DB30BC161531E10FF",1,"0198f77d-25e2-7392-939b-a2efe3470d7d","0198f768-e4d2-711c-944b-6f03c09216de","2025-08-29_16h21.19.137",NA,NA,158.652,158.652,158.652,159,NA,NA,NA,NA,NA,NA,NA,TRUE,2,1.235,155.653,158.651,0,17,17,7,1,10,26,NA,NA,NA,NA,NA,1,18,"likert"
"CA38010E742E404DB30BC161531E10FF",1,"0198f77d-25e2-7392-939b-a2efe3470d7d","0198f768-e4d2-711c-944b-6f03c09216de","2025-08-29_16h21.19.137",NA,NA,161.998,161.999,161.999,162.348,NA,NA,NA,NA,NA,NA,NA,TRUE,4,2.329,159.015,161.998,0,18,18,71,1,60,54,NA,NA,NA,NA,NA,1,19,"likert"
"CA38010E742E404DB30BC161531E10FF",1,"0198f77d-25e2-7392-939b-a2efe3470d7d","0198f768-e4d2-711c-944b-6f03c09216de","2025-08-29_16h21.19.137",NA,NA,165.354,165.354,165.354,165.697,NA,NA,NA,NA,NA,NA,NA,TRUE,2,1.421,162.354,165.353,0,19,19,92,1,150,35,NA,NA,NA,NA,NA,1,20,"likert"
"CA38010E742E404DB30BC161531E10FF",1,"0198f77d-25e2-7392-939b-a2efe3470d7d","0198f768-e4d2-711c-944b-6f03c09216de","2025-08-29_16h21.19.137",NA,NA,168.701,168.702,168.702,169.047,NA,NA,NA,NA,NA,NA,NA,TRUE,4,1.623,165.702,168.701,0,20,20,2,1,7,28,NA,NA,NA,NA,NA,1,21,"likert"
"CA38010E742E404DB30BC161531E10FF",1,"0198f77d-25e2-7392-939b-a2efe3470d7d","0198f768-e4d2-711c-944b-6f03c09216de","2025-08-29_16h21.19.137",NA,NA,172.048,172.048,172.048,172.397,NA,NA,NA,NA,NA,NA,NA,TRUE,5,1.816,169.053,172.047,0,21,21,4,1,7,32,NA,NA,NA,NA,NA,1,22,"likert"
"CA38010E742E404DB30BC161531E10FF",1,"0198f77d-25e2-7392-939b-a2efe3470d7d","0198f768-e4d2-711c-944b-6f03c09216de","2025-08-29_16h21.19.137",NA,NA,175.397,175.397,175.397,175.747,NA,NA,NA,NA,NA,NA,NA,TRUE,1,1.514,172.399,175.397,0,22,22,90,1,150,31,NA,NA,NA,NA,NA,1,23,"likert"
"CA38010E742E404DB30BC161531E10FF",1,"0198f77d-25e2-7392-939b-a2efe3470d7d","0198f768-e4d2-711c-944b-6f03c09216de","2025-08-29_16h21.19.137",NA,NA,178.748,178.748,178.748,179.103,NA,NA,NA,NA,NA,NA,NA,TRUE,2,2.035,175.751,178.748,0,23,23,83,1,95,54,NA,NA,NA,NA,NA,1,24,"likert"
"CA38010E742E404DB30BC161531E10FF",1,"0198f77d-25e2-7392-939b-a2efe3470d7d","0198f768-e4d2-711c-944b-6f03c09216de","2025-08-29_16h21.19.137",NA,NA,182.096,182.096,182.096,182.446,NA,NA,NA,NA,NA,NA,NA,TRUE,4,2.117,179.108,182.096,0,24,24,22,1,14,35,NA,NA,NA,NA,NA,1,25,"likert"
"CA38010E742E404DB30BC161531E10FF",1,"0198f77d-25e2-7392-939b-a2efe3470d7d","0198f768-e4d2-711c-944b-6f03c09216de","2025-08-29_16h21.19.137",NA,NA,185.462,185.462,185.462,185.795,NA,NA,NA,NA,NA,NA,NA,TRUE,1,1.781,182.448,185.462,0,25,25,38,1,28,32,NA,NA,NA,NA,NA,1,26,"likert"
"CA38010E742E404DB30BC161531E10FF",1,"0198f77d-25e2-7392-939b-a2efe3470d7d","0198f768-e4d2-711c-944b-6f03c09216de","2025-08-29_16h21.19.137",NA,NA,188.811,188.811,188.811,189.161,NA,NA,NA,NA,NA,NA,NA,TRUE,3,1.336,185.798,188.811,0,26,26,8,1,10,27,NA,NA,NA,NA,NA,1,27,"likert"
"CA38010E742E404DB30BC161531E10FF",1,"0198f77d-25e2-7392-939b-a2efe3470d7d","0198f768-e4d2-711c-944b-6f03c09216de","2025-08-29_16h21.19.137",NA,NA,192.156,192.156,192.156,192.512,NA,NA,NA,NA,NA,NA,NA,TRUE,4,2.364,189.163,192.155,0,27,27,69,1,60,40,NA,NA,NA,NA,NA,1,28,"likert"
"CA38010E742E404DB30BC161531E10FF",1,"0198f77d-25e2-7392-939b-a2efe3470d7d","0198f768-e4d2-711c-944b-6f03c09216de","2025-08-29_16h21.19.137",NA,NA,195.512,195.512,195.512,195.86,NA,NA,NA,NA,NA,NA,NA,TRUE,5,1.854,192.528,195.512,0,28,28,59,1,45,46,NA,NA,NA,NA,NA,1,29,"likert"
"CA38010E742E404DB30BC161531E10FF",1,"0198f77d-25e2-7392-939b-a2efe3470d7d","0198f768-e4d2-711c-944b-6f03c09216de","2025-08-29_16h21.19.137",NA,NA,198.862,198.862,198.862,199.195,NA,NA,NA,NA,NA,NA,NA,TRUE,3,1.529,195.865,198.861,0,29,29,98,1,180,35,NA,NA,NA,NA,NA,1,30,"likert"
"CA38010E742E404DB30BC161531E10FF",1,"0198f77d-25e2-7392-939b-a2efe3470d7d","0198f768-e4d2-711c-944b-6f03c09216de","2025-08-29_16h21.19.137",NA,NA,202.211,202.211,202.212,202.547,NA,NA,NA,NA,NA,NA,NA,TRUE,2,1.443,199.201,202.211,0,30,30,70,1,60,47,NA,NA,NA,NA,NA,1,31,"likert"
"CA38010E742E404DB30BC161531E10FF",1,"0198f77d-25e2-7392-939b-a2efe3470d7d","0198f768-e4d2-711c-944b-6f03c09216de","2025-08-29_16h21.19.137",NA,NA,205.557,205.558,205.558,205.91,NA,NA,NA,NA,NA,NA,NA,TRUE,2,1.949,202.55,205.556,0,31,31,28,1,21,32,NA,NA,NA,NA,NA,1,32,"likert"
"CA38010E742E404DB30BC161531E10FF",1,"0198f77d-25e2-7392-939b-a2efe3470d7d","0198f768-e4d2-711c-944b-6f03c09216de","2025-08-29_16h21.19.137",NA,NA,208.911,208.911,208.911,209.259,NA,NA,NA,NA,NA,NA,NA,TRUE,5,1.557,205.915,208.909,0,32,32,65,1,50,54,NA,NA,NA,NA,NA,1,33,"likert"
"CA38010E742E404DB30BC161531E10FF",1,"0198f77d-25e2-7392-939b-a2efe3470d7d","0198f768-e4d2-711c-944b-6f03c09216de","2025-08-29_16h21.19.137",NA,NA,212.26,212.26,212.26,212.609,NA,NA,NA,NA,NA,NA,NA,TRUE,2,1.691,209.262,212.259,0,33,33,57,1,45,35,NA,NA,NA,NA,NA,1,34,"likert"
"CA38010E742E404DB30BC161531E10FF",1,"0198f77d-25e2-7392-939b-a2efe3470d7d","0198f768-e4d2-711c-944b-6f03c09216de","2025-08-29_16h21.19.137",NA,NA,215.608,215.608,215.608,215.958,NA,NA,NA,NA,NA,NA,NA,TRUE,1,1.341,212.612,215.607,0,34,34,9,1,10,29,NA,NA,NA,NA,NA,1,35,"likert"
"CA38010E742E404DB30BC161531E10FF",1,"0198f77d-25e2-7392-939b-a2efe3470d7d","0198f768-e4d2-711c-944b-6f03c09216de","2025-08-29_16h21.19.137",NA,NA,218.958,218.958,218.958,219.307,NA,NA,NA,NA,NA,NA,NA,TRUE,3,1.565,215.962,218.958,0,35,35,82,1,95,47,NA,NA,NA,NA,NA,1,36,"likert"
"CA38010E742E404DB30BC161531E10FF",1,"0198f77d-25e2-7392-939b-a2efe3470d7d","0198f768-e4d2-711c-944b-6f03c09216de","2025-08-29_16h21.19.137",NA,NA,222.307,222.307,222.307,222.657,NA,NA,NA,NA,NA,NA,NA,TRUE,3,2.47,219.312,222.307,0,36,36,34,1,25,35,NA,NA,NA,NA,NA,1,37,"likert"
"CA38010E742E404DB30BC161531E10FF",1,"0198f77d-25e2-7392-939b-a2efe3470d7d","0198f768-e4d2-711c-944b-6f03c09216de","2025-08-29_16h21.19.137",NA,NA,225.665,225.665,225.665,226.007,NA,NA,NA,NA,NA,NA,NA,TRUE,3,1.855,222.659,225.664,0,37,37,49,1,40,33,NA,NA,NA,NA,NA,1,38,"likert"
"CA38010E742E404DB30BC161531E10FF",1,"0198f77d-25e2-7392-939b-a2efe3470d7d","0198f768-e4d2-711c-944b-6f03c09216de","2025-08-29_16h21.19.137",NA,NA,229.007,229.007,229.007,229.356,NA,NA,NA,NA,NA,NA,NA,TRUE,2,2.161,226.025,229.006,0,38,38,67,1,60,33,NA,NA,NA,NA,NA,1,39,"likert"
"CA38010E742E404DB30BC161531E10FF",1,"0198f77d-25e2-7392-939b-a2efe3470d7d","0198f768-e4d2-711c-944b-6f03c09216de","2025-08-29_16h21.19.137",NA,NA,232.356,232.606,232.606,232.706,NA,NA,NA,NA,NA,NA,NA,FALSE,NA,NA,229.361,232.356,0,39,39,50,1,40,35,NA,NA,NA,NA,NA,1,40,"likert"
"CA38010E742E404DB30BC161531E10FF",1,"0198f77d-25e2-7392-939b-a2efe3470d7d","0198f768-e4d2-711c-944b-6f03c09216de","2025-08-29_16h21.19.137",NA,NA,235.705,235.706,235.706,236.055,NA,NA,NA,NA,NA,NA,NA,TRUE,1,1.972,232.71,235.705,0,40,40,86,1,100,38,NA,NA,NA,NA,NA,1,41,"likert"
"CA38010E742E404DB30BC161531E10FF",1,"0198f77d-25e2-7392-939b-a2efe3470d7d","0198f768-e4d2-711c-944b-6f03c09216de","2025-08-29_16h21.19.137",NA,NA,239.055,239.055,239.055,239.404,NA,NA,NA,NA,NA,NA,NA,TRUE,1,1.332,236.059,239.055,0,41,41,72,1,90,26,NA,NA,NA,NA,NA,1,42,"likert"
"CA38010E742E404DB30BC161531E10FF",1,"0198f77d-25e2-7392-939b-a2efe3470d7d","0198f768-e4d2-711c-944b-6f03c09216de","2025-08-29_16h21.19.137",NA,NA,242.405,242.405,242.405,242.755,NA,NA,NA,NA,NA,NA,NA,TRUE,3,2.06,239.408,242.405,0,42,42,53,1,40,54,NA,NA,NA,NA,NA,1,43,"likert"
"CA38010E742E404DB30BC161531E10FF",1,"0198f77d-25e2-7392-939b-a2efe3470d7d","0198f768-e4d2-711c-944b-6f03c09216de","2025-08-29_16h21.19.137",NA,NA,245.754,245.754,245.754,246.103,NA,NA,NA,NA,NA,NA,NA,TRUE,1,1.543,242.758,245.753,0,43,43,64,1,50,46,NA,NA,NA,NA,NA,1,44,"likert"
"CA38010E742E404DB30BC161531E10FF",1,"0198f77d-25e2-7392-939b-a2efe3470d7d","0198f768-e4d2-711c-944b-6f03c09216de","2025-08-29_16h21.19.137",NA,NA,249.104,249.104,249.104,249.453,NA,NA,NA,NA,NA,NA,NA,TRUE,1,1.272,246.106,249.104,0,44,44,39,1,28,35,NA,NA,NA,NA,NA,1,45,"likert"
"CA38010E742E404DB30BC161531E10FF",1,"0198f77d-25e2-7392-939b-a2efe3470d7d","0198f768-e4d2-711c-944b-6f03c09216de","2025-08-29_16h21.19.137",NA,NA,252.453,252.453,252.453,252.802,NA,NA,NA,NA,NA,NA,NA,TRUE,4,1.836,249.455,252.452,0,45,45,21,1,14,32,NA,NA,NA,NA,NA,1,46,"likert"
"CA38010E742E404DB30BC161531E10FF",1,"0198f77d-25e2-7392-939b-a2efe3470d7d","0198f768-e4d2-711c-944b-6f03c09216de","2025-08-29_16h21.19.137",NA,NA,255.808,255.808,255.808,256.153,NA,NA,NA,NA,NA,NA,NA,TRUE,2,2.609,252.804,255.807,0,46,46,94,1,150,47,NA,NA,NA,NA,NA,1,47,"likert"
"CA38010E742E404DB30BC161531E10FF",1,"0198f77d-25e2-7392-939b-a2efe3470d7d","0198f768-e4d2-711c-944b-6f03c09216de","2025-08-29_16h21.19.137",NA,NA,259.157,259.157,259.157,259.504,NA,NA,NA,NA,NA,NA,NA,TRUE,4,1.982,256.169,259.156,0,47,47,10,1,10,30,NA,NA,NA,NA,NA,1,48,"likert"
"CA38010E742E404DB30BC161531E10FF",1,"0198f77d-25e2-7392-939b-a2efe3470d7d","0198f768-e4d2-711c-944b-6f03c09216de","2025-08-29_16h21.19.137",NA,NA,262.506,262.506,262.506,262.851,NA,NA,NA,NA,NA,NA,NA,TRUE,2,2.141,259.512,262.502,0,48,48,99,1,180,39,NA,NA,NA,NA,NA,1,49,"likert"
"CA38010E742E404DB30BC161531E10FF",1,"0198f77d-25e2-7392-939b-a2efe3470d7d","0198f768-e4d2-711c-944b-6f03c09216de","2025-08-29_16h21.19.137",NA,NA,265.852,265.852,265.852,266.201,NA,NA,NA,NA,NA,NA,NA,TRUE,1,1.364,262.857,265.852,0,49,49,56,1,45,31,NA,NA,NA,NA,NA,1,50,"likert"
"CA38010E742E404DB30BC161531E10FF",1,"0198f77d-25e2-7392-939b-a2efe3470d7d","0198f768-e4d2-711c-944b-6f03c09216de","2025-08-29_16h21.19.137",NA,NA,269.203,269.203,269.203,269.551,NA,NA,NA,NA,NA,NA,NA,TRUE,1,1.188,266.206,269.201,0,50,50,29,1,21,38,NA,NA,NA,NA,NA,1,51,"likert"
"CA38010E742E404DB30BC161531E10FF",1,"0198f77d-25e2-7392-939b-a2efe3470d7d","0198f768-e4d2-711c-944b-6f03c09216de","2025-08-29_16h21.19.137",NA,NA,272.554,272.554,272.555,272.9,NA,NA,NA,NA,NA,NA,NA,TRUE,1,1.472,269.554,272.554,0,51,51,48,1,40,27,NA,NA,NA,NA,NA,1,52,"likert"
"CA38010E742E404DB30BC161531E10FF",1,"0198f77d-25e2-7392-939b-a2efe3470d7d","0198f768-e4d2-711c-944b-6f03c09216de","2025-08-29_16h21.19.137",NA,NA,275.901,275.901,275.901,276.251,NA,NA,NA,NA,NA,NA,NA,TRUE,2,1.682,272.905,275.9,0,52,52,81,1,95,40,NA,NA,NA,NA,NA,1,53,"likert"
"CA38010E742E404DB30BC161531E10FF",1,"0198f77d-25e2-7392-939b-a2efe3470d7d","0198f768-e4d2-711c-944b-6f03c09216de","2025-08-29_16h21.19.137",NA,NA,279.249,279.249,279.249,279.6,NA,NA,NA,NA,NA,NA,NA,TRUE,1,1.769,276.253,279.248,0,53,53,42,1,30,26,NA,NA,NA,NA,NA,1,54,"likert"
"CA38010E742E404DB30BC161531E10FF",1,"0198f77d-25e2-7392-939b-a2efe3470d7d","0198f768-e4d2-711c-944b-6f03c09216de","2025-08-29_16h21.19.137",NA,NA,282.6,282.6,282.6,282.949,NA,NA,NA,NA,NA,NA,NA,TRUE,1,1.913,279.604,282.599,0,54,54,33,1,25,33,NA,NA,NA,NA,NA,1,55,"likert"
"CA38010E742E404DB30BC161531E10FF",1,"0198f77d-25e2-7392-939b-a2efe3470d7d","0198f768-e4d2-711c-944b-6f03c09216de","2025-08-29_16h21.19.137",NA,NA,285.952,285.953,285.953,286.298,NA,NA,NA,NA,NA,NA,NA,TRUE,1,1.213,282.953,285.95,0,55,55,78,1,95,31,NA,NA,NA,NA,NA,1,56,"likert"
"CA38010E742E404DB30BC161531E10FF",1,"0198f77d-25e2-7392-939b-a2efe3470d7d","0198f768-e4d2-711c-944b-6f03c09216de","2025-08-29_16h21.19.137",NA,NA,289.299,289.299,289.299,289.648,NA,NA,NA,NA,NA,NA,NA,TRUE,1,1.23,286.31,289.299,0,56,56,79,1,95,33,NA,NA,NA,NA,NA,1,57,"likert"
"CA38010E742E404DB30BC161531E10FF",1,"0198f77d-25e2-7392-939b-a2efe3470d7d","0198f768-e4d2-711c-944b-6f03c09216de","2025-08-29_16h21.19.137",NA,NA,292.647,292.648,292.648,292.997,NA,NA,NA,NA,NA,NA,NA,TRUE,1,1.582,289.653,292.647,0,57,57,44,1,30,29,NA,NA,NA,NA,NA,1,58,"likert"
"CA38010E742E404DB30BC161531E10FF",1,"0198f77d-25e2-7392-939b-a2efe3470d7d","0198f768-e4d2-711c-944b-6f03c09216de","2025-08-29_16h21.19.137",NA,NA,295.998,295.998,295.998,296.347,NA,NA,NA,NA,NA,NA,NA,TRUE,1,1.813,293.003,295.997,0,58,58,102,1,200,26,NA,NA,NA,NA,NA,1,59,"likert"
"CA38010E742E404DB30BC161531E10FF",1,"0198f77d-25e2-7392-939b-a2efe3470d7d","0198f768-e4d2-711c-944b-6f03c09216de","2025-08-29_16h21.19.137",NA,NA,299.347,299.347,299.347,299.696,NA,NA,NA,NA,NA,NA,NA,TRUE,3,1.652,296.354,299.346,0,59,59,16,1,12,33,NA,NA,NA,NA,NA,1,60,"likert"
"CA38010E742E404DB30BC161531E10FF",1,"0198f77d-25e2-7392-939b-a2efe3470d7d","0198f768-e4d2-711c-944b-6f03c09216de","2025-08-29_16h21.19.137",NA,NA,302.696,302.696,302.696,303.046,NA,NA,NA,NA,NA,NA,NA,TRUE,1,1.247,299.699,302.696,0,60,60,31,1,25,29,NA,NA,NA,NA,NA,1,61,"likert"
"CA38010E742E404DB30BC161531E10FF",1,"0198f77d-25e2-7392-939b-a2efe3470d7d","0198f768-e4d2-711c-944b-6f03c09216de","2025-08-29_16h21.19.137",NA,NA,306.046,306.046,306.046,306.397,NA,NA,NA,NA,NA,NA,NA,TRUE,4,1.756,303.048,306.046,0,61,61,35,1,25,46,NA,NA,NA,NA,NA,1,62,"likert"
"CA38010E742E404DB30BC161531E10FF",1,"0198f77d-25e2-7392-939b-a2efe3470d7d","0198f768-e4d2-711c-944b-6f03c09216de","2025-08-29_16h21.19.137",NA,NA,309.396,309.396,309.396,309.745,NA,NA,NA,NA,NA,NA,NA,TRUE,1,1.364,306.398,309.396,0,62,62,45,1,30,30,NA,NA,NA,NA,NA,1,63,"likert"
"CA38010E742E404DB30BC161531E10FF",1,"0198f77d-25e2-7392-939b-a2efe3470d7d","0198f768-e4d2-711c-944b-6f03c09216de","2025-08-29_16h21.19.137",NA,NA,312.762,312.762,312.762,313.095,NA,NA,NA,NA,NA,NA,NA,TRUE,4,2.121,309.746,312.762,0,63,63,17,1,12,35,NA,NA,NA,NA,NA,1,64,"likert"
"CA38010E742E404DB30BC161531E10FF",1,"0198f77d-25e2-7392-939b-a2efe3470d7d","0198f768-e4d2-711c-944b-6f03c09216de","2025-08-29_16h21.19.137",NA,NA,316.112,316.112,316.112,316.445,NA,NA,NA,NA,NA,NA,NA,TRUE,1,1.455,313.098,316.112,0,64,64,32,1,25,31,NA,NA,NA,NA,NA,1,65,"likert"
"CA38010E742E404DB30BC161531E10FF",1,"0198f77d-25e2-7392-939b-a2efe3470d7d","0198f768-e4d2-711c-944b-6f03c09216de","2025-08-29_16h21.19.137",NA,NA,319.469,319.47,319.47,319.796,NA,NA,NA,NA,NA,NA,NA,TRUE,1,1.664,316.448,319.469,0,65,65,54,1,45,26,NA,NA,NA,NA,NA,1,66,"likert"
"CA38010E742E404DB30BC161531E10FF",1,"0198f77d-25e2-7392-939b-a2efe3470d7d","0198f768-e4d2-711c-944b-6f03c09216de","2025-08-29_16h21.19.137",NA,NA,322.813,323.061,323.061,323.162,NA,NA,NA,NA,NA,NA,NA,FALSE,NA,NA,319.807,322.812,0,66,66,15,1,12,31,NA,NA,NA,NA,NA,1,67,"likert"
"CA38010E742E404DB30BC161531E10FF",1,"0198f77d-25e2-7392-939b-a2efe3470d7d","0198f768-e4d2-711c-944b-6f03c09216de","2025-08-29_16h21.19.137",NA,NA,326.161,326.161,326.161,326.511,NA,NA,NA,NA,NA,NA,NA,TRUE,3,0.813,323.167,326.161,0,67,67,40,1,28,39,NA,NA,NA,NA,NA,1,68,"likert"
"CA38010E742E404DB30BC161531E10FF",1,"0198f77d-25e2-7392-939b-a2efe3470d7d","0198f768-e4d2-711c-944b-6f03c09216de","2025-08-29_16h21.19.137",NA,NA,329.512,329.513,329.513,329.86,NA,NA,NA,NA,NA,NA,NA,TRUE,2,1.833,326.515,329.512,0,68,68,73,1,90,30,NA,NA,NA,NA,NA,1,69,"likert"
"CA38010E742E404DB30BC161531E10FF",1,"0198f77d-25e2-7392-939b-a2efe3470d7d","0198f768-e4d2-711c-944b-6f03c09216de","2025-08-29_16h21.19.137",NA,NA,332.863,332.864,332.864,333.209,NA,NA,NA,NA,NA,NA,NA,TRUE,4,0.527,329.865,332.862,0,69,69,80,1,95,35,NA,NA,NA,NA,NA,1,70,"likert"
"CA38010E742E404DB30BC161531E10FF",1,"0198f77d-25e2-7392-939b-a2efe3470d7d","0198f768-e4d2-711c-944b-6f03c09216de","2025-08-29_16h21.19.137",NA,NA,336.197,336.197,336.197,336.546,NA,NA,NA,NA,NA,NA,NA,TRUE,2,2.026,333.215,336.196,0,70,70,106,1,200,47,NA,NA,NA,NA,NA,1,71,"likert"
"CA38010E742E404DB30BC161531E10FF",1,"0198f77d-25e2-7392-939b-a2efe3470d7d","0198f768-e4d2-711c-944b-6f03c09216de","2025-08-29_16h21.19.137",NA,NA,339.558,339.558,339.558,339.909,NA,NA,NA,NA,NA,NA,NA,TRUE,2,2.003,336.547,339.558,0,71,71,60,1,50,27,NA,NA,NA,NA,NA,1,72,"likert"
"CA38010E742E404DB30BC161531E10FF",1,"0198f77d-25e2-7392-939b-a2efe3470d7d","0198f768-e4d2-711c-944b-6f03c09216de","2025-08-29_16h21.19.137",NA,NA,342.908,342.908,342.908,343.257,NA,NA,NA,NA,NA,NA,NA,TRUE,2,1.741,339.914,342.908,0,72,72,105,1,200,39,NA,NA,NA,NA,NA,1,73,"likert"
"CA38010E742E404DB30BC161531E10FF",1,"0198f77d-25e2-7392-939b-a2efe3470d7d","0198f768-e4d2-711c-944b-6f03c09216de","2025-08-29_16h21.19.137",NA,NA,346.258,346.258,346.258,346.615,NA,NA,NA,NA,NA,NA,NA,TRUE,2,1.379,343.263,346.258,0,73,73,97,1,180,31,NA,NA,NA,NA,NA,1,74,"likert"
"CA38010E742E404DB30BC161531E10FF",1,"0198f77d-25e2-7392-939b-a2efe3470d7d","0198f768-e4d2-711c-944b-6f03c09216de","2025-08-29_16h21.19.137",NA,NA,349.607,349.607,349.607,349.957,NA,NA,NA,NA,NA,NA,NA,TRUE,1,1.426,346.617,349.606,0,74,74,55,1,45,29,NA,NA,NA,NA,NA,1,75,"likert"
"CA38010E742E404DB30BC161531E10FF",1,"0198f77d-25e2-7392-939b-a2efe3470d7d","0198f768-e4d2-711c-944b-6f03c09216de","2025-08-29_16h21.19.137",NA,NA,352.958,352.961,352.961,353.307,NA,NA,NA,NA,NA,NA,NA,TRUE,1,2.159,349.968,352.958,0,75,75,66,1,60,29,NA,NA,NA,NA,NA,1,76,"likert"
"CA38010E742E404DB30BC161531E10FF",1,"0198f77d-25e2-7392-939b-a2efe3470d7d","0198f768-e4d2-711c-944b-6f03c09216de","2025-08-29_16h21.19.137",NA,NA,356.307,356.307,356.307,356.656,NA,NA,NA,NA,NA,NA,NA,TRUE,2,1.497,353.321,356.307,0,76,76,88,1,100,46,NA,NA,NA,NA,NA,1,77,"likert"
"CA38010E742E404DB30BC161531E10FF",1,"0198f77d-25e2-7392-939b-a2efe3470d7d","0198f768-e4d2-711c-944b-6f03c09216de","2025-08-29_16h21.19.137",NA,NA,359.656,359.656,359.656,360.006,NA,NA,NA,NA,NA,NA,NA,TRUE,2,2.406,356.66,359.656,0,77,77,93,1,150,40,NA,NA,NA,NA,NA,1,78,"likert"
"CA38010E742E404DB30BC161531E10FF",1,"0198f77d-25e2-7392-939b-a2efe3470d7d","0198f768-e4d2-711c-944b-6f03c09216de","2025-08-29_16h21.19.137",NA,NA,363.006,363.006,363.006,363.355,NA,NA,NA,NA,NA,NA,NA,TRUE,1,1.249,360.01,363.005,0,78,78,13,1,12,26,NA,NA,NA,NA,NA,1,79,"likert"
"CA38010E742E404DB30BC161531E10FF",1,"0198f77d-25e2-7392-939b-a2efe3470d7d","0198f768-e4d2-711c-944b-6f03c09216de","2025-08-29_16h21.19.137",NA,NA,366.355,366.355,366.355,366.704,NA,NA,NA,NA,NA,NA,NA,TRUE,4,1.637,363.361,366.355,0,79,79,19,1,14,26,NA,NA,NA,NA,NA,1,80,"likert"
"CA38010E742E404DB30BC161531E10FF",1,"0198f77d-25e2-7392-939b-a2efe3470d7d","0198f768-e4d2-711c-944b-6f03c09216de","2025-08-29_16h21.19.137",NA,NA,369.706,369.706,369.706,370.054,NA,NA,NA,NA,NA,NA,NA,TRUE,3,2.779,366.707,369.705,0,80,80,6,1,10,25,NA,NA,NA,NA,NA,1,81,"likert"
"CA38010E742E404DB30BC161531E10FF",1,"0198f77d-25e2-7392-939b-a2efe3470d7d","0198f768-e4d2-711c-944b-6f03c09216de","2025-08-29_16h21.19.137",NA,NA,373.054,373.054,373.054,373.404,NA,NA,NA,NA,NA,NA,NA,TRUE,2,1.183,370.057,373.053,0,81,81,25,1,21,27,NA,NA,NA,NA,NA,1,82,"likert"
"CA38010E742E404DB30BC161531E10FF",1,"0198f77d-25e2-7392-939b-a2efe3470d7d","0198f768-e4d2-711c-944b-6f03c09216de","2025-08-29_16h21.19.137",NA,NA,376.404,376.404,376.404,376.753,NA,NA,NA,NA,NA,NA,NA,TRUE,2,1.221,373.405,376.404,0,82,82,63,1,50,40,NA,NA,NA,NA,NA,1,83,"likert"
"CA38010E742E404DB30BC161531E10FF",1,"0198f77d-25e2-7392-939b-a2efe3470d7d","0198f768-e4d2-711c-944b-6f03c09216de","2025-08-29_16h21.19.137",NA,NA,379.753,379.753,379.753,380.106,NA,NA,NA,NA,NA,NA,NA,TRUE,1,1.267,376.756,379.753,0,83,83,37,1,28,28,NA,NA,NA,NA,NA,1,84,"likert"
"CA38010E742E404DB30BC161531E10FF",1,"0198f77d-25e2-7392-939b-a2efe3470d7d","0198f768-e4d2-711c-944b-6f03c09216de","2025-08-29_16h21.19.137",NA,NA,383.107,383.107,383.107,383.452,NA,NA,NA,NA,NA,NA,NA,TRUE,3,1.205,380.108,383.106,0,84,84,58,1,45,40,NA,NA,NA,NA,NA,1,85,"likert"
"CA38010E742E404DB30BC161531E10FF",1,"0198f77d-25e2-7392-939b-a2efe3470d7d","0198f768-e4d2-711c-944b-6f03c09216de","2025-08-29_16h21.19.137",NA,NA,386.456,386.456,386.456,386.803,NA,NA,NA,NA,NA,NA,NA,TRUE,1,1.656,383.455,386.455,0,85,85,101,1,180,54,NA,NA,NA,NA,NA,1,86,"likert"
"CA38010E742E404DB30BC161531E10FF",1,"0198f77d-25e2-7392-939b-a2efe3470d7d","0198f768-e4d2-711c-944b-6f03c09216de","2025-08-29_16h21.19.137",NA,NA,389.803,389.803,389.803,390.152,NA,NA,NA,NA,NA,NA,NA,TRUE,5,1.944,386.804,389.802,0,86,86,5,1,7,35,NA,NA,NA,NA,NA,1,87,"likert"
"CA38010E742E404DB30BC161531E10FF",1,"0198f77d-25e2-7392-939b-a2efe3470d7d","0198f768-e4d2-711c-944b-6f03c09216de","2025-08-29_16h21.19.137",NA,NA,393.152,393.152,393.152,393.502,NA,NA,NA,NA,NA,NA,NA,TRUE,1,1.357,390.164,393.15,0,87,87,91,1,150,33,NA,NA,NA,NA,NA,1,88,"likert"
"CA38010E742E404DB30BC161531E10FF",1,"0198f77d-25e2-7392-939b-a2efe3470d7d","0198f768-e4d2-711c-944b-6f03c09216de","2025-08-29_16h21.19.137",NA,NA,396.502,396.502,396.502,396.851,NA,NA,NA,NA,NA,NA,NA,TRUE,4,1.875,393.508,396.501,0,88,88,89,1,100,54,NA,NA,NA,NA,NA,1,89,"likert"
"CA38010E742E404DB30BC161531E10FF",1,"0198f77d-25e2-7392-939b-a2efe3470d7d","0198f768-e4d2-711c-944b-6f03c09216de","2025-08-29_16h21.19.137",NA,NA,399.852,399.852,399.853,400.201,NA,NA,NA,NA,NA,NA,NA,TRUE,5,1.899,396.857,399.851,0,89,89,47,1,30,38,NA,NA,NA,NA,NA,1,90,"likert"
"CA38010E742E404DB30BC161531E10FF",1,"0198f77d-25e2-7392-939b-a2efe3470d7d","0198f768-e4d2-711c-944b-6f03c09216de","2025-08-29_16h21.19.137",NA,NA,403.2,403.201,403.201,403.55,NA,NA,NA,NA,NA,NA,NA,TRUE,1,1.422,400.207,403.2,0,90,90,84,1,100,26,NA,NA,NA,NA,NA,1,91,"likert"
"CA38010E742E404DB30BC161531E10FF",1,"0198f77d-25e2-7392-939b-a2efe3470d7d","0198f768-e4d2-711c-944b-6f03c09216de","2025-08-29_16h21.19.137",NA,NA,406.554,406.554,406.554,406.899,NA,NA,NA,NA,NA,NA,NA,TRUE,3,1.967,403.552,406.554,0,91,91,87,1,100,39,NA,NA,NA,NA,NA,1,92,"likert"
"CA38010E742E404DB30BC161531E10FF",1,"0198f77d-25e2-7392-939b-a2efe3470d7d","0198f768-e4d2-711c-944b-6f03c09216de","2025-08-29_16h21.19.137",NA,NA,409.9,409.9,409.9,410.249,NA,NA,NA,NA,NA,NA,NA,TRUE,4,1.83,406.904,409.898,0,92,92,1,1,7,26,NA,NA,NA,NA,NA,1,93,"likert"
"CA38010E742E404DB30BC161531E10FF",1,"0198f77d-25e2-7392-939b-a2efe3470d7d","0198f768-e4d2-711c-944b-6f03c09216de","2025-08-29_16h21.19.137",NA,NA,413.248,413.248,413.248,413.598,NA,NA,NA,NA,NA,NA,NA,TRUE,2,1.914,410.252,413.248,0,93,93,20,1,14,28,NA,NA,NA,NA,NA,1,94,"likert"
"CA38010E742E404DB30BC161531E10FF",1,"0198f77d-25e2-7392-939b-a2efe3470d7d","0198f768-e4d2-711c-944b-6f03c09216de","2025-08-29_16h21.19.137",NA,NA,416.599,416.6,416.6,416.959,NA,NA,NA,NA,NA,NA,NA,TRUE,1,2.132,413.601,416.599,0,94,94,18,1,14,25,NA,NA,NA,NA,NA,1,95,"likert"
"CA38010E742E404DB30BC161531E10FF",1,"0198f77d-25e2-7392-939b-a2efe3470d7d","0198f768-e4d2-711c-944b-6f03c09216de","2025-08-29_16h21.19.137",NA,NA,419.95,419.951,419.951,420.297,NA,NA,NA,NA,NA,NA,NA,TRUE,1,1.936,416.964,419.948,0,95,95,85,1,100,31,NA,NA,NA,NA,NA,1,96,"likert"
"CA38010E742E404DB30BC161531E10FF",1,"0198f77d-25e2-7392-939b-a2efe3470d7d","0198f768-e4d2-711c-944b-6f03c09216de","2025-08-29_16h21.19.137",NA,NA,423.298,423.298,423.298,423.647,NA,NA,NA,NA,NA,NA,NA,TRUE,4,1.926,420.308,423.298,0,96,96,77,1,90,54,NA,NA,NA,NA,NA,1,97,"likert"
"CA38010E742E404DB30BC161531E10FF",1,"0198f77d-25e2-7392-939b-a2efe3470d7d","0198f768-e4d2-711c-944b-6f03c09216de","2025-08-29_16h21.19.137",NA,NA,426.647,426.647,426.647,426.997,NA,NA,NA,NA,NA,NA,NA,TRUE,3,2.004,423.653,426.647,0,97,97,75,1,90,40,NA,NA,NA,NA,NA,1,98,"likert"
"CA38010E742E404DB30BC161531E10FF",1,"0198f77d-25e2-7392-939b-a2efe3470d7d","0198f768-e4d2-711c-944b-6f03c09216de","2025-08-29_16h21.19.137",NA,NA,429.997,429.997,429.997,430.346,NA,NA,NA,NA,NA,NA,NA,TRUE,1,1.488,427.002,429.996,0,98,98,30,1,25,27,NA,NA,NA,NA,NA,1,99,"likert"
"CA38010E742E404DB30BC161531E10FF",1,"0198f77d-25e2-7392-939b-a2efe3470d7d","0198f768-e4d2-711c-944b-6f03c09216de","2025-08-29_16h21.19.137",NA,NA,433.352,433.352,433.352,433.697,NA,NA,NA,NA,NA,NA,NA,TRUE,1,1.63,430.351,433.351,0,99,99,68,1,60,35,NA,NA,NA,NA,NA,1,100,"likert"
"CA38010E742E404DB30BC161531E10FF",1,"0198f77d-25e2-7392-939b-a2efe3470d7d","0198f768-e4d2-711c-944b-6f03c09216de","2025-08-29_16h21.19.137",NA,NA,436.696,436.696,436.696,437.045,NA,NA,NA,NA,NA,NA,NA,TRUE,2,1.835,433.7,436.696,0,100,100,14,1,12,28,NA,NA,NA,NA,NA,1,101,"likert"
"CA38010E742E404DB30BC161531E10FF",1,"0198f77d-25e2-7392-939b-a2efe3470d7d","0198f768-e4d2-711c-944b-6f03c09216de","2025-08-29_16h21.19.137",NA,NA,440.045,440.045,440.045,440.411,NA,NA,NA,NA,NA,NA,NA,TRUE,1,1.629,437.047,440.045,0,101,101,61,1,50,30,NA,NA,NA,NA,NA,1,102,"likert"
"CA38010E742E404DB30BC161531E10FF",1,"0198f77d-25e2-7392-939b-a2efe3470d7d","0198f768-e4d2-711c-944b-6f03c09216de","2025-08-29_16h21.19.137",NA,NA,443.411,443.411,443.411,443.761,NA,NA,NA,NA,NA,NA,NA,TRUE,1,1.429,440.414,443.411,0,102,102,104,1,200,35,NA,NA,NA,NA,NA,1,103,"likert"
"CA38010E742E404DB30BC161531E10FF",1,"0198f77d-25e2-7392-939b-a2efe3470d7d","0198f768-e4d2-711c-944b-6f03c09216de","2025-08-29_16h21.19.137",NA,NA,446.761,446.761,446.761,447.11,NA,NA,NA,NA,NA,NA,NA,TRUE,2,2.2,443.762,446.761,0,103,103,3,1,7,30,NA,NA,NA,NA,NA,1,104,"likert"
"CA38010E742E404DB30BC161531E10FF",1,"0198f77d-25e2-7392-939b-a2efe3470d7d","0198f768-e4d2-711c-944b-6f03c09216de","2025-08-29_16h21.19.137",NA,NA,450.111,450.111,450.111,450.46,NA,NA,NA,NA,NA,NA,NA,TRUE,1,1.661,447.113,450.111,0,104,104,52,1,40,47,NA,NA,NA,NA,NA,1,105,"likert"
"CA38010E742E404DB30BC161531E10FF",1,"0198f77d-25e2-7392-939b-a2efe3470d7d","0198f768-e4d2-711c-944b-6f03c09216de","2025-08-29_16h21.19.137",NA,NA,453.463,453.464,453.464,453.797,NA,NA,NA,NA,NA,NA,NA,TRUE,1,1.709,450.462,453.462,0,105,105,100,1,180,46,NA,NA,NA,NA,NA,1,106,"likert"
"CA38010E742E404DB30BC161531E10FF",1,"0198f77d-25e2-7392-939b-a2efe3470d7d","0198f768-e4d2-711c-944b-6f03c09216de","2025-08-29_16h21.19.137",NA,NA,456.811,456.811,456.811,457.16,NA,NA,NA,NA,NA,NA,NA,TRUE,2,1.931,453.817,456.81,0,106,106,107,1,200,54,NA,NA,NA,NA,NA,1,107,"likert"
"CA38010E742E404DB30BC161531E10FF",1,"0198f77d-25e2-7392-939b-a2efe3470d7d","0198f768-e4d2-711c-944b-6f03c09216de","2025-08-29_16h21.19.137",NA,NA,460.161,460.161,460.162,460.496,NA,NA,NA,NA,NA,NA,NA,TRUE,2,1.749,457.165,460.16,0,107,107,51,1,40,40,NA,NA,NA,NA,NA,1,108,"likert"
"CA38010E742E404DB30BC161531E10FF",1,"0198f77d-25e2-7392-939b-a2efe3470d7d","0198f768-e4d2-711c-944b-6f03c09216de","2025-08-29_16h21.19.137",NA,NA,467.774,467.775,467.775,468.124,NA,NA,NA,NA,NA,NA,NA,TRUE,1,2.392,464.831,467.774,NA,NA,NA,NA,NA,30,26,0,0,0,42,1,2,1,"likert"
"CA38010E742E404DB30BC161531E10FF",1,"0198f77d-25e2-7392-939b-a2efe3470d7d","0198f768-e4d2-711c-944b-6f03c09216de","2025-08-29_16h21.19.137",NA,NA,471.125,471.125,471.125,471.474,NA,NA,NA,NA,NA,NA,NA,TRUE,3,1.388,468.128,471.124,NA,NA,NA,NA,NA,180,54,0,1,1,101,1,2,2,"likert"
"CA38010E742E404DB30BC161531E10FF",1,"0198f77d-25e2-7392-939b-a2efe3470d7d","0198f768-e4d2-711c-944b-6f03c09216de","2025-08-29_16h21.19.137",NA,NA,474.474,474.474,474.475,474.823,NA,NA,NA,NA,NA,NA,NA,TRUE,5,1.722,471.478,474.474,NA,NA,NA,NA,NA,10,32,0,2,2,11,1,2,3,"likert"
"CA38010E742E404DB30BC161531E10FF",1,"0198f77d-25e2-7392-939b-a2efe3470d7d","0198f768-e4d2-711c-944b-6f03c09216de","2025-08-29_16h21.19.137",NA,NA,477.824,477.824,477.824,478.173,NA,NA,NA,NA,NA,NA,NA,TRUE,3,2.225,474.827,477.823,NA,NA,NA,NA,NA,60,35,0,3,3,68,1,2,4,"likert"
"CA38010E742E404DB30BC161531E10FF",1,"0198f77d-25e2-7392-939b-a2efe3470d7d","0198f768-e4d2-711c-944b-6f03c09216de","2025-08-29_16h21.19.137",NA,NA,481.173,481.173,481.173,481.523,NA,NA,NA,NA,NA,NA,NA,TRUE,5,1.685,478.175,481.173,NA,NA,NA,NA,NA,14,39,0,4,4,23,1,2,5,"likert"
"CA38010E742E404DB30BC161531E10FF",1,"0198f77d-25e2-7392-939b-a2efe3470d7d","0198f768-e4d2-711c-944b-6f03c09216de","2025-08-29_16h21.19.137",NA,NA,484.523,484.523,484.523,484.872,NA,NA,NA,NA,NA,NA,NA,TRUE,2,1.751,481.525,484.523,NA,NA,NA,NA,NA,30,30,0,5,5,45,1,2,6,"likert"
"CA38010E742E404DB30BC161531E10FF",1,"0198f77d-25e2-7392-939b-a2efe3470d7d","0198f768-e4d2-711c-944b-6f03c09216de","2025-08-29_16h21.19.137",NA,NA,487.874,487.874,487.874,488.222,NA,NA,NA,NA,NA,NA,NA,TRUE,1,1.896,484.874,487.872,NA,NA,NA,NA,NA,180,27,0,6,6,96,1,2,7,"likert"
"CA38010E742E404DB30BC161531E10FF",1,"0198f77d-25e2-7392-939b-a2efe3470d7d","0198f768-e4d2-711c-944b-6f03c09216de","2025-08-29_16h21.19.137",NA,NA,491.223,491.223,491.223,491.572,NA,NA,NA,NA,NA,NA,NA,TRUE,3,1.686,488.238,491.223,NA,NA,NA,NA,NA,40,33,0,7,7,49,1,2,8,"likert"
"CA38010E742E404DB30BC161531E10FF",1,"0198f77d-25e2-7392-939b-a2efe3470d7d","0198f768-e4d2-711c-944b-6f03c09216de","2025-08-29_16h21.19.137",NA,NA,494.572,494.572,494.572,494.922,NA,NA,NA,NA,NA,NA,NA,TRUE,4,1.7,491.577,494.572,NA,NA,NA,NA,NA,10,30,0,8,8,10,1,2,9,"likert"
"CA38010E742E404DB30BC161531E10FF",1,"0198f77d-25e2-7392-939b-a2efe3470d7d","0198f768-e4d2-711c-944b-6f03c09216de","2025-08-29_16h21.19.137",NA,NA,497.923,497.923,497.923,498.272,NA,NA,NA,NA,NA,NA,NA,TRUE,3,1.61,494.926,497.922,NA,NA,NA,NA,NA,95,47,0,9,9,82,1,2,10,"likert"
"CA38010E742E404DB30BC161531E10FF",1,"0198f77d-25e2-7392-939b-a2efe3470d7d","0198f768-e4d2-711c-944b-6f03c09216de","2025-08-29_16h21.19.137",NA,NA,501.274,501.274,501.274,501.621,NA,NA,NA,NA,NA,NA,NA,TRUE,1,1.402,498.277,501.274,NA,NA,NA,NA,NA,60,29,0,10,10,66,1,2,11,"likert"
"CA38010E742E404DB30BC161531E10FF",1,"0198f77d-25e2-7392-939b-a2efe3470d7d","0198f768-e4d2-711c-944b-6f03c09216de","2025-08-29_16h21.19.137",NA,NA,504.621,504.621,504.621,504.97,NA,NA,NA,NA,NA,NA,NA,TRUE,1,1.456,501.624,504.621,NA,NA,NA,NA,NA,14,26,0,11,11,19,1,2,12,"likert"
"CA38010E742E404DB30BC161531E10FF",1,"0198f77d-25e2-7392-939b-a2efe3470d7d","0198f768-e4d2-711c-944b-6f03c09216de","2025-08-29_16h21.19.137",NA,NA,507.971,507.971,507.971,508.32,NA,NA,NA,NA,NA,NA,NA,TRUE,1,1.358,504.973,507.97,NA,NA,NA,NA,NA,12,26,0,12,12,13,1,2,13,"likert"
"CA38010E742E404DB30BC161531E10FF",1,"0198f77d-25e2-7392-939b-a2efe3470d7d","0198f768-e4d2-711c-944b-6f03c09216de","2025-08-29_16h21.19.137",NA,NA,511.321,511.321,511.321,511.669,NA,NA,NA,NA,NA,NA,NA,TRUE,1,1.471,508.323,511.321,NA,NA,NA,NA,NA,50,27,0,13,13,60,1,2,14,"likert"
"CA38010E742E404DB30BC161531E10FF",1,"0198f77d-25e2-7392-939b-a2efe3470d7d","0198f768-e4d2-711c-944b-6f03c09216de","2025-08-29_16h21.19.137",NA,NA,514.669,514.669,514.669,515.019,NA,NA,NA,NA,NA,NA,NA,TRUE,1,1.382,511.672,514.669,NA,NA,NA,NA,NA,200,26,0,14,14,102,1,2,15,"likert"
"CA38010E742E404DB30BC161531E10FF",1,"0198f77d-25e2-7392-939b-a2efe3470d7d","0198f768-e4d2-711c-944b-6f03c09216de","2025-08-29_16h21.19.137",NA,NA,518.018,518.018,518.018,518.368,NA,NA,NA,NA,NA,NA,NA,TRUE,1,1.384,515.022,518.018,NA,NA,NA,NA,NA,7,26,0,15,15,1,1,2,16,"likert"
"CA38010E742E404DB30BC161531E10FF",1,"0198f77d-25e2-7392-939b-a2efe3470d7d","0198f768-e4d2-711c-944b-6f03c09216de","2025-08-29_16h21.19.137",NA,NA,521.369,521.37,521.37,521.717,NA,NA,NA,NA,NA,NA,NA,TRUE,1,1.364,518.378,521.368,NA,NA,NA,NA,NA,45,29,0,16,16,55,1,2,17,"likert"
"CA38010E742E404DB30BC161531E10FF",1,"0198f77d-25e2-7392-939b-a2efe3470d7d","0198f768-e4d2-711c-944b-6f03c09216de","2025-08-29_16h21.19.137",NA,NA,524.718,524.718,524.718,525.067,NA,NA,NA,NA,NA,NA,NA,TRUE,5,1.687,521.727,524.718,NA,NA,NA,NA,NA,40,47,0,17,17,52,1,2,18,"likert"
"CA38010E742E404DB30BC161531E10FF",1,"0198f77d-25e2-7392-939b-a2efe3470d7d","0198f768-e4d2-711c-944b-6f03c09216de","2025-08-29_16h21.19.137",NA,NA,528.068,528.068,528.068,528.418,NA,NA,NA,NA,NA,NA,NA,TRUE,5,1.665,525.074,528.067,NA,NA,NA,NA,NA,21,32,0,18,18,28,1,2,19,"likert"
"CA38010E742E404DB30BC161531E10FF",1,"0198f77d-25e2-7392-939b-a2efe3470d7d","0198f768-e4d2-711c-944b-6f03c09216de","2025-08-29_16h21.19.137",NA,NA,531.417,531.417,531.417,531.766,NA,NA,NA,NA,NA,NA,NA,TRUE,5,1.454,528.424,531.417,NA,NA,NA,NA,NA,60,54,0,19,19,71,1,2,20,"likert"
"CA38010E742E404DB30BC161531E10FF",1,"0198f77d-25e2-7392-939b-a2efe3470d7d","0198f768-e4d2-711c-944b-6f03c09216de","2025-08-29_16h21.19.137",NA,NA,534.767,534.768,534.768,535.116,NA,NA,NA,NA,NA,NA,NA,TRUE,4,1.63,531.772,534.765,NA,NA,NA,NA,NA,10,29,0,20,20,9,1,2,21,"likert"
"CA38010E742E404DB30BC161531E10FF",1,"0198f77d-25e2-7392-939b-a2efe3470d7d","0198f768-e4d2-711c-944b-6f03c09216de","2025-08-29_16h21.19.137",NA,NA,538.115,538.115,538.115,538.465,NA,NA,NA,NA,NA,NA,NA,TRUE,1,1.448,535.118,538.115,NA,NA,NA,NA,NA,40,27,0,21,21,48,1,2,22,"likert"
"CA38010E742E404DB30BC161531E10FF",1,"0198f77d-25e2-7392-939b-a2efe3470d7d","0198f768-e4d2-711c-944b-6f03c09216de","2025-08-29_16h21.19.137",NA,NA,541.482,541.482,541.482,541.815,NA,NA,NA,NA,NA,NA,NA,TRUE,2,1.865,538.469,541.481,NA,NA,NA,NA,NA,90,30,0,22,22,73,1,2,23,"likert"
"CA38010E742E404DB30BC161531E10FF",1,"0198f77d-25e2-7392-939b-a2efe3470d7d","0198f768-e4d2-711c-944b-6f03c09216de","2025-08-29_16h21.19.137",NA,NA,544.831,544.831,544.831,545.181,NA,NA,NA,NA,NA,NA,NA,TRUE,1,2.353,541.818,544.831,NA,NA,NA,NA,NA,100,31,0,23,23,85,1,2,24,"likert"
"CA38010E742E404DB30BC161531E10FF",1,"0198f77d-25e2-7392-939b-a2efe3470d7d","0198f768-e4d2-711c-944b-6f03c09216de","2025-08-29_16h21.19.137",NA,NA,548.181,548.181,548.181,548.53,NA,NA,NA,NA,NA,NA,NA,TRUE,1,1.378,545.183,548.18,NA,NA,NA,NA,NA,28,26,0,24,24,36,1,2,25,"likert"
"CA38010E742E404DB30BC161531E10FF",1,"0198f77d-25e2-7392-939b-a2efe3470d7d","0198f768-e4d2-711c-944b-6f03c09216de","2025-08-29_16h21.19.137",NA,NA,551.53,551.531,551.531,551.88,NA,NA,NA,NA,NA,NA,NA,TRUE,1,1.516,548.532,551.53,NA,NA,NA,NA,NA,180,31,0,25,25,97,1,2,26,"likert"
"CA38010E742E404DB30BC161531E10FF",1,"0198f77d-25e2-7392-939b-a2efe3470d7d","0198f768-e4d2-711c-944b-6f03c09216de","2025-08-29_16h21.19.137",NA,NA,554.88,554.88,554.88,555.23,NA,NA,NA,NA,NA,NA,NA,TRUE,1,1.442,551.884,554.88,NA,NA,NA,NA,NA,200,39,0,26,26,105,1,2,27,"likert"
"CA38010E742E404DB30BC161531E10FF",1,"0198f77d-25e2-7392-939b-a2efe3470d7d","0198f768-e4d2-711c-944b-6f03c09216de","2025-08-29_16h21.19.137",NA,NA,558.232,558.233,558.233,558.579,NA,NA,NA,NA,NA,NA,NA,TRUE,1,1.41,555.233,558.231,NA,NA,NA,NA,NA,10,26,0,27,27,7,1,2,28,"likert"
"CA38010E742E404DB30BC161531E10FF",1,"0198f77d-25e2-7392-939b-a2efe3470d7d","0198f768-e4d2-711c-944b-6f03c09216de","2025-08-29_16h21.19.137",NA,NA,561.582,561.582,561.582,561.931,NA,NA,NA,NA,NA,NA,NA,TRUE,5,1.6,558.593,561.581,NA,NA,NA,NA,NA,7,32,0,28,28,4,1,2,29,"likert"
"CA38010E742E404DB30BC161531E10FF",1,"0198f77d-25e2-7392-939b-a2efe3470d7d","0198f768-e4d2-711c-944b-6f03c09216de","2025-08-29_16h21.19.137",NA,NA,564.93,564.931,564.931,565.279,NA,NA,NA,NA,NA,NA,NA,TRUE,1,1.664,561.935,564.93,NA,NA,NA,NA,NA,10,25,0,29,29,6,1,2,30,"likert"
"CA38010E742E404DB30BC161531E10FF",1,"0198f77d-25e2-7392-939b-a2efe3470d7d","0198f768-e4d2-711c-944b-6f03c09216de","2025-08-29_16h21.19.137",NA,NA,568.266,568.266,568.266,568.629,NA,NA,NA,NA,NA,NA,NA,TRUE,1,1.448,565.284,568.265,NA,NA,NA,NA,NA,150,33,0,30,30,91,1,2,31,"likert"
"CA38010E742E404DB30BC161531E10FF",1,"0198f77d-25e2-7392-939b-a2efe3470d7d","0198f768-e4d2-711c-944b-6f03c09216de","2025-08-29_16h21.19.137",NA,NA,571.628,571.628,571.628,571.968,NA,NA,NA,NA,NA,NA,NA,TRUE,1,1.868,568.636,571.628,NA,NA,NA,NA,NA,95,33,0,31,31,79,1,2,32,"likert"
"CA38010E742E404DB30BC161531E10FF",1,"0198f77d-25e2-7392-939b-a2efe3470d7d","0198f768-e4d2-711c-944b-6f03c09216de","2025-08-29_16h21.19.137",NA,NA,574.978,574.978,574.978,575.328,NA,NA,NA,NA,NA,NA,NA,TRUE,3,2.018,571.97,574.977,NA,NA,NA,NA,NA,30,38,0,32,32,47,1,2,33,"likert"
"CA38010E742E404DB30BC161531E10FF",1,"0198f77d-25e2-7392-939b-a2efe3470d7d","0198f768-e4d2-711c-944b-6f03c09216de","2025-08-29_16h21.19.137",NA,NA,578.327,578.327,578.327,578.677,NA,NA,NA,NA,NA,NA,NA,TRUE,2,1.62,575.331,578.327,NA,NA,NA,NA,NA,150,40,0,33,33,93,1,2,34,"likert"
"CA38010E742E404DB30BC161531E10FF",1,"0198f77d-25e2-7392-939b-a2efe3470d7d","0198f768-e4d2-711c-944b-6f03c09216de","2025-08-29_16h21.19.137",NA,NA,581.677,581.677,581.677,582.027,NA,NA,NA,NA,NA,NA,NA,TRUE,1,2.331,578.681,581.677,NA,NA,NA,NA,NA,28,28,0,34,34,37,1,2,35,"likert"
"CA38010E742E404DB30BC161531E10FF",1,"0198f77d-25e2-7392-939b-a2efe3470d7d","0198f768-e4d2-711c-944b-6f03c09216de","2025-08-29_16h21.19.137",NA,NA,585.026,585.026,585.026,585.384,NA,NA,NA,NA,NA,NA,NA,TRUE,2,1.916,582.029,585.026,NA,NA,NA,NA,NA,90,46,0,35,35,76,1,2,36,"likert"
"CA38010E742E404DB30BC161531E10FF",1,"0198f77d-25e2-7392-939b-a2efe3470d7d","0198f768-e4d2-711c-944b-6f03c09216de","2025-08-29_16h21.19.137",NA,NA,588.366,588.366,588.366,588.731,NA,NA,NA,NA,NA,NA,NA,TRUE,1,1.483,585.387,588.365,NA,NA,NA,NA,NA,50,35,0,36,36,62,1,2,37,"likert"
"CA38010E742E404DB30BC161531E10FF",1,"0198f77d-25e2-7392-939b-a2efe3470d7d","0198f768-e4d2-711c-944b-6f03c09216de","2025-08-29_16h21.19.137",NA,NA,591.725,591.725,591.726,592.076,NA,NA,NA,NA,NA,NA,NA,TRUE,1,1.384,588.74,591.725,NA,NA,NA,NA,NA,21,38,0,37,37,29,1,2,38,"likert"
"CA38010E742E404DB30BC161531E10FF",1,"0198f77d-25e2-7392-939b-a2efe3470d7d","0198f768-e4d2-711c-944b-6f03c09216de","2025-08-29_16h21.19.137",NA,NA,595.076,595.315,595.315,595.431,NA,NA,NA,NA,NA,NA,NA,FALSE,NA,NA,592.081,595.076,NA,NA,NA,NA,NA,40,35,0,38,38,50,1,2,39,"likert"
"CA38010E742E404DB30BC161531E10FF",1,"0198f77d-25e2-7392-939b-a2efe3470d7d","0198f768-e4d2-711c-944b-6f03c09216de","2025-08-29_16h21.19.137",NA,NA,598.426,598.426,598.426,598.775,NA,NA,NA,NA,NA,NA,NA,TRUE,2,1.319,595.436,598.425,NA,NA,NA,NA,NA,180,39,0,39,39,99,1,2,40,"likert"
"CA38010E742E404DB30BC161531E10FF",1,"0198f77d-25e2-7392-939b-a2efe3470d7d","0198f768-e4d2-711c-944b-6f03c09216de","2025-08-29_16h21.19.137",NA,NA,601.776,601.776,601.776,602.124,NA,NA,NA,NA,NA,NA,NA,TRUE,2,1.731,598.78,601.775,NA,NA,NA,NA,NA,60,40,0,40,40,69,1,2,41,"likert"
"CA38010E742E404DB30BC161531E10FF",1,"0198f77d-25e2-7392-939b-a2efe3470d7d","0198f768-e4d2-711c-944b-6f03c09216de","2025-08-29_16h21.19.137",NA,NA,605.124,605.124,605.124,605.474,NA,NA,NA,NA,NA,NA,NA,TRUE,1,1.256,602.128,605.124,NA,NA,NA,NA,NA,12,28,0,41,41,14,1,2,42,"likert"
"CA38010E742E404DB30BC161531E10FF",1,"0198f77d-25e2-7392-939b-a2efe3470d7d","0198f768-e4d2-711c-944b-6f03c09216de","2025-08-29_16h21.19.137",NA,NA,608.476,608.476,608.476,608.823,NA,NA,NA,NA,NA,NA,NA,TRUE,1,1.352,605.477,608.475,NA,NA,NA,NA,NA,7,25,0,42,42,0,1,2,43,"likert"
"CA38010E742E404DB30BC161531E10FF",1,"0198f77d-25e2-7392-939b-a2efe3470d7d","0198f768-e4d2-711c-944b-6f03c09216de","2025-08-29_16h21.19.137",NA,NA,611.823,611.823,611.823,612.173,NA,NA,NA,NA,NA,NA,NA,TRUE,1,1.321,608.825,611.823,NA,NA,NA,NA,NA,200,35,0,43,43,104,1,2,44,"likert"
"CA38010E742E404DB30BC161531E10FF",1,"0198f77d-25e2-7392-939b-a2efe3470d7d","0198f768-e4d2-711c-944b-6f03c09216de","2025-08-29_16h21.19.137",NA,NA,615.173,615.173,615.173,615.522,NA,NA,NA,NA,NA,NA,NA,TRUE,1,1.388,612.176,615.172,NA,NA,NA,NA,NA,12,25,0,44,44,12,1,2,45,"likert"
"CA38010E742E404DB30BC161531E10FF",1,"0198f77d-25e2-7392-939b-a2efe3470d7d","0198f768-e4d2-711c-944b-6f03c09216de","2025-08-29_16h21.19.137",NA,NA,618.511,618.511,618.511,618.877,NA,NA,NA,NA,NA,NA,NA,TRUE,1,1.383,615.525,618.508,NA,NA,NA,NA,NA,25,31,0,45,45,32,1,2,46,"likert"
"CA38010E742E404DB30BC161531E10FF",1,"0198f77d-25e2-7392-939b-a2efe3470d7d","0198f768-e4d2-711c-944b-6f03c09216de","2025-08-29_16h21.19.137",NA,NA,621.872,621.872,621.872,622.221,NA,NA,NA,NA,NA,NA,NA,TRUE,1,1.312,618.893,621.872,NA,NA,NA,NA,NA,50,40,0,46,46,63,1,2,47,"likert"
"CA38010E742E404DB30BC161531E10FF",1,"0198f77d-25e2-7392-939b-a2efe3470d7d","0198f768-e4d2-711c-944b-6f03c09216de","2025-08-29_16h21.19.137",NA,NA,625.222,625.222,625.222,625.571,NA,NA,NA,NA,NA,NA,NA,TRUE,2,1.433,622.226,625.222,NA,NA,NA,NA,NA,95,54,0,47,47,83,1,2,48,"likert"
"CA38010E742E404DB30BC161531E10FF",1,"0198f77d-25e2-7392-939b-a2efe3470d7d","0198f768-e4d2-711c-944b-6f03c09216de","2025-08-29_16h21.19.137",NA,NA,628.575,628.575,628.575,628.921,NA,NA,NA,NA,NA,NA,NA,TRUE,1,1.394,625.576,628.574,NA,NA,NA,NA,NA,25,27,0,48,48,30,1,2,49,"likert"
"CA38010E742E404DB30BC161531E10FF",1,"0198f77d-25e2-7392-939b-a2efe3470d7d","0198f768-e4d2-711c-944b-6f03c09216de","2025-08-29_16h21.19.137",NA,NA,631.921,631.921,631.921,632.265,NA,NA,NA,NA,NA,NA,NA,TRUE,2,1.307,628.927,631.921,NA,NA,NA,NA,NA,180,46,0,49,49,100,1,2,50,"likert"
"CA38010E742E404DB30BC161531E10FF",1,"0198f77d-25e2-7392-939b-a2efe3470d7d","0198f768-e4d2-711c-944b-6f03c09216de","2025-08-29_16h21.19.137",NA,NA,635.27,635.27,635.27,635.619,NA,NA,NA,NA,NA,NA,NA,TRUE,1,1.344,632.267,635.269,NA,NA,NA,NA,NA,100,54,0,50,50,89,1,2,51,"likert"
"CA38010E742E404DB30BC161531E10FF",1,"0198f77d-25e2-7392-939b-a2efe3470d7d","0198f768-e4d2-711c-944b-6f03c09216de","2025-08-29_16h21.19.137",NA,NA,638.618,638.619,638.619,638.969,NA,NA,NA,NA,NA,NA,NA,TRUE,1,1.437,635.624,638.618,NA,NA,NA,NA,NA,150,31,0,51,51,90,1,2,52,"likert"
"CA38010E742E404DB30BC161531E10FF",1,"0198f77d-25e2-7392-939b-a2efe3470d7d","0198f768-e4d2-711c-944b-6f03c09216de","2025-08-29_16h21.19.137",NA,NA,641.97,641.97,641.97,642.319,NA,NA,NA,NA,NA,NA,NA,TRUE,1,1.359,638.972,641.969,NA,NA,NA,NA,NA,50,30,0,52,52,61,1,2,53,"likert"
"CA38010E742E404DB30BC161531E10FF",1,"0198f77d-25e2-7392-939b-a2efe3470d7d","0198f768-e4d2-711c-944b-6f03c09216de","2025-08-29_16h21.19.137",NA,NA,645.32,645.32,645.32,645.668,NA,NA,NA,NA,NA,NA,NA,TRUE,3,1.494,642.323,645.319,NA,NA,NA,NA,NA,60,47,0,53,53,70,1,2,54,"likert"
"CA38010E742E404DB30BC161531E10FF",1,"0198f77d-25e2-7392-939b-a2efe3470d7d","0198f768-e4d2-711c-944b-6f03c09216de","2025-08-29_16h21.19.137",NA,NA,648.668,648.668,648.668,649.023,NA,NA,NA,NA,NA,NA,NA,TRUE,1,1.172,645.676,648.668,NA,NA,NA,NA,NA,90,54,0,54,54,77,1,2,55,"likert"
"CA38010E742E404DB30BC161531E10FF",1,"0198f77d-25e2-7392-939b-a2efe3470d7d","0198f768-e4d2-711c-944b-6f03c09216de","2025-08-29_16h21.19.137",NA,NA,652.019,652.019,652.019,652.367,NA,NA,NA,NA,NA,NA,NA,TRUE,1,1.505,649.025,652.017,NA,NA,NA,NA,NA,95,40,0,55,55,81,1,2,56,"likert"
"CA38010E742E404DB30BC161531E10FF",1,"0198f77d-25e2-7392-939b-a2efe3470d7d","0198f768-e4d2-711c-944b-6f03c09216de","2025-08-29_16h21.19.137",NA,NA,655.367,655.367,655.367,655.716,NA,NA,NA,NA,NA,NA,NA,TRUE,2,1.666,652.381,655.367,NA,NA,NA,NA,NA,90,26,0,56,56,72,1,2,57,"likert"
"CA38010E742E404DB30BC161531E10FF",1,"0198f77d-25e2-7392-939b-a2efe3470d7d","0198f768-e4d2-711c-944b-6f03c09216de","2025-08-29_16h21.19.137",NA,NA,658.716,658.716,658.717,659.066,NA,NA,NA,NA,NA,NA,NA,TRUE,2,2.88,655.721,658.716,NA,NA,NA,NA,NA,21,26,0,57,57,24,1,2,58,"likert"
"CA38010E742E404DB30BC161531E10FF",1,"0198f77d-25e2-7392-939b-a2efe3470d7d","0198f768-e4d2-711c-944b-6f03c09216de","2025-08-29_16h21.19.137",NA,NA,662.066,662.066,662.066,662.417,NA,NA,NA,NA,NA,NA,NA,TRUE,3,1.468,659.07,662.066,NA,NA,NA,NA,NA,45,46,0,58,58,59,1,2,59,"likert"
"CA38010E742E404DB30BC161531E10FF",1,"0198f77d-25e2-7392-939b-a2efe3470d7d","0198f768-e4d2-711c-944b-6f03c09216de","2025-08-29_16h21.19.137",NA,NA,665.416,665.416,665.416,665.766,NA,NA,NA,NA,NA,NA,NA,TRUE,1,1.15,662.42,665.416,NA,NA,NA,NA,NA,150,35,0,59,59,92,1,2,60,"likert"
"CA38010E742E404DB30BC161531E10FF",1,"0198f77d-25e2-7392-939b-a2efe3470d7d","0198f768-e4d2-711c-944b-6f03c09216de","2025-08-29_16h21.19.137",NA,NA,668.765,668.765,668.765,669.132,NA,NA,NA,NA,NA,NA,NA,TRUE,2,2.131,665.769,668.765,NA,NA,NA,NA,NA,25,46,0,60,60,35,1,2,61,"likert"
"CA38010E742E404DB30BC161531E10FF",1,"0198f77d-25e2-7392-939b-a2efe3470d7d","0198f768-e4d2-711c-944b-6f03c09216de","2025-08-29_16h21.19.137",NA,NA,672.132,672.132,672.132,672.481,NA,NA,NA,NA,NA,NA,NA,TRUE,1,1.217,669.137,672.131,NA,NA,NA,NA,NA,90,40,0,61,61,75,1,2,62,"likert"
"CA38010E742E404DB30BC161531E10FF",1,"0198f77d-25e2-7392-939b-a2efe3470d7d","0198f768-e4d2-711c-944b-6f03c09216de","2025-08-29_16h21.19.137",NA,NA,675.48,675.48,675.48,675.819,NA,NA,NA,NA,NA,NA,NA,TRUE,1,1.482,672.483,675.48,NA,NA,NA,NA,NA,180,35,0,62,62,98,1,2,63,"likert"
"CA38010E742E404DB30BC161531E10FF",1,"0198f77d-25e2-7392-939b-a2efe3470d7d","0198f768-e4d2-711c-944b-6f03c09216de","2025-08-29_16h21.19.137",NA,NA,678.831,678.831,678.831,679.181,NA,NA,NA,NA,NA,NA,NA,TRUE,1,1.99,675.822,678.83,NA,NA,NA,NA,NA,10,27,0,63,63,8,1,2,64,"likert"
"CA38010E742E404DB30BC161531E10FF",1,"0198f77d-25e2-7392-939b-a2efe3470d7d","0198f768-e4d2-711c-944b-6f03c09216de","2025-08-29_16h21.19.137",NA,NA,682.171,682.171,682.171,682.534,NA,NA,NA,NA,NA,NA,NA,TRUE,1,2.427,679.183,682.169,NA,NA,NA,NA,NA,14,25,0,64,64,18,1,2,65,"likert"
"CA38010E742E404DB30BC161531E10FF",1,"0198f77d-25e2-7392-939b-a2efe3470d7d","0198f768-e4d2-711c-944b-6f03c09216de","2025-08-29_16h21.19.137",NA,NA,685.518,685.518,685.518,685.867,NA,NA,NA,NA,NA,NA,NA,TRUE,1,1.19,682.544,685.518,NA,NA,NA,NA,NA,100,26,0,65,65,84,1,2,66,"likert"
"CA38010E742E404DB30BC161531E10FF",1,"0198f77d-25e2-7392-939b-a2efe3470d7d","0198f768-e4d2-711c-944b-6f03c09216de","2025-08-29_16h21.19.137",NA,NA,688.884,688.884,688.884,689.216,NA,NA,NA,NA,NA,NA,NA,TRUE,4,1.477,685.87,688.882,NA,NA,NA,NA,NA,28,46,0,66,66,41,1,2,67,"likert"
"CA38010E742E404DB30BC161531E10FF",1,"0198f77d-25e2-7392-939b-a2efe3470d7d","0198f768-e4d2-711c-944b-6f03c09216de","2025-08-29_16h21.19.137",NA,NA,692.229,692.229,692.23,692.578,NA,NA,NA,NA,NA,NA,NA,TRUE,1,1.363,689.22,692.229,NA,NA,NA,NA,NA,100,39,0,67,67,87,1,2,68,"likert"
"CA38010E742E404DB30BC161531E10FF",1,"0198f77d-25e2-7392-939b-a2efe3470d7d","0198f768-e4d2-711c-944b-6f03c09216de","2025-08-29_16h21.19.137",NA,NA,695.579,695.579,695.579,695.928,NA,NA,NA,NA,NA,NA,NA,TRUE,1,1.359,692.584,695.578,NA,NA,NA,NA,NA,21,30,0,68,68,27,1,2,69,"likert"
"CA38010E742E404DB30BC161531E10FF",1,"0198f77d-25e2-7392-939b-a2efe3470d7d","0198f768-e4d2-711c-944b-6f03c09216de","2025-08-29_16h21.19.137",NA,NA,698.928,698.928,698.928,699.278,NA,NA,NA,NA,NA,NA,NA,TRUE,1,1.304,695.931,698.927,NA,NA,NA,NA,NA,100,46,0,69,69,88,1,2,70,"likert"
"CA38010E742E404DB30BC161531E10FF",1,"0198f77d-25e2-7392-939b-a2efe3470d7d","0198f768-e4d2-711c-944b-6f03c09216de","2025-08-29_16h21.19.137",NA,NA,702.277,702.277,702.277,702.627,NA,NA,NA,NA,NA,NA,NA,TRUE,1,1.286,699.283,702.277,NA,NA,NA,NA,NA,100,38,0,70,70,86,1,2,71,"likert"
"CA38010E742E404DB30BC161531E10FF",1,"0198f77d-25e2-7392-939b-a2efe3470d7d","0198f768-e4d2-711c-944b-6f03c09216de","2025-08-29_16h21.19.137",NA,NA,705.626,705.626,705.626,705.976,NA,NA,NA,NA,NA,NA,NA,TRUE,1,1.2,702.631,705.626,NA,NA,NA,NA,NA,28,39,0,71,71,40,1,2,72,"likert"
"CA38010E742E404DB30BC161531E10FF",1,"0198f77d-25e2-7392-939b-a2efe3470d7d","0198f768-e4d2-711c-944b-6f03c09216de","2025-08-29_16h21.19.137",NA,NA,708.977,708.977,708.977,709.315,NA,NA,NA,NA,NA,NA,NA,TRUE,1,1.161,705.981,708.977,NA,NA,NA,NA,NA,95,31,0,72,72,78,1,2,73,"likert"
"CA38010E742E404DB30BC161531E10FF",1,"0198f77d-25e2-7392-939b-a2efe3470d7d","0198f768-e4d2-711c-944b-6f03c09216de","2025-08-29_16h21.19.137",NA,NA,712.328,712.328,712.329,712.676,NA,NA,NA,NA,NA,NA,NA,TRUE,1,1.623,709.32,712.326,NA,NA,NA,NA,NA,45,35,0,73,73,57,1,2,74,"likert"
"CA38010E742E404DB30BC161531E10FF",1,"0198f77d-25e2-7392-939b-a2efe3470d7d","0198f768-e4d2-711c-944b-6f03c09216de","2025-08-29_16h21.19.137",NA,NA,715.676,715.677,715.677,716.026,NA,NA,NA,NA,NA,NA,NA,TRUE,1,2.389,712.688,715.676,NA,NA,NA,NA,NA,14,32,0,74,74,21,1,2,75,"likert"
"CA38010E742E404DB30BC161531E10FF",1,"0198f77d-25e2-7392-939b-a2efe3470d7d","0198f768-e4d2-711c-944b-6f03c09216de","2025-08-29_16h21.19.137",NA,NA,719.026,719.026,719.026,719.367,NA,NA,NA,NA,NA,NA,NA,TRUE,1,1.538,716.032,719.026,NA,NA,NA,NA,NA,21,27,0,75,75,25,1,2,76,"likert"
"CA38010E742E404DB30BC161531E10FF",1,"0198f77d-25e2-7392-939b-a2efe3470d7d","0198f768-e4d2-711c-944b-6f03c09216de","2025-08-29_16h21.19.137",NA,NA,722.374,722.374,722.374,722.726,NA,NA,NA,NA,NA,NA,NA,TRUE,1,1.183,719.369,722.374,NA,NA,NA,NA,NA,200,28,0,76,76,103,1,2,77,"likert"
"CA38010E742E404DB30BC161531E10FF",1,"0198f77d-25e2-7392-939b-a2efe3470d7d","0198f768-e4d2-711c-944b-6f03c09216de","2025-08-29_16h21.19.137",NA,NA,725.725,725.725,725.725,726.076,NA,NA,NA,NA,NA,NA,NA,TRUE,2,1.437,722.729,725.724,NA,NA,NA,NA,NA,40,40,0,77,77,51,1,2,78,"likert"
"CA38010E742E404DB30BC161531E10FF",1,"0198f77d-25e2-7392-939b-a2efe3470d7d","0198f768-e4d2-711c-944b-6f03c09216de","2025-08-29_16h21.19.137",NA,NA,729.071,729.071,729.071,729.423,NA,NA,NA,NA,NA,NA,NA,TRUE,4,1.835,726.079,729.07,NA,NA,NA,NA,NA,12,35,0,78,78,17,1,2,79,"likert"
"CA38010E742E404DB30BC161531E10FF",1,"0198f77d-25e2-7392-939b-a2efe3470d7d","0198f768-e4d2-711c-944b-6f03c09216de","2025-08-29_16h21.19.137",NA,NA,732.438,732.438,732.438,732.774,NA,NA,NA,NA,NA,NA,NA,TRUE,2,1.53,729.425,732.438,NA,NA,NA,NA,NA,45,31,0,79,79,56,1,2,80,"likert"
"CA38010E742E404DB30BC161531E10FF",1,"0198f77d-25e2-7392-939b-a2efe3470d7d","0198f768-e4d2-711c-944b-6f03c09216de","2025-08-29_16h21.19.137",NA,NA,735.777,736.027,736.028,736.127,NA,NA,NA,NA,NA,NA,NA,FALSE,NA,NA,732.775,735.777,NA,NA,NA,NA,NA,14,35,0,80,80,22,1,2,81,"likert"
"CA38010E742E404DB30BC161531E10FF",1,"0198f77d-25e2-7392-939b-a2efe3470d7d","0198f768-e4d2-711c-944b-6f03c09216de","2025-08-29_16h21.19.137",NA,NA,739.129,739.13,739.13,739.476,NA,NA,NA,NA,NA,NA,NA,TRUE,1,1.7,736.132,739.127,NA,NA,NA,NA,NA,200,54,0,81,81,107,1,2,82,"likert"
"CA38010E742E404DB30BC161531E10FF",1,"0198f77d-25e2-7392-939b-a2efe3470d7d","0198f768-e4d2-711c-944b-6f03c09216de","2025-08-29_16h21.19.137",NA,NA,742.472,742.472,742.472,742.821,NA,NA,NA,NA,NA,NA,NA,TRUE,2,1.792,739.478,742.472,NA,NA,NA,NA,NA,28,35,0,82,82,39,1,2,83,"likert"
"CA38010E742E404DB30BC161531E10FF",1,"0198f77d-25e2-7392-939b-a2efe3470d7d","0198f768-e4d2-711c-944b-6f03c09216de","2025-08-29_16h21.19.137",NA,NA,745.816,745.816,745.816,746.173,NA,NA,NA,NA,NA,NA,NA,TRUE,2,1.594,742.823,745.815,NA,NA,NA,NA,NA,21,29,0,83,83,26,1,2,84,"likert"
"CA38010E742E404DB30BC161531E10FF",1,"0198f77d-25e2-7392-939b-a2efe3470d7d","0198f768-e4d2-711c-944b-6f03c09216de","2025-08-29_16h21.19.137",NA,NA,749.171,749.172,749.172,749.517,NA,NA,NA,NA,NA,NA,NA,TRUE,1,1.289,746.186,749.171,NA,NA,NA,NA,NA,30,27,0,84,84,43,1,2,85,"likert"
"CA38010E742E404DB30BC161531E10FF",1,"0198f77d-25e2-7392-939b-a2efe3470d7d","0198f768-e4d2-711c-944b-6f03c09216de","2025-08-29_16h21.19.137",NA,NA,752.521,752.521,752.521,752.87,NA,NA,NA,NA,NA,NA,NA,TRUE,1,1.48,749.525,752.521,NA,NA,NA,NA,NA,50,46,0,85,85,64,1,2,86,"likert"
"CA38010E742E404DB30BC161531E10FF",1,"0198f77d-25e2-7392-939b-a2efe3470d7d","0198f768-e4d2-711c-944b-6f03c09216de","2025-08-29_16h21.19.137",NA,NA,755.873,755.874,755.875,756.221,NA,NA,NA,NA,NA,NA,NA,TRUE,1,1.371,752.873,755.873,NA,NA,NA,NA,NA,25,33,0,86,86,33,1,2,87,"likert"
"CA38010E742E404DB30BC161531E10FF",1,"0198f77d-25e2-7392-939b-a2efe3470d7d","0198f768-e4d2-711c-944b-6f03c09216de","2025-08-29_16h21.19.137",NA,NA,759.22,759.221,759.221,759.57,NA,NA,NA,NA,NA,NA,NA,TRUE,1,1.344,756.228,759.22,NA,NA,NA,NA,NA,28,32,0,87,87,38,1,2,88,"likert"
"CA38010E742E404DB30BC161531E10FF",1,"0198f77d-25e2-7392-939b-a2efe3470d7d","0198f768-e4d2-711c-944b-6f03c09216de","2025-08-29_16h21.19.137",NA,NA,762.578,762.578,762.578,762.924,NA,NA,NA,NA,NA,NA,NA,TRUE,1,1.608,759.572,762.578,NA,NA,NA,NA,NA,30,32,0,88,88,46,1,2,89,"likert"
"CA38010E742E404DB30BC161531E10FF",1,"0198f77d-25e2-7392-939b-a2efe3470d7d","0198f768-e4d2-711c-944b-6f03c09216de","2025-08-29_16h21.19.137",NA,NA,765.919,765.919,765.919,766.269,NA,NA,NA,NA,NA,NA,NA,TRUE,2,1.463,762.926,765.919,NA,NA,NA,NA,NA,200,47,0,89,89,106,1,2,90,"likert"
"CA38010E742E404DB30BC161531E10FF",1,"0198f77d-25e2-7392-939b-a2efe3470d7d","0198f768-e4d2-711c-944b-6f03c09216de","2025-08-29_16h21.19.137",NA,NA,769.269,769.269,769.269,769.618,NA,NA,NA,NA,NA,NA,NA,TRUE,1,1.365,766.273,769.268,NA,NA,NA,NA,NA,25,29,0,90,90,31,1,2,91,"likert"
"CA38010E742E404DB30BC161531E10FF",1,"0198f77d-25e2-7392-939b-a2efe3470d7d","0198f768-e4d2-711c-944b-6f03c09216de","2025-08-29_16h21.19.137",NA,NA,772.618,772.618,772.618,772.967,NA,NA,NA,NA,NA,NA,NA,TRUE,1,1.182,769.621,772.618,NA,NA,NA,NA,NA,12,31,0,91,91,15,1,2,92,"likert"
"CA38010E742E404DB30BC161531E10FF",1,"0198f77d-25e2-7392-939b-a2efe3470d7d","0198f768-e4d2-711c-944b-6f03c09216de","2025-08-29_16h21.19.137",NA,NA,775.968,775.968,775.968,776.32,NA,NA,NA,NA,NA,NA,NA,TRUE,3,1.803,772.972,775.968,NA,NA,NA,NA,NA,12,33,0,92,92,16,1,2,93,"likert"
"CA38010E742E404DB30BC161531E10FF",1,"0198f77d-25e2-7392-939b-a2efe3470d7d","0198f768-e4d2-711c-944b-6f03c09216de","2025-08-29_16h21.19.137",NA,NA,779.317,779.317,779.317,779.667,NA,NA,NA,NA,NA,NA,NA,TRUE,1,1.316,776.323,779.317,NA,NA,NA,NA,NA,60,33,0,93,93,67,1,2,94,"likert"
"CA38010E742E404DB30BC161531E10FF",1,"0198f77d-25e2-7392-939b-a2efe3470d7d","0198f768-e4d2-711c-944b-6f03c09216de","2025-08-29_16h21.19.137",NA,NA,782.668,782.669,782.669,783.017,NA,NA,NA,NA,NA,NA,NA,TRUE,5,1.593,779.672,782.668,NA,NA,NA,NA,NA,7,30,0,94,94,3,1,2,95,"likert"
"CA38010E742E404DB30BC161531E10FF",1,"0198f77d-25e2-7392-939b-a2efe3470d7d","0198f768-e4d2-711c-944b-6f03c09216de","2025-08-29_16h21.19.137",NA,NA,786.016,786.016,786.017,786.367,NA,NA,NA,NA,NA,NA,NA,TRUE,1,1.58,783.032,786.016,NA,NA,NA,NA,NA,45,26,0,95,95,54,1,2,96,"likert"
"CA38010E742E404DB30BC161531E10FF",1,"0198f77d-25e2-7392-939b-a2efe3470d7d","0198f768-e4d2-711c-944b-6f03c09216de","2025-08-29_16h21.19.137",NA,NA,789.366,789.366,789.366,789.716,NA,NA,NA,NA,NA,NA,NA,TRUE,2,1.868,786.375,789.366,NA,NA,NA,NA,NA,150,47,0,96,96,94,1,2,97,"likert"
"CA38010E742E404DB30BC161531E10FF",1,"0198f77d-25e2-7392-939b-a2efe3470d7d","0198f768-e4d2-711c-944b-6f03c09216de","2025-08-29_16h21.19.137",NA,NA,792.717,792.717,792.717,793.066,NA,NA,NA,NA,NA,NA,NA,TRUE,2,1.68,789.721,792.716,NA,NA,NA,NA,NA,7,28,0,97,97,2,1,2,98,"likert"
"CA38010E742E404DB30BC161531E10FF",1,"0198f77d-25e2-7392-939b-a2efe3470d7d","0198f768-e4d2-711c-944b-6f03c09216de","2025-08-29_16h21.19.137",NA,NA,796.065,796.066,796.066,796.415,NA,NA,NA,NA,NA,NA,NA,TRUE,5,1.483,793.073,796.065,NA,NA,NA,NA,NA,7,35,0,98,98,5,1,2,99,"likert"
"CA38010E742E404DB30BC161531E10FF",1,"0198f77d-25e2-7392-939b-a2efe3470d7d","0198f768-e4d2-711c-944b-6f03c09216de","2025-08-29_16h21.19.137",NA,NA,799.415,799.415,799.415,799.765,NA,NA,NA,NA,NA,NA,NA,TRUE,2,1.326,796.417,799.415,NA,NA,NA,NA,NA,14,28,0,99,99,20,1,2,100,"likert"
"CA38010E742E404DB30BC161531E10FF",1,"0198f77d-25e2-7392-939b-a2efe3470d7d","0198f768-e4d2-711c-944b-6f03c09216de","2025-08-29_16h21.19.137",NA,NA,802.78,802.781,802.781,803.131,NA,NA,NA,NA,NA,NA,NA,TRUE,2,1.276,799.767,802.78,NA,NA,NA,NA,NA,45,40,0,100,100,58,1,2,101,"likert"
"CA38010E742E404DB30BC161531E10FF",1,"0198f77d-25e2-7392-939b-a2efe3470d7d","0198f768-e4d2-711c-944b-6f03c09216de","2025-08-29_16h21.19.137",NA,NA,806.131,806.131,806.131,806.48,NA,NA,NA,NA,NA,NA,NA,TRUE,1,1.576,803.133,806.13,NA,NA,NA,NA,NA,90,33,0,101,101,74,1,2,102,"likert"
"CA38010E742E404DB30BC161531E10FF",1,"0198f77d-25e2-7392-939b-a2efe3470d7d","0198f768-e4d2-711c-944b-6f03c09216de","2025-08-29_16h21.19.137",NA,NA,809.481,809.481,809.481,809.83,NA,NA,NA,NA,NA,NA,NA,TRUE,1,1.445,806.483,809.48,NA,NA,NA,NA,NA,30,29,0,102,102,44,1,2,103,"likert"
"CA38010E742E404DB30BC161531E10FF",1,"0198f77d-25e2-7392-939b-a2efe3470d7d","0198f768-e4d2-711c-944b-6f03c09216de","2025-08-29_16h21.19.137",NA,NA,812.83,812.83,812.83,813.18,NA,NA,NA,NA,NA,NA,NA,TRUE,1,1.01,809.832,812.83,NA,NA,NA,NA,NA,150,54,0,103,103,95,1,2,104,"likert"
"CA38010E742E404DB30BC161531E10FF",1,"0198f77d-25e2-7392-939b-a2efe3470d7d","0198f768-e4d2-711c-944b-6f03c09216de","2025-08-29_16h21.19.137",NA,NA,816.179,816.179,816.18,816.53,NA,NA,NA,NA,NA,NA,NA,TRUE,1,1.02,813.182,816.177,NA,NA,NA,NA,NA,25,35,0,104,104,34,1,2,105,"likert"
"CA38010E742E404DB30BC161531E10FF",1,"0198f77d-25e2-7392-939b-a2efe3470d7d","0198f768-e4d2-711c-944b-6f03c09216de","2025-08-29_16h21.19.137",NA,NA,819.517,819.517,819.517,819.879,NA,NA,NA,NA,NA,NA,NA,TRUE,1,1.068,816.548,819.516,NA,NA,NA,NA,NA,40,54,0,105,105,53,1,2,106,"likert"
"CA38010E742E404DB30BC161531E10FF",1,"0198f77d-25e2-7392-939b-a2efe3470d7d","0198f768-e4d2-711c-944b-6f03c09216de","2025-08-29_16h21.19.137",NA,NA,822.879,822.879,822.879,823.228,NA,NA,NA,NA,NA,NA,NA,TRUE,3,1.789,819.885,822.878,NA,NA,NA,NA,NA,50,54,0,106,106,65,1,2,107,"likert"
"CA38010E742E404DB30BC161531E10FF",1,"0198f77d-25e2-7392-939b-a2efe3470d7d","0198f768-e4d2-711c-944b-6f03c09216de","2025-08-29_16h21.19.137",NA,NA,826.228,826.229,826.229,826.577,NA,NA,NA,NA,NA,NA,NA,TRUE,1,1.453,823.234,826.228,NA,NA,NA,NA,NA,95,35,0,107,107,80,1,2,108,"likert"
