"participant","session","assignmentId","projectId","date","practiceTrial.started","practiceTrial.stopped","tooLate.started","tooLate.stopped","blank.started","blank.stopped","trials_pract.thisRepN","trials_pract.thisTrialN","trials_pract.thisN","trials_pract.thisIndex","trials_pract.ran","delay_pract","amount_pract","responseMade","key","rt","trial.started","trial.stopped","trials.thisRepN","trials.thisTrialN","trials.thisN","trials.thisIndex","trials.ran","delay","amount","trials_2.thisRepN","trials_2.thisTrialN","trials_2.thisN","trials_2.thisIndex","trials_2.ran","block","trial","taskType"
"D1DB52035DA44D2299EF920A5BE63D37",1,"0198f77d-f496-7c8e-876d-5439001ccddc","0198f768-e4d2-711c-944b-6f03c09216de","2025-08-29_15h21.50.492",35.703,38.692,38.692,38.942,38.942,39.041,0,0,0,4,1,30,40,FALSE,NA,NA,NA,NA,NA,NA,NA,NA,NA,NA,NA,NA,NA,NA,NA,NA,0,1,"likert"
"D1DB52035DA44D2299EF920A5BE63D37",1,"0198f77d-f496-7c8e-876d-5439001ccddc","0198f768-e4d2-711c-944b-6f03c09216de","2025-08-29_15h21.50.492",39.042,42.027,42.028,42.028,42.028,42.377,0,1,1,0,1,7,30,TRUE,2,1.677,NA,NA,NA,NA,NA,NA,NA,NA,NA,NA,NA,NA,NA,NA,0,2,"likert"
"D1DB52035DA44D2299EF920A5BE63D37",1,"0198f77d-f496-7c8e-876d-5439001ccddc","0198f768-e4d2-711c-944b-6f03c09216de","2025-08-29_15h21.50.492",42.378,45.38,45.38,45.38,45.38,45.73,0,2,2,1,1,100,50,TRUE,5,2.028,NA,NA,NA,NA,NA,NA,NA,NA,NA,NA,NA,NA,NA,NA,0,3,"likert"
"D1DB52035DA44D2299EF920A5BE63D37",1,"0198f77d-f496-7c8e-876d-5439001ccddc","0198f768-e4d2-711c-944b-6f03c09216de","2025-08-29_15h21.50.492",45.731,48.731,48.731,48.731,48.731,49.083,0,3,3,2,1,14,45,TRUE,2,1.621,NA,NA,NA,NA,NA,NA,NA,NA,NA,NA,NA,NA,NA,NA,0,4,"likert"
"D1DB52035DA44D2299EF920A5BE63D37",1,"0198f77d-f496-7c8e-876d-5439001ccddc","0198f768-e4d2-711c-944b-6f03c09216de","2025-08-29_15h21.50.492",49.083,52.084,52.084,52.084,52.084,52.434,0,4,4,3,1,3,27,TRUE,1,2.367,NA,NA,NA,NA,NA,NA,NA,NA,NA,NA,NA,NA,NA,NA,0,5,"likert"
"D1DB52035DA44D2299EF920A5BE63D37",1,"0198f77d-f496-7c8e-876d-5439001ccddc","0198f768-e4d2-711c-944b-6f03c09216de","2025-08-29_15h21.50.492",NA,NA,102.687,102.687,102.687,103.036,NA,NA,NA,NA,NA,NA,NA,TRUE,1,1.092,99.7,102.687,0,0,0,1,1,7,26,NA,NA,NA,NA,NA,1,1,"likert"
"D1DB52035DA44D2299EF920A5BE63D37",1,"0198f77d-f496-7c8e-876d-5439001ccddc","0198f768-e4d2-711c-944b-6f03c09216de","2025-08-29_15h21.50.492",NA,NA,106.04,106.04,106.04,106.373,NA,NA,NA,NA,NA,NA,NA,TRUE,3,2.634,103.038,106.04,0,1,1,62,1,50,35,NA,NA,NA,NA,NA,1,2,"likert"
"D1DB52035DA44D2299EF920A5BE63D37",1,"0198f77d-f496-7c8e-876d-5439001ccddc","0198f768-e4d2-711c-944b-6f03c09216de","2025-08-29_15h21.50.492",NA,NA,109.375,109.375,109.375,109.726,NA,NA,NA,NA,NA,NA,NA,TRUE,3,1.679,106.375,109.374,0,2,2,88,1,100,46,NA,NA,NA,NA,NA,1,3,"likert"
"D1DB52035DA44D2299EF920A5BE63D37",1,"0198f77d-f496-7c8e-876d-5439001ccddc","0198f768-e4d2-711c-944b-6f03c09216de","2025-08-29_15h21.50.492",NA,NA,112.727,112.727,112.727,113.077,NA,NA,NA,NA,NA,NA,NA,TRUE,2,2.391,109.727,112.727,0,3,3,40,1,28,39,NA,NA,NA,NA,NA,1,4,"likert"
"D1DB52035DA44D2299EF920A5BE63D37",1,"0198f77d-f496-7c8e-876d-5439001ccddc","0198f768-e4d2-711c-944b-6f03c09216de","2025-08-29_15h21.50.492",NA,NA,116.08,116.08,116.081,116.43,NA,NA,NA,NA,NA,NA,NA,TRUE,2,2.609,113.078,116.08,0,4,4,91,1,150,33,NA,NA,NA,NA,NA,1,5,"likert"
"D1DB52035DA44D2299EF920A5BE63D37",1,"0198f77d-f496-7c8e-876d-5439001ccddc","0198f768-e4d2-711c-944b-6f03c09216de","2025-08-29_15h21.50.492",NA,NA,119.433,119.433,119.433,119.783,NA,NA,NA,NA,NA,NA,NA,TRUE,1,1.781,116.431,119.433,0,5,5,44,1,30,29,NA,NA,NA,NA,NA,1,6,"likert"
"D1DB52035DA44D2299EF920A5BE63D37",1,"0198f77d-f496-7c8e-876d-5439001ccddc","0198f768-e4d2-711c-944b-6f03c09216de","2025-08-29_15h21.50.492",NA,NA,122.785,122.786,122.786,123.134,NA,NA,NA,NA,NA,NA,NA,TRUE,4,1.7,119.783,122.785,0,6,6,3,1,7,30,NA,NA,NA,NA,NA,1,7,"likert"
"D1DB52035DA44D2299EF920A5BE63D37",1,"0198f77d-f496-7c8e-876d-5439001ccddc","0198f768-e4d2-711c-944b-6f03c09216de","2025-08-29_15h21.50.492",NA,NA,126.136,126.136,126.136,126.487,NA,NA,NA,NA,NA,NA,NA,TRUE,4,2.025,123.137,126.136,0,7,7,2,1,7,28,NA,NA,NA,NA,NA,1,8,"likert"
"D1DB52035DA44D2299EF920A5BE63D37",1,"0198f77d-f496-7c8e-876d-5439001ccddc","0198f768-e4d2-711c-944b-6f03c09216de","2025-08-29_15h21.50.492",NA,NA,129.489,129.723,129.723,129.84,NA,NA,NA,NA,NA,NA,NA,FALSE,NA,NA,126.488,129.489,0,8,8,78,1,95,31,NA,NA,NA,NA,NA,1,9,"likert"
"D1DB52035DA44D2299EF920A5BE63D37",1,"0198f77d-f496-7c8e-876d-5439001ccddc","0198f768-e4d2-711c-944b-6f03c09216de","2025-08-29_15h21.50.492",NA,NA,132.824,132.824,132.824,133.175,NA,NA,NA,NA,NA,NA,NA,TRUE,3,1.608,129.84,132.824,0,9,9,41,1,28,46,NA,NA,NA,NA,NA,1,10,"likert"
"D1DB52035DA44D2299EF920A5BE63D37",1,"0198f77d-f496-7c8e-876d-5439001ccddc","0198f768-e4d2-711c-944b-6f03c09216de","2025-08-29_15h21.50.492",NA,NA,136.178,136.178,136.178,136.527,NA,NA,NA,NA,NA,NA,NA,TRUE,2,1.697,133.177,136.178,0,10,10,98,1,180,35,NA,NA,NA,NA,NA,1,11,"likert"
"D1DB52035DA44D2299EF920A5BE63D37",1,"0198f77d-f496-7c8e-876d-5439001ccddc","0198f768-e4d2-711c-944b-6f03c09216de","2025-08-29_15h21.50.492",NA,NA,139.53,139.53,139.53,139.88,NA,NA,NA,NA,NA,NA,NA,TRUE,4,1.897,136.527,139.53,0,11,11,65,1,50,54,NA,NA,NA,NA,NA,1,12,"likert"
"D1DB52035DA44D2299EF920A5BE63D37",1,"0198f77d-f496-7c8e-876d-5439001ccddc","0198f768-e4d2-711c-944b-6f03c09216de","2025-08-29_15h21.50.492",NA,NA,142.883,142.883,142.883,143.232,NA,NA,NA,NA,NA,NA,NA,TRUE,4,0.347,139.881,142.882,0,12,12,103,1,200,28,NA,NA,NA,NA,NA,1,13,"likert"
"D1DB52035DA44D2299EF920A5BE63D37",1,"0198f77d-f496-7c8e-876d-5439001ccddc","0198f768-e4d2-711c-944b-6f03c09216de","2025-08-29_15h21.50.492",NA,NA,146.235,146.235,146.235,146.584,NA,NA,NA,NA,NA,NA,NA,TRUE,3,1.548,143.233,146.235,0,13,13,12,1,12,25,NA,NA,NA,NA,NA,1,14,"likert"
"D1DB52035DA44D2299EF920A5BE63D37",1,"0198f77d-f496-7c8e-876d-5439001ccddc","0198f768-e4d2-711c-944b-6f03c09216de","2025-08-29_15h21.50.492",NA,NA,149.586,149.586,149.586,149.937,NA,NA,NA,NA,NA,NA,NA,TRUE,4,2.182,146.585,149.586,0,14,14,20,1,14,28,NA,NA,NA,NA,NA,1,15,"likert"
"D1DB52035DA44D2299EF920A5BE63D37",1,"0198f77d-f496-7c8e-876d-5439001ccddc","0198f768-e4d2-711c-944b-6f03c09216de","2025-08-29_15h21.50.492",NA,NA,152.94,152.94,152.94,153.289,NA,NA,NA,NA,NA,NA,NA,TRUE,2,1.384,149.938,152.939,0,15,15,105,1,200,39,NA,NA,NA,NA,NA,1,16,"likert"
"D1DB52035DA44D2299EF920A5BE63D37",1,"0198f77d-f496-7c8e-876d-5439001ccddc","0198f768-e4d2-711c-944b-6f03c09216de","2025-08-29_15h21.50.492",NA,NA,156.276,156.277,156.277,156.625,NA,NA,NA,NA,NA,NA,NA,TRUE,5,1.998,153.29,156.276,0,16,16,59,1,45,46,NA,NA,NA,NA,NA,1,17,"likert"
"D1DB52035DA44D2299EF920A5BE63D37",1,"0198f77d-f496-7c8e-876d-5439001ccddc","0198f768-e4d2-711c-944b-6f03c09216de","2025-08-29_15h21.50.492",NA,NA,159.628,159.628,159.628,159.978,NA,NA,NA,NA,NA,NA,NA,TRUE,4,2.874,156.629,159.627,0,17,17,43,1,30,27,NA,NA,NA,NA,NA,1,18,"likert"
"D1DB52035DA44D2299EF920A5BE63D37",1,"0198f77d-f496-7c8e-876d-5439001ccddc","0198f768-e4d2-711c-944b-6f03c09216de","2025-08-29_15h21.50.492",NA,NA,162.98,162.98,162.98,163.33,NA,NA,NA,NA,NA,NA,NA,TRUE,1,2.109,159.979,162.98,0,18,18,99,1,180,39,NA,NA,NA,NA,NA,1,19,"likert"
"D1DB52035DA44D2299EF920A5BE63D37",1,"0198f77d-f496-7c8e-876d-5439001ccddc","0198f768-e4d2-711c-944b-6f03c09216de","2025-08-29_15h21.50.492",NA,NA,166.332,166.332,166.332,166.682,NA,NA,NA,NA,NA,NA,NA,TRUE,2,2.361,163.331,166.332,0,19,19,42,1,30,26,NA,NA,NA,NA,NA,1,20,"likert"
"D1DB52035DA44D2299EF920A5BE63D37",1,"0198f77d-f496-7c8e-876d-5439001ccddc","0198f768-e4d2-711c-944b-6f03c09216de","2025-08-29_15h21.50.492",NA,NA,169.685,169.685,169.685,170.035,NA,NA,NA,NA,NA,NA,NA,TRUE,4,2.166,166.683,169.685,0,20,20,39,1,28,35,NA,NA,NA,NA,NA,1,21,"likert"
"D1DB52035DA44D2299EF920A5BE63D37",1,"0198f77d-f496-7c8e-876d-5439001ccddc","0198f768-e4d2-711c-944b-6f03c09216de","2025-08-29_15h21.50.492",NA,NA,173.036,173.036,173.036,173.387,NA,NA,NA,NA,NA,NA,NA,TRUE,4,2.311,170.035,173.036,0,21,21,69,1,60,40,NA,NA,NA,NA,NA,1,22,"likert"
"D1DB52035DA44D2299EF920A5BE63D37",1,"0198f77d-f496-7c8e-876d-5439001ccddc","0198f768-e4d2-711c-944b-6f03c09216de","2025-08-29_15h21.50.492",NA,NA,176.374,176.374,176.374,176.723,NA,NA,NA,NA,NA,NA,NA,TRUE,4,2.666,173.389,176.373,0,22,22,101,1,180,54,NA,NA,NA,NA,NA,1,23,"likert"
"D1DB52035DA44D2299EF920A5BE63D37",1,"0198f77d-f496-7c8e-876d-5439001ccddc","0198f768-e4d2-711c-944b-6f03c09216de","2025-08-29_15h21.50.492",NA,NA,179.724,179.724,179.724,180.075,NA,NA,NA,NA,NA,NA,NA,TRUE,2,1.683,176.724,179.724,0,23,23,8,1,10,27,NA,NA,NA,NA,NA,1,24,"likert"
"D1DB52035DA44D2299EF920A5BE63D37",1,"0198f77d-f496-7c8e-876d-5439001ccddc","0198f768-e4d2-711c-944b-6f03c09216de","2025-08-29_15h21.50.492",NA,NA,183.077,183.077,183.077,183.427,NA,NA,NA,NA,NA,NA,NA,TRUE,4,2.625,180.076,183.077,0,24,24,74,1,90,33,NA,NA,NA,NA,NA,1,25,"likert"
"D1DB52035DA44D2299EF920A5BE63D37",1,"0198f77d-f496-7c8e-876d-5439001ccddc","0198f768-e4d2-711c-944b-6f03c09216de","2025-08-29_15h21.50.492",NA,NA,186.43,186.43,186.43,186.779,NA,NA,NA,NA,NA,NA,NA,TRUE,3,1.691,183.428,186.43,0,25,25,26,1,21,29,NA,NA,NA,NA,NA,1,26,"likert"
"D1DB52035DA44D2299EF920A5BE63D37",1,"0198f77d-f496-7c8e-876d-5439001ccddc","0198f768-e4d2-711c-944b-6f03c09216de","2025-08-29_15h21.50.492",NA,NA,189.783,189.783,189.783,190.132,NA,NA,NA,NA,NA,NA,NA,TRUE,5,1.742,186.78,189.782,0,26,26,52,1,40,47,NA,NA,NA,NA,NA,1,27,"likert"
"D1DB52035DA44D2299EF920A5BE63D37",1,"0198f77d-f496-7c8e-876d-5439001ccddc","0198f768-e4d2-711c-944b-6f03c09216de","2025-08-29_15h21.50.492",NA,NA,193.134,193.134,193.134,193.484,NA,NA,NA,NA,NA,NA,NA,TRUE,2,1.343,190.135,193.133,0,27,27,49,1,40,33,NA,NA,NA,NA,NA,1,28,"likert"
"D1DB52035DA44D2299EF920A5BE63D37",1,"0198f77d-f496-7c8e-876d-5439001ccddc","0198f768-e4d2-711c-944b-6f03c09216de","2025-08-29_15h21.50.492",NA,NA,196.488,196.488,196.488,196.837,NA,NA,NA,NA,NA,NA,NA,TRUE,2,1.834,193.485,196.488,0,28,28,33,1,25,33,NA,NA,NA,NA,NA,1,29,"likert"
"D1DB52035DA44D2299EF920A5BE63D37",1,"0198f77d-f496-7c8e-876d-5439001ccddc","0198f768-e4d2-711c-944b-6f03c09216de","2025-08-29_15h21.50.492",NA,NA,199.839,199.839,199.839,200.173,NA,NA,NA,NA,NA,NA,NA,TRUE,5,1.329,196.839,199.839,0,29,29,107,1,200,54,NA,NA,NA,NA,NA,1,30,"likert"
"D1DB52035DA44D2299EF920A5BE63D37",1,"0198f77d-f496-7c8e-876d-5439001ccddc","0198f768-e4d2-711c-944b-6f03c09216de","2025-08-29_15h21.50.492",NA,NA,203.176,203.176,203.176,203.525,NA,NA,NA,NA,NA,NA,NA,TRUE,3,1.477,200.174,203.175,0,30,30,29,1,21,38,NA,NA,NA,NA,NA,1,31,"likert"
"D1DB52035DA44D2299EF920A5BE63D37",1,"0198f77d-f496-7c8e-876d-5439001ccddc","0198f768-e4d2-711c-944b-6f03c09216de","2025-08-29_15h21.50.492",NA,NA,206.527,206.527,206.527,206.876,NA,NA,NA,NA,NA,NA,NA,TRUE,5,1.815,203.54,206.527,0,31,31,76,1,90,46,NA,NA,NA,NA,NA,1,32,"likert"
"D1DB52035DA44D2299EF920A5BE63D37",1,"0198f77d-f496-7c8e-876d-5439001ccddc","0198f768-e4d2-711c-944b-6f03c09216de","2025-08-29_15h21.50.492",NA,NA,209.879,209.879,209.879,210.23,NA,NA,NA,NA,NA,NA,NA,TRUE,5,2.196,206.877,209.879,0,32,32,100,1,180,46,NA,NA,NA,NA,NA,1,33,"likert"
"D1DB52035DA44D2299EF920A5BE63D37",1,"0198f77d-f496-7c8e-876d-5439001ccddc","0198f768-e4d2-711c-944b-6f03c09216de","2025-08-29_15h21.50.492",NA,NA,213.232,213.232,213.232,213.582,NA,NA,NA,NA,NA,NA,NA,TRUE,3,2.297,210.231,213.232,0,33,33,7,1,10,26,NA,NA,NA,NA,NA,1,34,"likert"
"D1DB52035DA44D2299EF920A5BE63D37",1,"0198f77d-f496-7c8e-876d-5439001ccddc","0198f768-e4d2-711c-944b-6f03c09216de","2025-08-29_15h21.50.492",NA,NA,216.584,216.584,216.584,216.935,NA,NA,NA,NA,NA,NA,NA,TRUE,5,1.959,213.583,216.584,0,34,34,106,1,200,47,NA,NA,NA,NA,NA,1,35,"likert"
"D1DB52035DA44D2299EF920A5BE63D37",1,"0198f77d-f496-7c8e-876d-5439001ccddc","0198f768-e4d2-711c-944b-6f03c09216de","2025-08-29_15h21.50.492",NA,NA,219.938,219.938,219.938,220.288,NA,NA,NA,NA,NA,NA,NA,TRUE,1,1.876,216.936,219.937,0,35,35,22,1,14,35,NA,NA,NA,NA,NA,1,36,"likert"
"D1DB52035DA44D2299EF920A5BE63D37",1,"0198f77d-f496-7c8e-876d-5439001ccddc","0198f768-e4d2-711c-944b-6f03c09216de","2025-08-29_15h21.50.492",NA,NA,223.29,223.29,223.29,223.639,NA,NA,NA,NA,NA,NA,NA,TRUE,1,1.226,220.289,223.29,0,36,36,51,1,40,40,NA,NA,NA,NA,NA,1,37,"likert"
"D1DB52035DA44D2299EF920A5BE63D37",1,"0198f77d-f496-7c8e-876d-5439001ccddc","0198f768-e4d2-711c-944b-6f03c09216de","2025-08-29_15h21.50.492",NA,NA,226.625,226.625,226.625,226.974,NA,NA,NA,NA,NA,NA,NA,TRUE,2,2.056,223.643,226.625,0,37,37,5,1,7,35,NA,NA,NA,NA,NA,1,38,"likert"
"D1DB52035DA44D2299EF920A5BE63D37",1,"0198f77d-f496-7c8e-876d-5439001ccddc","0198f768-e4d2-711c-944b-6f03c09216de","2025-08-29_15h21.50.492",NA,NA,229.978,229.978,229.978,230.327,NA,NA,NA,NA,NA,NA,NA,TRUE,1,1.582,226.976,229.978,0,38,38,15,1,12,31,NA,NA,NA,NA,NA,1,39,"likert"
"D1DB52035DA44D2299EF920A5BE63D37",1,"0198f77d-f496-7c8e-876d-5439001ccddc","0198f768-e4d2-711c-944b-6f03c09216de","2025-08-29_15h21.50.492",NA,NA,233.329,233.329,233.329,233.68,NA,NA,NA,NA,NA,NA,NA,TRUE,3,1.716,230.329,233.328,0,39,39,87,1,100,39,NA,NA,NA,NA,NA,1,40,"likert"
"D1DB52035DA44D2299EF920A5BE63D37",1,"0198f77d-f496-7c8e-876d-5439001ccddc","0198f768-e4d2-711c-944b-6f03c09216de","2025-08-29_15h21.50.492",NA,NA,236.683,236.683,236.683,237.032,NA,NA,NA,NA,NA,NA,NA,TRUE,4,1.493,233.681,236.682,0,40,40,102,1,200,26,NA,NA,NA,NA,NA,1,41,"likert"
"D1DB52035DA44D2299EF920A5BE63D37",1,"0198f77d-f496-7c8e-876d-5439001ccddc","0198f768-e4d2-711c-944b-6f03c09216de","2025-08-29_15h21.50.492",NA,NA,240.035,240.035,240.035,240.384,NA,NA,NA,NA,NA,NA,NA,TRUE,2,1.578,237.032,240.035,0,41,41,73,1,90,30,NA,NA,NA,NA,NA,1,42,"likert"
"D1DB52035DA44D2299EF920A5BE63D37",1,"0198f77d-f496-7c8e-876d-5439001ccddc","0198f768-e4d2-711c-944b-6f03c09216de","2025-08-29_15h21.50.492",NA,NA,243.387,243.387,243.387,243.737,NA,NA,NA,NA,NA,NA,NA,TRUE,2,2.058,240.385,243.387,0,42,42,86,1,100,38,NA,NA,NA,NA,NA,1,43,"likert"
"D1DB52035DA44D2299EF920A5BE63D37",1,"0198f77d-f496-7c8e-876d-5439001ccddc","0198f768-e4d2-711c-944b-6f03c09216de","2025-08-29_15h21.50.492",NA,NA,246.738,246.738,246.738,247.089,NA,NA,NA,NA,NA,NA,NA,TRUE,5,2.4,243.738,246.738,0,43,43,50,1,40,35,NA,NA,NA,NA,NA,1,44,"likert"
"D1DB52035DA44D2299EF920A5BE63D37",1,"0198f77d-f496-7c8e-876d-5439001ccddc","0198f768-e4d2-711c-944b-6f03c09216de","2025-08-29_15h21.50.492",NA,NA,250.076,250.076,250.076,250.425,NA,NA,NA,NA,NA,NA,NA,TRUE,3,1.961,247.09,250.075,0,44,44,55,1,45,29,NA,NA,NA,NA,NA,1,45,"likert"
"D1DB52035DA44D2299EF920A5BE63D37",1,"0198f77d-f496-7c8e-876d-5439001ccddc","0198f768-e4d2-711c-944b-6f03c09216de","2025-08-29_15h21.50.492",NA,NA,253.43,253.43,253.43,253.778,NA,NA,NA,NA,NA,NA,NA,TRUE,2,1.543,250.426,253.427,0,45,45,21,1,14,32,NA,NA,NA,NA,NA,1,46,"likert"
"D1DB52035DA44D2299EF920A5BE63D37",1,"0198f77d-f496-7c8e-876d-5439001ccddc","0198f768-e4d2-711c-944b-6f03c09216de","2025-08-29_15h21.50.492",NA,NA,256.78,256.78,256.78,257.13,NA,NA,NA,NA,NA,NA,NA,TRUE,3,2.048,253.801,256.779,0,46,46,82,1,95,47,NA,NA,NA,NA,NA,1,47,"likert"
"D1DB52035DA44D2299EF920A5BE63D37",1,"0198f77d-f496-7c8e-876d-5439001ccddc","0198f768-e4d2-711c-944b-6f03c09216de","2025-08-29_15h21.50.492",NA,NA,260.133,260.133,260.133,260.483,NA,NA,NA,NA,NA,NA,NA,TRUE,3,2.339,257.135,260.133,0,47,47,32,1,25,31,NA,NA,NA,NA,NA,1,48,"likert"
"D1DB52035DA44D2299EF920A5BE63D37",1,"0198f77d-f496-7c8e-876d-5439001ccddc","0198f768-e4d2-711c-944b-6f03c09216de","2025-08-29_15h21.50.492",NA,NA,263.484,263.485,263.485,263.834,NA,NA,NA,NA,NA,NA,NA,TRUE,1,2.314,260.484,263.484,0,48,48,90,1,150,31,NA,NA,NA,NA,NA,1,49,"likert"
"D1DB52035DA44D2299EF920A5BE63D37",1,"0198f77d-f496-7c8e-876d-5439001ccddc","0198f768-e4d2-711c-944b-6f03c09216de","2025-08-29_15h21.50.492",NA,NA,266.837,266.837,266.837,267.187,NA,NA,NA,NA,NA,NA,NA,TRUE,4,2.409,263.835,266.836,0,49,49,77,1,90,54,NA,NA,NA,NA,NA,1,50,"likert"
"D1DB52035DA44D2299EF920A5BE63D37",1,"0198f77d-f496-7c8e-876d-5439001ccddc","0198f768-e4d2-711c-944b-6f03c09216de","2025-08-29_15h21.50.492",NA,NA,270.189,270.189,270.19,270.539,NA,NA,NA,NA,NA,NA,NA,TRUE,3,2.524,267.188,270.189,0,50,50,93,1,150,40,NA,NA,NA,NA,NA,1,51,"likert"
"D1DB52035DA44D2299EF920A5BE63D37",1,"0198f77d-f496-7c8e-876d-5439001ccddc","0198f768-e4d2-711c-944b-6f03c09216de","2025-08-29_15h21.50.492",NA,NA,273.524,273.524,273.524,273.875,NA,NA,NA,NA,NA,NA,NA,TRUE,2,2.474,270.541,273.524,0,51,51,23,1,14,39,NA,NA,NA,NA,NA,1,52,"likert"
"D1DB52035DA44D2299EF920A5BE63D37",1,"0198f77d-f496-7c8e-876d-5439001ccddc","0198f768-e4d2-711c-944b-6f03c09216de","2025-08-29_15h21.50.492",NA,NA,276.877,276.877,276.877,277.226,NA,NA,NA,NA,NA,NA,NA,TRUE,3,2.332,273.876,276.877,0,52,52,45,1,30,30,NA,NA,NA,NA,NA,1,53,"likert"
"D1DB52035DA44D2299EF920A5BE63D37",1,"0198f77d-f496-7c8e-876d-5439001ccddc","0198f768-e4d2-711c-944b-6f03c09216de","2025-08-29_15h21.50.492",NA,NA,280.229,280.229,280.229,280.58,NA,NA,NA,NA,NA,NA,NA,TRUE,5,2.475,277.227,280.229,0,53,53,92,1,150,35,NA,NA,NA,NA,NA,1,54,"likert"
"D1DB52035DA44D2299EF920A5BE63D37",1,"0198f77d-f496-7c8e-876d-5439001ccddc","0198f768-e4d2-711c-944b-6f03c09216de","2025-08-29_15h21.50.492",NA,NA,283.582,283.582,283.582,283.932,NA,NA,NA,NA,NA,NA,NA,TRUE,4,1.992,280.581,283.582,0,54,54,57,1,45,35,NA,NA,NA,NA,NA,1,55,"likert"
"D1DB52035DA44D2299EF920A5BE63D37",1,"0198f77d-f496-7c8e-876d-5439001ccddc","0198f768-e4d2-711c-944b-6f03c09216de","2025-08-29_15h21.50.492",NA,NA,286.934,286.934,286.934,287.284,NA,NA,NA,NA,NA,NA,NA,TRUE,1,2.168,283.933,286.934,0,55,55,83,1,95,54,NA,NA,NA,NA,NA,1,56,"likert"
"D1DB52035DA44D2299EF920A5BE63D37",1,"0198f77d-f496-7c8e-876d-5439001ccddc","0198f768-e4d2-711c-944b-6f03c09216de","2025-08-29_15h21.50.492",NA,NA,290.287,290.287,290.287,290.638,NA,NA,NA,NA,NA,NA,NA,TRUE,2,1.749,287.285,290.287,0,56,56,94,1,150,47,NA,NA,NA,NA,NA,1,57,"likert"
"D1DB52035DA44D2299EF920A5BE63D37",1,"0198f77d-f496-7c8e-876d-5439001ccddc","0198f768-e4d2-711c-944b-6f03c09216de","2025-08-29_15h21.50.492",NA,NA,293.64,293.64,293.64,293.989,NA,NA,NA,NA,NA,NA,NA,TRUE,3,2.208,290.641,293.64,0,57,57,75,1,90,40,NA,NA,NA,NA,NA,1,58,"likert"
"D1DB52035DA44D2299EF920A5BE63D37",1,"0198f77d-f496-7c8e-876d-5439001ccddc","0198f768-e4d2-711c-944b-6f03c09216de","2025-08-29_15h21.50.492",NA,NA,296.975,296.975,296.975,297.325,NA,NA,NA,NA,NA,NA,NA,TRUE,3,2.042,293.991,296.975,0,58,58,58,1,45,40,NA,NA,NA,NA,NA,1,59,"likert"
"D1DB52035DA44D2299EF920A5BE63D37",1,"0198f77d-f496-7c8e-876d-5439001ccddc","0198f768-e4d2-711c-944b-6f03c09216de","2025-08-29_15h21.50.492",NA,NA,300.328,300.328,300.328,300.678,NA,NA,NA,NA,NA,NA,NA,TRUE,1,2.582,297.327,300.327,0,59,59,54,1,45,26,NA,NA,NA,NA,NA,1,60,"likert"
"D1DB52035DA44D2299EF920A5BE63D37",1,"0198f77d-f496-7c8e-876d-5439001ccddc","0198f768-e4d2-711c-944b-6f03c09216de","2025-08-29_15h21.50.492",NA,NA,303.68,303.68,303.68,304.029,NA,NA,NA,NA,NA,NA,NA,TRUE,5,2.759,300.679,303.68,0,60,60,17,1,12,35,NA,NA,NA,NA,NA,1,61,"likert"
"D1DB52035DA44D2299EF920A5BE63D37",1,"0198f77d-f496-7c8e-876d-5439001ccddc","0198f768-e4d2-711c-944b-6f03c09216de","2025-08-29_15h21.50.492",NA,NA,307.032,307.032,307.032,307.382,NA,NA,NA,NA,NA,NA,NA,TRUE,2,1.5,304.03,307.031,0,61,61,81,1,95,40,NA,NA,NA,NA,NA,1,62,"likert"
"D1DB52035DA44D2299EF920A5BE63D37",1,"0198f77d-f496-7c8e-876d-5439001ccddc","0198f768-e4d2-711c-944b-6f03c09216de","2025-08-29_15h21.50.492",NA,NA,310.385,310.385,310.385,310.734,NA,NA,NA,NA,NA,NA,NA,TRUE,4,2.033,307.383,310.385,0,62,62,79,1,95,33,NA,NA,NA,NA,NA,1,63,"likert"
"D1DB52035DA44D2299EF920A5BE63D37",1,"0198f77d-f496-7c8e-876d-5439001ccddc","0198f768-e4d2-711c-944b-6f03c09216de","2025-08-29_15h21.50.492",NA,NA,313.736,313.736,313.736,314.087,NA,NA,NA,NA,NA,NA,NA,TRUE,1,2.247,310.735,313.736,0,63,63,28,1,21,32,NA,NA,NA,NA,NA,1,64,"likert"
"D1DB52035DA44D2299EF920A5BE63D37",1,"0198f77d-f496-7c8e-876d-5439001ccddc","0198f768-e4d2-711c-944b-6f03c09216de","2025-08-29_15h21.50.492",NA,NA,317.089,317.09,317.09,317.439,NA,NA,NA,NA,NA,NA,NA,TRUE,1,1.896,314.088,317.089,0,64,64,24,1,21,26,NA,NA,NA,NA,NA,1,65,"likert"
"D1DB52035DA44D2299EF920A5BE63D37",1,"0198f77d-f496-7c8e-876d-5439001ccddc","0198f768-e4d2-711c-944b-6f03c09216de","2025-08-29_15h21.50.492",NA,NA,320.424,320.425,320.425,320.775,NA,NA,NA,NA,NA,NA,NA,TRUE,4,2.485,317.44,320.424,0,65,65,13,1,12,26,NA,NA,NA,NA,NA,1,66,"likert"
"D1DB52035DA44D2299EF920A5BE63D37",1,"0198f77d-f496-7c8e-876d-5439001ccddc","0198f768-e4d2-711c-944b-6f03c09216de","2025-08-29_15h21.50.492",NA,NA,323.778,323.778,323.778,324.127,NA,NA,NA,NA,NA,NA,NA,TRUE,3,2.451,320.776,323.777,0,66,66,10,1,10,30,NA,NA,NA,NA,NA,1,67,"likert"
"D1DB52035DA44D2299EF920A5BE63D37",1,"0198f77d-f496-7c8e-876d-5439001ccddc","0198f768-e4d2-711c-944b-6f03c09216de","2025-08-29_15h21.50.492",NA,NA,327.13,327.13,327.13,327.48,NA,NA,NA,NA,NA,NA,NA,TRUE,5,1.906,324.131,327.13,0,67,67,63,1,50,40,NA,NA,NA,NA,NA,1,68,"likert"
"D1DB52035DA44D2299EF920A5BE63D37",1,"0198f77d-f496-7c8e-876d-5439001ccddc","0198f768-e4d2-711c-944b-6f03c09216de","2025-08-29_15h21.50.492",NA,NA,330.483,330.483,330.483,330.833,NA,NA,NA,NA,NA,NA,NA,TRUE,1,1.809,327.481,330.483,0,68,68,35,1,25,46,NA,NA,NA,NA,NA,1,69,"likert"
"D1DB52035DA44D2299EF920A5BE63D37",1,"0198f77d-f496-7c8e-876d-5439001ccddc","0198f768-e4d2-711c-944b-6f03c09216de","2025-08-29_15h21.50.492",NA,NA,333.834,333.834,333.834,334.184,NA,NA,NA,NA,NA,NA,NA,TRUE,5,2.375,330.834,333.834,0,69,69,84,1,100,26,NA,NA,NA,NA,NA,1,70,"likert"
"D1DB52035DA44D2299EF920A5BE63D37",1,"0198f77d-f496-7c8e-876d-5439001ccddc","0198f768-e4d2-711c-944b-6f03c09216de","2025-08-29_15h21.50.492",NA,NA,337.186,337.186,337.186,337.537,NA,NA,NA,NA,NA,NA,NA,TRUE,4,2.443,334.185,337.186,0,70,70,56,1,45,31,NA,NA,NA,NA,NA,1,71,"likert"
"D1DB52035DA44D2299EF920A5BE63D37",1,"0198f77d-f496-7c8e-876d-5439001ccddc","0198f768-e4d2-711c-944b-6f03c09216de","2025-08-29_15h21.50.492",NA,NA,340.539,340.539,340.539,340.89,NA,NA,NA,NA,NA,NA,NA,TRUE,1,2.231,337.538,340.539,0,71,71,71,1,60,54,NA,NA,NA,NA,NA,1,72,"likert"
"D1DB52035DA44D2299EF920A5BE63D37",1,"0198f77d-f496-7c8e-876d-5439001ccddc","0198f768-e4d2-711c-944b-6f03c09216de","2025-08-29_15h21.50.492",NA,NA,343.874,343.874,343.874,344.225,NA,NA,NA,NA,NA,NA,NA,TRUE,3,2.663,340.891,343.874,0,72,72,66,1,60,29,NA,NA,NA,NA,NA,1,73,"likert"
"D1DB52035DA44D2299EF920A5BE63D37",1,"0198f77d-f496-7c8e-876d-5439001ccddc","0198f768-e4d2-711c-944b-6f03c09216de","2025-08-29_15h21.50.492",NA,NA,347.227,347.227,347.227,347.576,NA,NA,NA,NA,NA,NA,NA,TRUE,3,2.286,344.226,347.227,0,73,73,38,1,28,32,NA,NA,NA,NA,NA,1,74,"likert"
"D1DB52035DA44D2299EF920A5BE63D37",1,"0198f77d-f496-7c8e-876d-5439001ccddc","0198f768-e4d2-711c-944b-6f03c09216de","2025-08-29_15h21.50.492",NA,NA,350.58,350.58,350.58,350.93,NA,NA,NA,NA,NA,NA,NA,TRUE,4,2.21,347.577,350.58,0,74,74,64,1,50,46,NA,NA,NA,NA,NA,1,75,"likert"
"D1DB52035DA44D2299EF920A5BE63D37",1,"0198f77d-f496-7c8e-876d-5439001ccddc","0198f768-e4d2-711c-944b-6f03c09216de","2025-08-29_15h21.50.492",NA,NA,353.932,353.932,353.932,354.282,NA,NA,NA,NA,NA,NA,NA,TRUE,2,1.659,350.931,353.932,0,75,75,27,1,21,30,NA,NA,NA,NA,NA,1,76,"likert"
"D1DB52035DA44D2299EF920A5BE63D37",1,"0198f77d-f496-7c8e-876d-5439001ccddc","0198f768-e4d2-711c-944b-6f03c09216de","2025-08-29_15h21.50.492",NA,NA,357.285,357.534,357.534,357.634,NA,NA,NA,NA,NA,NA,NA,FALSE,NA,NA,354.284,357.285,0,76,76,11,1,10,32,NA,NA,NA,NA,NA,1,77,"likert"
"D1DB52035DA44D2299EF920A5BE63D37",1,"0198f77d-f496-7c8e-876d-5439001ccddc","0198f768-e4d2-711c-944b-6f03c09216de","2025-08-29_15h21.50.492",NA,NA,360.636,360.636,360.636,360.987,NA,NA,NA,NA,NA,NA,NA,TRUE,1,2.373,357.637,360.636,0,77,77,89,1,100,54,NA,NA,NA,NA,NA,1,78,"likert"
"D1DB52035DA44D2299EF920A5BE63D37",1,"0198f77d-f496-7c8e-876d-5439001ccddc","0198f768-e4d2-711c-944b-6f03c09216de","2025-08-29_15h21.50.492",NA,NA,363.989,363.989,363.989,364.34,NA,NA,NA,NA,NA,NA,NA,TRUE,3,1.597,360.988,363.989,0,78,78,68,1,60,35,NA,NA,NA,NA,NA,1,79,"likert"
"D1DB52035DA44D2299EF920A5BE63D37",1,"0198f77d-f496-7c8e-876d-5439001ccddc","0198f768-e4d2-711c-944b-6f03c09216de","2025-08-29_15h21.50.492",NA,NA,367.324,367.324,367.324,367.675,NA,NA,NA,NA,NA,NA,NA,TRUE,2,1.93,364.341,367.324,0,79,79,97,1,180,31,NA,NA,NA,NA,NA,1,80,"likert"
"D1DB52035DA44D2299EF920A5BE63D37",1,"0198f77d-f496-7c8e-876d-5439001ccddc","0198f768-e4d2-711c-944b-6f03c09216de","2025-08-29_15h21.50.492",NA,NA,370.677,370.677,370.677,371.028,NA,NA,NA,NA,NA,NA,NA,TRUE,3,1.742,367.677,370.677,0,80,80,18,1,14,25,NA,NA,NA,NA,NA,1,81,"likert"
"D1DB52035DA44D2299EF920A5BE63D37",1,"0198f77d-f496-7c8e-876d-5439001ccddc","0198f768-e4d2-711c-944b-6f03c09216de","2025-08-29_15h21.50.492",NA,NA,374.03,374.03,374.03,374.379,NA,NA,NA,NA,NA,NA,NA,TRUE,1,1.965,371.029,374.029,0,81,81,96,1,180,27,NA,NA,NA,NA,NA,1,82,"likert"
"D1DB52035DA44D2299EF920A5BE63D37",1,"0198f77d-f496-7c8e-876d-5439001ccddc","0198f768-e4d2-711c-944b-6f03c09216de","2025-08-29_15h21.50.492",NA,NA,377.382,377.382,377.382,377.732,NA,NA,NA,NA,NA,NA,NA,TRUE,3,2.477,374.38,377.382,0,82,82,31,1,25,29,NA,NA,NA,NA,NA,1,83,"likert"
"D1DB52035DA44D2299EF920A5BE63D37",1,"0198f77d-f496-7c8e-876d-5439001ccddc","0198f768-e4d2-711c-944b-6f03c09216de","2025-08-29_15h21.50.492",NA,NA,380.734,380.734,380.734,381.085,NA,NA,NA,NA,NA,NA,NA,TRUE,3,1.646,377.733,380.734,0,83,83,85,1,100,31,NA,NA,NA,NA,NA,1,84,"likert"
"D1DB52035DA44D2299EF920A5BE63D37",1,"0198f77d-f496-7c8e-876d-5439001ccddc","0198f768-e4d2-711c-944b-6f03c09216de","2025-08-29_15h21.50.492",NA,NA,384.086,384.086,384.086,384.437,NA,NA,NA,NA,NA,NA,NA,TRUE,3,1.909,381.085,384.086,0,84,84,25,1,21,27,NA,NA,NA,NA,NA,1,85,"likert"
"D1DB52035DA44D2299EF920A5BE63D37",1,"0198f77d-f496-7c8e-876d-5439001ccddc","0198f768-e4d2-711c-944b-6f03c09216de","2025-08-29_15h21.50.492",NA,NA,387.423,387.423,387.423,387.773,NA,NA,NA,NA,NA,NA,NA,TRUE,1,2.066,384.438,387.423,0,85,85,104,1,200,35,NA,NA,NA,NA,NA,1,86,"likert"
"D1DB52035DA44D2299EF920A5BE63D37",1,"0198f77d-f496-7c8e-876d-5439001ccddc","0198f768-e4d2-711c-944b-6f03c09216de","2025-08-29_15h21.50.492",NA,NA,390.775,390.775,390.775,391.127,NA,NA,NA,NA,NA,NA,NA,TRUE,1,1.666,387.774,390.775,0,86,86,19,1,14,26,NA,NA,NA,NA,NA,1,87,"likert"
"D1DB52035DA44D2299EF920A5BE63D37",1,"0198f77d-f496-7c8e-876d-5439001ccddc","0198f768-e4d2-711c-944b-6f03c09216de","2025-08-29_15h21.50.492",NA,NA,394.128,394.128,394.128,394.478,NA,NA,NA,NA,NA,NA,NA,TRUE,1,1.947,391.13,394.127,0,87,87,9,1,10,29,NA,NA,NA,NA,NA,1,88,"likert"
"D1DB52035DA44D2299EF920A5BE63D37",1,"0198f77d-f496-7c8e-876d-5439001ccddc","0198f768-e4d2-711c-944b-6f03c09216de","2025-08-29_15h21.50.492",NA,NA,397.48,397.48,397.48,397.83,NA,NA,NA,NA,NA,NA,NA,TRUE,5,1.224,394.479,397.48,0,88,88,95,1,150,54,NA,NA,NA,NA,NA,1,89,"likert"
"D1DB52035DA44D2299EF920A5BE63D37",1,"0198f77d-f496-7c8e-876d-5439001ccddc","0198f768-e4d2-711c-944b-6f03c09216de","2025-08-29_15h21.50.492",NA,NA,400.832,400.832,400.832,401.183,NA,NA,NA,NA,NA,NA,NA,TRUE,4,1.919,397.83,400.832,0,89,89,80,1,95,35,NA,NA,NA,NA,NA,1,90,"likert"
"D1DB52035DA44D2299EF920A5BE63D37",1,"0198f77d-f496-7c8e-876d-5439001ccddc","0198f768-e4d2-711c-944b-6f03c09216de","2025-08-29_15h21.50.492",NA,NA,404.184,404.185,404.185,404.535,NA,NA,NA,NA,NA,NA,NA,TRUE,5,2.058,401.184,404.184,0,90,90,16,1,12,33,NA,NA,NA,NA,NA,1,91,"likert"
"D1DB52035DA44D2299EF920A5BE63D37",1,"0198f77d-f496-7c8e-876d-5439001ccddc","0198f768-e4d2-711c-944b-6f03c09216de","2025-08-29_15h21.50.492",NA,NA,407.535,407.535,407.535,407.887,NA,NA,NA,NA,NA,NA,NA,TRUE,4,1.542,404.535,407.535,0,91,91,4,1,7,32,NA,NA,NA,NA,NA,1,92,"likert"
"D1DB52035DA44D2299EF920A5BE63D37",1,"0198f77d-f496-7c8e-876d-5439001ccddc","0198f768-e4d2-711c-944b-6f03c09216de","2025-08-29_15h21.50.492",NA,NA,410.89,410.89,410.89,411.223,NA,NA,NA,NA,NA,NA,NA,TRUE,3,1.865,407.888,410.89,0,92,92,48,1,40,27,NA,NA,NA,NA,NA,1,93,"likert"
"D1DB52035DA44D2299EF920A5BE63D37",1,"0198f77d-f496-7c8e-876d-5439001ccddc","0198f768-e4d2-711c-944b-6f03c09216de","2025-08-29_15h21.50.492",NA,NA,414.224,414.224,414.224,414.575,NA,NA,NA,NA,NA,NA,NA,TRUE,3,1.908,411.224,414.224,0,93,93,61,1,50,30,NA,NA,NA,NA,NA,1,94,"likert"
"D1DB52035DA44D2299EF920A5BE63D37",1,"0198f77d-f496-7c8e-876d-5439001ccddc","0198f768-e4d2-711c-944b-6f03c09216de","2025-08-29_15h21.50.492",NA,NA,417.577,417.578,417.578,417.927,NA,NA,NA,NA,NA,NA,NA,TRUE,4,1.886,414.576,417.577,0,94,94,67,1,60,33,NA,NA,NA,NA,NA,1,95,"likert"
"D1DB52035DA44D2299EF920A5BE63D37",1,"0198f77d-f496-7c8e-876d-5439001ccddc","0198f768-e4d2-711c-944b-6f03c09216de","2025-08-29_15h21.50.492",NA,NA,420.93,420.93,420.93,421.279,NA,NA,NA,NA,NA,NA,NA,TRUE,4,2.311,417.928,420.93,0,95,95,37,1,28,28,NA,NA,NA,NA,NA,1,96,"likert"
"D1DB52035DA44D2299EF920A5BE63D37",1,"0198f77d-f496-7c8e-876d-5439001ccddc","0198f768-e4d2-711c-944b-6f03c09216de","2025-08-29_15h21.50.492",NA,NA,424.282,424.282,424.282,424.633,NA,NA,NA,NA,NA,NA,NA,TRUE,5,1.811,421.28,424.281,0,96,96,70,1,60,47,NA,NA,NA,NA,NA,1,97,"likert"
"D1DB52035DA44D2299EF920A5BE63D37",1,"0198f77d-f496-7c8e-876d-5439001ccddc","0198f768-e4d2-711c-944b-6f03c09216de","2025-08-29_15h21.50.492",NA,NA,427.635,427.635,427.635,427.985,NA,NA,NA,NA,NA,NA,NA,TRUE,4,1.743,424.636,427.635,0,97,97,14,1,12,28,NA,NA,NA,NA,NA,1,98,"likert"
"D1DB52035DA44D2299EF920A5BE63D37",1,"0198f77d-f496-7c8e-876d-5439001ccddc","0198f768-e4d2-711c-944b-6f03c09216de","2025-08-29_15h21.50.492",NA,NA,430.987,430.988,430.988,431.337,NA,NA,NA,NA,NA,NA,NA,TRUE,1,1.808,427.986,430.987,0,98,98,0,1,7,25,NA,NA,NA,NA,NA,1,99,"likert"
"D1DB52035DA44D2299EF920A5BE63D37",1,"0198f77d-f496-7c8e-876d-5439001ccddc","0198f768-e4d2-711c-944b-6f03c09216de","2025-08-29_15h21.50.492",NA,NA,434.34,434.34,434.34,434.673,NA,NA,NA,NA,NA,NA,NA,TRUE,4,2.18,431.339,434.339,0,99,99,72,1,90,26,NA,NA,NA,NA,NA,1,100,"likert"
"D1DB52035DA44D2299EF920A5BE63D37",1,"0198f77d-f496-7c8e-876d-5439001ccddc","0198f768-e4d2-711c-944b-6f03c09216de","2025-08-29_15h21.50.492",NA,NA,437.675,437.675,437.675,438.025,NA,NA,NA,NA,NA,NA,NA,TRUE,3,1.676,434.674,437.675,0,100,100,60,1,50,27,NA,NA,NA,NA,NA,1,101,"likert"
"D1DB52035DA44D2299EF920A5BE63D37",1,"0198f77d-f496-7c8e-876d-5439001ccddc","0198f768-e4d2-711c-944b-6f03c09216de","2025-08-29_15h21.50.492",NA,NA,441.027,441.027,441.027,441.377,NA,NA,NA,NA,NA,NA,NA,TRUE,4,2.034,438.026,441.027,0,101,101,46,1,30,32,NA,NA,NA,NA,NA,1,102,"likert"
"D1DB52035DA44D2299EF920A5BE63D37",1,"0198f77d-f496-7c8e-876d-5439001ccddc","0198f768-e4d2-711c-944b-6f03c09216de","2025-08-29_15h21.50.492",NA,NA,444.38,444.38,444.38,444.728,NA,NA,NA,NA,NA,NA,NA,TRUE,1,1.714,441.378,444.38,0,102,102,6,1,10,25,NA,NA,NA,NA,NA,1,103,"likert"
"D1DB52035DA44D2299EF920A5BE63D37",1,"0198f77d-f496-7c8e-876d-5439001ccddc","0198f768-e4d2-711c-944b-6f03c09216de","2025-08-29_15h21.50.492",NA,NA,447.732,447.732,447.732,448.082,NA,NA,NA,NA,NA,NA,NA,TRUE,4,1.865,444.729,447.732,0,103,103,34,1,25,35,NA,NA,NA,NA,NA,1,104,"likert"
"D1DB52035DA44D2299EF920A5BE63D37",1,"0198f77d-f496-7c8e-876d-5439001ccddc","0198f768-e4d2-711c-944b-6f03c09216de","2025-08-29_15h21.50.492",NA,NA,451.085,451.085,451.085,451.435,NA,NA,NA,NA,NA,NA,NA,TRUE,2,1.998,448.083,451.085,0,104,104,30,1,25,27,NA,NA,NA,NA,NA,1,105,"likert"
"D1DB52035DA44D2299EF920A5BE63D37",1,"0198f77d-f496-7c8e-876d-5439001ccddc","0198f768-e4d2-711c-944b-6f03c09216de","2025-08-29_15h21.50.492",NA,NA,454.437,454.437,454.437,454.787,NA,NA,NA,NA,NA,NA,NA,TRUE,4,1.746,451.436,454.437,0,105,105,47,1,30,38,NA,NA,NA,NA,NA,1,106,"likert"
"D1DB52035DA44D2299EF920A5BE63D37",1,"0198f77d-f496-7c8e-876d-5439001ccddc","0198f768-e4d2-711c-944b-6f03c09216de","2025-08-29_15h21.50.492",NA,NA,457.789,457.789,457.789,458.122,NA,NA,NA,NA,NA,NA,NA,TRUE,1,1.648,454.788,457.789,0,106,106,36,1,28,26,NA,NA,NA,NA,NA,1,107,"likert"
"D1DB52035DA44D2299EF920A5BE63D37",1,"0198f77d-f496-7c8e-876d-5439001ccddc","0198f768-e4d2-711c-944b-6f03c09216de","2025-08-29_15h21.50.492",NA,NA,461.126,461.126,461.126,461.475,NA,NA,NA,NA,NA,NA,NA,TRUE,4,2.031,458.123,461.125,0,107,107,53,1,40,54,NA,NA,NA,NA,NA,1,108,"likert"
"D1DB52035DA44D2299EF920A5BE63D37",1,"0198f77d-f496-7c8e-876d-5439001ccddc","0198f768-e4d2-711c-944b-6f03c09216de","2025-08-29_15h21.50.492",NA,NA,477.769,477.769,477.769,478.119,NA,NA,NA,NA,NA,NA,NA,TRUE,2,2.22,474.784,477.769,NA,NA,NA,NA,NA,14,28,0,0,0,20,1,2,1,"likert"
"D1DB52035DA44D2299EF920A5BE63D37",1,"0198f77d-f496-7c8e-876d-5439001ccddc","0198f768-e4d2-711c-944b-6f03c09216de","2025-08-29_15h21.50.492",NA,NA,481.105,481.105,481.105,481.455,NA,NA,NA,NA,NA,NA,NA,TRUE,1,1.681,478.12,481.105,NA,NA,NA,NA,NA,40,27,0,1,1,48,1,2,2,"likert"
"D1DB52035DA44D2299EF920A5BE63D37",1,"0198f77d-f496-7c8e-876d-5439001ccddc","0198f768-e4d2-711c-944b-6f03c09216de","2025-08-29_15h21.50.492",NA,NA,484.457,484.458,484.458,484.808,NA,NA,NA,NA,NA,NA,NA,TRUE,1,2.816,481.456,484.457,NA,NA,NA,NA,NA,7,25,0,2,2,0,1,2,3,"likert"
"D1DB52035DA44D2299EF920A5BE63D37",1,"0198f77d-f496-7c8e-876d-5439001ccddc","0198f768-e4d2-711c-944b-6f03c09216de","2025-08-29_15h21.50.492",NA,NA,487.81,487.81,487.81,488.16,NA,NA,NA,NA,NA,NA,NA,TRUE,1,2.55,484.809,487.809,NA,NA,NA,NA,NA,10,27,0,3,3,8,1,2,4,"likert"
"D1DB52035DA44D2299EF920A5BE63D37",1,"0198f77d-f496-7c8e-876d-5439001ccddc","0198f768-e4d2-711c-944b-6f03c09216de","2025-08-29_15h21.50.492",NA,NA,491.163,491.163,491.163,491.513,NA,NA,NA,NA,NA,NA,NA,TRUE,1,1.591,488.161,491.163,NA,NA,NA,NA,NA,180,27,0,4,4,96,1,2,5,"likert"
"D1DB52035DA44D2299EF920A5BE63D37",1,"0198f77d-f496-7c8e-876d-5439001ccddc","0198f768-e4d2-711c-944b-6f03c09216de","2025-08-29_15h21.50.492",NA,NA,494.516,494.516,494.516,494.865,NA,NA,NA,NA,NA,NA,NA,TRUE,2,1.531,491.514,494.516,NA,NA,NA,NA,NA,10,29,0,5,5,9,1,2,6,"likert"
"D1DB52035DA44D2299EF920A5BE63D37",1,"0198f77d-f496-7c8e-876d-5439001ccddc","0198f768-e4d2-711c-944b-6f03c09216de","2025-08-29_15h21.50.492",NA,NA,497.867,497.867,497.867,498.217,NA,NA,NA,NA,NA,NA,NA,TRUE,3,2.354,494.869,497.867,NA,NA,NA,NA,NA,150,35,0,6,6,92,1,2,7,"likert"
"D1DB52035DA44D2299EF920A5BE63D37",1,"0198f77d-f496-7c8e-876d-5439001ccddc","0198f768-e4d2-711c-944b-6f03c09216de","2025-08-29_15h21.50.492",NA,NA,501.221,501.221,501.221,501.569,NA,NA,NA,NA,NA,NA,NA,TRUE,4,1.78,498.219,501.22,NA,NA,NA,NA,NA,7,35,0,7,7,5,1,2,8,"likert"
"D1DB52035DA44D2299EF920A5BE63D37",1,"0198f77d-f496-7c8e-876d-5439001ccddc","0198f768-e4d2-711c-944b-6f03c09216de","2025-08-29_15h21.50.492",NA,NA,504.556,504.556,504.557,504.906,NA,NA,NA,NA,NA,NA,NA,TRUE,5,1.244,501.57,504.556,NA,NA,NA,NA,NA,180,54,0,8,8,101,1,2,9,"likert"
"D1DB52035DA44D2299EF920A5BE63D37",1,"0198f77d-f496-7c8e-876d-5439001ccddc","0198f768-e4d2-711c-944b-6f03c09216de","2025-08-29_15h21.50.492",NA,NA,507.908,507.908,507.908,508.257,NA,NA,NA,NA,NA,NA,NA,TRUE,5,2.09,504.908,507.908,NA,NA,NA,NA,NA,14,39,0,9,9,23,1,2,10,"likert"
"D1DB52035DA44D2299EF920A5BE63D37",1,"0198f77d-f496-7c8e-876d-5439001ccddc","0198f768-e4d2-711c-944b-6f03c09216de","2025-08-29_15h21.50.492",NA,NA,511.26,511.26,511.26,511.611,NA,NA,NA,NA,NA,NA,NA,TRUE,5,2.043,508.258,511.26,NA,NA,NA,NA,NA,60,35,0,10,10,68,1,2,11,"likert"
"D1DB52035DA44D2299EF920A5BE63D37",1,"0198f77d-f496-7c8e-876d-5439001ccddc","0198f768-e4d2-711c-944b-6f03c09216de","2025-08-29_15h21.50.492",NA,NA,514.613,514.613,514.613,514.963,NA,NA,NA,NA,NA,NA,NA,TRUE,4,1.764,511.612,514.612,NA,NA,NA,NA,NA,180,31,0,11,11,97,1,2,12,"likert"
"D1DB52035DA44D2299EF920A5BE63D37",1,"0198f77d-f496-7c8e-876d-5439001ccddc","0198f768-e4d2-711c-944b-6f03c09216de","2025-08-29_15h21.50.492",NA,NA,517.965,517.965,517.965,518.315,NA,NA,NA,NA,NA,NA,NA,TRUE,4,1.492,514.964,517.965,NA,NA,NA,NA,NA,100,46,0,12,12,88,1,2,13,"likert"
"D1DB52035DA44D2299EF920A5BE63D37",1,"0198f77d-f496-7c8e-876d-5439001ccddc","0198f768-e4d2-711c-944b-6f03c09216de","2025-08-29_15h21.50.492",NA,NA,521.318,521.318,521.318,521.667,NA,NA,NA,NA,NA,NA,NA,TRUE,4,1.764,518.316,521.318,NA,NA,NA,NA,NA,150,47,0,13,13,94,1,2,14,"likert"
"D1DB52035DA44D2299EF920A5BE63D37",1,"0198f77d-f496-7c8e-876d-5439001ccddc","0198f768-e4d2-711c-944b-6f03c09216de","2025-08-29_15h21.50.492",NA,NA,524.67,524.67,524.67,525.019,NA,NA,NA,NA,NA,NA,NA,TRUE,3,2.082,521.668,524.67,NA,NA,NA,NA,NA,28,35,0,14,14,39,1,2,15,"likert"
"D1DB52035DA44D2299EF920A5BE63D37",1,"0198f77d-f496-7c8e-876d-5439001ccddc","0198f768-e4d2-711c-944b-6f03c09216de","2025-08-29_15h21.50.492",NA,NA,528.006,528.006,528.006,528.356,NA,NA,NA,NA,NA,NA,NA,TRUE,4,2.35,525.019,528.006,NA,NA,NA,NA,NA,100,31,0,15,15,85,1,2,16,"likert"
"D1DB52035DA44D2299EF920A5BE63D37",1,"0198f77d-f496-7c8e-876d-5439001ccddc","0198f768-e4d2-711c-944b-6f03c09216de","2025-08-29_15h21.50.492",NA,NA,531.358,531.358,531.359,531.709,NA,NA,NA,NA,NA,NA,NA,TRUE,4,1.445,528.36,531.358,NA,NA,NA,NA,NA,60,40,0,16,16,69,1,2,17,"likert"
"D1DB52035DA44D2299EF920A5BE63D37",1,"0198f77d-f496-7c8e-876d-5439001ccddc","0198f768-e4d2-711c-944b-6f03c09216de","2025-08-29_15h21.50.492",NA,NA,534.709,534.709,534.709,535.061,NA,NA,NA,NA,NA,NA,NA,TRUE,4,1.481,531.71,534.709,NA,NA,NA,NA,NA,40,40,0,17,17,51,1,2,18,"likert"
"D1DB52035DA44D2299EF920A5BE63D37",1,"0198f77d-f496-7c8e-876d-5439001ccddc","0198f768-e4d2-711c-944b-6f03c09216de","2025-08-29_15h21.50.492",NA,NA,538.063,538.063,538.063,538.413,NA,NA,NA,NA,NA,NA,NA,TRUE,2,2.015,535.062,538.063,NA,NA,NA,NA,NA,50,30,0,18,18,61,1,2,19,"likert"
"D1DB52035DA44D2299EF920A5BE63D37",1,"0198f77d-f496-7c8e-876d-5439001ccddc","0198f768-e4d2-711c-944b-6f03c09216de","2025-08-29_15h21.50.492",NA,NA,541.415,541.415,541.415,541.765,NA,NA,NA,NA,NA,NA,NA,TRUE,1,1.816,538.414,541.415,NA,NA,NA,NA,NA,30,26,0,19,19,42,1,2,20,"likert"
"D1DB52035DA44D2299EF920A5BE63D37",1,"0198f77d-f496-7c8e-876d-5439001ccddc","0198f768-e4d2-711c-944b-6f03c09216de","2025-08-29_15h21.50.492",NA,NA,544.767,544.767,544.767,545.118,NA,NA,NA,NA,NA,NA,NA,TRUE,2,1.209,541.766,544.767,NA,NA,NA,NA,NA,25,35,0,20,20,34,1,2,21,"likert"
"D1DB52035DA44D2299EF920A5BE63D37",1,"0198f77d-f496-7c8e-876d-5439001ccddc","0198f768-e4d2-711c-944b-6f03c09216de","2025-08-29_15h21.50.492",NA,NA,548.12,548.12,548.12,548.469,NA,NA,NA,NA,NA,NA,NA,TRUE,1,2.076,545.119,548.12,NA,NA,NA,NA,NA,90,30,0,21,21,73,1,2,22,"likert"
"D1DB52035DA44D2299EF920A5BE63D37",1,"0198f77d-f496-7c8e-876d-5439001ccddc","0198f768-e4d2-711c-944b-6f03c09216de","2025-08-29_15h21.50.492",NA,NA,551.456,551.457,551.457,551.805,NA,NA,NA,NA,NA,NA,NA,TRUE,2,1.809,548.469,551.456,NA,NA,NA,NA,NA,12,28,0,22,22,14,1,2,23,"likert"
"D1DB52035DA44D2299EF920A5BE63D37",1,"0198f77d-f496-7c8e-876d-5439001ccddc","0198f768-e4d2-711c-944b-6f03c09216de","2025-08-29_15h21.50.492",NA,NA,554.812,554.812,554.812,555.159,NA,NA,NA,NA,NA,NA,NA,TRUE,5,2.161,551.806,554.808,NA,NA,NA,NA,NA,200,54,0,23,23,107,1,2,24,"likert"
"D1DB52035DA44D2299EF920A5BE63D37",1,"0198f77d-f496-7c8e-876d-5439001ccddc","0198f768-e4d2-711c-944b-6f03c09216de","2025-08-29_15h21.50.492",NA,NA,558.16,558.16,558.16,558.51,NA,NA,NA,NA,NA,NA,NA,TRUE,5,1.786,555.177,558.16,NA,NA,NA,NA,NA,95,47,0,24,24,82,1,2,25,"likert"
"D1DB52035DA44D2299EF920A5BE63D37",1,"0198f77d-f496-7c8e-876d-5439001ccddc","0198f768-e4d2-711c-944b-6f03c09216de","2025-08-29_15h21.50.492",NA,NA,561.513,561.513,561.513,561.863,NA,NA,NA,NA,NA,NA,NA,TRUE,1,1.493,558.511,561.513,NA,NA,NA,NA,NA,90,26,0,25,25,72,1,2,26,"likert"
"D1DB52035DA44D2299EF920A5BE63D37",1,"0198f77d-f496-7c8e-876d-5439001ccddc","0198f768-e4d2-711c-944b-6f03c09216de","2025-08-29_15h21.50.492",NA,NA,564.866,564.866,564.866,565.214,NA,NA,NA,NA,NA,NA,NA,TRUE,2,1.756,561.868,564.865,NA,NA,NA,NA,NA,45,29,0,26,26,55,1,2,27,"likert"
"D1DB52035DA44D2299EF920A5BE63D37",1,"0198f77d-f496-7c8e-876d-5439001ccddc","0198f768-e4d2-711c-944b-6f03c09216de","2025-08-29_15h21.50.492",NA,NA,568.216,568.216,568.216,568.568,NA,NA,NA,NA,NA,NA,NA,TRUE,4,1.858,565.216,568.216,NA,NA,NA,NA,NA,200,39,0,27,27,105,1,2,28,"likert"
"D1DB52035DA44D2299EF920A5BE63D37",1,"0198f77d-f496-7c8e-876d-5439001ccddc","0198f768-e4d2-711c-944b-6f03c09216de","2025-08-29_15h21.50.492",NA,NA,571.57,571.571,571.571,571.919,NA,NA,NA,NA,NA,NA,NA,TRUE,2,1.348,568.569,571.57,NA,NA,NA,NA,NA,28,28,0,28,28,37,1,2,29,"likert"
"D1DB52035DA44D2299EF920A5BE63D37",1,"0198f77d-f496-7c8e-876d-5439001ccddc","0198f768-e4d2-711c-944b-6f03c09216de","2025-08-29_15h21.50.492",NA,NA,574.906,574.906,574.906,575.256,NA,NA,NA,NA,NA,NA,NA,TRUE,4,1.581,571.921,574.906,NA,NA,NA,NA,NA,45,46,0,29,29,59,1,2,30,"likert"
"D1DB52035DA44D2299EF920A5BE63D37",1,"0198f77d-f496-7c8e-876d-5439001ccddc","0198f768-e4d2-711c-944b-6f03c09216de","2025-08-29_15h21.50.492",NA,NA,578.257,578.257,578.257,578.608,NA,NA,NA,NA,NA,NA,NA,TRUE,1,1.634,575.257,578.257,NA,NA,NA,NA,NA,10,26,0,30,30,7,1,2,31,"likert"
"D1DB52035DA44D2299EF920A5BE63D37",1,"0198f77d-f496-7c8e-876d-5439001ccddc","0198f768-e4d2-711c-944b-6f03c09216de","2025-08-29_15h21.50.492",NA,NA,581.611,581.611,581.611,581.96,NA,NA,NA,NA,NA,NA,NA,TRUE,4,2.11,578.609,581.61,NA,NA,NA,NA,NA,40,35,0,31,31,50,1,2,32,"likert"
"D1DB52035DA44D2299EF920A5BE63D37",1,"0198f77d-f496-7c8e-876d-5439001ccddc","0198f768-e4d2-711c-944b-6f03c09216de","2025-08-29_15h21.50.492",NA,NA,584.963,584.963,584.963,585.313,NA,NA,NA,NA,NA,NA,NA,TRUE,4,1.453,581.961,584.963,NA,NA,NA,NA,NA,12,35,0,32,32,17,1,2,33,"likert"
"D1DB52035DA44D2299EF920A5BE63D37",1,"0198f77d-f496-7c8e-876d-5439001ccddc","0198f768-e4d2-711c-944b-6f03c09216de","2025-08-29_15h21.50.492",NA,NA,588.315,588.315,588.315,588.665,NA,NA,NA,NA,NA,NA,NA,TRUE,5,1.459,585.313,588.315,NA,NA,NA,NA,NA,180,46,0,33,33,100,1,2,34,"likert"
"D1DB52035DA44D2299EF920A5BE63D37",1,"0198f77d-f496-7c8e-876d-5439001ccddc","0198f768-e4d2-711c-944b-6f03c09216de","2025-08-29_15h21.50.492",NA,NA,591.668,591.668,591.668,592.017,NA,NA,NA,NA,NA,NA,NA,TRUE,2,1.764,588.666,591.667,NA,NA,NA,NA,NA,7,28,0,34,34,2,1,2,35,"likert"
"D1DB52035DA44D2299EF920A5BE63D37",1,"0198f77d-f496-7c8e-876d-5439001ccddc","0198f768-e4d2-711c-944b-6f03c09216de","2025-08-29_15h21.50.492",NA,NA,595.021,595.021,595.021,595.37,NA,NA,NA,NA,NA,NA,NA,TRUE,4,2.258,592.018,595.02,NA,NA,NA,NA,NA,50,54,0,35,35,65,1,2,36,"likert"
"D1DB52035DA44D2299EF920A5BE63D37",1,"0198f77d-f496-7c8e-876d-5439001ccddc","0198f768-e4d2-711c-944b-6f03c09216de","2025-08-29_15h21.50.492",NA,NA,598.373,598.373,598.373,598.705,NA,NA,NA,NA,NA,NA,NA,TRUE,2,1.671,595.374,598.372,NA,NA,NA,NA,NA,21,29,0,36,36,26,1,2,37,"likert"
"D1DB52035DA44D2299EF920A5BE63D37",1,"0198f77d-f496-7c8e-876d-5439001ccddc","0198f768-e4d2-711c-944b-6f03c09216de","2025-08-29_15h21.50.492",NA,NA,601.708,601.708,601.708,602.058,NA,NA,NA,NA,NA,NA,NA,TRUE,5,1.879,598.707,601.708,NA,NA,NA,NA,NA,25,46,0,37,37,35,1,2,38,"likert"
"D1DB52035DA44D2299EF920A5BE63D37",1,"0198f77d-f496-7c8e-876d-5439001ccddc","0198f768-e4d2-711c-944b-6f03c09216de","2025-08-29_15h21.50.492",NA,NA,605.061,605.062,605.062,605.411,NA,NA,NA,NA,NA,NA,NA,TRUE,5,1.782,602.059,605.061,NA,NA,NA,NA,NA,200,35,0,38,38,104,1,2,39,"likert"
"D1DB52035DA44D2299EF920A5BE63D37",1,"0198f77d-f496-7c8e-876d-5439001ccddc","0198f768-e4d2-711c-944b-6f03c09216de","2025-08-29_15h21.50.492",NA,NA,608.413,608.413,608.413,608.762,NA,NA,NA,NA,NA,NA,NA,TRUE,5,1.778,605.415,608.412,NA,NA,NA,NA,NA,150,40,0,39,39,93,1,2,40,"likert"
"D1DB52035DA44D2299EF920A5BE63D37",1,"0198f77d-f496-7c8e-876d-5439001ccddc","0198f768-e4d2-711c-944b-6f03c09216de","2025-08-29_15h21.50.492",NA,NA,611.766,611.766,611.766,612.114,NA,NA,NA,NA,NA,NA,NA,TRUE,4,2.099,608.764,611.766,NA,NA,NA,NA,NA,21,32,0,40,40,28,1,2,41,"likert"
"D1DB52035DA44D2299EF920A5BE63D37",1,"0198f77d-f496-7c8e-876d-5439001ccddc","0198f768-e4d2-711c-944b-6f03c09216de","2025-08-29_15h21.50.492",NA,NA,615.117,615.117,615.117,615.467,NA,NA,NA,NA,NA,NA,NA,TRUE,4,2,612.115,615.117,NA,NA,NA,NA,NA,21,30,0,41,41,27,1,2,42,"likert"
"D1DB52035DA44D2299EF920A5BE63D37",1,"0198f77d-f496-7c8e-876d-5439001ccddc","0198f768-e4d2-711c-944b-6f03c09216de","2025-08-29_15h21.50.492",NA,NA,618.47,618.47,618.47,618.82,NA,NA,NA,NA,NA,NA,NA,TRUE,2,1.38,615.468,618.469,NA,NA,NA,NA,NA,21,26,0,42,42,24,1,2,43,"likert"
"D1DB52035DA44D2299EF920A5BE63D37",1,"0198f77d-f496-7c8e-876d-5439001ccddc","0198f768-e4d2-711c-944b-6f03c09216de","2025-08-29_15h21.50.492",NA,NA,621.822,621.822,621.822,622.156,NA,NA,NA,NA,NA,NA,NA,TRUE,4,2.358,618.821,621.822,NA,NA,NA,NA,NA,50,35,0,43,43,62,1,2,44,"likert"
"D1DB52035DA44D2299EF920A5BE63D37",1,"0198f77d-f496-7c8e-876d-5439001ccddc","0198f768-e4d2-711c-944b-6f03c09216de","2025-08-29_15h21.50.492",NA,NA,625.158,625.158,625.158,625.508,NA,NA,NA,NA,NA,NA,NA,TRUE,5,1.742,622.157,625.158,NA,NA,NA,NA,NA,45,40,0,44,44,58,1,2,45,"likert"
"D1DB52035DA44D2299EF920A5BE63D37",1,"0198f77d-f496-7c8e-876d-5439001ccddc","0198f768-e4d2-711c-944b-6f03c09216de","2025-08-29_15h21.50.492",NA,NA,628.511,628.511,628.511,628.86,NA,NA,NA,NA,NA,NA,NA,TRUE,5,2.075,625.509,628.511,NA,NA,NA,NA,NA,100,39,0,45,45,87,1,2,46,"likert"
"D1DB52035DA44D2299EF920A5BE63D37",1,"0198f77d-f496-7c8e-876d-5439001ccddc","0198f768-e4d2-711c-944b-6f03c09216de","2025-08-29_15h21.50.492",NA,NA,631.863,631.863,631.863,632.213,NA,NA,NA,NA,NA,NA,NA,TRUE,2,1.898,628.867,631.863,NA,NA,NA,NA,NA,21,27,0,46,46,25,1,2,47,"likert"
"D1DB52035DA44D2299EF920A5BE63D37",1,"0198f77d-f496-7c8e-876d-5439001ccddc","0198f768-e4d2-711c-944b-6f03c09216de","2025-08-29_15h21.50.492",NA,NA,635.215,635.215,635.215,635.566,NA,NA,NA,NA,NA,NA,NA,TRUE,4,1.964,632.214,635.215,NA,NA,NA,NA,NA,150,31,0,47,47,90,1,2,48,"likert"
"D1DB52035DA44D2299EF920A5BE63D37",1,"0198f77d-f496-7c8e-876d-5439001ccddc","0198f768-e4d2-711c-944b-6f03c09216de","2025-08-29_15h21.50.492",NA,NA,638.567,638.567,638.567,638.917,NA,NA,NA,NA,NA,NA,NA,TRUE,4,1.758,635.567,638.567,NA,NA,NA,NA,NA,180,35,0,48,48,98,1,2,49,"likert"
"D1DB52035DA44D2299EF920A5BE63D37",1,"0198f77d-f496-7c8e-876d-5439001ccddc","0198f768-e4d2-711c-944b-6f03c09216de","2025-08-29_15h21.50.492",NA,NA,641.92,641.92,641.92,642.27,NA,NA,NA,NA,NA,NA,NA,TRUE,1,1.358,638.919,641.92,NA,NA,NA,NA,NA,200,26,0,49,49,102,1,2,50,"likert"
"D1DB52035DA44D2299EF920A5BE63D37",1,"0198f77d-f496-7c8e-876d-5439001ccddc","0198f768-e4d2-711c-944b-6f03c09216de","2025-08-29_15h21.50.492",NA,NA,645.273,645.273,645.273,645.606,NA,NA,NA,NA,NA,NA,NA,TRUE,1,1.793,642.271,645.273,NA,NA,NA,NA,NA,14,26,0,50,50,19,1,2,51,"likert"
"D1DB52035DA44D2299EF920A5BE63D37",1,"0198f77d-f496-7c8e-876d-5439001ccddc","0198f768-e4d2-711c-944b-6f03c09216de","2025-08-29_15h21.50.492",NA,NA,648.608,648.608,648.608,648.958,NA,NA,NA,NA,NA,NA,NA,TRUE,3,2.148,645.607,648.608,NA,NA,NA,NA,NA,60,33,0,51,51,67,1,2,52,"likert"
"D1DB52035DA44D2299EF920A5BE63D37",1,"0198f77d-f496-7c8e-876d-5439001ccddc","0198f768-e4d2-711c-944b-6f03c09216de","2025-08-29_15h21.50.492",NA,NA,651.959,651.959,651.959,652.31,NA,NA,NA,NA,NA,NA,NA,TRUE,4,1.817,648.959,651.959,NA,NA,NA,NA,NA,90,40,0,52,52,75,1,2,53,"likert"
"D1DB52035DA44D2299EF920A5BE63D37",1,"0198f77d-f496-7c8e-876d-5439001ccddc","0198f768-e4d2-711c-944b-6f03c09216de","2025-08-29_15h21.50.492",NA,NA,655.312,655.312,655.312,655.663,NA,NA,NA,NA,NA,NA,NA,TRUE,1,1.709,652.311,655.312,NA,NA,NA,NA,NA,45,26,0,53,53,54,1,2,54,"likert"
"D1DB52035DA44D2299EF920A5BE63D37",1,"0198f77d-f496-7c8e-876d-5439001ccddc","0198f768-e4d2-711c-944b-6f03c09216de","2025-08-29_15h21.50.492",NA,NA,658.665,658.665,658.665,659.016,NA,NA,NA,NA,NA,NA,NA,TRUE,2,2.063,655.663,658.665,NA,NA,NA,NA,NA,12,33,0,54,54,16,1,2,55,"likert"
"D1DB52035DA44D2299EF920A5BE63D37",1,"0198f77d-f496-7c8e-876d-5439001ccddc","0198f768-e4d2-711c-944b-6f03c09216de","2025-08-29_15h21.50.492",NA,NA,662.018,662.018,662.018,662.367,NA,NA,NA,NA,NA,NA,NA,TRUE,2,2.111,659.016,662.017,NA,NA,NA,NA,NA,14,32,0,55,55,21,1,2,56,"likert"
"D1DB52035DA44D2299EF920A5BE63D37",1,"0198f77d-f496-7c8e-876d-5439001ccddc","0198f768-e4d2-711c-944b-6f03c09216de","2025-08-29_15h21.50.492",NA,NA,665.37,665.37,665.37,665.72,NA,NA,NA,NA,NA,NA,NA,TRUE,4,2.061,662.37,665.37,NA,NA,NA,NA,NA,95,33,0,56,56,79,1,2,57,"likert"
"D1DB52035DA44D2299EF920A5BE63D37",1,"0198f77d-f496-7c8e-876d-5439001ccddc","0198f768-e4d2-711c-944b-6f03c09216de","2025-08-29_15h21.50.492",NA,NA,668.722,668.722,668.722,669.055,NA,NA,NA,NA,NA,NA,NA,TRUE,5,1.392,665.721,668.722,NA,NA,NA,NA,NA,40,54,0,57,57,53,1,2,58,"likert"
"D1DB52035DA44D2299EF920A5BE63D37",1,"0198f77d-f496-7c8e-876d-5439001ccddc","0198f768-e4d2-711c-944b-6f03c09216de","2025-08-29_15h21.50.492",NA,NA,672.057,672.057,672.057,672.408,NA,NA,NA,NA,NA,NA,NA,TRUE,1,1.277,669.057,672.057,NA,NA,NA,NA,NA,12,26,0,58,58,13,1,2,59,"likert"
"D1DB52035DA44D2299EF920A5BE63D37",1,"0198f77d-f496-7c8e-876d-5439001ccddc","0198f768-e4d2-711c-944b-6f03c09216de","2025-08-29_15h21.50.492",NA,NA,675.411,675.411,675.411,675.76,NA,NA,NA,NA,NA,NA,NA,TRUE,5,1.477,672.409,675.411,NA,NA,NA,NA,NA,100,54,0,59,59,89,1,2,60,"likert"
"D1DB52035DA44D2299EF920A5BE63D37",1,"0198f77d-f496-7c8e-876d-5439001ccddc","0198f768-e4d2-711c-944b-6f03c09216de","2025-08-29_15h21.50.492",NA,NA,678.763,678.763,678.763,679.112,NA,NA,NA,NA,NA,NA,NA,TRUE,4,1.691,675.761,678.763,NA,NA,NA,NA,NA,100,38,0,60,60,86,1,2,61,"likert"
"D1DB52035DA44D2299EF920A5BE63D37",1,"0198f77d-f496-7c8e-876d-5439001ccddc","0198f768-e4d2-711c-944b-6f03c09216de","2025-08-29_15h21.50.492",NA,NA,682.115,682.115,682.115,682.465,NA,NA,NA,NA,NA,NA,NA,TRUE,4,1.725,679.113,682.114,NA,NA,NA,NA,NA,95,40,0,61,61,81,1,2,62,"likert"
"D1DB52035DA44D2299EF920A5BE63D37",1,"0198f77d-f496-7c8e-876d-5439001ccddc","0198f768-e4d2-711c-944b-6f03c09216de","2025-08-29_15h21.50.492",NA,NA,685.467,685.467,685.467,685.818,NA,NA,NA,NA,NA,NA,NA,TRUE,5,1.15,682.466,685.466,NA,NA,NA,NA,NA,150,54,0,62,62,95,1,2,63,"likert"
"D1DB52035DA44D2299EF920A5BE63D37",1,"0198f77d-f496-7c8e-876d-5439001ccddc","0198f768-e4d2-711c-944b-6f03c09216de","2025-08-29_15h21.50.492",NA,NA,688.82,688.82,688.82,689.169,NA,NA,NA,NA,NA,NA,NA,TRUE,3,0.98,685.818,688.82,NA,NA,NA,NA,NA,30,30,0,63,63,45,1,2,64,"likert"
"D1DB52035DA44D2299EF920A5BE63D37",1,"0198f77d-f496-7c8e-876d-5439001ccddc","0198f768-e4d2-711c-944b-6f03c09216de","2025-08-29_15h21.50.492",NA,NA,692.173,692.173,692.173,692.506,NA,NA,NA,NA,NA,NA,NA,TRUE,2,0.808,689.17,692.173,NA,NA,NA,NA,NA,28,26,0,64,64,36,1,2,65,"likert"
"D1DB52035DA44D2299EF920A5BE63D37",1,"0198f77d-f496-7c8e-876d-5439001ccddc","0198f768-e4d2-711c-944b-6f03c09216de","2025-08-29_15h21.50.492",NA,NA,695.508,695.508,695.508,695.858,NA,NA,NA,NA,NA,NA,NA,TRUE,4,1.583,692.509,695.508,NA,NA,NA,NA,NA,28,46,0,65,65,41,1,2,66,"likert"
"D1DB52035DA44D2299EF920A5BE63D37",1,"0198f77d-f496-7c8e-876d-5439001ccddc","0198f768-e4d2-711c-944b-6f03c09216de","2025-08-29_15h21.50.492",NA,NA,698.859,698.859,698.859,699.21,NA,NA,NA,NA,NA,NA,NA,TRUE,4,1.449,695.859,698.859,NA,NA,NA,NA,NA,60,47,0,66,66,70,1,2,67,"likert"
"D1DB52035DA44D2299EF920A5BE63D37",1,"0198f77d-f496-7c8e-876d-5439001ccddc","0198f768-e4d2-711c-944b-6f03c09216de","2025-08-29_15h21.50.492",NA,NA,702.213,702.213,702.213,702.563,NA,NA,NA,NA,NA,NA,NA,TRUE,3,1.652,699.211,702.213,NA,NA,NA,NA,NA,30,29,0,67,67,44,1,2,68,"likert"
"D1DB52035DA44D2299EF920A5BE63D37",1,"0198f77d-f496-7c8e-876d-5439001ccddc","0198f768-e4d2-711c-944b-6f03c09216de","2025-08-29_15h21.50.492",NA,NA,705.566,705.566,705.566,705.915,NA,NA,NA,NA,NA,NA,NA,TRUE,4,1.543,702.564,705.565,NA,NA,NA,NA,NA,40,33,0,68,68,49,1,2,69,"likert"
"D1DB52035DA44D2299EF920A5BE63D37",1,"0198f77d-f496-7c8e-876d-5439001ccddc","0198f768-e4d2-711c-944b-6f03c09216de","2025-08-29_15h21.50.492",NA,NA,708.917,708.917,708.917,709.267,NA,NA,NA,NA,NA,NA,NA,TRUE,2,1.735,705.916,708.917,NA,NA,NA,NA,NA,30,27,0,69,69,43,1,2,70,"likert"
"D1DB52035DA44D2299EF920A5BE63D37",1,"0198f77d-f496-7c8e-876d-5439001ccddc","0198f768-e4d2-711c-944b-6f03c09216de","2025-08-29_15h21.50.492",NA,NA,712.269,712.269,712.269,712.62,NA,NA,NA,NA,NA,NA,NA,TRUE,3,1.351,709.268,712.269,NA,NA,NA,NA,NA,10,32,0,70,70,11,1,2,71,"likert"
"D1DB52035DA44D2299EF920A5BE63D37",1,"0198f77d-f496-7c8e-876d-5439001ccddc","0198f768-e4d2-711c-944b-6f03c09216de","2025-08-29_15h21.50.492",NA,NA,715.623,715.623,715.623,715.956,NA,NA,NA,NA,NA,NA,NA,TRUE,1,1.026,712.62,715.623,NA,NA,NA,NA,NA,12,25,0,71,71,12,1,2,72,"likert"
"D1DB52035DA44D2299EF920A5BE63D37",1,"0198f77d-f496-7c8e-876d-5439001ccddc","0198f768-e4d2-711c-944b-6f03c09216de","2025-08-29_15h21.50.492",NA,NA,718.958,718.958,718.958,719.308,NA,NA,NA,NA,NA,NA,NA,TRUE,3,1.861,715.957,718.958,NA,NA,NA,NA,NA,21,38,0,72,72,29,1,2,73,"likert"
"D1DB52035DA44D2299EF920A5BE63D37",1,"0198f77d-f496-7c8e-876d-5439001ccddc","0198f768-e4d2-711c-944b-6f03c09216de","2025-08-29_15h21.50.492",NA,NA,722.31,722.31,722.31,722.659,NA,NA,NA,NA,NA,NA,NA,TRUE,1,2.05,719.308,722.31,NA,NA,NA,NA,NA,7,26,0,73,73,1,1,2,74,"likert"
"D1DB52035DA44D2299EF920A5BE63D37",1,"0198f77d-f496-7c8e-876d-5439001ccddc","0198f768-e4d2-711c-944b-6f03c09216de","2025-08-29_15h21.50.492",NA,NA,725.662,725.662,725.662,726.013,NA,NA,NA,NA,NA,NA,NA,TRUE,4,1.108,722.66,725.662,NA,NA,NA,NA,NA,60,54,0,74,74,71,1,2,75,"likert"
"D1DB52035DA44D2299EF920A5BE63D37",1,"0198f77d-f496-7c8e-876d-5439001ccddc","0198f768-e4d2-711c-944b-6f03c09216de","2025-08-29_15h21.50.492",NA,NA,729.015,729.015,729.015,729.364,NA,NA,NA,NA,NA,NA,NA,TRUE,4,1.982,726.017,729.015,NA,NA,NA,NA,NA,25,33,0,75,75,33,1,2,76,"likert"
"D1DB52035DA44D2299EF920A5BE63D37",1,"0198f77d-f496-7c8e-876d-5439001ccddc","0198f768-e4d2-711c-944b-6f03c09216de","2025-08-29_15h21.50.492",NA,NA,732.366,732.366,732.366,732.717,NA,NA,NA,NA,NA,NA,NA,TRUE,4,1.493,729.366,732.366,NA,NA,NA,NA,NA,28,32,0,76,76,38,1,2,77,"likert"
"D1DB52035DA44D2299EF920A5BE63D37",1,"0198f77d-f496-7c8e-876d-5439001ccddc","0198f768-e4d2-711c-944b-6f03c09216de","2025-08-29_15h21.50.492",NA,NA,735.72,735.72,735.72,736.07,NA,NA,NA,NA,NA,NA,NA,TRUE,3,1.428,732.718,735.72,NA,NA,NA,NA,NA,25,29,0,77,77,31,1,2,78,"likert"
"D1DB52035DA44D2299EF920A5BE63D37",1,"0198f77d-f496-7c8e-876d-5439001ccddc","0198f768-e4d2-711c-944b-6f03c09216de","2025-08-29_15h21.50.492",NA,NA,739.072,739.073,739.073,739.405,NA,NA,NA,NA,NA,NA,NA,TRUE,5,1.34,736.071,739.072,NA,NA,NA,NA,NA,90,54,0,78,78,77,1,2,79,"likert"
"D1DB52035DA44D2299EF920A5BE63D37",1,"0198f77d-f496-7c8e-876d-5439001ccddc","0198f768-e4d2-711c-944b-6f03c09216de","2025-08-29_15h21.50.492",NA,NA,742.408,742.408,742.408,742.758,NA,NA,NA,NA,NA,NA,NA,TRUE,4,1.725,739.406,742.407,NA,NA,NA,NA,NA,95,31,0,79,79,78,1,2,80,"likert"
"D1DB52035DA44D2299EF920A5BE63D37",1,"0198f77d-f496-7c8e-876d-5439001ccddc","0198f768-e4d2-711c-944b-6f03c09216de","2025-08-29_15h21.50.492",NA,NA,745.76,745.76,745.76,746.111,NA,NA,NA,NA,NA,NA,NA,TRUE,5,1.136,742.759,745.76,NA,NA,NA,NA,NA,90,46,0,80,80,76,1,2,81,"likert"
"D1DB52035DA44D2299EF920A5BE63D37",1,"0198f77d-f496-7c8e-876d-5439001ccddc","0198f768-e4d2-711c-944b-6f03c09216de","2025-08-29_15h21.50.492",NA,NA,749.113,749.113,749.113,749.462,NA,NA,NA,NA,NA,NA,NA,TRUE,3,1.935,746.112,749.112,NA,NA,NA,NA,NA,150,33,0,81,81,91,1,2,82,"likert"
"D1DB52035DA44D2299EF920A5BE63D37",1,"0198f77d-f496-7c8e-876d-5439001ccddc","0198f768-e4d2-711c-944b-6f03c09216de","2025-08-29_15h21.50.492",NA,NA,752.465,752.465,752.465,752.815,NA,NA,NA,NA,NA,NA,NA,TRUE,1,2.126,749.464,752.465,NA,NA,NA,NA,NA,25,31,0,82,82,32,1,2,83,"likert"
"D1DB52035DA44D2299EF920A5BE63D37",1,"0198f77d-f496-7c8e-876d-5439001ccddc","0198f768-e4d2-711c-944b-6f03c09216de","2025-08-29_15h21.50.492",NA,NA,755.818,755.818,755.818,756.167,NA,NA,NA,NA,NA,NA,NA,TRUE,4,2.319,752.816,755.818,NA,NA,NA,NA,NA,7,30,0,83,83,3,1,2,84,"likert"
"D1DB52035DA44D2299EF920A5BE63D37",1,"0198f77d-f496-7c8e-876d-5439001ccddc","0198f768-e4d2-711c-944b-6f03c09216de","2025-08-29_15h21.50.492",NA,NA,759.171,759.171,759.171,759.52,NA,NA,NA,NA,NA,NA,NA,TRUE,1,2.132,756.168,759.17,NA,NA,NA,NA,NA,50,27,0,84,84,60,1,2,85,"likert"
"D1DB52035DA44D2299EF920A5BE63D37",1,"0198f77d-f496-7c8e-876d-5439001ccddc","0198f768-e4d2-711c-944b-6f03c09216de","2025-08-29_15h21.50.492",NA,NA,762.505,762.505,762.505,762.856,NA,NA,NA,NA,NA,NA,NA,TRUE,1,1.076,759.524,762.505,NA,NA,NA,NA,NA,10,25,0,85,85,6,1,2,86,"likert"
"D1DB52035DA44D2299EF920A5BE63D37",1,"0198f77d-f496-7c8e-876d-5439001ccddc","0198f768-e4d2-711c-944b-6f03c09216de","2025-08-29_15h21.50.492",NA,NA,765.858,765.858,765.858,766.208,NA,NA,NA,NA,NA,NA,NA,TRUE,2,2.149,762.857,765.858,NA,NA,NA,NA,NA,200,28,0,86,86,103,1,2,87,"likert"
"D1DB52035DA44D2299EF920A5BE63D37",1,"0198f77d-f496-7c8e-876d-5439001ccddc","0198f768-e4d2-711c-944b-6f03c09216de","2025-08-29_15h21.50.492",NA,NA,769.21,769.21,769.21,769.561,NA,NA,NA,NA,NA,NA,NA,TRUE,4,2.017,766.209,769.21,NA,NA,NA,NA,NA,40,47,0,87,87,52,1,2,88,"likert"
"D1DB52035DA44D2299EF920A5BE63D37",1,"0198f77d-f496-7c8e-876d-5439001ccddc","0198f768-e4d2-711c-944b-6f03c09216de","2025-08-29_15h21.50.492",NA,NA,772.562,772.562,772.562,772.912,NA,NA,NA,NA,NA,NA,NA,TRUE,4,1.483,769.562,772.562,NA,NA,NA,NA,NA,200,47,0,88,88,106,1,2,89,"likert"
"D1DB52035DA44D2299EF920A5BE63D37",1,"0198f77d-f496-7c8e-876d-5439001ccddc","0198f768-e4d2-711c-944b-6f03c09216de","2025-08-29_15h21.50.492",NA,NA,775.915,775.915,775.915,776.265,NA,NA,NA,NA,NA,NA,NA,TRUE,5,0.58,772.913,775.915,NA,NA,NA,NA,NA,95,54,0,89,89,83,1,2,90,"likert"
"D1DB52035DA44D2299EF920A5BE63D37",1,"0198f77d-f496-7c8e-876d-5439001ccddc","0198f768-e4d2-711c-944b-6f03c09216de","2025-08-29_15h21.50.492",NA,NA,779.267,779.267,779.267,779.618,NA,NA,NA,NA,NA,NA,NA,TRUE,4,1.224,776.266,779.267,NA,NA,NA,NA,NA,180,39,0,90,90,99,1,2,91,"likert"
"D1DB52035DA44D2299EF920A5BE63D37",1,"0198f77d-f496-7c8e-876d-5439001ccddc","0198f768-e4d2-711c-944b-6f03c09216de","2025-08-29_15h21.50.492",NA,NA,782.618,782.619,782.619,782.969,NA,NA,NA,NA,NA,NA,NA,TRUE,4,1.715,779.619,782.618,NA,NA,NA,NA,NA,90,33,0,91,91,74,1,2,92,"likert"
"D1DB52035DA44D2299EF920A5BE63D37",1,"0198f77d-f496-7c8e-876d-5439001ccddc","0198f768-e4d2-711c-944b-6f03c09216de","2025-08-29_15h21.50.492",NA,NA,785.956,785.956,785.956,786.305,NA,NA,NA,NA,NA,NA,NA,TRUE,4,1.534,782.971,785.956,NA,NA,NA,NA,NA,28,39,0,92,92,40,1,2,93,"likert"
"D1DB52035DA44D2299EF920A5BE63D37",1,"0198f77d-f496-7c8e-876d-5439001ccddc","0198f768-e4d2-711c-944b-6f03c09216de","2025-08-29_15h21.50.492",NA,NA,789.307,789.307,789.307,789.658,NA,NA,NA,NA,NA,NA,NA,TRUE,4,1.492,786.306,789.307,NA,NA,NA,NA,NA,30,38,0,93,93,47,1,2,94,"likert"
"D1DB52035DA44D2299EF920A5BE63D37",1,"0198f77d-f496-7c8e-876d-5439001ccddc","0198f768-e4d2-711c-944b-6f03c09216de","2025-08-29_15h21.50.492",NA,NA,792.659,792.659,792.659,793.011,NA,NA,NA,NA,NA,NA,NA,TRUE,4,1.992,789.659,792.659,NA,NA,NA,NA,NA,14,35,0,94,94,22,1,2,95,"likert"
"D1DB52035DA44D2299EF920A5BE63D37",1,"0198f77d-f496-7c8e-876d-5439001ccddc","0198f768-e4d2-711c-944b-6f03c09216de","2025-08-29_15h21.50.492",NA,NA,796.013,796.262,796.262,796.363,NA,NA,NA,NA,NA,NA,NA,FALSE,NA,NA,793.014,796.013,NA,NA,NA,NA,NA,50,40,0,95,95,63,1,2,96,"likert"
"D1DB52035DA44D2299EF920A5BE63D37",1,"0198f77d-f496-7c8e-876d-5439001ccddc","0198f768-e4d2-711c-944b-6f03c09216de","2025-08-29_15h21.50.492",NA,NA,799.365,799.365,799.365,799.715,NA,NA,NA,NA,NA,NA,NA,TRUE,3,1.935,796.364,799.365,NA,NA,NA,NA,NA,12,31,0,96,96,15,1,2,97,"likert"
"D1DB52035DA44D2299EF920A5BE63D37",1,"0198f77d-f496-7c8e-876d-5439001ccddc","0198f768-e4d2-711c-944b-6f03c09216de","2025-08-29_15h21.50.492",NA,NA,802.717,802.717,802.717,803.067,NA,NA,NA,NA,NA,NA,NA,TRUE,1,1.662,799.716,802.717,NA,NA,NA,NA,NA,100,26,0,97,97,84,1,2,98,"likert"
"D1DB52035DA44D2299EF920A5BE63D37",1,"0198f77d-f496-7c8e-876d-5439001ccddc","0198f768-e4d2-711c-944b-6f03c09216de","2025-08-29_15h21.50.492",NA,NA,806.07,806.07,806.07,806.42,NA,NA,NA,NA,NA,NA,NA,TRUE,1,0.941,803.068,806.069,NA,NA,NA,NA,NA,25,27,0,98,98,30,1,2,99,"likert"
"D1DB52035DA44D2299EF920A5BE63D37",1,"0198f77d-f496-7c8e-876d-5439001ccddc","0198f768-e4d2-711c-944b-6f03c09216de","2025-08-29_15h21.50.492",NA,NA,809.406,809.406,809.406,809.755,NA,NA,NA,NA,NA,NA,NA,TRUE,2,1.579,806.422,809.405,NA,NA,NA,NA,NA,45,31,0,99,99,56,1,2,100,"likert"
"D1DB52035DA44D2299EF920A5BE63D37",1,"0198f77d-f496-7c8e-876d-5439001ccddc","0198f768-e4d2-711c-944b-6f03c09216de","2025-08-29_15h21.50.492",NA,NA,812.758,812.758,812.758,813.107,NA,NA,NA,NA,NA,NA,NA,TRUE,1,1.892,809.756,812.757,NA,NA,NA,NA,NA,95,35,0,100,100,80,1,2,101,"likert"
"D1DB52035DA44D2299EF920A5BE63D37",1,"0198f77d-f496-7c8e-876d-5439001ccddc","0198f768-e4d2-711c-944b-6f03c09216de","2025-08-29_15h21.50.492",NA,NA,816.111,816.111,816.111,816.46,NA,NA,NA,NA,NA,NA,NA,TRUE,3,1.665,813.107,816.111,NA,NA,NA,NA,NA,10,30,0,101,101,10,1,2,102,"likert"
"D1DB52035DA44D2299EF920A5BE63D37",1,"0198f77d-f496-7c8e-876d-5439001ccddc","0198f768-e4d2-711c-944b-6f03c09216de","2025-08-29_15h21.50.492",NA,NA,819.461,819.461,819.461,819.813,NA,NA,NA,NA,NA,NA,NA,TRUE,3,2.294,816.461,819.461,NA,NA,NA,NA,NA,30,32,0,102,102,46,1,2,103,"likert"
"D1DB52035DA44D2299EF920A5BE63D37",1,"0198f77d-f496-7c8e-876d-5439001ccddc","0198f768-e4d2-711c-944b-6f03c09216de","2025-08-29_15h21.50.492",NA,NA,822.815,822.815,822.815,823.165,NA,NA,NA,NA,NA,NA,NA,TRUE,5,1.402,819.814,822.814,NA,NA,NA,NA,NA,50,46,0,103,103,64,1,2,104,"likert"
"D1DB52035DA44D2299EF920A5BE63D37",1,"0198f77d-f496-7c8e-876d-5439001ccddc","0198f768-e4d2-711c-944b-6f03c09216de","2025-08-29_15h21.50.492",NA,NA,826.169,826.169,826.169,826.517,NA,NA,NA,NA,NA,NA,NA,TRUE,4,1.266,823.166,826.168,NA,NA,NA,NA,NA,45,35,0,104,104,57,1,2,105,"likert"
"D1DB52035DA44D2299EF920A5BE63D37",1,"0198f77d-f496-7c8e-876d-5439001ccddc","0198f768-e4d2-711c-944b-6f03c09216de","2025-08-29_15h21.50.492",NA,NA,829.52,829.52,829.52,829.869,NA,NA,NA,NA,NA,NA,NA,TRUE,1,1.72,826.521,829.52,NA,NA,NA,NA,NA,60,29,0,105,105,66,1,2,106,"likert"
"D1DB52035DA44D2299EF920A5BE63D37",1,"0198f77d-f496-7c8e-876d-5439001ccddc","0198f768-e4d2-711c-944b-6f03c09216de","2025-08-29_15h21.50.492",NA,NA,832.856,832.856,832.856,833.221,NA,NA,NA,NA,NA,NA,NA,TRUE,1,1.049,829.871,832.856,NA,NA,NA,NA,NA,14,25,0,106,106,18,1,2,107,"likert"
"D1DB52035DA44D2299EF920A5BE63D37",1,"0198f77d-f496-7c8e-876d-5439001ccddc","0198f768-e4d2-711c-944b-6f03c09216de","2025-08-29_15h21.50.492",NA,NA,836.208,836.208,836.208,836.559,NA,NA,NA,NA,NA,NA,NA,TRUE,3,1.398,833.222,836.207,NA,NA,NA,NA,NA,7,32,0,107,107,4,1,2,108,"likert"
