"participant","session","assignmentId","projectId","date","practiceTrial.started","practiceTrial.stopped","tooLate.started","tooLate.stopped","blank.started","blank.stopped","trials_pract.thisRepN","trials_pract.thisTrialN","trials_pract.thisN","trials_pract.thisIndex","trials_pract.ran","delay_pract","amount_pract","responseMade","key","rt","trial.started","trial.stopped","trials.thisRepN","trials.thisTrialN","trials.thisN","trials.thisIndex","trials.ran","delay","amount","trials_2.thisRepN","trials_2.thisTrialN","trials_2.thisN","trials_2.thisIndex","trials_2.ran","block","trial","taskType"
"E0D18BBBCD6B4625A1281C4347DED50B",1,"01990a98-5398-7822-ade9-4b22bdf38d08","01990a84-c4ee-73c2-a87b-ff46a7d3dde5","2025-09-02_09h23.36.458",21.2629,24.2463,24.2479,24.4982,24.4982,24.5955,0,0,0,2,1,14,45,FALSE,NA,NA,NA,NA,NA,NA,NA,NA,NA,NA,NA,NA,NA,NA,NA,NA,0,1,"likert"
"E0D18BBBCD6B4625A1281C4347DED50B",1,"01990a98-5398-7822-ade9-4b22bdf38d08","01990a84-c4ee-73c2-a87b-ff46a7d3dde5","2025-09-02_09h23.36.458",24.5968,27.5989,27.5991,27.5993,27.5995,27.9471,0,1,1,4,1,30,40,TRUE,1,2.5936,NA,NA,NA,NA,NA,NA,NA,NA,NA,NA,NA,NA,NA,NA,0,2,"likert"
"E0D18BBBCD6B4625A1281C4347DED50B",1,"01990a98-5398-7822-ade9-4b22bdf38d08","01990a84-c4ee-73c2-a87b-ff46a7d3dde5","2025-09-02_09h23.36.458",27.9482,30.9487,30.9489,30.9489,30.949,31.2956,0,2,2,0,1,7,30,TRUE,1,1.4692,NA,NA,NA,NA,NA,NA,NA,NA,NA,NA,NA,NA,NA,NA,0,3,"likert"
"E0D18BBBCD6B4625A1281C4347DED50B",1,"01990a98-5398-7822-ade9-4b22bdf38d08","01990a84-c4ee-73c2-a87b-ff46a7d3dde5","2025-09-02_09h23.36.458",31.2978,34.2956,34.2958,34.5481,34.5481,34.6486,0,3,3,3,1,3,27,FALSE,NA,NA,NA,NA,NA,NA,NA,NA,NA,NA,NA,NA,NA,NA,NA,NA,0,4,"likert"
"E0D18BBBCD6B4625A1281C4347DED50B",1,"01990a98-5398-7822-ade9-4b22bdf38d08","01990a84-c4ee-73c2-a87b-ff46a7d3dde5","2025-09-02_09h23.36.458",34.6499,37.6453,37.6454,37.6456,37.6457,37.9959,0,4,4,1,1,100,50,TRUE,1,1.8011,NA,NA,NA,NA,NA,NA,NA,NA,NA,NA,NA,NA,NA,NA,0,5,"likert"
"E0D18BBBCD6B4625A1281C4347DED50B",1,"01990a98-5398-7822-ade9-4b22bdf38d08","01990a84-c4ee-73c2-a87b-ff46a7d3dde5","2025-09-02_09h23.36.458",NA,NA,65.0966,65.0967,65.0968,65.4494,NA,NA,NA,NA,NA,NA,NA,TRUE,4,2.1647,62.1093,65.096,0,0,0,10,1,10,30,NA,NA,NA,NA,NA,1,1,"likert"
"E0D18BBBCD6B4625A1281C4347DED50B",1,"01990a98-5398-7822-ade9-4b22bdf38d08","01990a84-c4ee-73c2-a87b-ff46a7d3dde5","2025-09-02_09h23.36.458",NA,NA,68.4493,68.4493,68.4493,68.7954,NA,NA,NA,NA,NA,NA,NA,TRUE,1,2.1551,65.45,68.4491,0,1,1,92,1,150,35,NA,NA,NA,NA,NA,1,2,"likert"
"E0D18BBBCD6B4625A1281C4347DED50B",1,"01990a98-5398-7822-ade9-4b22bdf38d08","01990a84-c4ee-73c2-a87b-ff46a7d3dde5","2025-09-02_09h23.36.458",NA,NA,71.7951,71.7951,71.7951,72.1498,NA,NA,NA,NA,NA,NA,NA,TRUE,5,1.993,68.797,71.795,0,2,2,70,1,60,47,NA,NA,NA,NA,NA,1,3,"likert"
"E0D18BBBCD6B4625A1281C4347DED50B",1,"01990a98-5398-7822-ade9-4b22bdf38d08","01990a84-c4ee-73c2-a87b-ff46a7d3dde5","2025-09-02_09h23.36.458",NA,NA,75.1342,75.1342,75.1342,75.4859,NA,NA,NA,NA,NA,NA,NA,TRUE,1,1.0871,72.1519,75.1341,0,3,3,80,1,95,35,NA,NA,NA,NA,NA,1,4,"likert"
"E0D18BBBCD6B4625A1281C4347DED50B",1,"01990a98-5398-7822-ade9-4b22bdf38d08","01990a84-c4ee-73c2-a87b-ff46a7d3dde5","2025-09-02_09h23.36.458",NA,NA,78.5005,78.5005,78.5005,78.8355,NA,NA,NA,NA,NA,NA,NA,TRUE,2,1.866,75.4877,78.5003,0,4,4,99,1,180,39,NA,NA,NA,NA,NA,1,5,"likert"
"E0D18BBBCD6B4625A1281C4347DED50B",1,"01990a98-5398-7822-ade9-4b22bdf38d08","01990a84-c4ee-73c2-a87b-ff46a7d3dde5","2025-09-02_09h23.36.458",NA,NA,81.8349,81.8349,81.8349,82.1997,NA,NA,NA,NA,NA,NA,NA,TRUE,1,1.0197,78.8364,81.8348,0,5,5,60,1,50,27,NA,NA,NA,NA,NA,1,6,"likert"
"E0D18BBBCD6B4625A1281C4347DED50B",1,"01990a98-5398-7822-ade9-4b22bdf38d08","01990a84-c4ee-73c2-a87b-ff46a7d3dde5","2025-09-02_09h23.36.458",NA,NA,85.1852,85.1852,85.1852,85.5513,NA,NA,NA,NA,NA,NA,NA,TRUE,5,1.3827,82.2002,85.185,0,6,6,41,1,28,46,NA,NA,NA,NA,NA,1,7,"likert"
"E0D18BBBCD6B4625A1281C4347DED50B",1,"01990a98-5398-7822-ade9-4b22bdf38d08","01990a84-c4ee-73c2-a87b-ff46a7d3dde5","2025-09-02_09h23.36.458",NA,NA,88.5454,88.5456,88.5456,88.9067,NA,NA,NA,NA,NA,NA,NA,TRUE,1,1.0605,85.552,88.5453,0,7,7,100,1,180,46,NA,NA,NA,NA,NA,1,8,"likert"
"E0D18BBBCD6B4625A1281C4347DED50B",1,"01990a98-5398-7822-ade9-4b22bdf38d08","01990a84-c4ee-73c2-a87b-ff46a7d3dde5","2025-09-02_09h23.36.458",NA,NA,91.8961,91.8962,91.8965,92.2363,NA,NA,NA,NA,NA,NA,NA,TRUE,2,0.451,88.9074,91.8959,0,8,8,14,1,12,28,NA,NA,NA,NA,NA,1,9,"likert"
"E0D18BBBCD6B4625A1281C4347DED50B",1,"01990a98-5398-7822-ade9-4b22bdf38d08","01990a84-c4ee-73c2-a87b-ff46a7d3dde5","2025-09-02_09h23.36.458",NA,NA,95.2525,95.2526,95.2527,95.5853,NA,NA,NA,NA,NA,NA,NA,TRUE,1,1.9037,92.237,95.2524,0,9,9,27,1,21,30,NA,NA,NA,NA,NA,1,10,"likert"
"E0D18BBBCD6B4625A1281C4347DED50B",1,"01990a98-5398-7822-ade9-4b22bdf38d08","01990a84-c4ee-73c2-a87b-ff46a7d3dde5","2025-09-02_09h23.36.458",NA,NA,98.5948,98.5948,98.5948,98.9479,NA,NA,NA,NA,NA,NA,NA,TRUE,1,1.0349,95.5873,98.5946,0,10,10,87,1,100,39,NA,NA,NA,NA,NA,1,11,"likert"
"E0D18BBBCD6B4625A1281C4347DED50B",1,"01990a98-5398-7822-ade9-4b22bdf38d08","01990a84-c4ee-73c2-a87b-ff46a7d3dde5","2025-09-02_09h23.36.458",NA,NA,101.9485,101.9486,101.9486,102.3009,NA,NA,NA,NA,NA,NA,NA,TRUE,3,1.1804,98.9487,101.9484,0,11,11,40,1,28,39,NA,NA,NA,NA,NA,1,12,"likert"
"E0D18BBBCD6B4625A1281C4347DED50B",1,"01990a98-5398-7822-ade9-4b22bdf38d08","01990a84-c4ee-73c2-a87b-ff46a7d3dde5","2025-09-02_09h23.36.458",NA,NA,105.2948,105.2948,105.2948,105.6453,NA,NA,NA,NA,NA,NA,NA,TRUE,1,0.9183,102.3022,105.2947,0,12,12,58,1,45,40,NA,NA,NA,NA,NA,1,13,"likert"
"E0D18BBBCD6B4625A1281C4347DED50B",1,"01990a98-5398-7822-ade9-4b22bdf38d08","01990a84-c4ee-73c2-a87b-ff46a7d3dde5","2025-09-02_09h23.36.458",NA,NA,108.6494,108.6494,108.6494,108.997,NA,NA,NA,NA,NA,NA,NA,TRUE,2,0.5101,105.647,108.6493,0,13,13,85,1,100,31,NA,NA,NA,NA,NA,1,14,"likert"
"E0D18BBBCD6B4625A1281C4347DED50B",1,"01990a98-5398-7822-ade9-4b22bdf38d08","01990a84-c4ee-73c2-a87b-ff46a7d3dde5","2025-09-02_09h23.36.458",NA,NA,112.0016,112.2445,112.2446,112.348,NA,NA,NA,NA,NA,NA,NA,FALSE,NA,NA,108.9977,112.0016,0,14,14,23,1,14,39,NA,NA,NA,NA,NA,1,15,"likert"
"E0D18BBBCD6B4625A1281C4347DED50B",1,"01990a98-5398-7822-ade9-4b22bdf38d08","01990a84-c4ee-73c2-a87b-ff46a7d3dde5","2025-09-02_09h23.36.458",NA,NA,115.3448,115.3448,115.3448,115.6948,NA,NA,NA,NA,NA,NA,NA,TRUE,2,1.3362,112.3487,115.3446,0,15,15,106,1,200,47,NA,NA,NA,NA,NA,1,16,"likert"
"E0D18BBBCD6B4625A1281C4347DED50B",1,"01990a98-5398-7822-ade9-4b22bdf38d08","01990a84-c4ee-73c2-a87b-ff46a7d3dde5","2025-09-02_09h23.36.458",NA,NA,118.6948,118.6948,118.6948,119.0366,NA,NA,NA,NA,NA,NA,NA,TRUE,1,0.6589,115.6956,118.6947,0,16,16,69,1,60,40,NA,NA,NA,NA,NA,1,17,"likert"
"E0D18BBBCD6B4625A1281C4347DED50B",1,"01990a98-5398-7822-ade9-4b22bdf38d08","01990a84-c4ee-73c2-a87b-ff46a7d3dde5","2025-09-02_09h23.36.458",NA,NA,122.0449,122.0449,122.0449,122.3978,NA,NA,NA,NA,NA,NA,NA,TRUE,1,0.8548,119.0375,122.0449,0,17,17,31,1,25,29,NA,NA,NA,NA,NA,1,18,"likert"
"E0D18BBBCD6B4625A1281C4347DED50B",1,"01990a98-5398-7822-ade9-4b22bdf38d08","01990a84-c4ee-73c2-a87b-ff46a7d3dde5","2025-09-02_09h23.36.458",NA,NA,125.398,125.398,125.398,125.7509,NA,NA,NA,NA,NA,NA,NA,TRUE,1,1.2987,122.3988,125.3979,0,18,18,44,1,30,29,NA,NA,NA,NA,NA,1,19,"likert"
"E0D18BBBCD6B4625A1281C4347DED50B",1,"01990a98-5398-7822-ade9-4b22bdf38d08","01990a84-c4ee-73c2-a87b-ff46a7d3dde5","2025-09-02_09h23.36.458",NA,NA,128.7509,128.7509,128.7509,129.0852,NA,NA,NA,NA,NA,NA,NA,TRUE,1,1.786,125.7515,128.7509,0,19,19,71,1,60,54,NA,NA,NA,NA,NA,1,20,"likert"
"E0D18BBBCD6B4625A1281C4347DED50B",1,"01990a98-5398-7822-ade9-4b22bdf38d08","01990a84-c4ee-73c2-a87b-ff46a7d3dde5","2025-09-02_09h23.36.458",NA,NA,132.1088,132.109,132.109,132.4449,NA,NA,NA,NA,NA,NA,NA,TRUE,1,1.6165,129.086,132.1088,0,20,20,77,1,90,54,NA,NA,NA,NA,NA,1,21,"likert"
"E0D18BBBCD6B4625A1281C4347DED50B",1,"01990a98-5398-7822-ade9-4b22bdf38d08","01990a84-c4ee-73c2-a87b-ff46a7d3dde5","2025-09-02_09h23.36.458",NA,NA,135.4349,135.435,135.435,135.7973,NA,NA,NA,NA,NA,NA,NA,TRUE,1,2.7516,132.4466,135.4348,0,21,21,18,1,14,25,NA,NA,NA,NA,NA,1,22,"likert"
"E0D18BBBCD6B4625A1281C4347DED50B",1,"01990a98-5398-7822-ade9-4b22bdf38d08","01990a84-c4ee-73c2-a87b-ff46a7d3dde5","2025-09-02_09h23.36.458",NA,NA,138.7945,139.0456,139.0457,139.1385,NA,NA,NA,NA,NA,NA,NA,FALSE,NA,NA,135.7986,138.7944,0,22,22,35,1,25,46,NA,NA,NA,NA,NA,1,23,"likert"
"E0D18BBBCD6B4625A1281C4347DED50B",1,"01990a98-5398-7822-ade9-4b22bdf38d08","01990a84-c4ee-73c2-a87b-ff46a7d3dde5","2025-09-02_09h23.36.458",NA,NA,142.145,142.145,142.145,142.4951,NA,NA,NA,NA,NA,NA,NA,TRUE,1,0.4515,139.139,142.1447,0,23,23,83,1,95,54,NA,NA,NA,NA,NA,1,24,"likert"
"E0D18BBBCD6B4625A1281C4347DED50B",1,"01990a98-5398-7822-ade9-4b22bdf38d08","01990a84-c4ee-73c2-a87b-ff46a7d3dde5","2025-09-02_09h23.36.458",NA,NA,145.4992,145.4993,145.4993,145.8479,NA,NA,NA,NA,NA,NA,NA,TRUE,1,2.2368,142.4975,145.4991,0,24,24,43,1,30,27,NA,NA,NA,NA,NA,1,25,"likert"
"E0D18BBBCD6B4625A1281C4347DED50B",1,"01990a98-5398-7822-ade9-4b22bdf38d08","01990a84-c4ee-73c2-a87b-ff46a7d3dde5","2025-09-02_09h23.36.458",NA,NA,148.8495,148.8497,148.8497,149.1994,NA,NA,NA,NA,NA,NA,NA,TRUE,3,1.1001,145.8489,148.8493,0,25,25,56,1,45,31,NA,NA,NA,NA,NA,1,26,"likert"
"E0D18BBBCD6B4625A1281C4347DED50B",1,"01990a98-5398-7822-ade9-4b22bdf38d08","01990a84-c4ee-73c2-a87b-ff46a7d3dde5","2025-09-02_09h23.36.458",NA,NA,152.1947,152.1948,152.1948,152.5448,NA,NA,NA,NA,NA,NA,NA,TRUE,1,1.3018,149.2007,152.1945,0,26,26,13,1,12,26,NA,NA,NA,NA,NA,1,27,"likert"
"E0D18BBBCD6B4625A1281C4347DED50B",1,"01990a98-5398-7822-ade9-4b22bdf38d08","01990a84-c4ee-73c2-a87b-ff46a7d3dde5","2025-09-02_09h23.36.458",NA,NA,155.5446,155.5447,155.5447,155.9021,NA,NA,NA,NA,NA,NA,NA,TRUE,2,0.6097,152.5458,155.5445,0,27,27,72,1,90,26,NA,NA,NA,NA,NA,1,28,"likert"
"E0D18BBBCD6B4625A1281C4347DED50B",1,"01990a98-5398-7822-ade9-4b22bdf38d08","01990a84-c4ee-73c2-a87b-ff46a7d3dde5","2025-09-02_09h23.36.458",NA,NA,158.8915,158.8915,158.8915,159.2508,NA,NA,NA,NA,NA,NA,NA,TRUE,1,0.7023,155.9031,158.8914,0,28,28,46,1,30,32,NA,NA,NA,NA,NA,1,29,"likert"
"E0D18BBBCD6B4625A1281C4347DED50B",1,"01990a98-5398-7822-ade9-4b22bdf38d08","01990a84-c4ee-73c2-a87b-ff46a7d3dde5","2025-09-02_09h23.36.458",NA,NA,162.2447,162.2447,162.2447,162.5967,NA,NA,NA,NA,NA,NA,NA,TRUE,1,1.2207,159.2516,162.2446,0,29,29,15,1,12,31,NA,NA,NA,NA,NA,1,30,"likert"
"E0D18BBBCD6B4625A1281C4347DED50B",1,"01990a98-5398-7822-ade9-4b22bdf38d08","01990a84-c4ee-73c2-a87b-ff46a7d3dde5","2025-09-02_09h23.36.458",NA,NA,165.5984,165.5985,165.5985,165.9443,NA,NA,NA,NA,NA,NA,NA,TRUE,2,1.8507,162.5974,165.5983,0,30,30,79,1,95,33,NA,NA,NA,NA,NA,1,31,"likert"
"E0D18BBBCD6B4625A1281C4347DED50B",1,"01990a98-5398-7822-ade9-4b22bdf38d08","01990a84-c4ee-73c2-a87b-ff46a7d3dde5","2025-09-02_09h23.36.458",NA,NA,168.9448,168.9448,168.9449,169.2943,NA,NA,NA,NA,NA,NA,NA,TRUE,2,1.0011,165.9458,168.9447,0,31,31,25,1,21,27,NA,NA,NA,NA,NA,1,32,"likert"
"E0D18BBBCD6B4625A1281C4347DED50B",1,"01990a98-5398-7822-ade9-4b22bdf38d08","01990a84-c4ee-73c2-a87b-ff46a7d3dde5","2025-09-02_09h23.36.458",NA,NA,172.2949,172.2949,172.2949,172.645,NA,NA,NA,NA,NA,NA,NA,TRUE,1,0.3878,169.2953,172.2948,0,32,32,76,1,90,46,NA,NA,NA,NA,NA,1,33,"likert"
"E0D18BBBCD6B4625A1281C4347DED50B",1,"01990a98-5398-7822-ade9-4b22bdf38d08","01990a84-c4ee-73c2-a87b-ff46a7d3dde5","2025-09-02_09h23.36.458",NA,NA,175.6485,175.6492,175.6493,175.9971,NA,NA,NA,NA,NA,NA,NA,TRUE,1,0.6547,172.6462,175.6484,0,33,33,74,1,90,33,NA,NA,NA,NA,NA,1,34,"likert"
"E0D18BBBCD6B4625A1281C4347DED50B",1,"01990a98-5398-7822-ade9-4b22bdf38d08","01990a84-c4ee-73c2-a87b-ff46a7d3dde5","2025-09-02_09h23.36.458",NA,NA,178.9979,178.9979,178.9979,179.3457,NA,NA,NA,NA,NA,NA,NA,TRUE,1,0.8731,175.9985,178.9978,0,34,34,30,1,25,27,NA,NA,NA,NA,NA,1,35,"likert"
"E0D18BBBCD6B4625A1281C4347DED50B",1,"01990a98-5398-7822-ade9-4b22bdf38d08","01990a84-c4ee-73c2-a87b-ff46a7d3dde5","2025-09-02_09h23.36.458",NA,NA,182.3639,182.364,182.364,182.6983,NA,NA,NA,NA,NA,NA,NA,TRUE,1,1.1324,179.3466,182.3639,0,35,35,6,1,10,25,NA,NA,NA,NA,NA,1,36,"likert"
"E0D18BBBCD6B4625A1281C4347DED50B",1,"01990a98-5398-7822-ade9-4b22bdf38d08","01990a84-c4ee-73c2-a87b-ff46a7d3dde5","2025-09-02_09h23.36.458",NA,NA,185.6845,185.6845,185.6845,186.0448,NA,NA,NA,NA,NA,NA,NA,TRUE,1,0.5514,182.6996,185.6844,0,36,36,32,1,25,31,NA,NA,NA,NA,NA,1,37,"likert"
"E0D18BBBCD6B4625A1281C4347DED50B",1,"01990a98-5398-7822-ade9-4b22bdf38d08","01990a84-c4ee-73c2-a87b-ff46a7d3dde5","2025-09-02_09h23.36.458",NA,NA,189.0407,189.0407,189.0407,189.3952,NA,NA,NA,NA,NA,NA,NA,TRUE,1,0.6006,186.0464,189.0407,0,37,37,65,1,50,54,NA,NA,NA,NA,NA,1,38,"likert"
"E0D18BBBCD6B4625A1281C4347DED50B",1,"01990a98-5398-7822-ade9-4b22bdf38d08","01990a84-c4ee-73c2-a87b-ff46a7d3dde5","2025-09-02_09h23.36.458",NA,NA,192.3996,192.3997,192.3997,192.7443,NA,NA,NA,NA,NA,NA,NA,TRUE,1,0.6934,189.3969,192.3996,0,38,38,19,1,14,26,NA,NA,NA,NA,NA,1,39,"likert"
"E0D18BBBCD6B4625A1281C4347DED50B",1,"01990a98-5398-7822-ade9-4b22bdf38d08","01990a84-c4ee-73c2-a87b-ff46a7d3dde5","2025-09-02_09h23.36.458",NA,NA,195.7509,195.7511,195.7511,196.0871,NA,NA,NA,NA,NA,NA,NA,TRUE,2,0.4959,192.7455,195.7508,0,39,39,61,1,50,30,NA,NA,NA,NA,NA,1,40,"likert"
"E0D18BBBCD6B4625A1281C4347DED50B",1,"01990a98-5398-7822-ade9-4b22bdf38d08","01990a84-c4ee-73c2-a87b-ff46a7d3dde5","2025-09-02_09h23.36.458",NA,NA,199.099,199.0991,199.0991,199.4326,NA,NA,NA,NA,NA,NA,NA,TRUE,1,0.6196,196.0877,199.0989,0,40,40,28,1,21,32,NA,NA,NA,NA,NA,1,41,"likert"
"E0D18BBBCD6B4625A1281C4347DED50B",1,"01990a98-5398-7822-ade9-4b22bdf38d08","01990a84-c4ee-73c2-a87b-ff46a7d3dde5","2025-09-02_09h23.36.458",NA,NA,202.4473,202.4474,202.4474,202.7943,NA,NA,NA,NA,NA,NA,NA,TRUE,1,0.2704,199.4336,202.4472,0,41,41,24,1,21,26,NA,NA,NA,NA,NA,1,42,"likert"
"E0D18BBBCD6B4625A1281C4347DED50B",1,"01990a98-5398-7822-ade9-4b22bdf38d08","01990a84-c4ee-73c2-a87b-ff46a7d3dde5","2025-09-02_09h23.36.458",NA,NA,205.7969,205.7973,205.7973,206.1443,NA,NA,NA,NA,NA,NA,NA,TRUE,1,0.7536,202.7954,205.7965,0,42,42,55,1,45,29,NA,NA,NA,NA,NA,1,43,"likert"
"E0D18BBBCD6B4625A1281C4347DED50B",1,"01990a98-5398-7822-ade9-4b22bdf38d08","01990a84-c4ee-73c2-a87b-ff46a7d3dde5","2025-09-02_09h23.36.458",NA,NA,209.1475,209.1475,209.1476,209.4941,NA,NA,NA,NA,NA,NA,NA,TRUE,1,0.8413,206.1455,209.1474,0,43,43,107,1,200,54,NA,NA,NA,NA,NA,1,44,"likert"
"E0D18BBBCD6B4625A1281C4347DED50B",1,"01990a98-5398-7822-ade9-4b22bdf38d08","01990a84-c4ee-73c2-a87b-ff46a7d3dde5","2025-09-02_09h23.36.458",NA,NA,212.4949,212.495,212.495,212.8491,NA,NA,NA,NA,NA,NA,NA,TRUE,1,1.2987,209.4949,212.4945,0,44,44,62,1,50,35,NA,NA,NA,NA,NA,1,45,"likert"
"E0D18BBBCD6B4625A1281C4347DED50B",1,"01990a98-5398-7822-ade9-4b22bdf38d08","01990a84-c4ee-73c2-a87b-ff46a7d3dde5","2025-09-02_09h23.36.458",NA,NA,215.8445,215.8445,215.8445,216.1944,NA,NA,NA,NA,NA,NA,NA,TRUE,1,0.9613,212.8505,215.8444,0,45,45,90,1,150,31,NA,NA,NA,NA,NA,1,46,"likert"
"E0D18BBBCD6B4625A1281C4347DED50B",1,"01990a98-5398-7822-ade9-4b22bdf38d08","01990a84-c4ee-73c2-a87b-ff46a7d3dde5","2025-09-02_09h23.36.458",NA,NA,219.1964,219.1964,219.1964,219.5444,NA,NA,NA,NA,NA,NA,NA,TRUE,2,1.4191,216.1959,219.1964,0,46,46,101,1,180,54,NA,NA,NA,NA,NA,1,47,"likert"
"E0D18BBBCD6B4625A1281C4347DED50B",1,"01990a98-5398-7822-ade9-4b22bdf38d08","01990a84-c4ee-73c2-a87b-ff46a7d3dde5","2025-09-02_09h23.36.458",NA,NA,222.548,222.5482,222.5483,222.895,NA,NA,NA,NA,NA,NA,NA,TRUE,1,0.9891,219.5459,222.5479,0,47,47,67,1,60,33,NA,NA,NA,NA,NA,1,48,"likert"
"E0D18BBBCD6B4625A1281C4347DED50B",1,"01990a98-5398-7822-ade9-4b22bdf38d08","01990a84-c4ee-73c2-a87b-ff46a7d3dde5","2025-09-02_09h23.36.458",NA,NA,225.8985,225.8986,225.8986,226.2538,NA,NA,NA,NA,NA,NA,NA,TRUE,1,1.2953,222.8967,225.8983,0,48,48,0,1,7,25,NA,NA,NA,NA,NA,1,49,"likert"
"E0D18BBBCD6B4625A1281C4347DED50B",1,"01990a98-5398-7822-ade9-4b22bdf38d08","01990a84-c4ee-73c2-a87b-ff46a7d3dde5","2025-09-02_09h23.36.458",NA,NA,229.2447,229.2447,229.2447,229.5944,NA,NA,NA,NA,NA,NA,NA,TRUE,1,1.1247,226.2545,229.2444,0,49,49,86,1,100,38,NA,NA,NA,NA,NA,1,50,"likert"
"E0D18BBBCD6B4625A1281C4347DED50B",1,"01990a98-5398-7822-ade9-4b22bdf38d08","01990a84-c4ee-73c2-a87b-ff46a7d3dde5","2025-09-02_09h23.36.458",NA,NA,232.6023,232.6023,232.6023,232.9441,NA,NA,NA,NA,NA,NA,NA,TRUE,2,1.0031,229.5957,232.6022,0,50,50,93,1,150,40,NA,NA,NA,NA,NA,1,51,"likert"
"E0D18BBBCD6B4625A1281C4347DED50B",1,"01990a98-5398-7822-ade9-4b22bdf38d08","01990a84-c4ee-73c2-a87b-ff46a7d3dde5","2025-09-02_09h23.36.458",NA,NA,235.9469,235.9469,235.9469,236.2949,NA,NA,NA,NA,NA,NA,NA,TRUE,1,1.3932,232.9462,235.9469,0,51,51,47,1,30,38,NA,NA,NA,NA,NA,1,52,"likert"
"E0D18BBBCD6B4625A1281C4347DED50B",1,"01990a98-5398-7822-ade9-4b22bdf38d08","01990a84-c4ee-73c2-a87b-ff46a7d3dde5","2025-09-02_09h23.36.458",NA,NA,239.294,239.294,239.2941,239.6417,NA,NA,NA,NA,NA,NA,NA,TRUE,2,1.2534,236.2969,239.2939,0,52,52,105,1,200,39,NA,NA,NA,NA,NA,1,53,"likert"
"E0D18BBBCD6B4625A1281C4347DED50B",1,"01990a98-5398-7822-ade9-4b22bdf38d08","01990a84-c4ee-73c2-a87b-ff46a7d3dde5","2025-09-02_09h23.36.458",NA,NA,242.6353,242.6353,242.6353,242.9862,NA,NA,NA,NA,NA,NA,NA,TRUE,1,2.0224,239.6425,242.6351,0,53,53,12,1,12,25,NA,NA,NA,NA,NA,1,54,"likert"
"E0D18BBBCD6B4625A1281C4347DED50B",1,"01990a98-5398-7822-ade9-4b22bdf38d08","01990a84-c4ee-73c2-a87b-ff46a7d3dde5","2025-09-02_09h23.36.458",NA,NA,245.9846,245.9848,245.9848,246.3517,NA,NA,NA,NA,NA,NA,NA,TRUE,2,2.4833,242.9869,245.9844,0,54,54,103,1,200,28,NA,NA,NA,NA,NA,1,55,"likert"
"E0D18BBBCD6B4625A1281C4347DED50B",1,"01990a98-5398-7822-ade9-4b22bdf38d08","01990a84-c4ee-73c2-a87b-ff46a7d3dde5","2025-09-02_09h23.36.458",NA,NA,249.348,249.3481,249.3481,249.6846,NA,NA,NA,NA,NA,NA,NA,TRUE,3,0.7216,246.3526,249.348,0,55,55,91,1,150,33,NA,NA,NA,NA,NA,1,56,"likert"
"E0D18BBBCD6B4625A1281C4347DED50B",1,"01990a98-5398-7822-ade9-4b22bdf38d08","01990a84-c4ee-73c2-a87b-ff46a7d3dde5","2025-09-02_09h23.36.458",NA,NA,252.6946,252.6946,252.6946,253.0444,NA,NA,NA,NA,NA,NA,NA,TRUE,2,2.8184,249.6854,252.6944,0,56,56,45,1,30,30,NA,NA,NA,NA,NA,1,57,"likert"
"E0D18BBBCD6B4625A1281C4347DED50B",1,"01990a98-5398-7822-ade9-4b22bdf38d08","01990a84-c4ee-73c2-a87b-ff46a7d3dde5","2025-09-02_09h23.36.458",NA,NA,256.0448,256.0448,256.0449,256.3941,NA,NA,NA,NA,NA,NA,NA,TRUE,4,2.1931,253.0457,256.0446,0,57,57,50,1,40,35,NA,NA,NA,NA,NA,1,58,"likert"
"E0D18BBBCD6B4625A1281C4347DED50B",1,"01990a98-5398-7822-ade9-4b22bdf38d08","01990a84-c4ee-73c2-a87b-ff46a7d3dde5","2025-09-02_09h23.36.458",NA,NA,259.388,259.388,259.388,259.7461,NA,NA,NA,NA,NA,NA,NA,TRUE,2,1.3683,256.3958,259.3879,0,58,58,51,1,40,40,NA,NA,NA,NA,NA,1,59,"likert"
"E0D18BBBCD6B4625A1281C4347DED50B",1,"01990a98-5398-7822-ade9-4b22bdf38d08","01990a84-c4ee-73c2-a87b-ff46a7d3dde5","2025-09-02_09h23.36.458",NA,NA,262.7472,262.7472,262.7472,263.1006,NA,NA,NA,NA,NA,NA,NA,TRUE,2,0.7136,259.7468,262.7471,0,59,59,57,1,45,35,NA,NA,NA,NA,NA,1,60,"likert"
"E0D18BBBCD6B4625A1281C4347DED50B",1,"01990a98-5398-7822-ade9-4b22bdf38d08","01990a84-c4ee-73c2-a87b-ff46a7d3dde5","2025-09-02_09h23.36.458",NA,NA,266.0952,266.0956,266.0957,266.4458,NA,NA,NA,NA,NA,NA,NA,TRUE,1,0.633,263.1014,266.0949,0,60,60,34,1,25,35,NA,NA,NA,NA,NA,1,61,"likert"
"E0D18BBBCD6B4625A1281C4347DED50B",1,"01990a98-5398-7822-ade9-4b22bdf38d08","01990a84-c4ee-73c2-a87b-ff46a7d3dde5","2025-09-02_09h23.36.458",NA,NA,269.4483,269.4484,269.4484,269.7937,NA,NA,NA,NA,NA,NA,NA,TRUE,3,1.8714,266.4468,269.4482,0,61,61,68,1,60,35,NA,NA,NA,NA,NA,1,62,"likert"
"E0D18BBBCD6B4625A1281C4347DED50B",1,"01990a98-5398-7822-ade9-4b22bdf38d08","01990a84-c4ee-73c2-a87b-ff46a7d3dde5","2025-09-02_09h23.36.458",NA,NA,272.7978,272.7979,272.7979,273.1445,NA,NA,NA,NA,NA,NA,NA,TRUE,2,1.5396,269.795,272.7977,0,62,62,54,1,45,26,NA,NA,NA,NA,NA,1,63,"likert"
"E0D18BBBCD6B4625A1281C4347DED50B",1,"01990a98-5398-7822-ade9-4b22bdf38d08","01990a84-c4ee-73c2-a87b-ff46a7d3dde5","2025-09-02_09h23.36.458",NA,NA,276.145,276.145,276.145,276.494,NA,NA,NA,NA,NA,NA,NA,TRUE,2,1.172,273.1465,276.1443,0,63,63,11,1,10,32,NA,NA,NA,NA,NA,1,64,"likert"
"E0D18BBBCD6B4625A1281C4347DED50B",1,"01990a98-5398-7822-ade9-4b22bdf38d08","01990a84-c4ee-73c2-a87b-ff46a7d3dde5","2025-09-02_09h23.36.458",NA,NA,279.4845,279.4845,279.4845,279.8507,NA,NA,NA,NA,NA,NA,NA,TRUE,2,0.7183,276.4947,279.4842,0,64,64,66,1,60,29,NA,NA,NA,NA,NA,1,65,"likert"
"E0D18BBBCD6B4625A1281C4347DED50B",1,"01990a98-5398-7822-ade9-4b22bdf38d08","01990a84-c4ee-73c2-a87b-ff46a7d3dde5","2025-09-02_09h23.36.458",NA,NA,282.8448,282.8448,282.8448,283.1941,NA,NA,NA,NA,NA,NA,NA,TRUE,2,1.802,279.8514,282.8447,0,65,65,8,1,10,27,NA,NA,NA,NA,NA,1,66,"likert"
"E0D18BBBCD6B4625A1281C4347DED50B",1,"01990a98-5398-7822-ade9-4b22bdf38d08","01990a84-c4ee-73c2-a87b-ff46a7d3dde5","2025-09-02_09h23.36.458",NA,NA,286.1985,286.1985,286.1985,286.5453,NA,NA,NA,NA,NA,NA,NA,TRUE,2,0.5819,283.1955,286.1984,0,66,66,84,1,100,26,NA,NA,NA,NA,NA,1,67,"likert"
"E0D18BBBCD6B4625A1281C4347DED50B",1,"01990a98-5398-7822-ade9-4b22bdf38d08","01990a84-c4ee-73c2-a87b-ff46a7d3dde5","2025-09-02_09h23.36.458",NA,NA,289.5649,289.565,289.565,289.8974,NA,NA,NA,NA,NA,NA,NA,TRUE,1,2.2445,286.5465,289.5647,0,67,67,4,1,7,32,NA,NA,NA,NA,NA,1,68,"likert"
"E0D18BBBCD6B4625A1281C4347DED50B",1,"01990a98-5398-7822-ade9-4b22bdf38d08","01990a84-c4ee-73c2-a87b-ff46a7d3dde5","2025-09-02_09h23.36.458",NA,NA,292.8939,292.8939,292.8939,293.2438,NA,NA,NA,NA,NA,NA,NA,TRUE,2,0.7817,289.8988,292.8938,0,68,68,29,1,21,38,NA,NA,NA,NA,NA,1,69,"likert"
"E0D18BBBCD6B4625A1281C4347DED50B",1,"01990a98-5398-7822-ade9-4b22bdf38d08","01990a84-c4ee-73c2-a87b-ff46a7d3dde5","2025-09-02_09h23.36.458",NA,NA,296.2474,296.2476,296.2476,296.5858,NA,NA,NA,NA,NA,NA,NA,TRUE,1,0.6432,293.2451,296.2474,0,69,69,52,1,40,47,NA,NA,NA,NA,NA,1,70,"likert"
"E0D18BBBCD6B4625A1281C4347DED50B",1,"01990a98-5398-7822-ade9-4b22bdf38d08","01990a84-c4ee-73c2-a87b-ff46a7d3dde5","2025-09-02_09h23.36.458",NA,NA,299.5992,299.5993,299.5993,299.9337,NA,NA,NA,NA,NA,NA,NA,TRUE,2,1.0847,296.5866,299.5991,0,70,70,48,1,40,27,NA,NA,NA,NA,NA,1,71,"likert"
"E0D18BBBCD6B4625A1281C4347DED50B",1,"01990a98-5398-7822-ade9-4b22bdf38d08","01990a84-c4ee-73c2-a87b-ff46a7d3dde5","2025-09-02_09h23.36.458",NA,NA,302.9502,302.9502,302.9502,303.2945,NA,NA,NA,NA,NA,NA,NA,TRUE,2,1.2736,299.9348,302.95,0,71,71,38,1,28,32,NA,NA,NA,NA,NA,1,72,"likert"
"E0D18BBBCD6B4625A1281C4347DED50B",1,"01990a98-5398-7822-ade9-4b22bdf38d08","01990a84-c4ee-73c2-a87b-ff46a7d3dde5","2025-09-02_09h23.36.458",NA,NA,306.3016,306.3016,306.3016,306.6472,NA,NA,NA,NA,NA,NA,NA,TRUE,1,1.4195,303.2966,306.3015,0,72,72,26,1,21,29,NA,NA,NA,NA,NA,1,73,"likert"
"E0D18BBBCD6B4625A1281C4347DED50B",1,"01990a98-5398-7822-ade9-4b22bdf38d08","01990a84-c4ee-73c2-a87b-ff46a7d3dde5","2025-09-02_09h23.36.458",NA,NA,309.6442,309.6442,309.6443,309.9806,NA,NA,NA,NA,NA,NA,NA,TRUE,1,1.2489,306.6484,309.6438,0,73,73,78,1,95,31,NA,NA,NA,NA,NA,1,74,"likert"
"E0D18BBBCD6B4625A1281C4347DED50B",1,"01990a98-5398-7822-ade9-4b22bdf38d08","01990a84-c4ee-73c2-a87b-ff46a7d3dde5","2025-09-02_09h23.36.458",NA,NA,312.9949,312.9949,312.9949,313.3443,NA,NA,NA,NA,NA,NA,NA,TRUE,2,1.7223,309.982,312.9947,0,74,74,3,1,7,30,NA,NA,NA,NA,NA,1,75,"likert"
"E0D18BBBCD6B4625A1281C4347DED50B",1,"01990a98-5398-7822-ade9-4b22bdf38d08","01990a84-c4ee-73c2-a87b-ff46a7d3dde5","2025-09-02_09h23.36.458",NA,NA,316.3478,316.3479,316.3479,316.6969,NA,NA,NA,NA,NA,NA,NA,TRUE,1,1.1832,313.3453,316.3477,0,75,75,7,1,10,26,NA,NA,NA,NA,NA,1,76,"likert"
"E0D18BBBCD6B4625A1281C4347DED50B",1,"01990a98-5398-7822-ade9-4b22bdf38d08","01990a84-c4ee-73c2-a87b-ff46a7d3dde5","2025-09-02_09h23.36.458",NA,NA,319.6967,319.6967,319.6967,320.044,NA,NA,NA,NA,NA,NA,NA,TRUE,1,0.9346,316.6976,319.6966,0,76,76,36,1,28,26,NA,NA,NA,NA,NA,1,77,"likert"
"E0D18BBBCD6B4625A1281C4347DED50B",1,"01990a98-5398-7822-ade9-4b22bdf38d08","01990a84-c4ee-73c2-a87b-ff46a7d3dde5","2025-09-02_09h23.36.458",NA,NA,323.0437,323.0438,323.0438,323.3905,NA,NA,NA,NA,NA,NA,NA,TRUE,2,1.5312,320.0455,323.0436,0,77,77,33,1,25,33,NA,NA,NA,NA,NA,1,78,"likert"
"E0D18BBBCD6B4625A1281C4347DED50B",1,"01990a98-5398-7822-ade9-4b22bdf38d08","01990a84-c4ee-73c2-a87b-ff46a7d3dde5","2025-09-02_09h23.36.458",NA,NA,326.3946,326.3946,326.3946,326.7438,NA,NA,NA,NA,NA,NA,NA,TRUE,2,0.869,323.3915,326.3943,0,78,78,9,1,10,29,NA,NA,NA,NA,NA,1,79,"likert"
"E0D18BBBCD6B4625A1281C4347DED50B",1,"01990a98-5398-7822-ade9-4b22bdf38d08","01990a84-c4ee-73c2-a87b-ff46a7d3dde5","2025-09-02_09h23.36.458",NA,NA,329.7437,329.7438,329.7438,330.0933,NA,NA,NA,NA,NA,NA,NA,TRUE,2,0.8173,326.7448,329.7436,0,79,79,37,1,28,28,NA,NA,NA,NA,NA,1,80,"likert"
"E0D18BBBCD6B4625A1281C4347DED50B",1,"01990a98-5398-7822-ade9-4b22bdf38d08","01990a84-c4ee-73c2-a87b-ff46a7d3dde5","2025-09-02_09h23.36.458",NA,NA,333.0861,333.0861,333.0861,333.4351,NA,NA,NA,NA,NA,NA,NA,TRUE,3,1.7168,330.0942,333.0861,0,80,80,17,1,12,35,NA,NA,NA,NA,NA,1,81,"likert"
"E0D18BBBCD6B4625A1281C4347DED50B",1,"01990a98-5398-7822-ade9-4b22bdf38d08","01990a84-c4ee-73c2-a87b-ff46a7d3dde5","2025-09-02_09h23.36.458",NA,NA,336.4343,336.4343,336.4343,336.8004,NA,NA,NA,NA,NA,NA,NA,TRUE,3,1.734,333.436,336.4341,0,81,81,63,1,50,40,NA,NA,NA,NA,NA,1,82,"likert"
"E0D18BBBCD6B4625A1281C4347DED50B",1,"01990a98-5398-7822-ade9-4b22bdf38d08","01990a84-c4ee-73c2-a87b-ff46a7d3dde5","2025-09-02_09h23.36.458",NA,NA,339.7945,339.7946,339.7946,340.1439,NA,NA,NA,NA,NA,NA,NA,TRUE,5,1.3154,336.8011,339.7942,0,82,82,89,1,100,54,NA,NA,NA,NA,NA,1,83,"likert"
"E0D18BBBCD6B4625A1281C4347DED50B",1,"01990a98-5398-7822-ade9-4b22bdf38d08","01990a84-c4ee-73c2-a87b-ff46a7d3dde5","2025-09-02_09h23.36.458",NA,NA,343.1446,343.1446,343.1446,343.4936,NA,NA,NA,NA,NA,NA,NA,TRUE,2,0.6312,340.1454,343.1438,0,83,83,21,1,14,32,NA,NA,NA,NA,NA,1,84,"likert"
"E0D18BBBCD6B4625A1281C4347DED50B",1,"01990a98-5398-7822-ade9-4b22bdf38d08","01990a84-c4ee-73c2-a87b-ff46a7d3dde5","2025-09-02_09h23.36.458",NA,NA,346.4937,346.4939,346.4939,346.8434,NA,NA,NA,NA,NA,NA,NA,TRUE,2,0.8124,343.4949,346.4936,0,84,84,16,1,12,33,NA,NA,NA,NA,NA,1,85,"likert"
"E0D18BBBCD6B4625A1281C4347DED50B",1,"01990a98-5398-7822-ade9-4b22bdf38d08","01990a84-c4ee-73c2-a87b-ff46a7d3dde5","2025-09-02_09h23.36.458",NA,NA,349.8439,349.8439,349.844,350.1999,NA,NA,NA,NA,NA,NA,NA,TRUE,2,0.7677,346.8449,349.8436,0,85,85,49,1,40,33,NA,NA,NA,NA,NA,1,86,"likert"
"E0D18BBBCD6B4625A1281C4347DED50B",1,"01990a98-5398-7822-ade9-4b22bdf38d08","01990a84-c4ee-73c2-a87b-ff46a7d3dde5","2025-09-02_09h23.36.458",NA,NA,353.1939,353.448,353.4481,353.538,NA,NA,NA,NA,NA,NA,NA,FALSE,NA,NA,350.2007,353.1938,0,86,86,1,1,7,26,NA,NA,NA,NA,NA,1,87,"likert"
"E0D18BBBCD6B4625A1281C4347DED50B",1,"01990a98-5398-7822-ade9-4b22bdf38d08","01990a84-c4ee-73c2-a87b-ff46a7d3dde5","2025-09-02_09h23.36.458",NA,NA,356.5473,356.5473,356.5473,356.8923,NA,NA,NA,NA,NA,NA,NA,TRUE,1,1.8857,353.5388,356.5472,0,87,87,53,1,40,54,NA,NA,NA,NA,NA,1,88,"likert"
"E0D18BBBCD6B4625A1281C4347DED50B",1,"01990a98-5398-7822-ade9-4b22bdf38d08","01990a84-c4ee-73c2-a87b-ff46a7d3dde5","2025-09-02_09h23.36.458",NA,NA,359.8948,359.8949,359.8949,360.2483,NA,NA,NA,NA,NA,NA,NA,TRUE,1,1.249,356.8932,359.8947,0,88,88,59,1,45,46,NA,NA,NA,NA,NA,1,89,"likert"
"E0D18BBBCD6B4625A1281C4347DED50B",1,"01990a98-5398-7822-ade9-4b22bdf38d08","01990a84-c4ee-73c2-a87b-ff46a7d3dde5","2025-09-02_09h23.36.458",NA,NA,363.2439,363.2439,363.2439,363.604,NA,NA,NA,NA,NA,NA,NA,TRUE,2,0.8207,360.2491,363.2438,0,89,89,22,1,14,35,NA,NA,NA,NA,NA,1,90,"likert"
"E0D18BBBCD6B4625A1281C4347DED50B",1,"01990a98-5398-7822-ade9-4b22bdf38d08","01990a84-c4ee-73c2-a87b-ff46a7d3dde5","2025-09-02_09h23.36.458",NA,NA,366.6018,366.6019,366.6019,366.9437,NA,NA,NA,NA,NA,NA,NA,TRUE,1,0.5568,363.6049,366.6017,0,90,90,88,1,100,46,NA,NA,NA,NA,NA,1,91,"likert"
"E0D18BBBCD6B4625A1281C4347DED50B",1,"01990a98-5398-7822-ade9-4b22bdf38d08","01990a84-c4ee-73c2-a87b-ff46a7d3dde5","2025-09-02_09h23.36.458",NA,NA,369.9662,369.9664,369.9664,370.2968,NA,NA,NA,NA,NA,NA,NA,TRUE,4,0.0586,366.9465,369.9659,0,91,91,96,1,180,27,NA,NA,NA,NA,NA,1,92,"likert"
"E0D18BBBCD6B4625A1281C4347DED50B",1,"01990a98-5398-7822-ade9-4b22bdf38d08","01990a84-c4ee-73c2-a87b-ff46a7d3dde5","2025-09-02_09h23.36.458",NA,NA,373.2991,373.2992,373.2992,373.644,NA,NA,NA,NA,NA,NA,NA,TRUE,2,1.2535,370.298,373.2989,0,92,92,81,1,95,40,NA,NA,NA,NA,NA,1,93,"likert"
"E0D18BBBCD6B4625A1281C4347DED50B",1,"01990a98-5398-7822-ade9-4b22bdf38d08","01990a84-c4ee-73c2-a87b-ff46a7d3dde5","2025-09-02_09h23.36.458",NA,NA,376.6445,376.6445,376.6445,376.9932,NA,NA,NA,NA,NA,NA,NA,TRUE,2,2.2429,373.6465,376.6444,0,93,93,98,1,180,35,NA,NA,NA,NA,NA,1,94,"likert"
"E0D18BBBCD6B4625A1281C4347DED50B",1,"01990a98-5398-7822-ade9-4b22bdf38d08","01990a84-c4ee-73c2-a87b-ff46a7d3dde5","2025-09-02_09h23.36.458",NA,NA,379.9992,379.9992,379.9992,380.3434,NA,NA,NA,NA,NA,NA,NA,TRUE,1,1.5988,376.9944,379.9991,0,94,94,97,1,180,31,NA,NA,NA,NA,NA,1,95,"likert"
"E0D18BBBCD6B4625A1281C4347DED50B",1,"01990a98-5398-7822-ade9-4b22bdf38d08","01990a84-c4ee-73c2-a87b-ff46a7d3dde5","2025-09-02_09h23.36.458",NA,NA,383.3464,383.3465,383.3465,383.6933,NA,NA,NA,NA,NA,NA,NA,TRUE,1,1.7359,380.3445,383.3464,0,95,95,104,1,200,35,NA,NA,NA,NA,NA,1,96,"likert"
"E0D18BBBCD6B4625A1281C4347DED50B",1,"01990a98-5398-7822-ade9-4b22bdf38d08","01990a84-c4ee-73c2-a87b-ff46a7d3dde5","2025-09-02_09h23.36.458",NA,NA,386.6932,386.6932,386.6932,387.0441,NA,NA,NA,NA,NA,NA,NA,TRUE,2,1.6528,383.6945,386.6931,0,96,96,20,1,14,28,NA,NA,NA,NA,NA,1,97,"likert"
"E0D18BBBCD6B4625A1281C4347DED50B",1,"01990a98-5398-7822-ade9-4b22bdf38d08","01990a84-c4ee-73c2-a87b-ff46a7d3dde5","2025-09-02_09h23.36.458",NA,NA,390.0565,390.0566,390.0566,390.3963,NA,NA,NA,NA,NA,NA,NA,TRUE,2,1.7817,387.0457,390.0564,0,97,97,82,1,95,47,NA,NA,NA,NA,NA,1,98,"likert"
"E0D18BBBCD6B4625A1281C4347DED50B",1,"01990a98-5398-7822-ade9-4b22bdf38d08","01990a84-c4ee-73c2-a87b-ff46a7d3dde5","2025-09-02_09h23.36.458",NA,NA,393.3874,393.3874,393.3874,393.7432,NA,NA,NA,NA,NA,NA,NA,TRUE,3,2.2436,390.398,393.3873,0,98,98,94,1,150,47,NA,NA,NA,NA,NA,1,99,"likert"
"E0D18BBBCD6B4625A1281C4347DED50B",1,"01990a98-5398-7822-ade9-4b22bdf38d08","01990a84-c4ee-73c2-a87b-ff46a7d3dde5","2025-09-02_09h23.36.458",NA,NA,396.7472,396.7472,396.7472,397.0966,NA,NA,NA,NA,NA,NA,NA,TRUE,2,1.263,393.7445,396.7471,0,99,99,64,1,50,46,NA,NA,NA,NA,NA,1,100,"likert"
"E0D18BBBCD6B4625A1281C4347DED50B",1,"01990a98-5398-7822-ade9-4b22bdf38d08","01990a84-c4ee-73c2-a87b-ff46a7d3dde5","2025-09-02_09h23.36.458",NA,NA,400.0948,400.0949,400.0949,400.443,NA,NA,NA,NA,NA,NA,NA,TRUE,1,2.4431,397.0975,400.0946,0,100,100,42,1,30,26,NA,NA,NA,NA,NA,1,101,"likert"
"E0D18BBBCD6B4625A1281C4347DED50B",1,"01990a98-5398-7822-ade9-4b22bdf38d08","01990a84-c4ee-73c2-a87b-ff46a7d3dde5","2025-09-02_09h23.36.458",NA,NA,403.4462,403.4463,403.4463,403.7987,NA,NA,NA,NA,NA,NA,NA,TRUE,2,1.5108,400.4441,403.4462,0,101,101,73,1,90,30,NA,NA,NA,NA,NA,1,102,"likert"
"E0D18BBBCD6B4625A1281C4347DED50B",1,"01990a98-5398-7822-ade9-4b22bdf38d08","01990a84-c4ee-73c2-a87b-ff46a7d3dde5","2025-09-02_09h23.36.458",NA,NA,406.7944,406.7945,406.7945,407.1508,NA,NA,NA,NA,NA,NA,NA,TRUE,5,2.497,403.8,406.7942,0,102,102,5,1,7,35,NA,NA,NA,NA,NA,1,103,"likert"
"E0D18BBBCD6B4625A1281C4347DED50B",1,"01990a98-5398-7822-ade9-4b22bdf38d08","01990a84-c4ee-73c2-a87b-ff46a7d3dde5","2025-09-02_09h23.36.458",NA,NA,410.1444,410.1445,410.1446,410.4938,NA,NA,NA,NA,NA,NA,NA,TRUE,2,1.2614,407.1531,410.1437,0,103,103,95,1,150,54,NA,NA,NA,NA,NA,1,104,"likert"
"E0D18BBBCD6B4625A1281C4347DED50B",1,"01990a98-5398-7822-ade9-4b22bdf38d08","01990a84-c4ee-73c2-a87b-ff46a7d3dde5","2025-09-02_09h23.36.458",NA,NA,413.5138,413.5138,413.5138,413.8434,NA,NA,NA,NA,NA,NA,NA,TRUE,2,1.504,410.4963,413.5137,0,104,104,75,1,90,40,NA,NA,NA,NA,NA,1,105,"likert"
"E0D18BBBCD6B4625A1281C4347DED50B",1,"01990a98-5398-7822-ade9-4b22bdf38d08","01990a84-c4ee-73c2-a87b-ff46a7d3dde5","2025-09-02_09h23.36.458",NA,NA,416.8433,416.8435,416.8435,417.2025,NA,NA,NA,NA,NA,NA,NA,TRUE,2,1.3968,413.8447,416.8433,0,105,105,39,1,28,35,NA,NA,NA,NA,NA,1,106,"likert"
"E0D18BBBCD6B4625A1281C4347DED50B",1,"01990a98-5398-7822-ade9-4b22bdf38d08","01990a84-c4ee-73c2-a87b-ff46a7d3dde5","2025-09-02_09h23.36.458",NA,NA,420.1935,420.1935,420.1935,420.5475,NA,NA,NA,NA,NA,NA,NA,TRUE,1,2.0684,417.2032,420.1934,0,106,106,102,1,200,26,NA,NA,NA,NA,NA,1,107,"likert"
"E0D18BBBCD6B4625A1281C4347DED50B",1,"01990a98-5398-7822-ade9-4b22bdf38d08","01990a84-c4ee-73c2-a87b-ff46a7d3dde5","2025-09-02_09h23.36.458",NA,NA,423.551,423.551,423.5511,423.8961,NA,NA,NA,NA,NA,NA,NA,TRUE,2,1.972,420.5483,423.5509,0,107,107,2,1,7,28,NA,NA,NA,NA,NA,1,108,"likert"
"E0D18BBBCD6B4625A1281C4347DED50B",1,"01990a98-5398-7822-ade9-4b22bdf38d08","01990a84-c4ee-73c2-a87b-ff46a7d3dde5","2025-09-02_09h23.36.458",NA,NA,429.6935,429.6935,429.6935,430.0432,NA,NA,NA,NA,NA,NA,NA,TRUE,2,1.0184,426.7095,429.6934,NA,NA,NA,NA,NA,10,32,0,0,0,11,1,2,1,"likert"
"E0D18BBBCD6B4625A1281C4347DED50B",1,"01990a98-5398-7822-ade9-4b22bdf38d08","01990a84-c4ee-73c2-a87b-ff46a7d3dde5","2025-09-02_09h23.36.458",NA,NA,433.0437,433.0438,433.0438,433.3939,NA,NA,NA,NA,NA,NA,NA,TRUE,3,0.4868,430.0453,433.0435,NA,NA,NA,NA,NA,25,29,0,1,1,31,1,2,2,"likert"
"E0D18BBBCD6B4625A1281C4347DED50B",1,"01990a98-5398-7822-ade9-4b22bdf38d08","01990a84-c4ee-73c2-a87b-ff46a7d3dde5","2025-09-02_09h23.36.458",NA,NA,436.3932,436.3933,436.3933,436.7489,NA,NA,NA,NA,NA,NA,NA,TRUE,2,0.9586,433.3967,436.3931,NA,NA,NA,NA,NA,40,47,0,2,2,52,1,2,3,"likert"
"E0D18BBBCD6B4625A1281C4347DED50B",1,"01990a98-5398-7822-ade9-4b22bdf38d08","01990a84-c4ee-73c2-a87b-ff46a7d3dde5","2025-09-02_09h23.36.458",NA,NA,439.7434,439.7434,439.7435,440.099,NA,NA,NA,NA,NA,NA,NA,TRUE,4,0.7873,436.751,439.7432,NA,NA,NA,NA,NA,21,32,0,3,3,28,1,2,4,"likert"
"E0D18BBBCD6B4625A1281C4347DED50B",1,"01990a98-5398-7822-ade9-4b22bdf38d08","01990a84-c4ee-73c2-a87b-ff46a7d3dde5","2025-09-02_09h23.36.458",NA,NA,443.1014,443.1015,443.1015,443.4336,NA,NA,NA,NA,NA,NA,NA,TRUE,4,1.3357,440.1007,443.1014,NA,NA,NA,NA,NA,200,47,0,4,4,106,1,2,5,"likert"
"E0D18BBBCD6B4625A1281C4347DED50B",1,"01990a98-5398-7822-ade9-4b22bdf38d08","01990a84-c4ee-73c2-a87b-ff46a7d3dde5","2025-09-02_09h23.36.458",NA,NA,446.434,446.434,446.434,446.7983,NA,NA,NA,NA,NA,NA,NA,TRUE,2,1.1563,443.4351,446.4339,NA,NA,NA,NA,NA,14,28,0,5,5,20,1,2,6,"likert"
"E0D18BBBCD6B4625A1281C4347DED50B",1,"01990a98-5398-7822-ade9-4b22bdf38d08","01990a84-c4ee-73c2-a87b-ff46a7d3dde5","2025-09-02_09h23.36.458",NA,NA,449.7971,449.7971,449.7971,450.1432,NA,NA,NA,NA,NA,NA,NA,TRUE,1,0.4624,446.7991,449.797,NA,NA,NA,NA,NA,21,27,0,6,6,25,1,2,7,"likert"
"E0D18BBBCD6B4625A1281C4347DED50B",1,"01990a98-5398-7822-ade9-4b22bdf38d08","01990a84-c4ee-73c2-a87b-ff46a7d3dde5","2025-09-02_09h23.36.458",NA,NA,453.1431,453.1431,453.1432,453.5043,NA,NA,NA,NA,NA,NA,NA,TRUE,2,0.1255,450.144,453.143,NA,NA,NA,NA,NA,10,29,0,7,7,9,1,2,8,"likert"
"E0D18BBBCD6B4625A1281C4347DED50B",1,"01990a98-5398-7822-ade9-4b22bdf38d08","01990a84-c4ee-73c2-a87b-ff46a7d3dde5","2025-09-02_09h23.36.458",NA,NA,456.4929,456.4929,456.493,456.8568,NA,NA,NA,NA,NA,NA,NA,TRUE,2,1.1865,453.5053,456.4928,NA,NA,NA,NA,NA,14,35,0,8,8,22,1,2,9,"likert"
"E0D18BBBCD6B4625A1281C4347DED50B",1,"01990a98-5398-7822-ade9-4b22bdf38d08","01990a84-c4ee-73c2-a87b-ff46a7d3dde5","2025-09-02_09h23.36.458",NA,NA,459.8442,459.8442,459.8442,460.193,NA,NA,NA,NA,NA,NA,NA,TRUE,2,1.2262,456.8575,459.8439,NA,NA,NA,NA,NA,95,47,0,9,9,82,1,2,10,"likert"
"E0D18BBBCD6B4625A1281C4347DED50B",1,"01990a98-5398-7822-ade9-4b22bdf38d08","01990a84-c4ee-73c2-a87b-ff46a7d3dde5","2025-09-02_09h23.36.458",NA,NA,463.1939,463.194,463.194,463.5461,NA,NA,NA,NA,NA,NA,NA,TRUE,2,1.0513,460.1937,463.1935,NA,NA,NA,NA,NA,100,31,0,10,10,85,1,2,11,"likert"
"E0D18BBBCD6B4625A1281C4347DED50B",1,"01990a98-5398-7822-ade9-4b22bdf38d08","01990a84-c4ee-73c2-a87b-ff46a7d3dde5","2025-09-02_09h23.36.458",NA,NA,466.5549,466.555,466.555,466.8935,NA,NA,NA,NA,NA,NA,NA,TRUE,2,0.8864,463.5472,466.5548,NA,NA,NA,NA,NA,30,38,0,11,11,47,1,2,12,"likert"
"E0D18BBBCD6B4625A1281C4347DED50B",1,"01990a98-5398-7822-ade9-4b22bdf38d08","01990a84-c4ee-73c2-a87b-ff46a7d3dde5","2025-09-02_09h23.36.458",NA,NA,469.9052,469.9053,469.9053,470.2453,NA,NA,NA,NA,NA,NA,NA,TRUE,2,1.1628,466.8949,469.9052,NA,NA,NA,NA,NA,100,46,0,12,12,88,1,2,13,"likert"
"E0D18BBBCD6B4625A1281C4347DED50B",1,"01990a98-5398-7822-ade9-4b22bdf38d08","01990a84-c4ee-73c2-a87b-ff46a7d3dde5","2025-09-02_09h23.36.458",NA,NA,473.2332,473.2335,473.2335,473.5932,NA,NA,NA,NA,NA,NA,NA,TRUE,3,1.045,470.2464,473.2332,NA,NA,NA,NA,NA,50,54,0,13,13,65,1,2,14,"likert"
"E0D18BBBCD6B4625A1281C4347DED50B",1,"01990a98-5398-7822-ade9-4b22bdf38d08","01990a84-c4ee-73c2-a87b-ff46a7d3dde5","2025-09-02_09h23.36.458",NA,NA,476.5932,476.5933,476.5933,476.9429,NA,NA,NA,NA,NA,NA,NA,TRUE,2,0.5267,473.5943,476.593,NA,NA,NA,NA,NA,25,35,0,14,14,34,1,2,15,"likert"
"E0D18BBBCD6B4625A1281C4347DED50B",1,"01990a98-5398-7822-ade9-4b22bdf38d08","01990a84-c4ee-73c2-a87b-ff46a7d3dde5","2025-09-02_09h23.36.458",NA,NA,479.9441,479.9441,479.9441,480.2963,NA,NA,NA,NA,NA,NA,NA,TRUE,4,0.6043,476.9444,479.9439,NA,NA,NA,NA,NA,28,35,0,15,15,39,1,2,16,"likert"
"E0D18BBBCD6B4625A1281C4347DED50B",1,"01990a98-5398-7822-ade9-4b22bdf38d08","01990a84-c4ee-73c2-a87b-ff46a7d3dde5","2025-09-02_09h23.36.458",NA,NA,483.2982,483.2982,483.2982,483.651,NA,NA,NA,NA,NA,NA,NA,TRUE,2,1.4532,480.2969,483.298,NA,NA,NA,NA,NA,150,47,0,16,16,94,1,2,17,"likert"
"E0D18BBBCD6B4625A1281C4347DED50B",1,"01990a98-5398-7822-ade9-4b22bdf38d08","01990a84-c4ee-73c2-a87b-ff46a7d3dde5","2025-09-02_09h23.36.458",NA,NA,486.647,486.6471,486.6471,486.9929,NA,NA,NA,NA,NA,NA,NA,TRUE,2,1.1794,483.6525,486.6469,NA,NA,NA,NA,NA,45,46,0,17,17,59,1,2,18,"likert"
"E0D18BBBCD6B4625A1281C4347DED50B",1,"01990a98-5398-7822-ade9-4b22bdf38d08","01990a84-c4ee-73c2-a87b-ff46a7d3dde5","2025-09-02_09h23.36.458",NA,NA,489.9954,489.9954,489.9954,490.343,NA,NA,NA,NA,NA,NA,NA,TRUE,2,2.8372,486.9946,489.9952,NA,NA,NA,NA,NA,7,32,0,18,18,4,1,2,19,"likert"
"E0D18BBBCD6B4625A1281C4347DED50B",1,"01990a98-5398-7822-ade9-4b22bdf38d08","01990a84-c4ee-73c2-a87b-ff46a7d3dde5","2025-09-02_09h23.36.458",NA,NA,493.3531,493.5932,493.5932,493.6929,NA,NA,NA,NA,NA,NA,NA,FALSE,NA,NA,490.3445,493.3531,NA,NA,NA,NA,NA,25,33,0,19,19,33,1,2,20,"likert"
"E0D18BBBCD6B4625A1281C4347DED50B",1,"01990a98-5398-7822-ade9-4b22bdf38d08","01990a84-c4ee-73c2-a87b-ff46a7d3dde5","2025-09-02_09h23.36.458",NA,NA,496.6922,496.6922,496.6922,497.0335,NA,NA,NA,NA,NA,NA,NA,TRUE,2,0.3144,493.694,496.6921,NA,NA,NA,NA,NA,200,35,0,20,20,104,1,2,21,"likert"
"E0D18BBBCD6B4625A1281C4347DED50B",1,"01990a98-5398-7822-ade9-4b22bdf38d08","01990a84-c4ee-73c2-a87b-ff46a7d3dde5","2025-09-02_09h23.36.458",NA,NA,500.0338,500.0338,500.0338,500.383,NA,NA,NA,NA,NA,NA,NA,TRUE,3,1.3332,497.0344,500.0337,NA,NA,NA,NA,NA,60,40,0,21,21,69,1,2,22,"likert"
"E0D18BBBCD6B4625A1281C4347DED50B",1,"01990a98-5398-7822-ade9-4b22bdf38d08","01990a84-c4ee-73c2-a87b-ff46a7d3dde5","2025-09-02_09h23.36.458",NA,NA,503.3934,503.3935,503.3935,503.7432,NA,NA,NA,NA,NA,NA,NA,TRUE,2,0.7528,500.3837,503.3932,NA,NA,NA,NA,NA,40,33,0,22,22,49,1,2,23,"likert"
"E0D18BBBCD6B4625A1281C4347DED50B",1,"01990a98-5398-7822-ade9-4b22bdf38d08","01990a84-c4ee-73c2-a87b-ff46a7d3dde5","2025-09-02_09h23.36.458",NA,NA,506.7427,506.7427,506.7427,507.093,NA,NA,NA,NA,NA,NA,NA,TRUE,2,0.6806,503.745,506.7426,NA,NA,NA,NA,NA,150,33,0,23,23,91,1,2,24,"likert"
"E0D18BBBCD6B4625A1281C4347DED50B",1,"01990a98-5398-7822-ade9-4b22bdf38d08","01990a84-c4ee-73c2-a87b-ff46a7d3dde5","2025-09-02_09h23.36.458",NA,NA,510.1031,510.1031,510.1031,510.4454,NA,NA,NA,NA,NA,NA,NA,TRUE,2,0.7733,507.0943,510.103,NA,NA,NA,NA,NA,30,29,0,24,24,44,1,2,25,"likert"
"E0D18BBBCD6B4625A1281C4347DED50B",1,"01990a98-5398-7822-ade9-4b22bdf38d08","01990a84-c4ee-73c2-a87b-ff46a7d3dde5","2025-09-02_09h23.36.458",NA,NA,513.4346,513.4346,513.4346,513.7928,NA,NA,NA,NA,NA,NA,NA,TRUE,5,1.9054,510.4464,513.4345,NA,NA,NA,NA,NA,14,39,0,25,25,23,1,2,26,"likert"
"E0D18BBBCD6B4625A1281C4347DED50B",1,"01990a98-5398-7822-ade9-4b22bdf38d08","01990a84-c4ee-73c2-a87b-ff46a7d3dde5","2025-09-02_09h23.36.458",NA,NA,516.7927,516.7928,516.7928,517.1427,NA,NA,NA,NA,NA,NA,NA,TRUE,2,0.7906,513.7941,516.7927,NA,NA,NA,NA,NA,28,32,0,26,26,38,1,2,27,"likert"
"E0D18BBBCD6B4625A1281C4347DED50B",1,"01990a98-5398-7822-ade9-4b22bdf38d08","01990a84-c4ee-73c2-a87b-ff46a7d3dde5","2025-09-02_09h23.36.458",NA,NA,520.1434,520.1435,520.1435,520.5019,NA,NA,NA,NA,NA,NA,NA,TRUE,2,1.4552,517.144,520.1432,NA,NA,NA,NA,NA,95,31,0,27,27,78,1,2,28,"likert"
"E0D18BBBCD6B4625A1281C4347DED50B",1,"01990a98-5398-7822-ade9-4b22bdf38d08","01990a84-c4ee-73c2-a87b-ff46a7d3dde5","2025-09-02_09h23.36.458",NA,NA,523.4792,523.4792,523.4792,523.852,NA,NA,NA,NA,NA,NA,NA,TRUE,1,1.6078,520.5032,523.4791,NA,NA,NA,NA,NA,30,26,0,28,28,42,1,2,29,"likert"
"E0D18BBBCD6B4625A1281C4347DED50B",1,"01990a98-5398-7822-ade9-4b22bdf38d08","01990a84-c4ee-73c2-a87b-ff46a7d3dde5","2025-09-02_09h23.36.458",NA,NA,526.8427,526.8427,526.8427,527.1923,NA,NA,NA,NA,NA,NA,NA,TRUE,1,1.2276,523.8528,526.8425,NA,NA,NA,NA,NA,45,29,0,29,29,55,1,2,30,"likert"
"E0D18BBBCD6B4625A1281C4347DED50B",1,"01990a98-5398-7822-ade9-4b22bdf38d08","01990a84-c4ee-73c2-a87b-ff46a7d3dde5","2025-09-02_09h23.36.458",NA,NA,530.1932,530.1933,530.1933,530.5448,NA,NA,NA,NA,NA,NA,NA,TRUE,1,2.2169,527.1933,530.1931,NA,NA,NA,NA,NA,90,30,0,30,30,73,1,2,31,"likert"
"E0D18BBBCD6B4625A1281C4347DED50B",1,"01990a98-5398-7822-ade9-4b22bdf38d08","01990a84-c4ee-73c2-a87b-ff46a7d3dde5","2025-09-02_09h23.36.458",NA,NA,533.5472,533.5472,533.5472,533.8979,NA,NA,NA,NA,NA,NA,NA,TRUE,2,0.9479,530.5459,533.547,NA,NA,NA,NA,NA,28,46,0,31,31,41,1,2,32,"likert"
"E0D18BBBCD6B4625A1281C4347DED50B",1,"01990a98-5398-7822-ade9-4b22bdf38d08","01990a84-c4ee-73c2-a87b-ff46a7d3dde5","2025-09-02_09h23.36.458",NA,NA,536.8934,536.8936,536.8937,537.2428,NA,NA,NA,NA,NA,NA,NA,TRUE,5,1.1553,533.8989,536.8932,NA,NA,NA,NA,NA,150,35,0,32,32,92,1,2,33,"likert"
"E0D18BBBCD6B4625A1281C4347DED50B",1,"01990a98-5398-7822-ade9-4b22bdf38d08","01990a84-c4ee-73c2-a87b-ff46a7d3dde5","2025-09-02_09h23.36.458",NA,NA,540.2469,540.2469,540.2469,540.5931,NA,NA,NA,NA,NA,NA,NA,TRUE,2,0.66,537.2445,540.2468,NA,NA,NA,NA,NA,50,30,0,33,33,61,1,2,34,"likert"
"E0D18BBBCD6B4625A1281C4347DED50B",1,"01990a98-5398-7822-ade9-4b22bdf38d08","01990a84-c4ee-73c2-a87b-ff46a7d3dde5","2025-09-02_09h23.36.458",NA,NA,543.5967,543.5967,543.5967,543.9351,NA,NA,NA,NA,NA,NA,NA,TRUE,2,0.8598,540.5948,543.5966,NA,NA,NA,NA,NA,14,32,0,34,34,21,1,2,35,"likert"
"E0D18BBBCD6B4625A1281C4347DED50B",1,"01990a98-5398-7822-ade9-4b22bdf38d08","01990a84-c4ee-73c2-a87b-ff46a7d3dde5","2025-09-02_09h23.36.458",NA,NA,546.9432,546.9434,546.9434,547.2925,NA,NA,NA,NA,NA,NA,NA,TRUE,3,1.1942,543.9357,546.943,NA,NA,NA,NA,NA,40,40,0,35,35,51,1,2,36,"likert"
"E0D18BBBCD6B4625A1281C4347DED50B",1,"01990a98-5398-7822-ade9-4b22bdf38d08","01990a84-c4ee-73c2-a87b-ff46a7d3dde5","2025-09-02_09h23.36.458",NA,NA,550.2935,550.2935,550.2936,550.6427,NA,NA,NA,NA,NA,NA,NA,TRUE,1,1.3878,547.2937,550.2933,NA,NA,NA,NA,NA,28,39,0,36,36,40,1,2,37,"likert"
"E0D18BBBCD6B4625A1281C4347DED50B",1,"01990a98-5398-7822-ade9-4b22bdf38d08","01990a84-c4ee-73c2-a87b-ff46a7d3dde5","2025-09-02_09h23.36.458",NA,NA,553.6508,553.651,553.651,553.9923,NA,NA,NA,NA,NA,NA,NA,TRUE,1,1.4917,550.644,553.6507,NA,NA,NA,NA,NA,21,38,0,37,37,29,1,2,38,"likert"
"E0D18BBBCD6B4625A1281C4347DED50B",1,"01990a98-5398-7822-ade9-4b22bdf38d08","01990a84-c4ee-73c2-a87b-ff46a7d3dde5","2025-09-02_09h23.36.458",NA,NA,556.9927,556.9928,556.9928,557.3462,NA,NA,NA,NA,NA,NA,NA,TRUE,2,1.1746,553.9932,556.9925,NA,NA,NA,NA,NA,28,28,0,38,38,37,1,2,39,"likert"
"E0D18BBBCD6B4625A1281C4347DED50B",1,"01990a98-5398-7822-ade9-4b22bdf38d08","01990a84-c4ee-73c2-a87b-ff46a7d3dde5","2025-09-02_09h23.36.458",NA,NA,560.3424,560.3424,560.3424,560.6998,NA,NA,NA,NA,NA,NA,NA,TRUE,1,1.0081,557.3474,560.3424,NA,NA,NA,NA,NA,95,54,0,39,39,83,1,2,40,"likert"
"E0D18BBBCD6B4625A1281C4347DED50B",1,"01990a98-5398-7822-ade9-4b22bdf38d08","01990a84-c4ee-73c2-a87b-ff46a7d3dde5","2025-09-02_09h23.36.458",NA,NA,563.6924,563.6924,563.6924,564.0465,NA,NA,NA,NA,NA,NA,NA,TRUE,1,1.1007,560.7011,563.6923,NA,NA,NA,NA,NA,10,26,0,40,40,7,1,2,41,"likert"
"E0D18BBBCD6B4625A1281C4347DED50B",1,"01990a98-5398-7822-ade9-4b22bdf38d08","01990a84-c4ee-73c2-a87b-ff46a7d3dde5","2025-09-02_09h23.36.458",NA,NA,567.0448,567.0448,567.0448,567.3971,NA,NA,NA,NA,NA,NA,NA,TRUE,3,1.4242,564.0474,567.0447,NA,NA,NA,NA,NA,45,35,0,41,41,57,1,2,42,"likert"
"E0D18BBBCD6B4625A1281C4347DED50B",1,"01990a98-5398-7822-ade9-4b22bdf38d08","01990a84-c4ee-73c2-a87b-ff46a7d3dde5","2025-09-02_09h23.36.458",NA,NA,570.3957,570.3958,570.3958,570.7648,NA,NA,NA,NA,NA,NA,NA,TRUE,2,0.8894,567.398,570.3956,NA,NA,NA,NA,NA,50,46,0,42,42,64,1,2,43,"likert"
"E0D18BBBCD6B4625A1281C4347DED50B",1,"01990a98-5398-7822-ade9-4b22bdf38d08","01990a84-c4ee-73c2-a87b-ff46a7d3dde5","2025-09-02_09h23.36.458",NA,NA,573.7425,573.7426,573.7426,574.0836,NA,NA,NA,NA,NA,NA,NA,TRUE,1,0.8946,570.7654,573.7424,NA,NA,NA,NA,NA,21,26,0,43,43,24,1,2,44,"likert"
"E0D18BBBCD6B4625A1281C4347DED50B",1,"01990a98-5398-7822-ade9-4b22bdf38d08","01990a84-c4ee-73c2-a87b-ff46a7d3dde5","2025-09-02_09h23.36.458",NA,NA,577.0959,577.096,577.096,577.4427,NA,NA,NA,NA,NA,NA,NA,TRUE,3,1.5219,574.0853,577.0957,NA,NA,NA,NA,NA,90,46,0,44,44,76,1,2,45,"likert"
"E0D18BBBCD6B4625A1281C4347DED50B",1,"01990a98-5398-7822-ade9-4b22bdf38d08","01990a84-c4ee-73c2-a87b-ff46a7d3dde5","2025-09-02_09h23.36.458",NA,NA,580.4426,580.4426,580.4426,580.7934,NA,NA,NA,NA,NA,NA,NA,TRUE,2,1.1812,577.4437,580.4425,NA,NA,NA,NA,NA,21,29,0,45,45,26,1,2,46,"likert"
"E0D18BBBCD6B4625A1281C4347DED50B",1,"01990a98-5398-7822-ade9-4b22bdf38d08","01990a84-c4ee-73c2-a87b-ff46a7d3dde5","2025-09-02_09h23.36.458",NA,NA,583.7997,583.7997,583.7997,584.1508,NA,NA,NA,NA,NA,NA,NA,TRUE,2,1.0483,580.7942,583.7996,NA,NA,NA,NA,NA,12,28,0,46,46,14,1,2,47,"likert"
"E0D18BBBCD6B4625A1281C4347DED50B",1,"01990a98-5398-7822-ade9-4b22bdf38d08","01990a84-c4ee-73c2-a87b-ff46a7d3dde5","2025-09-02_09h23.36.458",NA,NA,587.2152,587.2152,587.2152,587.4922,NA,NA,NA,NA,NA,NA,NA,TRUE,2,1.1032,584.1526,587.2151,NA,NA,NA,NA,NA,50,40,0,47,47,63,1,2,48,"likert"
"E0D18BBBCD6B4625A1281C4347DED50B",1,"01990a98-5398-7822-ade9-4b22bdf38d08","01990a84-c4ee-73c2-a87b-ff46a7d3dde5","2025-09-02_09h23.36.458",NA,NA,590.4921,590.4922,590.4922,590.8423,NA,NA,NA,NA,NA,NA,NA,TRUE,3,2.3911,587.4933,590.492,NA,NA,NA,NA,NA,100,26,0,48,48,84,1,2,49,"likert"
"E0D18BBBCD6B4625A1281C4347DED50B",1,"01990a98-5398-7822-ade9-4b22bdf38d08","01990a84-c4ee-73c2-a87b-ff46a7d3dde5","2025-09-02_09h23.36.458",NA,NA,593.8511,593.8512,593.8512,594.193,NA,NA,NA,NA,NA,NA,NA,TRUE,5,2.8627,590.8434,593.851,NA,NA,NA,NA,NA,50,35,0,49,49,62,1,2,50,"likert"
"E0D18BBBCD6B4625A1281C4347DED50B",1,"01990a98-5398-7822-ade9-4b22bdf38d08","01990a84-c4ee-73c2-a87b-ff46a7d3dde5","2025-09-02_09h23.36.458",NA,NA,597.1923,597.1923,597.1923,597.5429,NA,NA,NA,NA,NA,NA,NA,TRUE,1,1.4982,594.194,597.1921,NA,NA,NA,NA,NA,100,38,0,50,50,86,1,2,51,"likert"
"E0D18BBBCD6B4625A1281C4347DED50B",1,"01990a98-5398-7822-ade9-4b22bdf38d08","01990a84-c4ee-73c2-a87b-ff46a7d3dde5","2025-09-02_09h23.36.458",NA,NA,600.5424,600.5424,600.5424,600.8935,NA,NA,NA,NA,NA,NA,NA,TRUE,2,0.6507,597.5446,600.5423,NA,NA,NA,NA,NA,7,28,0,51,51,2,1,2,52,"likert"
"E0D18BBBCD6B4625A1281C4347DED50B",1,"01990a98-5398-7822-ade9-4b22bdf38d08","01990a84-c4ee-73c2-a87b-ff46a7d3dde5","2025-09-02_09h23.36.458",NA,NA,603.8926,603.8927,603.8927,604.2423,NA,NA,NA,NA,NA,NA,NA,TRUE,2,0.5808,600.8948,603.8925,NA,NA,NA,NA,NA,150,54,0,52,52,95,1,2,53,"likert"
"E0D18BBBCD6B4625A1281C4347DED50B",1,"01990a98-5398-7822-ade9-4b22bdf38d08","01990a84-c4ee-73c2-a87b-ff46a7d3dde5","2025-09-02_09h23.36.458",NA,NA,607.2421,607.2421,607.2421,607.5932,NA,NA,NA,NA,NA,NA,NA,TRUE,2,0.417,604.2433,607.242,NA,NA,NA,NA,NA,100,39,0,53,53,87,1,2,54,"likert"
"E0D18BBBCD6B4625A1281C4347DED50B",1,"01990a98-5398-7822-ade9-4b22bdf38d08","01990a84-c4ee-73c2-a87b-ff46a7d3dde5","2025-09-02_09h23.36.458",NA,NA,610.6008,610.6009,610.6009,610.9428,NA,NA,NA,NA,NA,NA,NA,TRUE,1,1.1239,607.5943,610.6008,NA,NA,NA,NA,NA,7,26,0,54,54,1,1,2,55,"likert"
"E0D18BBBCD6B4625A1281C4347DED50B",1,"01990a98-5398-7822-ade9-4b22bdf38d08","01990a84-c4ee-73c2-a87b-ff46a7d3dde5","2025-09-02_09h23.36.458",NA,NA,613.9457,613.9458,613.9458,614.3034,NA,NA,NA,NA,NA,NA,NA,TRUE,2,0.7822,610.9437,613.9457,NA,NA,NA,NA,NA,90,26,0,55,55,72,1,2,56,"likert"
"E0D18BBBCD6B4625A1281C4347DED50B",1,"01990a98-5398-7822-ade9-4b22bdf38d08","01990a84-c4ee-73c2-a87b-ff46a7d3dde5","2025-09-02_09h23.36.458",NA,NA,617.2924,617.2924,617.2925,617.6467,NA,NA,NA,NA,NA,NA,NA,TRUE,1,0.8185,614.304,617.2922,NA,NA,NA,NA,NA,12,33,0,56,56,16,1,2,57,"likert"
"E0D18BBBCD6B4625A1281C4347DED50B",1,"01990a98-5398-7822-ade9-4b22bdf38d08","01990a84-c4ee-73c2-a87b-ff46a7d3dde5","2025-09-02_09h23.36.458",NA,NA,620.6424,620.6424,620.6424,620.992,NA,NA,NA,NA,NA,NA,NA,TRUE,1,1.4178,617.6476,620.6422,NA,NA,NA,NA,NA,45,31,0,57,57,56,1,2,58,"likert"
"E0D18BBBCD6B4625A1281C4347DED50B",1,"01990a98-5398-7822-ade9-4b22bdf38d08","01990a84-c4ee-73c2-a87b-ff46a7d3dde5","2025-09-02_09h23.36.458",NA,NA,623.9924,623.9925,623.9925,624.3468,NA,NA,NA,NA,NA,NA,NA,TRUE,2,0.9816,620.9927,623.9924,NA,NA,NA,NA,NA,180,27,0,58,58,96,1,2,59,"likert"
"E0D18BBBCD6B4625A1281C4347DED50B",1,"01990a98-5398-7822-ade9-4b22bdf38d08","01990a84-c4ee-73c2-a87b-ff46a7d3dde5","2025-09-02_09h23.36.458",NA,NA,627.3456,627.3457,627.3457,627.6926,NA,NA,NA,NA,NA,NA,NA,TRUE,1,1.094,624.3478,627.3455,NA,NA,NA,NA,NA,95,40,0,59,59,81,1,2,60,"likert"
"E0D18BBBCD6B4625A1281C4347DED50B",1,"01990a98-5398-7822-ade9-4b22bdf38d08","01990a84-c4ee-73c2-a87b-ff46a7d3dde5","2025-09-02_09h23.36.458",NA,NA,630.696,630.6962,630.6962,631.0424,NA,NA,NA,NA,NA,NA,NA,TRUE,1,1.1739,627.6937,630.696,NA,NA,NA,NA,NA,25,31,0,60,60,32,1,2,61,"likert"
"E0D18BBBCD6B4625A1281C4347DED50B",1,"01990a98-5398-7822-ade9-4b22bdf38d08","01990a84-c4ee-73c2-a87b-ff46a7d3dde5","2025-09-02_09h23.36.458",NA,NA,634.0485,634.0485,634.0485,634.3919,NA,NA,NA,NA,NA,NA,NA,TRUE,2,0.9351,631.0446,634.0484,NA,NA,NA,NA,NA,150,31,0,61,61,90,1,2,62,"likert"
"E0D18BBBCD6B4625A1281C4347DED50B",1,"01990a98-5398-7822-ade9-4b22bdf38d08","01990a84-c4ee-73c2-a87b-ff46a7d3dde5","2025-09-02_09h23.36.458",NA,NA,637.3953,637.3953,637.3953,637.7551,NA,NA,NA,NA,NA,NA,NA,TRUE,1,0.8366,634.3927,637.3953,NA,NA,NA,NA,NA,21,30,0,62,62,27,1,2,63,"likert"
"E0D18BBBCD6B4625A1281C4347DED50B",1,"01990a98-5398-7822-ade9-4b22bdf38d08","01990a84-c4ee-73c2-a87b-ff46a7d3dde5","2025-09-02_09h23.36.458",NA,NA,640.7433,640.7433,640.7434,641.0974,NA,NA,NA,NA,NA,NA,NA,TRUE,2,0.6323,637.7558,640.7432,NA,NA,NA,NA,NA,12,26,0,63,63,13,1,2,64,"likert"
"E0D18BBBCD6B4625A1281C4347DED50B",1,"01990a98-5398-7822-ade9-4b22bdf38d08","01990a84-c4ee-73c2-a87b-ff46a7d3dde5","2025-09-02_09h23.36.458",NA,NA,644.0967,644.0968,644.0968,644.4422,NA,NA,NA,NA,NA,NA,NA,TRUE,2,1.0445,641.0982,644.0967,NA,NA,NA,NA,NA,10,25,0,64,64,6,1,2,65,"likert"
"E0D18BBBCD6B4625A1281C4347DED50B",1,"01990a98-5398-7822-ade9-4b22bdf38d08","01990a84-c4ee-73c2-a87b-ff46a7d3dde5","2025-09-02_09h23.36.458",NA,NA,647.4497,647.4499,647.4499,647.7926,NA,NA,NA,NA,NA,NA,NA,TRUE,2,1.9221,644.4435,647.4497,NA,NA,NA,NA,NA,180,39,0,65,65,99,1,2,66,"likert"
"E0D18BBBCD6B4625A1281C4347DED50B",1,"01990a98-5398-7822-ade9-4b22bdf38d08","01990a84-c4ee-73c2-a87b-ff46a7d3dde5","2025-09-02_09h23.36.458",NA,NA,650.7924,650.7924,650.7925,651.145,NA,NA,NA,NA,NA,NA,NA,TRUE,3,2.284,647.7937,650.7923,NA,NA,NA,NA,NA,90,54,0,66,66,77,1,2,67,"likert"
"E0D18BBBCD6B4625A1281C4347DED50B",1,"01990a98-5398-7822-ade9-4b22bdf38d08","01990a84-c4ee-73c2-a87b-ff46a7d3dde5","2025-09-02_09h23.36.458",NA,NA,654.1509,654.151,654.151,654.4833,NA,NA,NA,NA,NA,NA,NA,TRUE,2,0.9248,651.1458,654.1506,NA,NA,NA,NA,NA,25,46,0,67,67,35,1,2,68,"likert"
"E0D18BBBCD6B4625A1281C4347DED50B",1,"01990a98-5398-7822-ade9-4b22bdf38d08","01990a84-c4ee-73c2-a87b-ff46a7d3dde5","2025-09-02_09h23.36.458",NA,NA,657.4933,657.4934,657.4934,657.8445,NA,NA,NA,NA,NA,NA,NA,TRUE,1,2.6744,654.4845,657.4932,NA,NA,NA,NA,NA,7,30,0,68,68,3,1,2,69,"likert"
"E0D18BBBCD6B4625A1281C4347DED50B",1,"01990a98-5398-7822-ade9-4b22bdf38d08","01990a84-c4ee-73c2-a87b-ff46a7d3dde5","2025-09-02_09h23.36.458",NA,NA,660.8418,660.8418,660.8418,661.1917,NA,NA,NA,NA,NA,NA,NA,TRUE,1,1.6585,657.8458,660.8417,NA,NA,NA,NA,NA,25,27,0,69,69,30,1,2,70,"likert"
"E0D18BBBCD6B4625A1281C4347DED50B",1,"01990a98-5398-7822-ade9-4b22bdf38d08","01990a84-c4ee-73c2-a87b-ff46a7d3dde5","2025-09-02_09h23.36.458",NA,NA,664.1923,664.1923,664.1923,664.5468,NA,NA,NA,NA,NA,NA,NA,TRUE,2,1.4358,661.1926,664.1921,NA,NA,NA,NA,NA,60,33,0,70,70,67,1,2,71,"likert"
"E0D18BBBCD6B4625A1281C4347DED50B",1,"01990a98-5398-7822-ade9-4b22bdf38d08","01990a84-c4ee-73c2-a87b-ff46a7d3dde5","2025-09-02_09h23.36.458",NA,NA,667.542,667.5423,667.5423,667.8957,NA,NA,NA,NA,NA,NA,NA,TRUE,2,0.618,664.5479,667.5419,NA,NA,NA,NA,NA,95,33,0,71,71,79,1,2,72,"likert"
"E0D18BBBCD6B4625A1281C4347DED50B",1,"01990a98-5398-7822-ade9-4b22bdf38d08","01990a84-c4ee-73c2-a87b-ff46a7d3dde5","2025-09-02_09h23.36.458",NA,NA,670.8956,670.8959,670.8959,671.2453,NA,NA,NA,NA,NA,NA,NA,TRUE,1,0.6941,667.897,670.8955,NA,NA,NA,NA,NA,10,27,0,72,72,8,1,2,73,"likert"
"E0D18BBBCD6B4625A1281C4347DED50B",1,"01990a98-5398-7822-ade9-4b22bdf38d08","01990a84-c4ee-73c2-a87b-ff46a7d3dde5","2025-09-02_09h23.36.458",NA,NA,674.2421,674.2422,674.2422,674.592,NA,NA,NA,NA,NA,NA,NA,TRUE,1,0.5322,671.2464,674.2419,NA,NA,NA,NA,NA,150,40,0,73,73,93,1,2,74,"likert"
"E0D18BBBCD6B4625A1281C4347DED50B",1,"01990a98-5398-7822-ade9-4b22bdf38d08","01990a84-c4ee-73c2-a87b-ff46a7d3dde5","2025-09-02_09h23.36.458",NA,NA,677.5923,677.842,677.8421,677.9443,NA,NA,NA,NA,NA,NA,NA,FALSE,NA,NA,674.5932,677.5921,NA,NA,NA,NA,NA,90,33,0,74,74,74,1,2,75,"likert"
"E0D18BBBCD6B4625A1281C4347DED50B",1,"01990a98-5398-7822-ade9-4b22bdf38d08","01990a84-c4ee-73c2-a87b-ff46a7d3dde5","2025-09-02_09h23.36.458",NA,NA,680.9334,680.9334,680.9334,681.2957,NA,NA,NA,NA,NA,NA,NA,TRUE,1,0.5072,677.9453,680.9332,NA,NA,NA,NA,NA,30,32,0,75,75,46,1,2,76,"likert"
"E0D18BBBCD6B4625A1281C4347DED50B",1,"01990a98-5398-7822-ade9-4b22bdf38d08","01990a84-c4ee-73c2-a87b-ff46a7d3dde5","2025-09-02_09h23.36.458",NA,NA,684.2929,684.2929,684.293,684.6423,NA,NA,NA,NA,NA,NA,NA,TRUE,2,0.7363,681.2966,684.2927,NA,NA,NA,NA,NA,30,30,0,76,76,45,1,2,77,"likert"
"E0D18BBBCD6B4625A1281C4347DED50B",1,"01990a98-5398-7822-ade9-4b22bdf38d08","01990a84-c4ee-73c2-a87b-ff46a7d3dde5","2025-09-02_09h23.36.458",NA,NA,687.6438,687.6438,687.6438,687.9924,NA,NA,NA,NA,NA,NA,NA,TRUE,1,1.1604,684.6431,687.6438,NA,NA,NA,NA,NA,60,47,0,77,77,70,1,2,78,"likert"
"E0D18BBBCD6B4625A1281C4347DED50B",1,"01990a98-5398-7822-ade9-4b22bdf38d08","01990a84-c4ee-73c2-a87b-ff46a7d3dde5","2025-09-02_09h23.36.458",NA,NA,690.9857,690.9857,690.9857,691.3431,NA,NA,NA,NA,NA,NA,NA,TRUE,2,0.7009,687.9939,690.9857,NA,NA,NA,NA,NA,45,26,0,78,78,54,1,2,79,"likert"
"E0D18BBBCD6B4625A1281C4347DED50B",1,"01990a98-5398-7822-ade9-4b22bdf38d08","01990a84-c4ee-73c2-a87b-ff46a7d3dde5","2025-09-02_09h23.36.458",NA,NA,694.3457,694.3458,694.3458,694.6925,NA,NA,NA,NA,NA,NA,NA,TRUE,2,1.5297,691.3446,694.3455,NA,NA,NA,NA,NA,60,29,0,79,79,66,1,2,80,"likert"
"E0D18BBBCD6B4625A1281C4347DED50B",1,"01990a98-5398-7822-ade9-4b22bdf38d08","01990a84-c4ee-73c2-a87b-ff46a7d3dde5","2025-09-02_09h23.36.458",NA,NA,697.697,697.6972,697.6972,698.0455,NA,NA,NA,NA,NA,NA,NA,TRUE,1,0.4015,694.6942,697.697,NA,NA,NA,NA,NA,7,25,0,80,80,0,1,2,81,"likert"
"E0D18BBBCD6B4625A1281C4347DED50B",1,"01990a98-5398-7822-ade9-4b22bdf38d08","01990a84-c4ee-73c2-a87b-ff46a7d3dde5","2025-09-02_09h23.36.458",NA,NA,701.0416,701.0416,701.0416,701.3916,NA,NA,NA,NA,NA,NA,NA,TRUE,1,0.4656,698.0461,701.0414,NA,NA,NA,NA,NA,180,31,0,81,81,97,1,2,82,"likert"
"E0D18BBBCD6B4625A1281C4347DED50B",1,"01990a98-5398-7822-ade9-4b22bdf38d08","01990a84-c4ee-73c2-a87b-ff46a7d3dde5","2025-09-02_09h23.36.458",NA,NA,704.3924,704.3924,704.3924,704.7468,NA,NA,NA,NA,NA,NA,NA,TRUE,2,1.4494,701.3925,704.3919,NA,NA,NA,NA,NA,40,54,0,82,82,53,1,2,83,"likert"
"E0D18BBBCD6B4625A1281C4347DED50B",1,"01990a98-5398-7822-ade9-4b22bdf38d08","01990a84-c4ee-73c2-a87b-ff46a7d3dde5","2025-09-02_09h23.36.458",NA,NA,707.7444,707.7445,707.7445,708.0918,NA,NA,NA,NA,NA,NA,NA,TRUE,3,0.9693,704.7481,707.7442,NA,NA,NA,NA,NA,45,40,0,83,83,58,1,2,84,"likert"
"E0D18BBBCD6B4625A1281C4347DED50B",1,"01990a98-5398-7822-ade9-4b22bdf38d08","01990a84-c4ee-73c2-a87b-ff46a7d3dde5","2025-09-02_09h23.36.458",NA,NA,711.0952,711.0952,711.0952,711.4417,NA,NA,NA,NA,NA,NA,NA,TRUE,2,0.3856,708.0929,711.0951,NA,NA,NA,NA,NA,40,27,0,84,84,48,1,2,85,"likert"
"E0D18BBBCD6B4625A1281C4347DED50B",1,"01990a98-5398-7822-ade9-4b22bdf38d08","01990a84-c4ee-73c2-a87b-ff46a7d3dde5","2025-09-02_09h23.36.458",NA,NA,714.4471,714.4472,714.4472,714.7917,NA,NA,NA,NA,NA,NA,NA,TRUE,2,0.138,711.4433,714.447,NA,NA,NA,NA,NA,60,54,0,85,85,71,1,2,86,"likert"
"E0D18BBBCD6B4625A1281C4347DED50B",1,"01990a98-5398-7822-ade9-4b22bdf38d08","01990a84-c4ee-73c2-a87b-ff46a7d3dde5","2025-09-02_09h23.36.458",NA,NA,717.7951,717.7951,717.7951,718.1445,NA,NA,NA,NA,NA,NA,NA,TRUE,2,0.9344,714.7928,717.795,NA,NA,NA,NA,NA,200,28,0,86,86,103,1,2,87,"likert"
"E0D18BBBCD6B4625A1281C4347DED50B",1,"01990a98-5398-7822-ade9-4b22bdf38d08","01990a84-c4ee-73c2-a87b-ff46a7d3dde5","2025-09-02_09h23.36.458",NA,NA,721.1454,721.1454,721.1454,721.4915,NA,NA,NA,NA,NA,NA,NA,TRUE,2,0.776,718.1452,721.1453,NA,NA,NA,NA,NA,12,25,0,87,87,12,1,2,88,"likert"
"E0D18BBBCD6B4625A1281C4347DED50B",1,"01990a98-5398-7822-ade9-4b22bdf38d08","01990a84-c4ee-73c2-a87b-ff46a7d3dde5","2025-09-02_09h23.36.458",NA,NA,724.4918,724.4919,724.4919,724.8415,NA,NA,NA,NA,NA,NA,NA,TRUE,1,2.0649,721.493,724.4916,NA,NA,NA,NA,NA,40,35,0,88,88,50,1,2,89,"likert"
"E0D18BBBCD6B4625A1281C4347DED50B",1,"01990a98-5398-7822-ade9-4b22bdf38d08","01990a84-c4ee-73c2-a87b-ff46a7d3dde5","2025-09-02_09h23.36.458",NA,NA,727.8432,727.8432,727.8432,728.1917,NA,NA,NA,NA,NA,NA,NA,TRUE,2,0.8516,724.8425,727.8432,NA,NA,NA,NA,NA,180,35,0,89,89,98,1,2,90,"likert"
"E0D18BBBCD6B4625A1281C4347DED50B",1,"01990a98-5398-7822-ade9-4b22bdf38d08","01990a84-c4ee-73c2-a87b-ff46a7d3dde5","2025-09-02_09h23.36.458",NA,NA,731.192,731.192,731.1921,731.5417,NA,NA,NA,NA,NA,NA,NA,TRUE,1,0.769,728.1931,731.1919,NA,NA,NA,NA,NA,14,26,0,90,90,19,1,2,91,"likert"
"E0D18BBBCD6B4625A1281C4347DED50B",1,"01990a98-5398-7822-ade9-4b22bdf38d08","01990a84-c4ee-73c2-a87b-ff46a7d3dde5","2025-09-02_09h23.36.458",NA,NA,734.5419,734.5419,734.5419,734.8951,NA,NA,NA,NA,NA,NA,NA,TRUE,1,2.2142,731.5435,734.5416,NA,NA,NA,NA,NA,200,26,0,91,91,102,1,2,92,"likert"
"E0D18BBBCD6B4625A1281C4347DED50B",1,"01990a98-5398-7822-ade9-4b22bdf38d08","01990a84-c4ee-73c2-a87b-ff46a7d3dde5","2025-09-02_09h23.36.458",NA,NA,737.8916,737.8916,737.8916,738.2448,NA,NA,NA,NA,NA,NA,NA,TRUE,1,1.5192,734.8958,737.8914,NA,NA,NA,NA,NA,28,26,0,92,92,36,1,2,93,"likert"
"E0D18BBBCD6B4625A1281C4347DED50B",1,"01990a98-5398-7822-ade9-4b22bdf38d08","01990a84-c4ee-73c2-a87b-ff46a7d3dde5","2025-09-02_09h23.36.458",NA,NA,741.2447,741.2447,741.2447,741.5916,NA,NA,NA,NA,NA,NA,NA,TRUE,1,1.5412,738.2461,741.2446,NA,NA,NA,NA,NA,12,31,0,93,93,15,1,2,94,"likert"
"E0D18BBBCD6B4625A1281C4347DED50B",1,"01990a98-5398-7822-ade9-4b22bdf38d08","01990a84-c4ee-73c2-a87b-ff46a7d3dde5","2025-09-02_09h23.36.458",NA,NA,744.5952,744.5952,744.5952,744.9419,NA,NA,NA,NA,NA,NA,NA,TRUE,2,2.2516,741.5928,744.5952,NA,NA,NA,NA,NA,90,40,0,94,94,75,1,2,95,"likert"
"E0D18BBBCD6B4625A1281C4347DED50B",1,"01990a98-5398-7822-ade9-4b22bdf38d08","01990a84-c4ee-73c2-a87b-ff46a7d3dde5","2025-09-02_09h23.36.458",NA,NA,747.9453,747.9454,747.9454,748.2947,NA,NA,NA,NA,NA,NA,NA,TRUE,1,0.735,744.9431,747.9453,NA,NA,NA,NA,NA,200,54,0,95,95,107,1,2,96,"likert"
"E0D18BBBCD6B4625A1281C4347DED50B",1,"01990a98-5398-7822-ade9-4b22bdf38d08","01990a84-c4ee-73c2-a87b-ff46a7d3dde5","2025-09-02_09h23.36.458",NA,NA,751.2914,751.2914,751.2914,751.6422,NA,NA,NA,NA,NA,NA,NA,TRUE,1,1.674,748.2955,751.2913,NA,NA,NA,NA,NA,10,30,0,96,96,10,1,2,97,"likert"
"E0D18BBBCD6B4625A1281C4347DED50B",1,"01990a98-5398-7822-ade9-4b22bdf38d08","01990a84-c4ee-73c2-a87b-ff46a7d3dde5","2025-09-02_09h23.36.458",NA,NA,754.6455,754.6455,754.6455,754.9914,NA,NA,NA,NA,NA,NA,NA,TRUE,2,1.0386,751.644,754.6454,NA,NA,NA,NA,NA,60,35,0,97,97,68,1,2,98,"likert"
"E0D18BBBCD6B4625A1281C4347DED50B",1,"01990a98-5398-7822-ade9-4b22bdf38d08","01990a84-c4ee-73c2-a87b-ff46a7d3dde5","2025-09-02_09h23.36.458",NA,NA,757.992,757.992,757.9921,758.3452,NA,NA,NA,NA,NA,NA,NA,TRUE,3,0.7375,754.9928,757.9919,NA,NA,NA,NA,NA,12,35,0,98,98,17,1,2,99,"likert"
"E0D18BBBCD6B4625A1281C4347DED50B",1,"01990a98-5398-7822-ade9-4b22bdf38d08","01990a84-c4ee-73c2-a87b-ff46a7d3dde5","2025-09-02_09h23.36.458",NA,NA,761.3451,761.3451,761.3451,761.6913,NA,NA,NA,NA,NA,NA,NA,TRUE,2,0.5178,758.3465,761.345,NA,NA,NA,NA,NA,14,25,0,99,99,18,1,2,100,"likert"
"E0D18BBBCD6B4625A1281C4347DED50B",1,"01990a98-5398-7822-ade9-4b22bdf38d08","01990a84-c4ee-73c2-a87b-ff46a7d3dde5","2025-09-02_09h23.36.458",NA,NA,764.695,764.695,764.695,765.0414,NA,NA,NA,NA,NA,NA,NA,TRUE,2,0.369,761.6921,764.6949,NA,NA,NA,NA,NA,180,46,0,100,100,100,1,2,101,"likert"
"E0D18BBBCD6B4625A1281C4347DED50B",1,"01990a98-5398-7822-ade9-4b22bdf38d08","01990a84-c4ee-73c2-a87b-ff46a7d3dde5","2025-09-02_09h23.36.458",NA,NA,768.0446,768.0446,768.0446,768.3915,NA,NA,NA,NA,NA,NA,NA,TRUE,2,1.3018,765.0441,768.0445,NA,NA,NA,NA,NA,95,35,0,101,101,80,1,2,102,"likert"
"E0D18BBBCD6B4625A1281C4347DED50B",1,"01990a98-5398-7822-ade9-4b22bdf38d08","01990a84-c4ee-73c2-a87b-ff46a7d3dde5","2025-09-02_09h23.36.458",NA,NA,771.395,771.395,771.3951,771.7445,NA,NA,NA,NA,NA,NA,NA,TRUE,4,1.83,768.3927,771.395,NA,NA,NA,NA,NA,100,54,0,102,102,89,1,2,103,"likert"
"E0D18BBBCD6B4625A1281C4347DED50B",1,"01990a98-5398-7822-ade9-4b22bdf38d08","01990a84-c4ee-73c2-a87b-ff46a7d3dde5","2025-09-02_09h23.36.458",NA,NA,774.7426,774.7426,774.7426,775.0911,NA,NA,NA,NA,NA,NA,NA,TRUE,2,0.8183,771.7455,774.7424,NA,NA,NA,NA,NA,200,39,0,103,103,105,1,2,104,"likert"
"E0D18BBBCD6B4625A1281C4347DED50B",1,"01990a98-5398-7822-ade9-4b22bdf38d08","01990a84-c4ee-73c2-a87b-ff46a7d3dde5","2025-09-02_09h23.36.458",NA,NA,778.0922,778.0923,778.0923,778.4474,NA,NA,NA,NA,NA,NA,NA,TRUE,3,1.3353,775.0922,778.0919,NA,NA,NA,NA,NA,180,54,0,104,104,101,1,2,105,"likert"
"E0D18BBBCD6B4625A1281C4347DED50B",1,"01990a98-5398-7822-ade9-4b22bdf38d08","01990a84-c4ee-73c2-a87b-ff46a7d3dde5","2025-09-02_09h23.36.458",NA,NA,781.4412,781.4413,781.4413,781.7914,NA,NA,NA,NA,NA,NA,NA,TRUE,2,1.2748,778.4484,781.4411,NA,NA,NA,NA,NA,7,35,0,105,105,5,1,2,106,"likert"
"E0D18BBBCD6B4625A1281C4347DED50B",1,"01990a98-5398-7822-ade9-4b22bdf38d08","01990a84-c4ee-73c2-a87b-ff46a7d3dde5","2025-09-02_09h23.36.458",NA,NA,784.7915,784.7915,784.7915,785.1412,NA,NA,NA,NA,NA,NA,NA,TRUE,2,1.1415,781.7928,784.7914,NA,NA,NA,NA,NA,30,27,0,106,106,43,1,2,107,"likert"
"E0D18BBBCD6B4625A1281C4347DED50B",1,"01990a98-5398-7822-ade9-4b22bdf38d08","01990a84-c4ee-73c2-a87b-ff46a7d3dde5","2025-09-02_09h23.36.458",NA,NA,788.1422,788.1422,788.1422,788.4951,NA,NA,NA,NA,NA,NA,NA,TRUE,1,1.5269,785.1432,788.1421,NA,NA,NA,NA,NA,50,27,0,107,107,60,1,2,108,"likert"
