"participant","session","assignmentId","projectId","date","practiceTrial.started","practiceTrial.stopped","tooLate.started","tooLate.stopped","blank.started","blank.stopped","trials_pract.thisRepN","trials_pract.thisTrialN","trials_pract.thisN","trials_pract.thisIndex","trials_pract.ran","delay_pract","amount_pract","responseMade","key","rt","trial.started","trial.stopped","trials.thisRepN","trials.thisTrialN","trials.thisN","trials.thisIndex","trials.ran","delay","amount","trials_2.thisRepN","trials_2.thisTrialN","trials_2.thisN","trials_2.thisIndex","trials_2.ran","block","trial","taskType"
"F79D2427D52B4362B92A0AEF2995F26C",1,"01990aad-218e-7259-8ef7-024862d76709","01990a84-c4ee-73c2-a87b-ff46a7d3dde5","2025-09-02_09h46.20.886",53.7492,56.6809,56.6813,56.9551,56.9552,57.0397,0,0,0,2,1,14,45,FALSE,NA,NA,NA,NA,NA,NA,NA,NA,NA,NA,NA,NA,NA,NA,NA,NA,0,1,"likert"
"F79D2427D52B4362B92A0AEF2995F26C",1,"01990aad-218e-7259-8ef7-024862d76709","01990a84-c4ee-73c2-a87b-ff46a7d3dde5","2025-09-02_09h46.20.886",57.0404,60.0347,60.0348,60.3025,60.3025,60.3887,0,1,1,4,1,30,40,FALSE,NA,NA,NA,NA,NA,NA,NA,NA,NA,NA,NA,NA,NA,NA,NA,NA,0,2,"likert"
"F79D2427D52B4362B92A0AEF2995F26C",1,"01990aad-218e-7259-8ef7-024862d76709","01990a84-c4ee-73c2-a87b-ff46a7d3dde5","2025-09-02_09h46.20.886",60.3895,63.3889,63.389,63.6414,63.6414,63.8001,0,2,2,0,1,7,30,FALSE,NA,NA,NA,NA,NA,NA,NA,NA,NA,NA,NA,NA,NA,NA,NA,NA,0,3,"likert"
"F79D2427D52B4362B92A0AEF2995F26C",1,"01990aad-218e-7259-8ef7-024862d76709","01990a84-c4ee-73c2-a87b-ff46a7d3dde5","2025-09-02_09h46.20.886",63.8006,66.7221,66.7221,66.9951,66.9951,67.0842,0,3,3,3,1,3,27,FALSE,NA,NA,NA,NA,NA,NA,NA,NA,NA,NA,NA,NA,NA,NA,NA,NA,0,4,"likert"
"F79D2427D52B4362B92A0AEF2995F26C",1,"01990aad-218e-7259-8ef7-024862d76709","01990a84-c4ee-73c2-a87b-ff46a7d3dde5","2025-09-02_09h46.20.886",67.0848,70.1388,70.1389,70.3876,70.3876,70.4728,0,4,4,1,1,100,50,FALSE,NA,NA,NA,NA,NA,NA,NA,NA,NA,NA,NA,NA,NA,NA,NA,NA,0,5,"likert"
"F79D2427D52B4362B92A0AEF2995F26C",1,"01990aad-218e-7259-8ef7-024862d76709","01990a84-c4ee-73c2-a87b-ff46a7d3dde5","2025-09-02_09h46.20.886",NA,NA,114.9402,115.2122,115.2122,115.3082,NA,NA,NA,NA,NA,NA,NA,FALSE,NA,NA,111.9812,114.94,0,0,0,48,1,40,27,NA,NA,NA,NA,NA,1,1,"likert"
"F79D2427D52B4362B92A0AEF2995F26C",1,"01990aad-218e-7259-8ef7-024862d76709","01990a84-c4ee-73c2-a87b-ff46a7d3dde5","2025-09-02_09h46.20.886",NA,NA,118.3141,118.5829,118.583,118.668,NA,NA,NA,NA,NA,NA,NA,FALSE,NA,NA,115.3093,118.314,0,1,1,38,1,28,32,NA,NA,NA,NA,NA,1,2,"likert"
"F79D2427D52B4362B92A0AEF2995F26C",1,"01990aad-218e-7259-8ef7-024862d76709","01990a84-c4ee-73c2-a87b-ff46a7d3dde5","2025-09-02_09h46.20.886",NA,NA,121.6597,121.6597,121.6597,122.0163,NA,NA,NA,NA,NA,NA,NA,TRUE,4,2.0709,118.6684,121.6596,0,2,2,57,1,45,35,NA,NA,NA,NA,NA,1,3,"likert"
"F79D2427D52B4362B92A0AEF2995F26C",1,"01990aad-218e-7259-8ef7-024862d76709","01990a84-c4ee-73c2-a87b-ff46a7d3dde5","2025-09-02_09h46.20.886",NA,NA,125.0263,125.0264,125.0264,125.3738,NA,NA,NA,NA,NA,NA,NA,TRUE,3,2.0698,122.0168,125.0263,0,3,3,50,1,40,35,NA,NA,NA,NA,NA,1,4,"likert"
"F79D2427D52B4362B92A0AEF2995F26C",1,"01990aad-218e-7259-8ef7-024862d76709","01990a84-c4ee-73c2-a87b-ff46a7d3dde5","2025-09-02_09h46.20.886",NA,NA,128.3007,128.3007,128.3007,128.6616,NA,NA,NA,NA,NA,NA,NA,TRUE,4,1.7935,125.3744,128.3007,0,4,4,29,1,21,38,NA,NA,NA,NA,NA,1,5,"likert"
"F79D2427D52B4362B92A0AEF2995F26C",1,"01990aad-218e-7259-8ef7-024862d76709","01990a84-c4ee-73c2-a87b-ff46a7d3dde5","2025-09-02_09h46.20.886",NA,NA,131.6568,131.6568,131.6568,132.0159,NA,NA,NA,NA,NA,NA,NA,TRUE,4,1.7768,128.6622,131.6568,0,5,5,4,1,7,32,NA,NA,NA,NA,NA,1,6,"likert"
"F79D2427D52B4362B92A0AEF2995F26C",1,"01990aad-218e-7259-8ef7-024862d76709","01990a84-c4ee-73c2-a87b-ff46a7d3dde5","2025-09-02_09h46.20.886",NA,NA,135.0078,135.0078,135.0079,135.3766,NA,NA,NA,NA,NA,NA,NA,TRUE,4,2.0686,132.0166,135.0077,0,6,6,70,1,60,47,NA,NA,NA,NA,NA,1,7,"likert"
"F79D2427D52B4362B92A0AEF2995F26C",1,"01990aad-218e-7259-8ef7-024862d76709","01990a84-c4ee-73c2-a87b-ff46a7d3dde5","2025-09-02_09h46.20.886",NA,NA,138.4148,138.4148,138.4148,138.7496,NA,NA,NA,NA,NA,NA,NA,TRUE,2,2.6943,135.3773,138.4147,0,7,7,76,1,90,46,NA,NA,NA,NA,NA,1,8,"likert"
"F79D2427D52B4362B92A0AEF2995F26C",1,"01990aad-218e-7259-8ef7-024862d76709","01990a84-c4ee-73c2-a87b-ff46a7d3dde5","2025-09-02_09h46.20.886",NA,NA,141.7156,141.7157,141.7157,142.0851,NA,NA,NA,NA,NA,NA,NA,TRUE,1,2.4899,138.7501,141.7156,0,8,8,97,1,180,31,NA,NA,NA,NA,NA,1,9,"likert"
"F79D2427D52B4362B92A0AEF2995F26C",1,"01990aad-218e-7259-8ef7-024862d76709","01990a84-c4ee-73c2-a87b-ff46a7d3dde5","2025-09-02_09h46.20.886",NA,NA,145.1347,145.1347,145.1347,145.4757,NA,NA,NA,NA,NA,NA,NA,TRUE,2,2.5203,142.0855,145.1346,0,9,9,30,1,25,27,NA,NA,NA,NA,NA,1,10,"likert"
"F79D2427D52B4362B92A0AEF2995F26C",1,"01990aad-218e-7259-8ef7-024862d76709","01990a84-c4ee-73c2-a87b-ff46a7d3dde5","2025-09-02_09h46.20.886",NA,NA,148.4663,148.4663,148.4663,148.8074,NA,NA,NA,NA,NA,NA,NA,TRUE,4,2.2764,145.4762,148.4663,0,10,10,56,1,45,31,NA,NA,NA,NA,NA,1,11,"likert"
"F79D2427D52B4362B92A0AEF2995F26C",1,"01990aad-218e-7259-8ef7-024862d76709","01990a84-c4ee-73c2-a87b-ff46a7d3dde5","2025-09-02_09h46.20.886",NA,NA,151.8398,151.8398,151.8398,152.1106,NA,NA,NA,NA,NA,NA,NA,TRUE,3,2.0043,148.8078,151.8398,0,11,11,55,1,45,29,NA,NA,NA,NA,NA,1,12,"likert"
"F79D2427D52B4362B92A0AEF2995F26C",1,"01990aad-218e-7259-8ef7-024862d76709","01990a84-c4ee-73c2-a87b-ff46a7d3dde5","2025-09-02_09h46.20.886",NA,NA,155.1373,155.1373,155.1373,155.4868,NA,NA,NA,NA,NA,NA,NA,TRUE,4,2.3169,152.111,155.1373,0,12,12,40,1,28,39,NA,NA,NA,NA,NA,1,13,"likert"
"F79D2427D52B4362B92A0AEF2995F26C",1,"01990aad-218e-7259-8ef7-024862d76709","01990a84-c4ee-73c2-a87b-ff46a7d3dde5","2025-09-02_09h46.20.886",NA,NA,158.4731,158.7419,158.7419,158.8252,NA,NA,NA,NA,NA,NA,NA,FALSE,NA,NA,155.4873,158.4731,0,13,13,81,1,95,40,NA,NA,NA,NA,NA,1,14,"likert"
"F79D2427D52B4362B92A0AEF2995F26C",1,"01990aad-218e-7259-8ef7-024862d76709","01990a84-c4ee-73c2-a87b-ff46a7d3dde5","2025-09-02_09h46.20.886",NA,NA,161.8465,162.1125,162.1125,162.1939,NA,NA,NA,NA,NA,NA,NA,FALSE,NA,NA,158.8257,161.8464,0,14,14,27,1,21,30,NA,NA,NA,NA,NA,1,15,"likert"
"F79D2427D52B4362B92A0AEF2995F26C",1,"01990aad-218e-7259-8ef7-024862d76709","01990a84-c4ee-73c2-a87b-ff46a7d3dde5","2025-09-02_09h46.20.886",NA,NA,165.201,165.201,165.201,165.5592,NA,NA,NA,NA,NA,NA,NA,TRUE,4,1.5165,162.1942,165.201,0,15,15,93,1,150,40,NA,NA,NA,NA,NA,1,16,"likert"
"F79D2427D52B4362B92A0AEF2995F26C",1,"01990aad-218e-7259-8ef7-024862d76709","01990a84-c4ee-73c2-a87b-ff46a7d3dde5","2025-09-02_09h46.20.886",NA,NA,168.5365,168.5365,168.5365,168.8823,NA,NA,NA,NA,NA,NA,NA,TRUE,4,2.2207,165.5597,168.5365,0,16,16,19,1,14,26,NA,NA,NA,NA,NA,1,17,"likert"
"F79D2427D52B4362B92A0AEF2995F26C",1,"01990aad-218e-7259-8ef7-024862d76709","01990a84-c4ee-73c2-a87b-ff46a7d3dde5","2025-09-02_09h46.20.886",NA,NA,171.8609,171.8609,171.8609,172.2821,NA,NA,NA,NA,NA,NA,NA,TRUE,4,1.2132,168.8826,171.8608,0,17,17,33,1,25,33,NA,NA,NA,NA,NA,1,18,"likert"
"F79D2427D52B4362B92A0AEF2995F26C",1,"01990aad-218e-7259-8ef7-024862d76709","01990a84-c4ee-73c2-a87b-ff46a7d3dde5","2025-09-02_09h46.20.886",NA,NA,175.2873,175.2874,175.2874,175.6293,NA,NA,NA,NA,NA,NA,NA,TRUE,3,1.4943,172.2826,175.2872,0,18,18,88,1,100,46,NA,NA,NA,NA,NA,1,19,"likert"
"F79D2427D52B4362B92A0AEF2995F26C",1,"01990aad-218e-7259-8ef7-024862d76709","01990a84-c4ee-73c2-a87b-ff46a7d3dde5","2025-09-02_09h46.20.886",NA,NA,178.6165,178.6165,178.6165,178.9764,NA,NA,NA,NA,NA,NA,NA,TRUE,4,1.7899,175.6298,178.6165,0,19,19,89,1,100,54,NA,NA,NA,NA,NA,1,20,"likert"
"F79D2427D52B4362B92A0AEF2995F26C",1,"01990aad-218e-7259-8ef7-024862d76709","01990a84-c4ee-73c2-a87b-ff46a7d3dde5","2025-09-02_09h46.20.886",NA,NA,181.9504,181.9504,181.9504,182.3014,NA,NA,NA,NA,NA,NA,NA,TRUE,2,1.7745,178.9768,181.9503,0,20,20,75,1,90,40,NA,NA,NA,NA,NA,1,21,"likert"
"F79D2427D52B4362B92A0AEF2995F26C",1,"01990aad-218e-7259-8ef7-024862d76709","01990a84-c4ee-73c2-a87b-ff46a7d3dde5","2025-09-02_09h46.20.886",NA,NA,185.3384,185.3385,185.3385,185.665,NA,NA,NA,NA,NA,NA,NA,TRUE,2,1.2201,182.302,185.3384,0,21,21,100,1,180,46,NA,NA,NA,NA,NA,1,22,"likert"
"F79D2427D52B4362B92A0AEF2995F26C",1,"01990aad-218e-7259-8ef7-024862d76709","01990a84-c4ee-73c2-a87b-ff46a7d3dde5","2025-09-02_09h46.20.886",NA,NA,188.6766,188.6766,188.6767,189.033,NA,NA,NA,NA,NA,NA,NA,TRUE,4,1.2588,185.6654,188.6766,0,22,22,79,1,95,33,NA,NA,NA,NA,NA,1,23,"likert"
"F79D2427D52B4362B92A0AEF2995F26C",1,"01990aad-218e-7259-8ef7-024862d76709","01990a84-c4ee-73c2-a87b-ff46a7d3dde5","2025-09-02_09h46.20.886",NA,NA,192.0073,192.0073,192.0073,192.3318,NA,NA,NA,NA,NA,NA,NA,TRUE,2,0.8993,189.0335,192.0072,0,23,23,68,1,60,35,NA,NA,NA,NA,NA,1,24,"likert"
"F79D2427D52B4362B92A0AEF2995F26C",1,"01990aad-218e-7259-8ef7-024862d76709","01990a84-c4ee-73c2-a87b-ff46a7d3dde5","2025-09-02_09h46.20.886",NA,NA,195.3635,195.3635,195.3635,195.732,NA,NA,NA,NA,NA,NA,NA,TRUE,4,1.4618,192.3322,195.3634,0,24,24,64,1,50,46,NA,NA,NA,NA,NA,1,25,"likert"
"F79D2427D52B4362B92A0AEF2995F26C",1,"01990aad-218e-7259-8ef7-024862d76709","01990a84-c4ee-73c2-a87b-ff46a7d3dde5","2025-09-02_09h46.20.886",NA,NA,198.6668,198.6668,198.6668,199.0104,NA,NA,NA,NA,NA,NA,NA,TRUE,3,1.427,195.7324,198.6667,0,25,25,47,1,30,38,NA,NA,NA,NA,NA,1,26,"likert"
"F79D2427D52B4362B92A0AEF2995F26C",1,"01990aad-218e-7259-8ef7-024862d76709","01990a84-c4ee-73c2-a87b-ff46a7d3dde5","2025-09-02_09h46.20.886",NA,NA,201.9972,201.9972,201.9972,202.4375,NA,NA,NA,NA,NA,NA,NA,TRUE,4,2.0737,199.0108,201.9972,0,26,26,20,1,14,28,NA,NA,NA,NA,NA,1,27,"likert"
"F79D2427D52B4362B92A0AEF2995F26C",1,"01990aad-218e-7259-8ef7-024862d76709","01990a84-c4ee-73c2-a87b-ff46a7d3dde5","2025-09-02_09h46.20.886",NA,NA,205.432,205.4321,205.4321,205.775,NA,NA,NA,NA,NA,NA,NA,TRUE,4,1.5067,202.438,205.432,0,27,27,45,1,30,30,NA,NA,NA,NA,NA,1,28,"likert"
"F79D2427D52B4362B92A0AEF2995F26C",1,"01990aad-218e-7259-8ef7-024862d76709","01990a84-c4ee-73c2-a87b-ff46a7d3dde5","2025-09-02_09h46.20.886",NA,NA,208.7584,208.7584,208.7584,209.1016,NA,NA,NA,NA,NA,NA,NA,TRUE,4,1.1544,205.7755,208.7584,0,28,28,22,1,14,35,NA,NA,NA,NA,NA,1,29,"likert"
"F79D2427D52B4362B92A0AEF2995F26C",1,"01990aad-218e-7259-8ef7-024862d76709","01990a84-c4ee-73c2-a87b-ff46a7d3dde5","2025-09-02_09h46.20.886",NA,NA,212.1109,212.1109,212.1109,212.4381,NA,NA,NA,NA,NA,NA,NA,TRUE,4,1.0256,209.102,212.1108,0,29,29,35,1,25,46,NA,NA,NA,NA,NA,1,30,"likert"
"F79D2427D52B4362B92A0AEF2995F26C",1,"01990aad-218e-7259-8ef7-024862d76709","01990a84-c4ee-73c2-a87b-ff46a7d3dde5","2025-09-02_09h46.20.886",NA,NA,215.4727,215.4727,215.4727,215.7473,NA,NA,NA,NA,NA,NA,NA,TRUE,2,1.2553,212.4385,215.4727,0,30,30,103,1,200,28,NA,NA,NA,NA,NA,1,31,"likert"
"F79D2427D52B4362B92A0AEF2995F26C",1,"01990aad-218e-7259-8ef7-024862d76709","01990a84-c4ee-73c2-a87b-ff46a7d3dde5","2025-09-02_09h46.20.886",NA,NA,218.7785,218.7785,218.7785,219.1309,NA,NA,NA,NA,NA,NA,NA,TRUE,2,1.2072,215.7477,218.7785,0,31,31,99,1,180,39,NA,NA,NA,NA,NA,1,32,"likert"
"F79D2427D52B4362B92A0AEF2995F26C",1,"01990aad-218e-7259-8ef7-024862d76709","01990a84-c4ee-73c2-a87b-ff46a7d3dde5","2025-09-02_09h46.20.886",NA,NA,222.1338,222.1338,222.1338,222.51,NA,NA,NA,NA,NA,NA,NA,TRUE,4,1.4855,219.1313,222.1337,0,32,32,25,1,21,27,NA,NA,NA,NA,NA,1,33,"likert"
"F79D2427D52B4362B92A0AEF2995F26C",1,"01990aad-218e-7259-8ef7-024862d76709","01990a84-c4ee-73c2-a87b-ff46a7d3dde5","2025-09-02_09h46.20.886",NA,NA,225.474,225.474,225.4741,225.8055,NA,NA,NA,NA,NA,NA,NA,TRUE,2,1.4934,222.5105,225.474,0,33,33,98,1,180,35,NA,NA,NA,NA,NA,1,34,"likert"
"F79D2427D52B4362B92A0AEF2995F26C",1,"01990aad-218e-7259-8ef7-024862d76709","01990a84-c4ee-73c2-a87b-ff46a7d3dde5","2025-09-02_09h46.20.886",NA,NA,228.8985,228.8985,228.8985,229.2339,NA,NA,NA,NA,NA,NA,NA,TRUE,4,1.3208,225.8059,228.8985,0,34,34,59,1,45,46,NA,NA,NA,NA,NA,1,35,"likert"
"F79D2427D52B4362B92A0AEF2995F26C",1,"01990aad-218e-7259-8ef7-024862d76709","01990a84-c4ee-73c2-a87b-ff46a7d3dde5","2025-09-02_09h46.20.886",NA,NA,232.1947,232.1948,232.1948,232.5449,NA,NA,NA,NA,NA,NA,NA,TRUE,4,1.1146,229.2344,232.1947,0,35,35,52,1,40,47,NA,NA,NA,NA,NA,1,36,"likert"
"F79D2427D52B4362B92A0AEF2995F26C",1,"01990aad-218e-7259-8ef7-024862d76709","01990a84-c4ee-73c2-a87b-ff46a7d3dde5","2025-09-02_09h46.20.886",NA,NA,235.5909,235.5909,235.5909,235.9216,NA,NA,NA,NA,NA,NA,NA,TRUE,4,0.9553,232.5452,235.5908,0,36,36,32,1,25,31,NA,NA,NA,NA,NA,1,37,"likert"
"F79D2427D52B4362B92A0AEF2995F26C",1,"01990aad-218e-7259-8ef7-024862d76709","01990a84-c4ee-73c2-a87b-ff46a7d3dde5","2025-09-02_09h46.20.886",NA,NA,238.8625,238.8625,238.8625,239.2765,NA,NA,NA,NA,NA,NA,NA,TRUE,4,0.9329,235.922,238.8625,0,37,37,0,1,7,25,NA,NA,NA,NA,NA,1,38,"likert"
"F79D2427D52B4362B92A0AEF2995F26C",1,"01990aad-218e-7259-8ef7-024862d76709","01990a84-c4ee-73c2-a87b-ff46a7d3dde5","2025-09-02_09h46.20.886",NA,NA,242.2318,242.2318,242.2318,242.5711,NA,NA,NA,NA,NA,NA,NA,TRUE,4,2.3121,239.277,242.2317,0,38,38,69,1,60,40,NA,NA,NA,NA,NA,1,39,"likert"
"F79D2427D52B4362B92A0AEF2995F26C",1,"01990aad-218e-7259-8ef7-024862d76709","01990a84-c4ee-73c2-a87b-ff46a7d3dde5","2025-09-02_09h46.20.886",NA,NA,245.5532,245.5533,245.5533,245.9802,NA,NA,NA,NA,NA,NA,NA,TRUE,2,1.5041,242.5716,245.5532,0,39,39,91,1,150,33,NA,NA,NA,NA,NA,1,40,"likert"
"F79D2427D52B4362B92A0AEF2995F26C",1,"01990aad-218e-7259-8ef7-024862d76709","01990a84-c4ee-73c2-a87b-ff46a7d3dde5","2025-09-02_09h46.20.886",NA,NA,248.9409,248.9409,248.9409,249.2921,NA,NA,NA,NA,NA,NA,NA,TRUE,4,1.6636,245.9806,248.9409,0,40,40,46,1,30,32,NA,NA,NA,NA,NA,1,41,"likert"
"F79D2427D52B4362B92A0AEF2995F26C",1,"01990aad-218e-7259-8ef7-024862d76709","01990a84-c4ee-73c2-a87b-ff46a7d3dde5","2025-09-02_09h46.20.886",NA,NA,252.3155,252.3155,252.3155,252.6864,NA,NA,NA,NA,NA,NA,NA,TRUE,2,1.3899,249.2925,252.3155,0,41,41,1,1,7,26,NA,NA,NA,NA,NA,1,42,"likert"
"F79D2427D52B4362B92A0AEF2995F26C",1,"01990aad-218e-7259-8ef7-024862d76709","01990a84-c4ee-73c2-a87b-ff46a7d3dde5","2025-09-02_09h46.20.886",NA,NA,255.6642,255.6642,255.6642,256.0046,NA,NA,NA,NA,NA,NA,NA,TRUE,4,1.4949,252.6869,255.6641,0,42,42,82,1,95,47,NA,NA,NA,NA,NA,1,43,"likert"
"F79D2427D52B4362B92A0AEF2995F26C",1,"01990aad-218e-7259-8ef7-024862d76709","01990a84-c4ee-73c2-a87b-ff46a7d3dde5","2025-09-02_09h46.20.886",NA,NA,258.9654,258.9654,258.9654,259.3847,NA,NA,NA,NA,NA,NA,NA,TRUE,2,1.5104,256.005,258.9654,0,43,43,67,1,60,33,NA,NA,NA,NA,NA,1,44,"likert"
"F79D2427D52B4362B92A0AEF2995F26C",1,"01990aad-218e-7259-8ef7-024862d76709","01990a84-c4ee-73c2-a87b-ff46a7d3dde5","2025-09-02_09h46.20.886",NA,NA,262.3526,262.3526,262.3526,262.7064,NA,NA,NA,NA,NA,NA,NA,TRUE,2,1.2662,259.3851,262.3526,0,44,44,94,1,150,47,NA,NA,NA,NA,NA,1,45,"likert"
"F79D2427D52B4362B92A0AEF2995F26C",1,"01990aad-218e-7259-8ef7-024862d76709","01990a84-c4ee-73c2-a87b-ff46a7d3dde5","2025-09-02_09h46.20.886",NA,NA,265.7245,265.7245,265.7245,266.0859,NA,NA,NA,NA,NA,NA,NA,TRUE,2,1.5318,262.707,265.7245,0,45,45,13,1,12,26,NA,NA,NA,NA,NA,1,46,"likert"
"F79D2427D52B4362B92A0AEF2995F26C",1,"01990aad-218e-7259-8ef7-024862d76709","01990a84-c4ee-73c2-a87b-ff46a7d3dde5","2025-09-02_09h46.20.886",NA,NA,269.0452,269.0452,269.0452,269.4018,NA,NA,NA,NA,NA,NA,NA,TRUE,2,1.3072,266.0864,269.0452,0,46,46,6,1,10,25,NA,NA,NA,NA,NA,1,47,"likert"
"F79D2427D52B4362B92A0AEF2995F26C",1,"01990aad-218e-7259-8ef7-024862d76709","01990a84-c4ee-73c2-a87b-ff46a7d3dde5","2025-09-02_09h46.20.886",NA,NA,272.3802,272.3802,272.3802,272.7158,NA,NA,NA,NA,NA,NA,NA,TRUE,2,1.3528,269.4023,272.3801,0,47,47,96,1,180,27,NA,NA,NA,NA,NA,1,48,"likert"
"F79D2427D52B4362B92A0AEF2995F26C",1,"01990aad-218e-7259-8ef7-024862d76709","01990a84-c4ee-73c2-a87b-ff46a7d3dde5","2025-09-02_09h46.20.886",NA,NA,275.7566,275.7566,275.7566,276.0948,NA,NA,NA,NA,NA,NA,NA,TRUE,4,1.3075,272.7162,275.7565,0,48,48,3,1,7,30,NA,NA,NA,NA,NA,1,49,"likert"
"F79D2427D52B4362B92A0AEF2995F26C",1,"01990aad-218e-7259-8ef7-024862d76709","01990a84-c4ee-73c2-a87b-ff46a7d3dde5","2025-09-02_09h46.20.886",NA,NA,279.1379,279.1379,279.1379,279.4086,NA,NA,NA,NA,NA,NA,NA,TRUE,2,1.8502,276.0952,279.1379,0,49,49,43,1,30,27,NA,NA,NA,NA,NA,1,50,"likert"
"F79D2427D52B4362B92A0AEF2995F26C",1,"01990aad-218e-7259-8ef7-024862d76709","01990a84-c4ee-73c2-a87b-ff46a7d3dde5","2025-09-02_09h46.20.886",NA,NA,282.4935,282.4935,282.4935,282.8187,NA,NA,NA,NA,NA,NA,NA,TRUE,2,1.8098,279.409,282.4934,0,50,50,31,1,25,29,NA,NA,NA,NA,NA,1,51,"likert"
"F79D2427D52B4362B92A0AEF2995F26C",1,"01990aad-218e-7259-8ef7-024862d76709","01990a84-c4ee-73c2-a87b-ff46a7d3dde5","2025-09-02_09h46.20.886",NA,NA,285.8127,285.8128,285.8128,286.1705,NA,NA,NA,NA,NA,NA,NA,TRUE,2,1.2499,282.8191,285.8127,0,51,51,84,1,100,26,NA,NA,NA,NA,NA,1,52,"likert"
"F79D2427D52B4362B92A0AEF2995F26C",1,"01990aad-218e-7259-8ef7-024862d76709","01990a84-c4ee-73c2-a87b-ff46a7d3dde5","2025-09-02_09h46.20.886",NA,NA,289.1368,289.1368,289.1368,289.4821,NA,NA,NA,NA,NA,NA,NA,TRUE,4,1.5836,286.1711,289.1367,0,52,52,10,1,10,30,NA,NA,NA,NA,NA,1,53,"likert"
"F79D2427D52B4362B92A0AEF2995F26C",1,"01990aad-218e-7259-8ef7-024862d76709","01990a84-c4ee-73c2-a87b-ff46a7d3dde5","2025-09-02_09h46.20.886",NA,NA,292.5038,292.5038,292.5038,292.8679,NA,NA,NA,NA,NA,NA,NA,TRUE,4,1.1559,289.4825,292.5037,0,53,53,5,1,7,35,NA,NA,NA,NA,NA,1,54,"likert"
"F79D2427D52B4362B92A0AEF2995F26C",1,"01990aad-218e-7259-8ef7-024862d76709","01990a84-c4ee-73c2-a87b-ff46a7d3dde5","2025-09-02_09h46.20.886",NA,NA,295.856,295.856,295.856,296.1843,NA,NA,NA,NA,NA,NA,NA,TRUE,4,0.9588,292.8683,295.856,0,54,54,104,1,200,35,NA,NA,NA,NA,NA,1,55,"likert"
"F79D2427D52B4362B92A0AEF2995F26C",1,"01990aad-218e-7259-8ef7-024862d76709","01990a84-c4ee-73c2-a87b-ff46a7d3dde5","2025-09-02_09h46.20.886",NA,NA,299.2006,299.2007,299.2007,299.5426,NA,NA,NA,NA,NA,NA,NA,TRUE,4,2.1637,296.1848,299.2005,0,55,55,107,1,200,54,NA,NA,NA,NA,NA,1,56,"likert"
"F79D2427D52B4362B92A0AEF2995F26C",1,"01990aad-218e-7259-8ef7-024862d76709","01990a84-c4ee-73c2-a87b-ff46a7d3dde5","2025-09-02_09h46.20.886",NA,NA,302.588,302.588,302.588,302.8474,NA,NA,NA,NA,NA,NA,NA,TRUE,1,2.215,299.543,302.5879,0,56,56,18,1,14,25,NA,NA,NA,NA,NA,1,57,"likert"
"F79D2427D52B4362B92A0AEF2995F26C",1,"01990aad-218e-7259-8ef7-024862d76709","01990a84-c4ee-73c2-a87b-ff46a7d3dde5","2025-09-02_09h46.20.886",NA,NA,305.9286,305.9287,305.9287,306.1971,NA,NA,NA,NA,NA,NA,NA,TRUE,4,1.4974,302.8478,305.9286,0,57,57,17,1,12,35,NA,NA,NA,NA,NA,1,58,"likert"
"F79D2427D52B4362B92A0AEF2995F26C",1,"01990aad-218e-7259-8ef7-024862d76709","01990a84-c4ee-73c2-a87b-ff46a7d3dde5","2025-09-02_09h46.20.886",NA,NA,309.2799,309.2799,309.2799,309.6229,NA,NA,NA,NA,NA,NA,NA,TRUE,1,1.6757,306.1976,309.2798,0,58,58,60,1,50,27,NA,NA,NA,NA,NA,1,59,"likert"
"F79D2427D52B4362B92A0AEF2995F26C",1,"01990aad-218e-7259-8ef7-024862d76709","01990a84-c4ee-73c2-a87b-ff46a7d3dde5","2025-09-02_09h46.20.886",NA,NA,312.5927,312.5927,312.5928,312.9248,NA,NA,NA,NA,NA,NA,NA,TRUE,1,1.6674,309.6234,312.5927,0,59,59,24,1,21,26,NA,NA,NA,NA,NA,1,60,"likert"
"F79D2427D52B4362B92A0AEF2995F26C",1,"01990aad-218e-7259-8ef7-024862d76709","01990a84-c4ee-73c2-a87b-ff46a7d3dde5","2025-09-02_09h46.20.886",NA,NA,315.954,315.954,315.954,316.2963,NA,NA,NA,NA,NA,NA,NA,TRUE,1,1.4916,312.9252,315.9539,0,60,60,8,1,10,27,NA,NA,NA,NA,NA,1,61,"likert"
"F79D2427D52B4362B92A0AEF2995F26C",1,"01990aad-218e-7259-8ef7-024862d76709","01990a84-c4ee-73c2-a87b-ff46a7d3dde5","2025-09-02_09h46.20.886",NA,NA,319.2697,319.2697,319.2697,319.6919,NA,NA,NA,NA,NA,NA,NA,TRUE,1,1.5049,316.2968,319.2696,0,61,61,2,1,7,28,NA,NA,NA,NA,NA,1,62,"likert"
"F79D2427D52B4362B92A0AEF2995F26C",1,"01990aad-218e-7259-8ef7-024862d76709","01990a84-c4ee-73c2-a87b-ff46a7d3dde5","2025-09-02_09h46.20.886",NA,NA,322.6586,322.6586,322.6586,322.9934,NA,NA,NA,NA,NA,NA,NA,TRUE,1,2.1249,319.6924,322.6585,0,62,62,14,1,12,28,NA,NA,NA,NA,NA,1,63,"likert"
"F79D2427D52B4362B92A0AEF2995F26C",1,"01990aad-218e-7259-8ef7-024862d76709","01990a84-c4ee-73c2-a87b-ff46a7d3dde5","2025-09-02_09h46.20.886",NA,NA,325.998,325.998,325.998,326.344,NA,NA,NA,NA,NA,NA,NA,TRUE,4,1.3075,322.9938,325.998,0,63,63,28,1,21,32,NA,NA,NA,NA,NA,1,64,"likert"
"F79D2427D52B4362B92A0AEF2995F26C",1,"01990aad-218e-7259-8ef7-024862d76709","01990a84-c4ee-73c2-a87b-ff46a7d3dde5","2025-09-02_09h46.20.886",NA,NA,329.3832,329.3832,329.3832,329.7277,NA,NA,NA,NA,NA,NA,NA,TRUE,4,1.6056,326.3445,329.3832,0,64,64,16,1,12,33,NA,NA,NA,NA,NA,1,65,"likert"
"F79D2427D52B4362B92A0AEF2995F26C",1,"01990aad-218e-7259-8ef7-024862d76709","01990a84-c4ee-73c2-a87b-ff46a7d3dde5","2025-09-02_09h46.20.886",NA,NA,332.7101,332.7102,332.7105,333.0691,NA,NA,NA,NA,NA,NA,NA,TRUE,4,1.7394,329.7281,332.71,0,65,65,51,1,40,40,NA,NA,NA,NA,NA,1,66,"likert"
"F79D2427D52B4362B92A0AEF2995F26C",1,"01990aad-218e-7259-8ef7-024862d76709","01990a84-c4ee-73c2-a87b-ff46a7d3dde5","2025-09-02_09h46.20.886",NA,NA,336.0524,336.0524,336.0524,336.4173,NA,NA,NA,NA,NA,NA,NA,TRUE,1,1.193,333.0705,336.0523,0,66,66,102,1,200,26,NA,NA,NA,NA,NA,1,67,"likert"
"F79D2427D52B4362B92A0AEF2995F26C",1,"01990aad-218e-7259-8ef7-024862d76709","01990a84-c4ee-73c2-a87b-ff46a7d3dde5","2025-09-02_09h46.20.886",NA,NA,339.3956,339.3956,339.3956,339.7377,NA,NA,NA,NA,NA,NA,NA,TRUE,4,1.3194,336.4178,339.3955,0,67,67,15,1,12,31,NA,NA,NA,NA,NA,1,68,"likert"
"F79D2427D52B4362B92A0AEF2995F26C",1,"01990aad-218e-7259-8ef7-024862d76709","01990a84-c4ee-73c2-a87b-ff46a7d3dde5","2025-09-02_09h46.20.886",NA,NA,342.7598,342.7598,342.7598,343.1044,NA,NA,NA,NA,NA,NA,NA,TRUE,4,1.8365,339.7382,342.7598,0,68,68,58,1,45,40,NA,NA,NA,NA,NA,1,69,"likert"
"F79D2427D52B4362B92A0AEF2995F26C",1,"01990aad-218e-7259-8ef7-024862d76709","01990a84-c4ee-73c2-a87b-ff46a7d3dde5","2025-09-02_09h46.20.886",NA,NA,346.1174,346.1174,346.1174,346.4744,NA,NA,NA,NA,NA,NA,NA,TRUE,4,1.4261,343.1049,346.1173,0,69,69,12,1,12,25,NA,NA,NA,NA,NA,1,70,"likert"
"F79D2427D52B4362B92A0AEF2995F26C",1,"01990aad-218e-7259-8ef7-024862d76709","01990a84-c4ee-73c2-a87b-ff46a7d3dde5","2025-09-02_09h46.20.886",NA,NA,349.4297,349.4297,349.4297,349.7787,NA,NA,NA,NA,NA,NA,NA,TRUE,4,1.7583,346.4748,349.4295,0,70,70,41,1,28,46,NA,NA,NA,NA,NA,1,71,"likert"
"F79D2427D52B4362B92A0AEF2995F26C",1,"01990aad-218e-7259-8ef7-024862d76709","01990a84-c4ee-73c2-a87b-ff46a7d3dde5","2025-09-02_09h46.20.886",NA,NA,352.8054,352.8055,352.8055,353.1458,NA,NA,NA,NA,NA,NA,NA,TRUE,1,1.5276,349.7792,352.8054,0,71,71,37,1,28,28,NA,NA,NA,NA,NA,1,72,"likert"
"F79D2427D52B4362B92A0AEF2995F26C",1,"01990aad-218e-7259-8ef7-024862d76709","01990a84-c4ee-73c2-a87b-ff46a7d3dde5","2025-09-02_09h46.20.886",NA,NA,356.1231,356.1231,356.1231,356.4554,NA,NA,NA,NA,NA,NA,NA,TRUE,1,1.2183,353.1463,356.123,0,72,72,106,1,200,47,NA,NA,NA,NA,NA,1,73,"likert"
"F79D2427D52B4362B92A0AEF2995F26C",1,"01990aad-218e-7259-8ef7-024862d76709","01990a84-c4ee-73c2-a87b-ff46a7d3dde5","2025-09-02_09h46.20.886",NA,NA,359.4929,359.493,359.493,359.8352,NA,NA,NA,NA,NA,NA,NA,TRUE,3,1.9788,356.4558,359.4929,0,73,73,95,1,150,54,NA,NA,NA,NA,NA,1,74,"likert"
"F79D2427D52B4362B92A0AEF2995F26C",1,"01990aad-218e-7259-8ef7-024862d76709","01990a84-c4ee-73c2-a87b-ff46a7d3dde5","2025-09-02_09h46.20.886",NA,NA,362.8486,362.8486,362.8486,363.1869,NA,NA,NA,NA,NA,NA,NA,TRUE,4,1.5952,359.8358,362.8486,0,74,74,21,1,14,32,NA,NA,NA,NA,NA,1,75,"likert"
"F79D2427D52B4362B92A0AEF2995F26C",1,"01990aad-218e-7259-8ef7-024862d76709","01990a84-c4ee-73c2-a87b-ff46a7d3dde5","2025-09-02_09h46.20.886",NA,NA,366.1959,366.1959,366.1959,366.5436,NA,NA,NA,NA,NA,NA,NA,TRUE,4,1.2496,363.1873,366.1957,0,75,75,61,1,50,30,NA,NA,NA,NA,NA,1,76,"likert"
"F79D2427D52B4362B92A0AEF2995F26C",1,"01990aad-218e-7259-8ef7-024862d76709","01990a84-c4ee-73c2-a87b-ff46a7d3dde5","2025-09-02_09h46.20.886",NA,NA,369.5212,369.5212,369.5212,369.8798,NA,NA,NA,NA,NA,NA,NA,TRUE,1,1.3987,366.5441,369.5211,0,76,76,66,1,60,29,NA,NA,NA,NA,NA,1,77,"likert"
"F79D2427D52B4362B92A0AEF2995F26C",1,"01990aad-218e-7259-8ef7-024862d76709","01990a84-c4ee-73c2-a87b-ff46a7d3dde5","2025-09-02_09h46.20.886",NA,NA,372.9115,372.9115,372.9115,373.2622,NA,NA,NA,NA,NA,NA,NA,TRUE,4,1.4967,369.8803,372.9114,0,77,77,53,1,40,54,NA,NA,NA,NA,NA,1,78,"likert"
"F79D2427D52B4362B92A0AEF2995F26C",1,"01990aad-218e-7259-8ef7-024862d76709","01990a84-c4ee-73c2-a87b-ff46a7d3dde5","2025-09-02_09h46.20.886",NA,NA,376.2007,376.2007,376.2007,376.5703,NA,NA,NA,NA,NA,NA,NA,TRUE,4,1.1519,373.2626,376.2007,0,78,78,62,1,50,35,NA,NA,NA,NA,NA,1,79,"likert"
"F79D2427D52B4362B92A0AEF2995F26C",1,"01990aad-218e-7259-8ef7-024862d76709","01990a84-c4ee-73c2-a87b-ff46a7d3dde5","2025-09-02_09h46.20.886",NA,NA,379.5927,379.5928,379.5928,379.9344,NA,NA,NA,NA,NA,NA,NA,TRUE,1,1.1805,376.5709,379.5927,0,79,79,42,1,30,26,NA,NA,NA,NA,NA,1,80,"likert"
"F79D2427D52B4362B92A0AEF2995F26C",1,"01990aad-218e-7259-8ef7-024862d76709","01990a84-c4ee-73c2-a87b-ff46a7d3dde5","2025-09-02_09h46.20.886",NA,NA,382.9435,382.9435,382.9435,383.3093,NA,NA,NA,NA,NA,NA,NA,TRUE,4,1.269,379.9349,382.9434,0,80,80,49,1,40,33,NA,NA,NA,NA,NA,1,81,"likert"
"F79D2427D52B4362B92A0AEF2995F26C",1,"01990aad-218e-7259-8ef7-024862d76709","01990a84-c4ee-73c2-a87b-ff46a7d3dde5","2025-09-02_09h46.20.886",NA,NA,386.29,386.29,386.29,386.6276,NA,NA,NA,NA,NA,NA,NA,TRUE,4,1.6031,383.3096,386.29,0,81,81,23,1,14,39,NA,NA,NA,NA,NA,1,82,"likert"
"F79D2427D52B4362B92A0AEF2995F26C",1,"01990aad-218e-7259-8ef7-024862d76709","01990a84-c4ee-73c2-a87b-ff46a7d3dde5","2025-09-02_09h46.20.886",NA,NA,389.682,389.6821,389.6821,390.0247,NA,NA,NA,NA,NA,NA,NA,TRUE,4,1.3284,386.6281,389.682,0,82,82,34,1,25,35,NA,NA,NA,NA,NA,1,83,"likert"
"F79D2427D52B4362B92A0AEF2995F26C",1,"01990aad-218e-7259-8ef7-024862d76709","01990a84-c4ee-73c2-a87b-ff46a7d3dde5","2025-09-02_09h46.20.886",NA,NA,393.0133,393.0133,393.0133,393.3354,NA,NA,NA,NA,NA,NA,NA,TRUE,4,0.9571,390.0251,393.0133,0,83,83,87,1,100,39,NA,NA,NA,NA,NA,1,84,"likert"
"F79D2427D52B4362B92A0AEF2995F26C",1,"01990aad-218e-7259-8ef7-024862d76709","01990a84-c4ee-73c2-a87b-ff46a7d3dde5","2025-09-02_09h46.20.886",NA,NA,396.3727,396.3728,396.3728,396.712,NA,NA,NA,NA,NA,NA,NA,TRUE,4,1.8521,393.3358,396.3727,0,84,84,9,1,10,29,NA,NA,NA,NA,NA,1,85,"likert"
"F79D2427D52B4362B92A0AEF2995F26C",1,"01990aad-218e-7259-8ef7-024862d76709","01990a84-c4ee-73c2-a87b-ff46a7d3dde5","2025-09-02_09h46.20.886",NA,NA,399.6867,399.6867,399.6867,400.037,NA,NA,NA,NA,NA,NA,NA,TRUE,1,1.242,396.7124,399.6867,0,85,85,54,1,45,26,NA,NA,NA,NA,NA,1,86,"likert"
"F79D2427D52B4362B92A0AEF2995F26C",1,"01990aad-218e-7259-8ef7-024862d76709","01990a84-c4ee-73c2-a87b-ff46a7d3dde5","2025-09-02_09h46.20.886",NA,NA,403.0969,403.2719,403.2719,403.3494,NA,NA,NA,NA,NA,NA,NA,FALSE,NA,NA,400.0374,403.0969,0,86,86,26,1,21,29,NA,NA,NA,NA,NA,1,87,"likert"
"F79D2427D52B4362B92A0AEF2995F26C",1,"01990aad-218e-7259-8ef7-024862d76709","01990a84-c4ee-73c2-a87b-ff46a7d3dde5","2025-09-02_09h46.20.886",NA,NA,406.3925,406.6623,406.6623,406.7592,NA,NA,NA,NA,NA,NA,NA,FALSE,NA,NA,403.3498,406.3924,0,87,87,39,1,28,35,NA,NA,NA,NA,NA,1,88,"likert"
"F79D2427D52B4362B92A0AEF2995F26C",1,"01990aad-218e-7259-8ef7-024862d76709","01990a84-c4ee-73c2-a87b-ff46a7d3dde5","2025-09-02_09h46.20.886",NA,NA,409.7072,409.9608,409.9609,410.1271,NA,NA,NA,NA,NA,NA,NA,FALSE,NA,NA,406.7597,409.707,0,88,88,7,1,10,26,NA,NA,NA,NA,NA,1,89,"likert"
"F79D2427D52B4362B92A0AEF2995F26C",1,"01990aad-218e-7259-8ef7-024862d76709","01990a84-c4ee-73c2-a87b-ff46a7d3dde5","2025-09-02_09h46.20.886",NA,NA,413.1493,413.3183,413.3183,413.4086,NA,NA,NA,NA,NA,NA,NA,FALSE,NA,NA,410.1275,413.1493,0,89,89,74,1,90,33,NA,NA,NA,NA,NA,1,90,"likert"
"F79D2427D52B4362B92A0AEF2995F26C",1,"01990aad-218e-7259-8ef7-024862d76709","01990a84-c4ee-73c2-a87b-ff46a7d3dde5","2025-09-02_09h46.20.886",NA,NA,416.3985,416.6742,416.6743,416.7651,NA,NA,NA,NA,NA,NA,NA,FALSE,NA,NA,413.4092,416.3985,0,90,90,73,1,90,30,NA,NA,NA,NA,NA,1,91,"likert"
"F79D2427D52B4362B92A0AEF2995F26C",1,"01990aad-218e-7259-8ef7-024862d76709","01990a84-c4ee-73c2-a87b-ff46a7d3dde5","2025-09-02_09h46.20.886",NA,NA,419.7626,419.7626,419.7626,420.1882,NA,NA,NA,NA,NA,NA,NA,TRUE,4,1.4326,416.7654,419.7625,0,91,91,83,1,95,54,NA,NA,NA,NA,NA,1,92,"likert"
"F79D2427D52B4362B92A0AEF2995F26C",1,"01990aad-218e-7259-8ef7-024862d76709","01990a84-c4ee-73c2-a87b-ff46a7d3dde5","2025-09-02_09h46.20.886",NA,NA,423.1512,423.1512,423.1512,423.5138,NA,NA,NA,NA,NA,NA,NA,TRUE,2,1.2528,420.189,423.1511,0,92,92,86,1,100,38,NA,NA,NA,NA,NA,1,93,"likert"
"F79D2427D52B4362B92A0AEF2995F26C",1,"01990aad-218e-7259-8ef7-024862d76709","01990a84-c4ee-73c2-a87b-ff46a7d3dde5","2025-09-02_09h46.20.886",NA,NA,426.4762,426.4762,426.4762,426.819,NA,NA,NA,NA,NA,NA,NA,TRUE,2,1.0429,423.5142,426.4762,0,93,93,63,1,50,40,NA,NA,NA,NA,NA,1,94,"likert"
"F79D2427D52B4362B92A0AEF2995F26C",1,"01990aad-218e-7259-8ef7-024862d76709","01990a84-c4ee-73c2-a87b-ff46a7d3dde5","2025-09-02_09h46.20.886",NA,NA,429.8425,429.8425,429.8425,430.1731,NA,NA,NA,NA,NA,NA,NA,TRUE,2,0.3051,426.8195,429.8424,0,94,94,85,1,100,31,NA,NA,NA,NA,NA,1,95,"likert"
"F79D2427D52B4362B92A0AEF2995F26C",1,"01990aad-218e-7259-8ef7-024862d76709","01990a84-c4ee-73c2-a87b-ff46a7d3dde5","2025-09-02_09h46.20.886",NA,NA,433.213,433.213,433.213,433.5573,NA,NA,NA,NA,NA,NA,NA,TRUE,2,0.3631,430.1735,433.213,0,95,95,77,1,90,54,NA,NA,NA,NA,NA,1,96,"likert"
"F79D2427D52B4362B92A0AEF2995F26C",1,"01990aad-218e-7259-8ef7-024862d76709","01990a84-c4ee-73c2-a87b-ff46a7d3dde5","2025-09-02_09h46.20.886",NA,NA,436.5291,436.5291,436.5291,436.9357,NA,NA,NA,NA,NA,NA,NA,TRUE,1,0.6189,433.5578,436.5291,0,96,96,105,1,200,39,NA,NA,NA,NA,NA,1,97,"likert"
"F79D2427D52B4362B92A0AEF2995F26C",1,"01990aad-218e-7259-8ef7-024862d76709","01990a84-c4ee-73c2-a87b-ff46a7d3dde5","2025-09-02_09h46.20.886",NA,NA,439.8723,439.8723,439.8723,440.2131,NA,NA,NA,NA,NA,NA,NA,TRUE,2,1.3196,436.9361,439.8722,0,97,97,71,1,60,54,NA,NA,NA,NA,NA,1,98,"likert"
"F79D2427D52B4362B92A0AEF2995F26C",1,"01990aad-218e-7259-8ef7-024862d76709","01990a84-c4ee-73c2-a87b-ff46a7d3dde5","2025-09-02_09h46.20.886",NA,NA,443.2926,443.2926,443.2926,443.6421,NA,NA,NA,NA,NA,NA,NA,TRUE,2,1.0939,440.2136,443.2926,0,98,98,80,1,95,35,NA,NA,NA,NA,NA,1,99,"likert"
"F79D2427D52B4362B92A0AEF2995F26C",1,"01990aad-218e-7259-8ef7-024862d76709","01990a84-c4ee-73c2-a87b-ff46a7d3dde5","2025-09-02_09h46.20.886",NA,NA,446.5833,446.5833,446.5833,446.9206,NA,NA,NA,NA,NA,NA,NA,TRUE,2,1.2162,443.6426,446.5832,0,99,99,72,1,90,26,NA,NA,NA,NA,NA,1,100,"likert"
"F79D2427D52B4362B92A0AEF2995F26C",1,"01990aad-218e-7259-8ef7-024862d76709","01990a84-c4ee-73c2-a87b-ff46a7d3dde5","2025-09-02_09h46.20.886",NA,NA,449.9831,449.9831,449.9831,450.3385,NA,NA,NA,NA,NA,NA,NA,TRUE,1,0.8277,446.9211,449.9831,0,100,100,101,1,180,54,NA,NA,NA,NA,NA,1,101,"likert"
"F79D2427D52B4362B92A0AEF2995F26C",1,"01990aad-218e-7259-8ef7-024862d76709","01990a84-c4ee-73c2-a87b-ff46a7d3dde5","2025-09-02_09h46.20.886",NA,NA,453.2829,453.2829,453.2829,453.6169,NA,NA,NA,NA,NA,NA,NA,TRUE,1,1.3907,450.3391,453.2829,0,101,101,78,1,95,31,NA,NA,NA,NA,NA,1,102,"likert"
"F79D2427D52B4362B92A0AEF2995F26C",1,"01990aad-218e-7259-8ef7-024862d76709","01990a84-c4ee-73c2-a87b-ff46a7d3dde5","2025-09-02_09h46.20.886",NA,NA,456.6507,456.6507,456.6507,457.0099,NA,NA,NA,NA,NA,NA,NA,TRUE,1,0.9409,453.6175,456.6506,0,102,102,90,1,150,31,NA,NA,NA,NA,NA,1,103,"likert"
"F79D2427D52B4362B92A0AEF2995F26C",1,"01990aad-218e-7259-8ef7-024862d76709","01990a84-c4ee-73c2-a87b-ff46a7d3dde5","2025-09-02_09h46.20.886",NA,NA,460.0126,460.0126,460.0126,460.3647,NA,NA,NA,NA,NA,NA,NA,TRUE,1,0.7494,457.0104,460.0126,0,103,103,92,1,150,35,NA,NA,NA,NA,NA,1,104,"likert"
"F79D2427D52B4362B92A0AEF2995F26C",1,"01990aad-218e-7259-8ef7-024862d76709","01990a84-c4ee-73c2-a87b-ff46a7d3dde5","2025-09-02_09h46.20.886",NA,NA,463.3662,463.3662,463.3662,463.6944,NA,NA,NA,NA,NA,NA,NA,TRUE,2,1.209,460.3652,463.3662,0,104,104,65,1,50,54,NA,NA,NA,NA,NA,1,105,"likert"
"F79D2427D52B4362B92A0AEF2995F26C",1,"01990aad-218e-7259-8ef7-024862d76709","01990a84-c4ee-73c2-a87b-ff46a7d3dde5","2025-09-02_09h46.20.886",NA,NA,466.6645,466.6645,466.6645,467.1033,NA,NA,NA,NA,NA,NA,NA,TRUE,2,1.9136,463.695,466.6644,0,105,105,44,1,30,29,NA,NA,NA,NA,NA,1,106,"likert"
"F79D2427D52B4362B92A0AEF2995F26C",1,"01990aad-218e-7259-8ef7-024862d76709","01990a84-c4ee-73c2-a87b-ff46a7d3dde5","2025-09-02_09h46.20.886",NA,NA,470.0483,470.0483,470.0483,470.3953,NA,NA,NA,NA,NA,NA,NA,TRUE,4,2.0368,467.104,470.0482,0,106,106,11,1,10,32,NA,NA,NA,NA,NA,1,107,"likert"
"F79D2427D52B4362B92A0AEF2995F26C",1,"01990aad-218e-7259-8ef7-024862d76709","01990a84-c4ee-73c2-a87b-ff46a7d3dde5","2025-09-02_09h46.20.886",NA,NA,473.4199,473.4199,473.4199,473.7666,NA,NA,NA,NA,NA,NA,NA,TRUE,2,1.847,470.396,473.4198,0,107,107,36,1,28,26,NA,NA,NA,NA,NA,1,108,"likert"
"F79D2427D52B4362B92A0AEF2995F26C",1,"01990aad-218e-7259-8ef7-024862d76709","01990a84-c4ee-73c2-a87b-ff46a7d3dde5","2025-09-02_09h46.20.886",NA,NA,482.6143,482.8888,482.8889,482.9701,NA,NA,NA,NA,NA,NA,NA,FALSE,NA,NA,479.6491,482.6143,NA,NA,NA,NA,NA,50,30,0,0,0,61,1,2,1,"likert"
"F79D2427D52B4362B92A0AEF2995F26C",1,"01990aad-218e-7259-8ef7-024862d76709","01990a84-c4ee-73c2-a87b-ff46a7d3dde5","2025-09-02_09h46.20.886",NA,NA,485.958,485.958,485.958,486.3062,NA,NA,NA,NA,NA,NA,NA,TRUE,1,1.2031,482.9705,485.9579,NA,NA,NA,NA,NA,150,54,0,1,1,95,1,2,2,"likert"
"F79D2427D52B4362B92A0AEF2995F26C",1,"01990aad-218e-7259-8ef7-024862d76709","01990a84-c4ee-73c2-a87b-ff46a7d3dde5","2025-09-02_09h46.20.886",NA,NA,489.3521,489.3521,489.3521,489.6954,NA,NA,NA,NA,NA,NA,NA,TRUE,1,1.6745,486.3066,489.352,NA,NA,NA,NA,NA,21,26,0,2,2,24,1,2,3,"likert"
"F79D2427D52B4362B92A0AEF2995F26C",1,"01990aad-218e-7259-8ef7-024862d76709","01990a84-c4ee-73c2-a87b-ff46a7d3dde5","2025-09-02_09h46.20.886",NA,NA,492.6713,492.6713,492.6713,493.0296,NA,NA,NA,NA,NA,NA,NA,TRUE,1,1.0329,489.6959,492.6713,NA,NA,NA,NA,NA,200,39,0,3,3,105,1,2,4,"likert"
"F79D2427D52B4362B92A0AEF2995F26C",1,"01990aad-218e-7259-8ef7-024862d76709","01990a84-c4ee-73c2-a87b-ff46a7d3dde5","2025-09-02_09h46.20.886",NA,NA,496.0739,496.0739,496.0739,496.4137,NA,NA,NA,NA,NA,NA,NA,TRUE,1,1.229,493.03,496.0738,NA,NA,NA,NA,NA,28,26,0,4,4,36,1,2,5,"likert"
"F79D2427D52B4362B92A0AEF2995F26C",1,"01990aad-218e-7259-8ef7-024862d76709","01990a84-c4ee-73c2-a87b-ff46a7d3dde5","2025-09-02_09h46.20.886",NA,NA,499.3309,499.3309,499.3309,499.7526,NA,NA,NA,NA,NA,NA,NA,TRUE,1,1.5805,496.4141,499.3308,NA,NA,NA,NA,NA,40,27,0,5,5,48,1,2,6,"likert"
"F79D2427D52B4362B92A0AEF2995F26C",1,"01990aad-218e-7259-8ef7-024862d76709","01990a84-c4ee-73c2-a87b-ff46a7d3dde5","2025-09-02_09h46.20.886",NA,NA,502.7373,502.7373,502.7373,503.0636,NA,NA,NA,NA,NA,NA,NA,TRUE,3,2.1755,499.753,502.7373,NA,NA,NA,NA,NA,50,40,0,6,6,63,1,2,7,"likert"
"F79D2427D52B4362B92A0AEF2995F26C",1,"01990aad-218e-7259-8ef7-024862d76709","01990a84-c4ee-73c2-a87b-ff46a7d3dde5","2025-09-02_09h46.20.886",NA,NA,506.0934,506.0934,506.0935,506.4299,NA,NA,NA,NA,NA,NA,NA,TRUE,1,0.8582,503.0639,506.0934,NA,NA,NA,NA,NA,100,26,0,7,7,84,1,2,8,"likert"
"F79D2427D52B4362B92A0AEF2995F26C",1,"01990aad-218e-7259-8ef7-024862d76709","01990a84-c4ee-73c2-a87b-ff46a7d3dde5","2025-09-02_09h46.20.886",NA,NA,509.3974,509.3974,509.3974,509.7504,NA,NA,NA,NA,NA,NA,NA,TRUE,1,0.6279,506.4304,509.3973,NA,NA,NA,NA,NA,90,40,0,8,8,75,1,2,9,"likert"
"F79D2427D52B4362B92A0AEF2995F26C",1,"01990aad-218e-7259-8ef7-024862d76709","01990a84-c4ee-73c2-a87b-ff46a7d3dde5","2025-09-02_09h46.20.886",NA,NA,512.774,512.774,512.774,513.1245,NA,NA,NA,NA,NA,NA,NA,TRUE,1,0.751,509.7513,512.7739,NA,NA,NA,NA,NA,180,35,0,9,9,98,1,2,10,"likert"
"F79D2427D52B4362B92A0AEF2995F26C",1,"01990aad-218e-7259-8ef7-024862d76709","01990a84-c4ee-73c2-a87b-ff46a7d3dde5","2025-09-02_09h46.20.886",NA,NA,516.1644,516.1644,516.1644,516.5026,NA,NA,NA,NA,NA,NA,NA,TRUE,2,2.1515,513.1248,516.1644,NA,NA,NA,NA,NA,25,29,0,10,10,31,1,2,11,"likert"
"F79D2427D52B4362B92A0AEF2995F26C",1,"01990aad-218e-7259-8ef7-024862d76709","01990a84-c4ee-73c2-a87b-ff46a7d3dde5","2025-09-02_09h46.20.886",NA,NA,519.4508,519.4508,519.4508,519.7983,NA,NA,NA,NA,NA,NA,NA,TRUE,1,0.8405,516.5031,519.4507,NA,NA,NA,NA,NA,95,33,0,11,11,79,1,2,12,"likert"
"F79D2427D52B4362B92A0AEF2995F26C",1,"01990aad-218e-7259-8ef7-024862d76709","01990a84-c4ee-73c2-a87b-ff46a7d3dde5","2025-09-02_09h46.20.886",NA,NA,522.7865,522.7865,522.7865,523.2085,NA,NA,NA,NA,NA,NA,NA,TRUE,1,0.6529,519.7988,522.7864,NA,NA,NA,NA,NA,200,47,0,12,12,106,1,2,13,"likert"
"F79D2427D52B4362B92A0AEF2995F26C",1,"01990aad-218e-7259-8ef7-024862d76709","01990a84-c4ee-73c2-a87b-ff46a7d3dde5","2025-09-02_09h46.20.886",NA,NA,526.1295,526.1295,526.1295,526.4779,NA,NA,NA,NA,NA,NA,NA,TRUE,1,1.4165,523.2089,526.1294,NA,NA,NA,NA,NA,28,28,0,13,13,37,1,2,14,"likert"
"F79D2427D52B4362B92A0AEF2995F26C",1,"01990aad-218e-7259-8ef7-024862d76709","01990a84-c4ee-73c2-a87b-ff46a7d3dde5","2025-09-02_09h46.20.886",NA,NA,529.5209,529.5209,529.5209,529.8614,NA,NA,NA,NA,NA,NA,NA,TRUE,2,1.312,526.4783,529.5208,NA,NA,NA,NA,NA,25,27,0,14,14,30,1,2,15,"likert"
"F79D2427D52B4362B92A0AEF2995F26C",1,"01990aad-218e-7259-8ef7-024862d76709","01990a84-c4ee-73c2-a87b-ff46a7d3dde5","2025-09-02_09h46.20.886",NA,NA,532.8482,532.8482,532.8482,533.1897,NA,NA,NA,NA,NA,NA,NA,TRUE,1,1.4802,529.8618,532.8482,NA,NA,NA,NA,NA,10,26,0,15,15,7,1,2,16,"likert"
"F79D2427D52B4362B92A0AEF2995F26C",1,"01990aad-218e-7259-8ef7-024862d76709","01990a84-c4ee-73c2-a87b-ff46a7d3dde5","2025-09-02_09h46.20.886",NA,NA,536.1772,536.1772,536.1772,536.5961,NA,NA,NA,NA,NA,NA,NA,TRUE,1,1.4587,533.1903,536.1771,NA,NA,NA,NA,NA,30,26,0,16,16,42,1,2,17,"likert"
"F79D2427D52B4362B92A0AEF2995F26C",1,"01990aad-218e-7259-8ef7-024862d76709","01990a84-c4ee-73c2-a87b-ff46a7d3dde5","2025-09-02_09h46.20.886",NA,NA,539.5841,539.5841,539.5841,539.9287,NA,NA,NA,NA,NA,NA,NA,TRUE,2,1.9767,536.5965,539.5841,NA,NA,NA,NA,NA,21,30,0,17,17,27,1,2,18,"likert"
"F79D2427D52B4362B92A0AEF2995F26C",1,"01990aad-218e-7259-8ef7-024862d76709","01990a84-c4ee-73c2-a87b-ff46a7d3dde5","2025-09-02_09h46.20.886",NA,NA,542.9224,542.9224,542.9224,543.272,NA,NA,NA,NA,NA,NA,NA,TRUE,1,1.9218,539.9291,542.9223,NA,NA,NA,NA,NA,95,54,0,18,18,83,1,2,19,"likert"
"F79D2427D52B4362B92A0AEF2995F26C",1,"01990aad-218e-7259-8ef7-024862d76709","01990a84-c4ee-73c2-a87b-ff46a7d3dde5","2025-09-02_09h46.20.886",NA,NA,546.267,546.267,546.267,546.604,NA,NA,NA,NA,NA,NA,NA,TRUE,1,0.8302,543.2726,546.2669,NA,NA,NA,NA,NA,150,33,0,19,19,91,1,2,20,"likert"
"F79D2427D52B4362B92A0AEF2995F26C",1,"01990aad-218e-7259-8ef7-024862d76709","01990a84-c4ee-73c2-a87b-ff46a7d3dde5","2025-09-02_09h46.20.886",NA,NA,549.5647,549.5647,549.5647,549.9829,NA,NA,NA,NA,NA,NA,NA,TRUE,3,1.8683,546.6051,549.5647,NA,NA,NA,NA,NA,7,32,0,20,20,4,1,2,21,"likert"
"F79D2427D52B4362B92A0AEF2995F26C",1,"01990aad-218e-7259-8ef7-024862d76709","01990a84-c4ee-73c2-a87b-ff46a7d3dde5","2025-09-02_09h46.20.886",NA,NA,553.0125,553.0125,553.0125,553.3669,NA,NA,NA,NA,NA,NA,NA,TRUE,3,1.8573,549.9833,553.0123,NA,NA,NA,NA,NA,14,32,0,21,21,21,1,2,22,"likert"
"F79D2427D52B4362B92A0AEF2995F26C",1,"01990aad-218e-7259-8ef7-024862d76709","01990a84-c4ee-73c2-a87b-ff46a7d3dde5","2025-09-02_09h46.20.886",NA,NA,556.3416,556.3416,556.3416,556.6964,NA,NA,NA,NA,NA,NA,NA,TRUE,1,1.3631,553.3672,556.3415,NA,NA,NA,NA,NA,45,31,0,22,22,56,1,2,23,"likert"
"F79D2427D52B4362B92A0AEF2995F26C",1,"01990aad-218e-7259-8ef7-024862d76709","01990a84-c4ee-73c2-a87b-ff46a7d3dde5","2025-09-02_09h46.20.886",NA,NA,559.6465,559.6465,559.6465,559.9933,NA,NA,NA,NA,NA,NA,NA,TRUE,1,1.2248,556.6967,559.6463,NA,NA,NA,NA,NA,12,26,0,23,23,13,1,2,24,"likert"
"F79D2427D52B4362B92A0AEF2995F26C",1,"01990aad-218e-7259-8ef7-024862d76709","01990a84-c4ee-73c2-a87b-ff46a7d3dde5","2025-09-02_09h46.20.886",NA,NA,563.0484,563.0484,563.0484,563.4024,NA,NA,NA,NA,NA,NA,NA,TRUE,1,1.256,559.9936,563.0484,NA,NA,NA,NA,NA,90,33,0,24,24,74,1,2,25,"likert"
"F79D2427D52B4362B92A0AEF2995F26C",1,"01990aad-218e-7259-8ef7-024862d76709","01990a84-c4ee-73c2-a87b-ff46a7d3dde5","2025-09-02_09h46.20.886",NA,NA,566.3992,566.3992,566.3993,566.7528,NA,NA,NA,NA,NA,NA,NA,TRUE,1,1.3282,563.4029,566.3992,NA,NA,NA,NA,NA,10,25,0,25,25,6,1,2,26,"likert"
"F79D2427D52B4362B92A0AEF2995F26C",1,"01990aad-218e-7259-8ef7-024862d76709","01990a84-c4ee-73c2-a87b-ff46a7d3dde5","2025-09-02_09h46.20.886",NA,NA,569.7121,569.7121,569.7121,570.0586,NA,NA,NA,NA,NA,NA,NA,TRUE,1,1.0655,566.7535,569.7121,NA,NA,NA,NA,NA,45,26,0,26,26,54,1,2,27,"likert"
"F79D2427D52B4362B92A0AEF2995F26C",1,"01990aad-218e-7259-8ef7-024862d76709","01990a84-c4ee-73c2-a87b-ff46a7d3dde5","2025-09-02_09h46.20.886",NA,NA,573.0406,573.0406,573.0406,573.3838,NA,NA,NA,NA,NA,NA,NA,TRUE,1,0.7483,570.059,573.0406,NA,NA,NA,NA,NA,150,40,0,27,27,93,1,2,28,"likert"
"F79D2427D52B4362B92A0AEF2995F26C",1,"01990aad-218e-7259-8ef7-024862d76709","01990a84-c4ee-73c2-a87b-ff46a7d3dde5","2025-09-02_09h46.20.886",NA,NA,576.3917,576.3917,576.3917,576.8169,NA,NA,NA,NA,NA,NA,NA,TRUE,1,0.7457,573.3844,576.3916,NA,NA,NA,NA,NA,50,54,0,28,28,65,1,2,29,"likert"
"F79D2427D52B4362B92A0AEF2995F26C",1,"01990aad-218e-7259-8ef7-024862d76709","01990a84-c4ee-73c2-a87b-ff46a7d3dde5","2025-09-02_09h46.20.886",NA,NA,579.8149,579.8149,579.8149,580.1447,NA,NA,NA,NA,NA,NA,NA,TRUE,3,1.4548,576.8173,579.8148,NA,NA,NA,NA,NA,12,35,0,29,29,17,1,2,30,"likert"
"F79D2427D52B4362B92A0AEF2995F26C",1,"01990aad-218e-7259-8ef7-024862d76709","01990a84-c4ee-73c2-a87b-ff46a7d3dde5","2025-09-02_09h46.20.886",NA,NA,583.097,583.097,583.097,583.4434,NA,NA,NA,NA,NA,NA,NA,TRUE,1,1.0142,580.1451,583.097,NA,NA,NA,NA,NA,45,35,0,30,30,57,1,2,31,"likert"
"F79D2427D52B4362B92A0AEF2995F26C",1,"01990aad-218e-7259-8ef7-024862d76709","01990a84-c4ee-73c2-a87b-ff46a7d3dde5","2025-09-02_09h46.20.886",NA,NA,586.4374,586.4374,586.4374,586.8521,NA,NA,NA,NA,NA,NA,NA,TRUE,1,1.0547,583.4438,586.4374,NA,NA,NA,NA,NA,40,33,0,31,31,49,1,2,32,"likert"
"F79D2427D52B4362B92A0AEF2995F26C",1,"01990aad-218e-7259-8ef7-024862d76709","01990a84-c4ee-73c2-a87b-ff46a7d3dde5","2025-09-02_09h46.20.886",NA,NA,589.848,589.848,589.848,590.1171,NA,NA,NA,NA,NA,NA,NA,TRUE,1,2.8058,586.8526,589.8479,NA,NA,NA,NA,NA,21,27,0,32,32,25,1,2,33,"likert"
"F79D2427D52B4362B92A0AEF2995F26C",1,"01990aad-218e-7259-8ef7-024862d76709","01990a84-c4ee-73c2-a87b-ff46a7d3dde5","2025-09-02_09h46.20.886",NA,NA,593.2072,593.2072,593.2072,593.5529,NA,NA,NA,NA,NA,NA,NA,TRUE,1,1.5677,590.1176,593.2072,NA,NA,NA,NA,NA,25,33,0,33,33,33,1,2,34,"likert"
"F79D2427D52B4362B92A0AEF2995F26C",1,"01990aad-218e-7259-8ef7-024862d76709","01990a84-c4ee-73c2-a87b-ff46a7d3dde5","2025-09-02_09h46.20.886",NA,NA,596.5659,596.566,596.566,596.9047,NA,NA,NA,NA,NA,NA,NA,TRUE,1,1.0129,593.5534,596.5659,NA,NA,NA,NA,NA,25,31,0,34,34,32,1,2,35,"likert"
"F79D2427D52B4362B92A0AEF2995F26C",1,"01990aad-218e-7259-8ef7-024862d76709","01990a84-c4ee-73c2-a87b-ff46a7d3dde5","2025-09-02_09h46.20.886",NA,NA,599.8938,599.8938,599.8938,600.2133,NA,NA,NA,NA,NA,NA,NA,TRUE,3,2.0627,596.9051,599.8938,NA,NA,NA,NA,NA,7,26,0,35,35,1,1,2,36,"likert"
"F79D2427D52B4362B92A0AEF2995F26C",1,"01990aad-218e-7259-8ef7-024862d76709","01990a84-c4ee-73c2-a87b-ff46a7d3dde5","2025-09-02_09h46.20.886",NA,NA,603.201,603.201,603.201,603.5448,NA,NA,NA,NA,NA,NA,NA,TRUE,1,1.3033,600.2136,603.201,NA,NA,NA,NA,NA,90,26,0,36,36,72,1,2,37,"likert"
"F79D2427D52B4362B92A0AEF2995F26C",1,"01990aad-218e-7259-8ef7-024862d76709","01990a84-c4ee-73c2-a87b-ff46a7d3dde5","2025-09-02_09h46.20.886",NA,NA,606.5377,606.5378,606.5378,606.8842,NA,NA,NA,NA,NA,NA,NA,TRUE,3,1.6176,603.5452,606.5377,NA,NA,NA,NA,NA,10,29,0,37,37,9,1,2,38,"likert"
"F79D2427D52B4362B92A0AEF2995F26C",1,"01990aad-218e-7259-8ef7-024862d76709","01990a84-c4ee-73c2-a87b-ff46a7d3dde5","2025-09-02_09h46.20.886",NA,NA,609.9015,609.9015,609.9015,610.2562,NA,NA,NA,NA,NA,NA,NA,TRUE,1,1.2401,606.8847,609.9014,NA,NA,NA,NA,NA,30,30,0,38,38,45,1,2,39,"likert"
"F79D2427D52B4362B92A0AEF2995F26C",1,"01990aad-218e-7259-8ef7-024862d76709","01990a84-c4ee-73c2-a87b-ff46a7d3dde5","2025-09-02_09h46.20.886",NA,NA,613.314,613.314,613.314,613.5844,NA,NA,NA,NA,NA,NA,NA,TRUE,1,1.2415,610.2566,613.3139,NA,NA,NA,NA,NA,10,32,0,39,39,11,1,2,40,"likert"
"F79D2427D52B4362B92A0AEF2995F26C",1,"01990aad-218e-7259-8ef7-024862d76709","01990a84-c4ee-73c2-a87b-ff46a7d3dde5","2025-09-02_09h46.20.886",NA,NA,616.6282,616.6282,616.6282,616.9804,NA,NA,NA,NA,NA,NA,NA,TRUE,3,1.6085,613.5848,616.6281,NA,NA,NA,NA,NA,28,32,0,40,40,38,1,2,41,"likert"
"F79D2427D52B4362B92A0AEF2995F26C",1,"01990aad-218e-7259-8ef7-024862d76709","01990a84-c4ee-73c2-a87b-ff46a7d3dde5","2025-09-02_09h46.20.886",NA,NA,619.9995,619.9996,619.9996,620.3518,NA,NA,NA,NA,NA,NA,NA,TRUE,1,1.3492,616.9809,619.9995,NA,NA,NA,NA,NA,12,25,0,41,41,12,1,2,42,"likert"
"F79D2427D52B4362B92A0AEF2995F26C",1,"01990aad-218e-7259-8ef7-024862d76709","01990a84-c4ee-73c2-a87b-ff46a7d3dde5","2025-09-02_09h46.20.886",NA,NA,623.3507,623.3507,623.3508,623.68,NA,NA,NA,NA,NA,NA,NA,TRUE,1,1.5141,620.3522,623.3507,NA,NA,NA,NA,NA,60,29,0,42,42,66,1,2,43,"likert"
"F79D2427D52B4362B92A0AEF2995F26C",1,"01990aad-218e-7259-8ef7-024862d76709","01990a84-c4ee-73c2-a87b-ff46a7d3dde5","2025-09-02_09h46.20.886",NA,NA,626.6708,626.6708,626.6708,627.0148,NA,NA,NA,NA,NA,NA,NA,TRUE,3,1.155,623.6805,626.6707,NA,NA,NA,NA,NA,10,30,0,43,43,10,1,2,44,"likert"
"F79D2427D52B4362B92A0AEF2995F26C",1,"01990aad-218e-7259-8ef7-024862d76709","01990a84-c4ee-73c2-a87b-ff46a7d3dde5","2025-09-02_09h46.20.886",NA,NA,629.9798,629.9798,629.9798,630.3426,NA,NA,NA,NA,NA,NA,NA,TRUE,1,0.6579,627.0153,629.9798,NA,NA,NA,NA,NA,180,54,0,44,44,101,1,2,45,"likert"
"F79D2427D52B4362B92A0AEF2995F26C",1,"01990aad-218e-7259-8ef7-024862d76709","01990a84-c4ee-73c2-a87b-ff46a7d3dde5","2025-09-02_09h46.20.886",NA,NA,633.3529,633.3529,633.3529,633.6944,NA,NA,NA,NA,NA,NA,NA,TRUE,3,1.3301,630.343,633.3528,NA,NA,NA,NA,NA,7,30,0,45,45,3,1,2,46,"likert"
"F79D2427D52B4362B92A0AEF2995F26C",1,"01990aad-218e-7259-8ef7-024862d76709","01990a84-c4ee-73c2-a87b-ff46a7d3dde5","2025-09-02_09h46.20.886",NA,NA,636.7148,636.7148,636.7149,637.1305,NA,NA,NA,NA,NA,NA,NA,TRUE,1,0.6692,633.6954,636.7148,NA,NA,NA,NA,NA,200,28,0,46,46,103,1,2,47,"likert"
"F79D2427D52B4362B92A0AEF2995F26C",1,"01990aad-218e-7259-8ef7-024862d76709","01990a84-c4ee-73c2-a87b-ff46a7d3dde5","2025-09-02_09h46.20.886",NA,NA,640.0776,640.0776,640.0776,640.4005,NA,NA,NA,NA,NA,NA,NA,TRUE,3,1.7952,637.1311,640.0774,NA,NA,NA,NA,NA,28,46,0,47,47,41,1,2,48,"likert"
"F79D2427D52B4362B92A0AEF2995F26C",1,"01990aad-218e-7259-8ef7-024862d76709","01990a84-c4ee-73c2-a87b-ff46a7d3dde5","2025-09-02_09h46.20.886",NA,NA,643.4034,643.4034,643.4034,643.7457,NA,NA,NA,NA,NA,NA,NA,TRUE,1,1.3861,640.4009,643.4033,NA,NA,NA,NA,NA,95,35,0,48,48,80,1,2,49,"likert"
"F79D2427D52B4362B92A0AEF2995F26C",1,"01990aad-218e-7259-8ef7-024862d76709","01990a84-c4ee-73c2-a87b-ff46a7d3dde5","2025-09-02_09h46.20.886",NA,NA,646.8171,646.8172,646.8172,647.139,NA,NA,NA,NA,NA,NA,NA,TRUE,1,1.5186,643.746,646.8171,NA,NA,NA,NA,NA,21,38,0,49,49,29,1,2,50,"likert"
"F79D2427D52B4362B92A0AEF2995F26C",1,"01990aad-218e-7259-8ef7-024862d76709","01990a84-c4ee-73c2-a87b-ff46a7d3dde5","2025-09-02_09h46.20.886",NA,NA,650.1624,650.1624,650.1624,650.506,NA,NA,NA,NA,NA,NA,NA,TRUE,1,1.364,647.1395,650.1624,NA,NA,NA,NA,NA,95,40,0,50,50,81,1,2,51,"likert"
"F79D2427D52B4362B92A0AEF2995F26C",1,"01990aad-218e-7259-8ef7-024862d76709","01990a84-c4ee-73c2-a87b-ff46a7d3dde5","2025-09-02_09h46.20.886",NA,NA,653.4553,653.4553,653.4553,653.8066,NA,NA,NA,NA,NA,NA,NA,TRUE,1,0.736,650.5065,653.4552,NA,NA,NA,NA,NA,95,47,0,51,51,82,1,2,52,"likert"
"F79D2427D52B4362B92A0AEF2995F26C",1,"01990aad-218e-7259-8ef7-024862d76709","01990a84-c4ee-73c2-a87b-ff46a7d3dde5","2025-09-02_09h46.20.886",NA,NA,656.7951,656.7951,656.7951,657.2152,NA,NA,NA,NA,NA,NA,NA,TRUE,1,2.3503,653.807,656.795,NA,NA,NA,NA,NA,60,40,0,52,52,69,1,2,53,"likert"
"F79D2427D52B4362B92A0AEF2995F26C",1,"01990aad-218e-7259-8ef7-024862d76709","01990a84-c4ee-73c2-a87b-ff46a7d3dde5","2025-09-02_09h46.20.886",NA,NA,660.1403,660.1403,660.1403,660.5631,NA,NA,NA,NA,NA,NA,NA,TRUE,1,1.3109,657.2157,660.1402,NA,NA,NA,NA,NA,14,25,0,53,53,18,1,2,54,"likert"
"F79D2427D52B4362B92A0AEF2995F26C",1,"01990aad-218e-7259-8ef7-024862d76709","01990a84-c4ee-73c2-a87b-ff46a7d3dde5","2025-09-02_09h46.20.886",NA,NA,663.4889,663.4889,663.4889,663.8293,NA,NA,NA,NA,NA,NA,NA,TRUE,1,0.8057,660.5637,663.4889,NA,NA,NA,NA,NA,200,35,0,54,54,104,1,2,55,"likert"
"F79D2427D52B4362B92A0AEF2995F26C",1,"01990aad-218e-7259-8ef7-024862d76709","01990a84-c4ee-73c2-a87b-ff46a7d3dde5","2025-09-02_09h46.20.886",NA,NA,666.8274,666.8275,666.8275,667.2446,NA,NA,NA,NA,NA,NA,NA,TRUE,1,0.6559,663.8297,666.8274,NA,NA,NA,NA,NA,90,54,0,55,55,77,1,2,56,"likert"
"F79D2427D52B4362B92A0AEF2995F26C",1,"01990aad-218e-7259-8ef7-024862d76709","01990a84-c4ee-73c2-a87b-ff46a7d3dde5","2025-09-02_09h46.20.886",NA,NA,670.2174,670.2174,670.2174,670.5807,NA,NA,NA,NA,NA,NA,NA,TRUE,3,1.4318,667.2451,670.2173,NA,NA,NA,NA,NA,21,32,0,56,56,28,1,2,57,"likert"
"F79D2427D52B4362B92A0AEF2995F26C",1,"01990aad-218e-7259-8ef7-024862d76709","01990a84-c4ee-73c2-a87b-ff46a7d3dde5","2025-09-02_09h46.20.886",NA,NA,673.553,673.553,673.553,673.908,NA,NA,NA,NA,NA,NA,NA,TRUE,1,0.8955,670.5814,673.5529,NA,NA,NA,NA,NA,90,30,0,57,57,73,1,2,58,"likert"
"F79D2427D52B4362B92A0AEF2995F26C",1,"01990aad-218e-7259-8ef7-024862d76709","01990a84-c4ee-73c2-a87b-ff46a7d3dde5","2025-09-02_09h46.20.886",NA,NA,676.9002,676.9002,676.9002,677.2374,NA,NA,NA,NA,NA,NA,NA,TRUE,4,2.0747,673.9084,676.9001,NA,NA,NA,NA,NA,14,39,0,58,58,23,1,2,59,"likert"
"F79D2427D52B4362B92A0AEF2995F26C",1,"01990aad-218e-7259-8ef7-024862d76709","01990a84-c4ee-73c2-a87b-ff46a7d3dde5","2025-09-02_09h46.20.886",NA,NA,680.273,680.273,680.273,680.617,NA,NA,NA,NA,NA,NA,NA,TRUE,1,1.4653,677.2378,680.273,NA,NA,NA,NA,NA,200,54,0,59,59,107,1,2,60,"likert"
"F79D2427D52B4362B92A0AEF2995F26C",1,"01990aad-218e-7259-8ef7-024862d76709","01990a84-c4ee-73c2-a87b-ff46a7d3dde5","2025-09-02_09h46.20.886",NA,NA,683.5844,683.5844,683.5844,684.0138,NA,NA,NA,NA,NA,NA,NA,TRUE,1,0.716,680.6174,683.5843,NA,NA,NA,NA,NA,45,40,0,60,60,58,1,2,61,"likert"
"F79D2427D52B4362B92A0AEF2995F26C",1,"01990aad-218e-7259-8ef7-024862d76709","01990a84-c4ee-73c2-a87b-ff46a7d3dde5","2025-09-02_09h46.20.886",NA,NA,687.0046,687.0046,687.0046,687.3348,NA,NA,NA,NA,NA,NA,NA,TRUE,1,0.4925,684.0142,687.0045,NA,NA,NA,NA,NA,150,31,0,61,61,90,1,2,62,"likert"
"F79D2427D52B4362B92A0AEF2995F26C",1,"01990aad-218e-7259-8ef7-024862d76709","01990a84-c4ee-73c2-a87b-ff46a7d3dde5","2025-09-02_09h46.20.886",NA,NA,690.2903,690.2903,690.2903,690.7163,NA,NA,NA,NA,NA,NA,NA,TRUE,1,2.262,687.3352,690.2902,NA,NA,NA,NA,NA,40,47,0,62,62,52,1,2,63,"likert"
"F79D2427D52B4362B92A0AEF2995F26C",1,"01990aad-218e-7259-8ef7-024862d76709","01990a84-c4ee-73c2-a87b-ff46a7d3dde5","2025-09-02_09h46.20.886",NA,NA,693.6457,693.6458,693.6458,693.9867,NA,NA,NA,NA,NA,NA,NA,TRUE,1,1.2322,690.7167,693.6457,NA,NA,NA,NA,NA,14,26,0,63,63,19,1,2,64,"likert"
"F79D2427D52B4362B92A0AEF2995F26C",1,"01990aad-218e-7259-8ef7-024862d76709","01990a84-c4ee-73c2-a87b-ff46a7d3dde5","2025-09-02_09h46.20.886",NA,NA,697.0215,697.0215,697.0215,697.3653,NA,NA,NA,NA,NA,NA,NA,TRUE,1,0.8366,693.9872,697.0215,NA,NA,NA,NA,NA,40,40,0,64,64,51,1,2,65,"likert"
"F79D2427D52B4362B92A0AEF2995F26C",1,"01990aad-218e-7259-8ef7-024862d76709","01990a84-c4ee-73c2-a87b-ff46a7d3dde5","2025-09-02_09h46.20.886",NA,NA,700.3512,700.3512,700.3512,700.7112,NA,NA,NA,NA,NA,NA,NA,TRUE,1,1.3048,697.3662,700.3511,NA,NA,NA,NA,NA,60,35,0,65,65,68,1,2,66,"likert"
"F79D2427D52B4362B92A0AEF2995F26C",1,"01990aad-218e-7259-8ef7-024862d76709","01990a84-c4ee-73c2-a87b-ff46a7d3dde5","2025-09-02_09h46.20.886",NA,NA,703.7322,703.7322,703.7322,704.0484,NA,NA,NA,NA,NA,NA,NA,TRUE,3,1.6535,700.7117,703.7322,NA,NA,NA,NA,NA,12,33,0,66,66,16,1,2,67,"likert"
"F79D2427D52B4362B92A0AEF2995F26C",1,"01990aad-218e-7259-8ef7-024862d76709","01990a84-c4ee-73c2-a87b-ff46a7d3dde5","2025-09-02_09h46.20.886",NA,NA,707.0341,707.0341,707.0341,707.4367,NA,NA,NA,NA,NA,NA,NA,TRUE,1,0.6504,704.0489,707.0341,NA,NA,NA,NA,NA,50,27,0,67,67,60,1,2,68,"likert"
"F79D2427D52B4362B92A0AEF2995F26C",1,"01990aad-218e-7259-8ef7-024862d76709","01990a84-c4ee-73c2-a87b-ff46a7d3dde5","2025-09-02_09h46.20.886",NA,NA,710.4092,710.4092,710.4092,710.7488,NA,NA,NA,NA,NA,NA,NA,TRUE,1,0.9339,707.4372,710.4092,NA,NA,NA,NA,NA,150,35,0,68,68,92,1,2,69,"likert"
"F79D2427D52B4362B92A0AEF2995F26C",1,"01990aad-218e-7259-8ef7-024862d76709","01990a84-c4ee-73c2-a87b-ff46a7d3dde5","2025-09-02_09h46.20.886",NA,NA,713.8094,713.8094,713.8094,714.1543,NA,NA,NA,NA,NA,NA,NA,TRUE,1,0.5447,710.7496,713.8094,NA,NA,NA,NA,NA,180,31,0,69,69,97,1,2,70,"likert"
"F79D2427D52B4362B92A0AEF2995F26C",1,"01990aad-218e-7259-8ef7-024862d76709","01990a84-c4ee-73c2-a87b-ff46a7d3dde5","2025-09-02_09h46.20.886",NA,NA,717.0936,717.0936,717.0936,717.4452,NA,NA,NA,NA,NA,NA,NA,TRUE,1,0.6451,714.1548,717.0935,NA,NA,NA,NA,NA,60,54,0,70,70,71,1,2,71,"likert"
"F79D2427D52B4362B92A0AEF2995F26C",1,"01990aad-218e-7259-8ef7-024862d76709","01990a84-c4ee-73c2-a87b-ff46a7d3dde5","2025-09-02_09h46.20.886",NA,NA,720.4636,720.4636,720.4636,720.8092,NA,NA,NA,NA,NA,NA,NA,TRUE,1,0.6698,717.4456,720.4636,NA,NA,NA,NA,NA,60,47,0,71,71,70,1,2,72,"likert"
"F79D2427D52B4362B92A0AEF2995F26C",1,"01990aad-218e-7259-8ef7-024862d76709","01990a84-c4ee-73c2-a87b-ff46a7d3dde5","2025-09-02_09h46.20.886",NA,NA,723.8241,723.8241,723.8241,724.1628,NA,NA,NA,NA,NA,NA,NA,TRUE,2,1.5833,720.8097,723.8241,NA,NA,NA,NA,NA,7,28,0,72,72,2,1,2,73,"likert"
"F79D2427D52B4362B92A0AEF2995F26C",1,"01990aad-218e-7259-8ef7-024862d76709","01990a84-c4ee-73c2-a87b-ff46a7d3dde5","2025-09-02_09h46.20.886",NA,NA,727.2216,727.2216,727.2216,727.4854,NA,NA,NA,NA,NA,NA,NA,TRUE,1,0.8311,724.1636,727.2215,NA,NA,NA,NA,NA,90,46,0,73,73,76,1,2,74,"likert"
"F79D2427D52B4362B92A0AEF2995F26C",1,"01990aad-218e-7259-8ef7-024862d76709","01990a84-c4ee-73c2-a87b-ff46a7d3dde5","2025-09-02_09h46.20.886",NA,NA,730.5433,730.5433,730.5433,730.8929,NA,NA,NA,NA,NA,NA,NA,TRUE,1,1.2255,727.4857,730.5432,NA,NA,NA,NA,NA,30,38,0,74,74,47,1,2,75,"likert"
"F79D2427D52B4362B92A0AEF2995F26C",1,"01990aad-218e-7259-8ef7-024862d76709","01990a84-c4ee-73c2-a87b-ff46a7d3dde5","2025-09-02_09h46.20.886",NA,NA,733.9238,733.9238,733.9238,734.1892,NA,NA,NA,NA,NA,NA,NA,TRUE,3,1.6053,730.8934,733.9236,NA,NA,NA,NA,NA,14,35,0,75,75,22,1,2,76,"likert"
"F79D2427D52B4362B92A0AEF2995F26C",1,"01990aad-218e-7259-8ef7-024862d76709","01990a84-c4ee-73c2-a87b-ff46a7d3dde5","2025-09-02_09h46.20.886",NA,NA,737.1993,737.1993,737.1993,737.5423,NA,NA,NA,NA,NA,NA,NA,TRUE,1,1.0709,734.1897,737.1993,NA,NA,NA,NA,NA,50,35,0,76,76,62,1,2,77,"likert"
"F79D2427D52B4362B92A0AEF2995F26C",1,"01990aad-218e-7259-8ef7-024862d76709","01990a84-c4ee-73c2-a87b-ff46a7d3dde5","2025-09-02_09h46.20.886",NA,NA,740.5607,740.5607,740.5608,740.9013,NA,NA,NA,NA,NA,NA,NA,TRUE,1,0.7578,737.5429,740.5607,NA,NA,NA,NA,NA,45,46,0,77,77,59,1,2,78,"likert"
"F79D2427D52B4362B92A0AEF2995F26C",1,"01990aad-218e-7259-8ef7-024862d76709","01990a84-c4ee-73c2-a87b-ff46a7d3dde5","2025-09-02_09h46.20.886",NA,NA,743.8938,743.8938,743.8938,744.2539,NA,NA,NA,NA,NA,NA,NA,TRUE,1,0.714,740.9018,743.8938,NA,NA,NA,NA,NA,180,46,0,78,78,100,1,2,79,"likert"
"F79D2427D52B4362B92A0AEF2995F26C",1,"01990aad-218e-7259-8ef7-024862d76709","01990a84-c4ee-73c2-a87b-ff46a7d3dde5","2025-09-02_09h46.20.886",NA,NA,747.2833,747.2833,747.2833,747.6071,NA,NA,NA,NA,NA,NA,NA,TRUE,1,0.944,744.2543,747.2832,NA,NA,NA,NA,NA,180,39,0,79,79,99,1,2,80,"likert"
"F79D2427D52B4362B92A0AEF2995F26C",1,"01990aad-218e-7259-8ef7-024862d76709","01990a84-c4ee-73c2-a87b-ff46a7d3dde5","2025-09-02_09h46.20.886",NA,NA,750.6074,750.6074,750.6074,750.9504,NA,NA,NA,NA,NA,NA,NA,TRUE,1,1.3208,747.6076,750.6073,NA,NA,NA,NA,NA,45,29,0,80,80,55,1,2,81,"likert"
"F79D2427D52B4362B92A0AEF2995F26C",1,"01990aad-218e-7259-8ef7-024862d76709","01990a84-c4ee-73c2-a87b-ff46a7d3dde5","2025-09-02_09h46.20.886",NA,NA,753.9409,753.9409,753.9409,754.2866,NA,NA,NA,NA,NA,NA,NA,TRUE,1,0.4725,750.9512,753.9409,NA,NA,NA,NA,NA,50,46,0,81,81,64,1,2,82,"likert"
"F79D2427D52B4362B92A0AEF2995F26C",1,"01990aad-218e-7259-8ef7-024862d76709","01990a84-c4ee-73c2-a87b-ff46a7d3dde5","2025-09-02_09h46.20.886",NA,NA,757.2743,757.2743,757.2743,757.692,NA,NA,NA,NA,NA,NA,NA,TRUE,1,0.4624,754.287,757.2742,NA,NA,NA,NA,NA,200,26,0,82,82,102,1,2,83,"likert"
"F79D2427D52B4362B92A0AEF2995F26C",1,"01990aad-218e-7259-8ef7-024862d76709","01990a84-c4ee-73c2-a87b-ff46a7d3dde5","2025-09-02_09h46.20.886",NA,NA,760.6233,760.6233,760.6233,761.0281,NA,NA,NA,NA,NA,NA,NA,TRUE,1,0.5777,757.6923,760.6232,NA,NA,NA,NA,NA,100,38,0,83,83,86,1,2,84,"likert"
"F79D2427D52B4362B92A0AEF2995F26C",1,"01990aad-218e-7259-8ef7-024862d76709","01990a84-c4ee-73c2-a87b-ff46a7d3dde5","2025-09-02_09h46.20.886",NA,NA,764.0229,764.0229,764.0229,764.3664,NA,NA,NA,NA,NA,NA,NA,TRUE,1,1.3948,761.0285,764.0227,NA,NA,NA,NA,NA,14,28,0,84,84,20,1,2,85,"likert"
"F79D2427D52B4362B92A0AEF2995F26C",1,"01990aad-218e-7259-8ef7-024862d76709","01990a84-c4ee-73c2-a87b-ff46a7d3dde5","2025-09-02_09h46.20.886",NA,NA,767.376,767.376,767.376,767.71,NA,NA,NA,NA,NA,NA,NA,TRUE,1,0.4612,764.367,767.376,NA,NA,NA,NA,NA,7,35,0,85,85,5,1,2,86,"likert"
"F79D2427D52B4362B92A0AEF2995F26C",1,"01990aad-218e-7259-8ef7-024862d76709","01990a84-c4ee-73c2-a87b-ff46a7d3dde5","2025-09-02_09h46.20.886",NA,NA,770.7109,770.7109,770.7109,771.0484,NA,NA,NA,NA,NA,NA,NA,TRUE,1,0.7397,767.7104,770.7108,NA,NA,NA,NA,NA,150,47,0,86,86,94,1,2,87,"likert"
"F79D2427D52B4362B92A0AEF2995F26C",1,"01990aad-218e-7259-8ef7-024862d76709","01990a84-c4ee-73c2-a87b-ff46a7d3dde5","2025-09-02_09h46.20.886",NA,NA,774.0835,774.0835,774.0835,774.4349,NA,NA,NA,NA,NA,NA,NA,TRUE,1,1.2174,771.0488,774.0835,NA,NA,NA,NA,NA,30,32,0,87,87,46,1,2,88,"likert"
"F79D2427D52B4362B92A0AEF2995F26C",1,"01990aad-218e-7259-8ef7-024862d76709","01990a84-c4ee-73c2-a87b-ff46a7d3dde5","2025-09-02_09h46.20.886",NA,NA,777.3915,777.3915,777.3915,777.8056,NA,NA,NA,NA,NA,NA,NA,TRUE,1,0.8444,774.4352,777.3914,NA,NA,NA,NA,NA,60,33,0,88,88,67,1,2,89,"likert"
"F79D2427D52B4362B92A0AEF2995F26C",1,"01990aad-218e-7259-8ef7-024862d76709","01990a84-c4ee-73c2-a87b-ff46a7d3dde5","2025-09-02_09h46.20.886",NA,NA,780.7548,780.7548,780.7548,781.1124,NA,NA,NA,NA,NA,NA,NA,TRUE,1,1.4969,777.8061,780.7547,NA,NA,NA,NA,NA,21,29,0,89,89,26,1,2,90,"likert"
"F79D2427D52B4362B92A0AEF2995F26C",1,"01990aad-218e-7259-8ef7-024862d76709","01990a84-c4ee-73c2-a87b-ff46a7d3dde5","2025-09-02_09h46.20.886",NA,NA,784.122,784.122,784.122,784.5104,NA,NA,NA,NA,NA,NA,NA,TRUE,1,0.8435,781.1128,784.122,NA,NA,NA,NA,NA,28,39,0,90,90,40,1,2,91,"likert"
"F79D2427D52B4362B92A0AEF2995F26C",1,"01990aad-218e-7259-8ef7-024862d76709","01990a84-c4ee-73c2-a87b-ff46a7d3dde5","2025-09-02_09h46.20.886",NA,NA,787.5119,787.5119,787.5119,787.8655,NA,NA,NA,NA,NA,NA,NA,TRUE,1,1.1189,784.5108,787.5118,NA,NA,NA,NA,NA,7,25,0,91,91,0,1,2,92,"likert"
"F79D2427D52B4362B92A0AEF2995F26C",1,"01990aad-218e-7259-8ef7-024862d76709","01990a84-c4ee-73c2-a87b-ff46a7d3dde5","2025-09-02_09h46.20.886",NA,NA,790.8025,790.8025,790.8025,791.1479,NA,NA,NA,NA,NA,NA,NA,TRUE,1,1.5061,787.8661,790.8024,NA,NA,NA,NA,NA,40,54,0,92,92,53,1,2,93,"likert"
"F79D2427D52B4362B92A0AEF2995F26C",1,"01990aad-218e-7259-8ef7-024862d76709","01990a84-c4ee-73c2-a87b-ff46a7d3dde5","2025-09-02_09h46.20.886",NA,NA,794.1332,794.1332,794.1332,794.4785,NA,NA,NA,NA,NA,NA,NA,TRUE,1,2.1619,791.1485,794.1331,NA,NA,NA,NA,NA,100,54,0,93,93,89,1,2,94,"likert"
"F79D2427D52B4362B92A0AEF2995F26C",1,"01990aad-218e-7259-8ef7-024862d76709","01990a84-c4ee-73c2-a87b-ff46a7d3dde5","2025-09-02_09h46.20.886",NA,NA,797.5407,797.5408,797.5408,797.8891,NA,NA,NA,NA,NA,NA,NA,TRUE,1,0.7388,794.479,797.5406,NA,NA,NA,NA,NA,100,46,0,94,94,88,1,2,95,"likert"
"F79D2427D52B4362B92A0AEF2995F26C",1,"01990aad-218e-7259-8ef7-024862d76709","01990a84-c4ee-73c2-a87b-ff46a7d3dde5","2025-09-02_09h46.20.886",NA,NA,800.8887,800.8887,800.8887,801.2131,NA,NA,NA,NA,NA,NA,NA,TRUE,3,1.8394,797.8896,800.8887,NA,NA,NA,NA,NA,25,46,0,95,95,35,1,2,96,"likert"
"F79D2427D52B4362B92A0AEF2995F26C",1,"01990aad-218e-7259-8ef7-024862d76709","01990a84-c4ee-73c2-a87b-ff46a7d3dde5","2025-09-02_09h46.20.886",NA,NA,804.1666,804.1666,804.1666,804.5757,NA,NA,NA,NA,NA,NA,NA,TRUE,1,0.6846,801.2137,804.1666,NA,NA,NA,NA,NA,180,27,0,96,96,96,1,2,97,"likert"
"F79D2427D52B4362B92A0AEF2995F26C",1,"01990aad-218e-7259-8ef7-024862d76709","01990a84-c4ee-73c2-a87b-ff46a7d3dde5","2025-09-02_09h46.20.886",NA,NA,807.6105,807.787,807.787,807.9495,NA,NA,NA,NA,NA,NA,NA,FALSE,NA,NA,804.5762,807.6104,NA,NA,NA,NA,NA,10,27,0,97,97,8,1,2,98,"likert"
"F79D2427D52B4362B92A0AEF2995F26C",1,"01990aad-218e-7259-8ef7-024862d76709","01990a84-c4ee-73c2-a87b-ff46a7d3dde5","2025-09-02_09h46.20.886",NA,NA,810.9188,811.1703,811.1703,811.2549,NA,NA,NA,NA,NA,NA,NA,FALSE,NA,NA,807.9499,810.9188,NA,NA,NA,NA,NA,12,28,0,98,98,14,1,2,99,"likert"
"F79D2427D52B4362B92A0AEF2995F26C",1,"01990aad-218e-7259-8ef7-024862d76709","01990a84-c4ee-73c2-a87b-ff46a7d3dde5","2025-09-02_09h46.20.886",NA,NA,814.2827,814.2827,814.2827,814.6107,NA,NA,NA,NA,NA,NA,NA,TRUE,1,0.6517,811.2553,814.2827,NA,NA,NA,NA,NA,95,31,0,99,99,78,1,2,100,"likert"
"F79D2427D52B4362B92A0AEF2995F26C",1,"01990aad-218e-7259-8ef7-024862d76709","01990a84-c4ee-73c2-a87b-ff46a7d3dde5","2025-09-02_09h46.20.886",NA,NA,817.6147,817.6147,817.6147,817.9534,NA,NA,NA,NA,NA,NA,NA,TRUE,1,0.4718,814.6112,817.6147,NA,NA,NA,NA,NA,25,35,0,100,100,34,1,2,101,"likert"
"F79D2427D52B4362B92A0AEF2995F26C",1,"01990aad-218e-7259-8ef7-024862d76709","01990a84-c4ee-73c2-a87b-ff46a7d3dde5","2025-09-02_09h46.20.886",NA,NA,820.9558,820.9558,820.9558,821.291,NA,NA,NA,NA,NA,NA,NA,TRUE,1,0.2007,817.9539,820.9558,NA,NA,NA,NA,NA,40,35,0,101,101,50,1,2,102,"likert"
"F79D2427D52B4362B92A0AEF2995F26C",1,"01990aad-218e-7259-8ef7-024862d76709","01990a84-c4ee-73c2-a87b-ff46a7d3dde5","2025-09-02_09h46.20.886",NA,NA,824.2976,824.2976,824.2976,824.6515,NA,NA,NA,NA,NA,NA,NA,TRUE,1,0.3721,821.2915,824.2975,NA,NA,NA,NA,NA,28,35,0,102,102,39,1,2,103,"likert"
"F79D2427D52B4362B92A0AEF2995F26C",1,"01990aad-218e-7259-8ef7-024862d76709","01990a84-c4ee-73c2-a87b-ff46a7d3dde5","2025-09-02_09h46.20.886",NA,NA,827.6569,827.6569,827.6569,828.0664,NA,NA,NA,NA,NA,NA,NA,TRUE,1,0.3637,824.6519,827.6568,NA,NA,NA,NA,NA,12,31,0,103,103,15,1,2,104,"likert"
"F79D2427D52B4362B92A0AEF2995F26C",1,"01990aad-218e-7259-8ef7-024862d76709","01990a84-c4ee-73c2-a87b-ff46a7d3dde5","2025-09-02_09h46.20.886",NA,NA,831.0391,831.0391,831.0391,831.3625,NA,NA,NA,NA,NA,NA,NA,TRUE,1,0.3661,828.0668,831.0391,NA,NA,NA,NA,NA,30,27,0,104,104,43,1,2,105,"likert"
"F79D2427D52B4362B92A0AEF2995F26C",1,"01990aad-218e-7259-8ef7-024862d76709","01990a84-c4ee-73c2-a87b-ff46a7d3dde5","2025-09-02_09h46.20.886",NA,NA,834.3803,834.3803,834.3803,834.7205,NA,NA,NA,NA,NA,NA,NA,TRUE,1,0.7377,831.363,834.3802,NA,NA,NA,NA,NA,100,31,0,105,105,85,1,2,106,"likert"
"F79D2427D52B4362B92A0AEF2995F26C",1,"01990aad-218e-7259-8ef7-024862d76709","01990a84-c4ee-73c2-a87b-ff46a7d3dde5","2025-09-02_09h46.20.886",NA,NA,837.696,837.6961,837.6961,838.0476,NA,NA,NA,NA,NA,NA,NA,TRUE,1,0.4695,834.721,837.696,NA,NA,NA,NA,NA,100,39,0,106,106,87,1,2,107,"likert"
"F79D2427D52B4362B92A0AEF2995F26C",1,"01990aad-218e-7259-8ef7-024862d76709","01990a84-c4ee-73c2-a87b-ff46a7d3dde5","2025-09-02_09h46.20.886",NA,NA,841.0497,841.0497,841.0497,841.3937,NA,NA,NA,NA,NA,NA,NA,TRUE,1,0.5542,838.048,841.0496,NA,NA,NA,NA,NA,30,29,0,107,107,44,1,2,108,"likert"
