"participant","session","assignmentId","projectId","date","practiceTrial.started","practiceTrial.stopped","tooLate.started","tooLate.stopped","blank.started","blank.stopped","trials_pract.thisRepN","trials_pract.thisTrialN","trials_pract.thisN","trials_pract.thisIndex","trials_pract.ran","delay_pract","amount_pract","responseMade","key","rt","trial.started","trial.stopped","trials.thisRepN","trials.thisTrialN","trials.thisN","trials.thisIndex","trials.ran","delay","amount","trials_2.thisRepN","trials_2.thisTrialN","trials_2.thisN","trials_2.thisIndex","trials_2.ran","block","trial","taskType"
"FD55FA578CB840E7AB8035325CE2CF4F",1,"01990a98-703b-7003-880d-0def9b35ec96","01990a84-c4ee-73c2-a87b-ff46a7d3dde5","2025-09-02_08h24.26.845",46.117,48.995,48.996,49.323,49.323,49.496,0,0,0,1,1,100,50,FALSE,NA,NA,NA,NA,NA,NA,NA,NA,NA,NA,NA,NA,NA,NA,NA,NA,0,1,"likert"
"FD55FA578CB840E7AB8035325CE2CF4F",1,"01990a98-703b-7003-880d-0def9b35ec96","01990a84-c4ee-73c2-a87b-ff46a7d3dde5","2025-09-02_08h24.26.845",49.497,52.364,52.365,52.365,52.365,52.708,0,1,1,0,1,7,30,TRUE,1,1.473,NA,NA,NA,NA,NA,NA,NA,NA,NA,NA,NA,NA,NA,NA,0,2,"likert"
"FD55FA578CB840E7AB8035325CE2CF4F",1,"01990a98-703b-7003-880d-0def9b35ec96","01990a84-c4ee-73c2-a87b-ff46a7d3dde5","2025-09-02_08h24.26.845",52.71,55.717,55.718,55.718,55.718,56.202,0,2,2,3,1,3,27,TRUE,1,2.131,NA,NA,NA,NA,NA,NA,NA,NA,NA,NA,NA,NA,NA,NA,0,3,"likert"
"FD55FA578CB840E7AB8035325CE2CF4F",1,"01990a98-703b-7003-880d-0def9b35ec96","01990a84-c4ee-73c2-a87b-ff46a7d3dde5","2025-09-02_08h24.26.845",56.203,59.085,59.086,59.086,59.086,59.46,0,3,3,4,1,30,40,TRUE,1,1.381,NA,NA,NA,NA,NA,NA,NA,NA,NA,NA,NA,NA,NA,NA,0,4,"likert"
"FD55FA578CB840E7AB8035325CE2CF4F",1,"01990a98-703b-7003-880d-0def9b35ec96","01990a84-c4ee-73c2-a87b-ff46a7d3dde5","2025-09-02_08h24.26.845",59.462,62.523,62.524,62.524,62.524,62.86,0,4,4,2,1,14,45,TRUE,1,0.953,NA,NA,NA,NA,NA,NA,NA,NA,NA,NA,NA,NA,NA,NA,0,5,"likert"
"FD55FA578CB840E7AB8035325CE2CF4F",1,"01990a98-703b-7003-880d-0def9b35ec96","01990a84-c4ee-73c2-a87b-ff46a7d3dde5","2025-09-02_08h24.26.845",NA,NA,255.887,255.887,255.887,256.271,NA,NA,NA,NA,NA,NA,NA,TRUE,1,1.037,252.98,255.887,0,0,0,28,1,21,32,NA,NA,NA,NA,NA,1,1,"likert"
"FD55FA578CB840E7AB8035325CE2CF4F",1,"01990a98-703b-7003-880d-0def9b35ec96","01990a84-c4ee-73c2-a87b-ff46a7d3dde5","2025-09-02_08h24.26.845",NA,NA,259.276,259.276,259.276,259.664,NA,NA,NA,NA,NA,NA,NA,TRUE,1,1.374,256.273,259.275,0,1,1,72,1,90,26,NA,NA,NA,NA,NA,1,2,"likert"
"FD55FA578CB840E7AB8035325CE2CF4F",1,"01990a98-703b-7003-880d-0def9b35ec96","01990a84-c4ee-73c2-a87b-ff46a7d3dde5","2025-09-02_08h24.26.845",NA,NA,262.593,262.593,262.593,262.965,NA,NA,NA,NA,NA,NA,NA,TRUE,1,0.747,259.665,262.592,0,2,2,0,1,7,25,NA,NA,NA,NA,NA,1,3,"likert"
"FD55FA578CB840E7AB8035325CE2CF4F",1,"01990a98-703b-7003-880d-0def9b35ec96","01990a84-c4ee-73c2-a87b-ff46a7d3dde5","2025-09-02_08h24.26.845",NA,NA,266.022,266.023,266.023,266.347,NA,NA,NA,NA,NA,NA,NA,TRUE,1,0.743,262.973,266.022,0,3,3,84,1,100,26,NA,NA,NA,NA,NA,1,4,"likert"
"FD55FA578CB840E7AB8035325CE2CF4F",1,"01990a98-703b-7003-880d-0def9b35ec96","01990a84-c4ee-73c2-a87b-ff46a7d3dde5","2025-09-02_08h24.26.845",NA,NA,269.23,269.23,269.23,269.752,NA,NA,NA,NA,NA,NA,NA,TRUE,1,0.937,266.348,269.229,0,4,4,6,1,10,25,NA,NA,NA,NA,NA,1,5,"likert"
"FD55FA578CB840E7AB8035325CE2CF4F",1,"01990a98-703b-7003-880d-0def9b35ec96","01990a84-c4ee-73c2-a87b-ff46a7d3dde5","2025-09-02_08h24.26.845",NA,NA,272.605,272.606,272.606,273.127,NA,NA,NA,NA,NA,NA,NA,TRUE,1,0.913,269.76,272.605,0,5,5,80,1,95,35,NA,NA,NA,NA,NA,1,6,"likert"
"FD55FA578CB840E7AB8035325CE2CF4F",1,"01990a98-703b-7003-880d-0def9b35ec96","01990a84-c4ee-73c2-a87b-ff46a7d3dde5","2025-09-02_08h24.26.845",NA,NA,276.07,276.07,276.07,276.408,NA,NA,NA,NA,NA,NA,NA,TRUE,1,0.85,273.129,276.07,0,6,6,99,1,180,39,NA,NA,NA,NA,NA,1,7,"likert"
"FD55FA578CB840E7AB8035325CE2CF4F",1,"01990a98-703b-7003-880d-0def9b35ec96","01990a84-c4ee-73c2-a87b-ff46a7d3dde5","2025-09-02_08h24.26.845",NA,NA,279.393,279.393,279.393,279.712,NA,NA,NA,NA,NA,NA,NA,TRUE,1,1.148,276.418,279.393,0,7,7,50,1,40,35,NA,NA,NA,NA,NA,1,8,"likert"
"FD55FA578CB840E7AB8035325CE2CF4F",1,"01990a98-703b-7003-880d-0def9b35ec96","01990a84-c4ee-73c2-a87b-ff46a7d3dde5","2025-09-02_08h24.26.845",NA,NA,282.776,282.776,282.776,283.129,NA,NA,NA,NA,NA,NA,NA,TRUE,1,0.923,279.713,282.775,0,8,8,25,1,21,27,NA,NA,NA,NA,NA,1,9,"likert"
"FD55FA578CB840E7AB8035325CE2CF4F",1,"01990a98-703b-7003-880d-0def9b35ec96","01990a84-c4ee-73c2-a87b-ff46a7d3dde5","2025-09-02_08h24.26.845",NA,NA,285.986,285.986,285.986,286.492,NA,NA,NA,NA,NA,NA,NA,TRUE,1,0.007,283.138,285.986,0,9,9,34,1,25,35,NA,NA,NA,NA,NA,1,10,"likert"
"FD55FA578CB840E7AB8035325CE2CF4F",1,"01990a98-703b-7003-880d-0def9b35ec96","01990a84-c4ee-73c2-a87b-ff46a7d3dde5","2025-09-02_08h24.26.845",NA,NA,289.332,289.332,289.332,289.73,NA,NA,NA,NA,NA,NA,NA,TRUE,1,0.788,286.494,289.331,0,10,10,86,1,100,38,NA,NA,NA,NA,NA,1,11,"likert"
"FD55FA578CB840E7AB8035325CE2CF4F",1,"01990a98-703b-7003-880d-0def9b35ec96","01990a84-c4ee-73c2-a87b-ff46a7d3dde5","2025-09-02_08h24.26.845",NA,NA,292.739,293.059,293.059,293.059,NA,NA,NA,NA,NA,NA,NA,FALSE,NA,NA,289.739,292.739,0,11,11,57,1,45,35,NA,NA,NA,NA,NA,1,12,"likert"
"FD55FA578CB840E7AB8035325CE2CF4F",1,"01990a98-703b-7003-880d-0def9b35ec96","01990a84-c4ee-73c2-a87b-ff46a7d3dde5","2025-09-02_08h24.26.845",NA,NA,296.155,296.155,296.155,296.502,NA,NA,NA,NA,NA,NA,NA,TRUE,5,2.108,293.061,296.155,0,12,12,96,1,180,27,NA,NA,NA,NA,NA,1,13,"likert"
"FD55FA578CB840E7AB8035325CE2CF4F",1,"01990a98-703b-7003-880d-0def9b35ec96","01990a84-c4ee-73c2-a87b-ff46a7d3dde5","2025-09-02_08h24.26.845",NA,NA,299.446,299.633,299.633,299.797,NA,NA,NA,NA,NA,NA,NA,FALSE,NA,NA,296.51,299.446,0,13,13,15,1,12,31,NA,NA,NA,NA,NA,1,14,"likert"
"FD55FA578CB840E7AB8035325CE2CF4F",1,"01990a98-703b-7003-880d-0def9b35ec96","01990a84-c4ee-73c2-a87b-ff46a7d3dde5","2025-09-02_08h24.26.845",NA,NA,302.862,302.862,302.862,303.285,NA,NA,NA,NA,NA,NA,NA,TRUE,5,1.223,299.799,302.862,0,14,14,31,1,25,29,NA,NA,NA,NA,NA,1,15,"likert"
"FD55FA578CB840E7AB8035325CE2CF4F",1,"01990a98-703b-7003-880d-0def9b35ec96","01990a84-c4ee-73c2-a87b-ff46a7d3dde5","2025-09-02_08h24.26.845",NA,NA,306.108,306.109,306.109,306.484,NA,NA,NA,NA,NA,NA,NA,TRUE,5,1.185,303.294,306.108,0,15,15,102,1,200,26,NA,NA,NA,NA,NA,1,16,"likert"
"FD55FA578CB840E7AB8035325CE2CF4F",1,"01990a98-703b-7003-880d-0def9b35ec96","01990a84-c4ee-73c2-a87b-ff46a7d3dde5","2025-09-02_08h24.26.845",NA,NA,309.445,309.445,309.445,309.95,NA,NA,NA,NA,NA,NA,NA,TRUE,5,0.578,306.486,309.444,0,16,16,98,1,180,35,NA,NA,NA,NA,NA,1,17,"likert"
"FD55FA578CB840E7AB8035325CE2CF4F",1,"01990a98-703b-7003-880d-0def9b35ec96","01990a84-c4ee-73c2-a87b-ff46a7d3dde5","2025-09-02_08h24.26.845",NA,NA,312.793,312.793,312.793,313.324,NA,NA,NA,NA,NA,NA,NA,TRUE,5,0.198,309.958,312.793,0,17,17,44,1,30,29,NA,NA,NA,NA,NA,1,18,"likert"
"FD55FA578CB840E7AB8035325CE2CF4F",1,"01990a98-703b-7003-880d-0def9b35ec96","01990a84-c4ee-73c2-a87b-ff46a7d3dde5","2025-09-02_08h24.26.845",NA,NA,316.227,316.227,316.227,316.537,NA,NA,NA,NA,NA,NA,NA,TRUE,5,0.931,313.325,316.226,0,18,18,2,1,7,28,NA,NA,NA,NA,NA,1,19,"likert"
"FD55FA578CB840E7AB8035325CE2CF4F",1,"01990a98-703b-7003-880d-0def9b35ec96","01990a84-c4ee-73c2-a87b-ff46a7d3dde5","2025-09-02_08h24.26.845",NA,NA,319.58,319.58,319.58,319.915,NA,NA,NA,NA,NA,NA,NA,TRUE,5,0.747,316.539,319.58,0,19,19,37,1,28,28,NA,NA,NA,NA,NA,1,20,"likert"
"FD55FA578CB840E7AB8035325CE2CF4F",1,"01990a98-703b-7003-880d-0def9b35ec96","01990a84-c4ee-73c2-a87b-ff46a7d3dde5","2025-09-02_08h24.26.845",NA,NA,322.877,322.877,322.877,323.201,NA,NA,NA,NA,NA,NA,NA,TRUE,5,0.791,319.923,322.877,0,20,20,82,1,95,47,NA,NA,NA,NA,NA,1,21,"likert"
"FD55FA578CB840E7AB8035325CE2CF4F",1,"01990a98-703b-7003-880d-0def9b35ec96","01990a84-c4ee-73c2-a87b-ff46a7d3dde5","2025-09-02_08h24.26.845",NA,NA,326.167,326.167,326.167,326.671,NA,NA,NA,NA,NA,NA,NA,TRUE,5,1.004,323.202,326.166,0,21,21,23,1,14,39,NA,NA,NA,NA,NA,1,22,"likert"
"FD55FA578CB840E7AB8035325CE2CF4F",1,"01990a98-703b-7003-880d-0def9b35ec96","01990a84-c4ee-73c2-a87b-ff46a7d3dde5","2025-09-02_08h24.26.845",NA,NA,329.57,329.57,329.57,330.04,NA,NA,NA,NA,NA,NA,NA,TRUE,5,1.09,326.68,329.569,0,22,22,30,1,25,27,NA,NA,NA,NA,NA,1,23,"likert"
"FD55FA578CB840E7AB8035325CE2CF4F",1,"01990a98-703b-7003-880d-0def9b35ec96","01990a84-c4ee-73c2-a87b-ff46a7d3dde5","2025-09-02_08h24.26.845",NA,NA,333.021,333.202,333.202,333.385,NA,NA,NA,NA,NA,NA,NA,FALSE,NA,NA,330.042,333.02,0,23,23,22,1,14,35,NA,NA,NA,NA,NA,1,24,"likert"
"FD55FA578CB840E7AB8035325CE2CF4F",1,"01990a98-703b-7003-880d-0def9b35ec96","01990a84-c4ee-73c2-a87b-ff46a7d3dde5","2025-09-02_08h24.26.845",NA,NA,336.333,336.333,336.333,336.682,NA,NA,NA,NA,NA,NA,NA,TRUE,5,0.988,333.394,336.332,0,24,24,8,1,10,27,NA,NA,NA,NA,NA,1,25,"likert"
"FD55FA578CB840E7AB8035325CE2CF4F",1,"01990a98-703b-7003-880d-0def9b35ec96","01990a84-c4ee-73c2-a87b-ff46a7d3dde5","2025-09-02_08h24.26.845",NA,NA,339.665,339.665,339.665,340.027,NA,NA,NA,NA,NA,NA,NA,TRUE,5,0.684,336.684,339.665,0,25,25,77,1,90,54,NA,NA,NA,NA,NA,1,26,"likert"
"FD55FA578CB840E7AB8035325CE2CF4F",1,"01990a98-703b-7003-880d-0def9b35ec96","01990a84-c4ee-73c2-a87b-ff46a7d3dde5","2025-09-02_08h24.26.845",NA,NA,343.053,343.053,343.053,343.381,NA,NA,NA,NA,NA,NA,NA,TRUE,5,1.362,340.029,343.053,0,26,26,88,1,100,46,NA,NA,NA,NA,NA,1,27,"likert"
"FD55FA578CB840E7AB8035325CE2CF4F",1,"01990a98-703b-7003-880d-0def9b35ec96","01990a84-c4ee-73c2-a87b-ff46a7d3dde5","2025-09-02_08h24.26.845",NA,NA,346.427,346.427,346.427,346.766,NA,NA,NA,NA,NA,NA,NA,TRUE,5,0.993,343.389,346.427,0,27,27,73,1,90,30,NA,NA,NA,NA,NA,1,28,"likert"
"FD55FA578CB840E7AB8035325CE2CF4F",1,"01990a98-703b-7003-880d-0def9b35ec96","01990a84-c4ee-73c2-a87b-ff46a7d3dde5","2025-09-02_08h24.26.845",NA,NA,349.66,349.66,349.66,350.148,NA,NA,NA,NA,NA,NA,NA,TRUE,5,0.007,346.767,349.659,0,28,28,70,1,60,47,NA,NA,NA,NA,NA,1,29,"likert"
"FD55FA578CB840E7AB8035325CE2CF4F",1,"01990a98-703b-7003-880d-0def9b35ec96","01990a84-c4ee-73c2-a87b-ff46a7d3dde5","2025-09-02_08h24.26.845",NA,NA,352.991,352.991,352.991,353.381,NA,NA,NA,NA,NA,NA,NA,TRUE,5,1.585,350.157,352.991,0,29,29,39,1,28,35,NA,NA,NA,NA,NA,1,30,"likert"
"FD55FA578CB840E7AB8035325CE2CF4F",1,"01990a98-703b-7003-880d-0def9b35ec96","01990a84-c4ee-73c2-a87b-ff46a7d3dde5","2025-09-02_08h24.26.845",NA,NA,356.324,356.324,356.324,356.841,NA,NA,NA,NA,NA,NA,NA,TRUE,5,0.993,353.383,356.323,0,30,30,32,1,25,31,NA,NA,NA,NA,NA,1,31,"likert"
"FD55FA578CB840E7AB8035325CE2CF4F",1,"01990a98-703b-7003-880d-0def9b35ec96","01990a84-c4ee-73c2-a87b-ff46a7d3dde5","2025-09-02_08h24.26.845",NA,NA,359.707,359.707,359.707,360.102,NA,NA,NA,NA,NA,NA,NA,TRUE,5,0.491,356.849,359.707,0,31,31,21,1,14,32,NA,NA,NA,NA,NA,1,32,"likert"
"FD55FA578CB840E7AB8035325CE2CF4F",1,"01990a98-703b-7003-880d-0def9b35ec96","01990a84-c4ee-73c2-a87b-ff46a7d3dde5","2025-09-02_08h24.26.845",NA,NA,363.09,363.09,363.09,363.405,NA,NA,NA,NA,NA,NA,NA,TRUE,5,0.443,360.103,363.09,0,32,32,61,1,50,30,NA,NA,NA,NA,NA,1,33,"likert"
"FD55FA578CB840E7AB8035325CE2CF4F",1,"01990a98-703b-7003-880d-0def9b35ec96","01990a84-c4ee-73c2-a87b-ff46a7d3dde5","2025-09-02_08h24.26.845",NA,NA,366.496,366.496,366.496,366.821,NA,NA,NA,NA,NA,NA,NA,TRUE,5,0.376,363.407,366.495,0,33,33,17,1,12,35,NA,NA,NA,NA,NA,1,34,"likert"
"FD55FA578CB840E7AB8035325CE2CF4F",1,"01990a98-703b-7003-880d-0def9b35ec96","01990a84-c4ee-73c2-a87b-ff46a7d3dde5","2025-09-02_08h24.26.845",NA,NA,369.728,369.728,369.728,370.125,NA,NA,NA,NA,NA,NA,NA,TRUE,5,0.794,366.829,369.728,0,34,34,103,1,200,28,NA,NA,NA,NA,NA,1,35,"likert"
"FD55FA578CB840E7AB8035325CE2CF4F",1,"01990a98-703b-7003-880d-0def9b35ec96","01990a84-c4ee-73c2-a87b-ff46a7d3dde5","2025-09-02_08h24.26.845",NA,NA,373.204,373.204,373.204,373.544,NA,NA,NA,NA,NA,NA,NA,TRUE,5,0.734,370.127,373.204,0,35,35,106,1,200,47,NA,NA,NA,NA,NA,1,36,"likert"
"FD55FA578CB840E7AB8035325CE2CF4F",1,"01990a98-703b-7003-880d-0def9b35ec96","01990a84-c4ee-73c2-a87b-ff46a7d3dde5","2025-09-02_08h24.26.845",NA,NA,376.458,376.458,376.458,376.948,NA,NA,NA,NA,NA,NA,NA,TRUE,5,0.776,373.552,376.457,0,36,36,63,1,50,40,NA,NA,NA,NA,NA,1,37,"likert"
"FD55FA578CB840E7AB8035325CE2CF4F",1,"01990a98-703b-7003-880d-0def9b35ec96","01990a84-c4ee-73c2-a87b-ff46a7d3dde5","2025-09-02_08h24.26.845",NA,NA,379.808,379.808,379.808,380.304,NA,NA,NA,NA,NA,NA,NA,TRUE,5,2.731,376.949,379.807,0,37,37,4,1,7,32,NA,NA,NA,NA,NA,1,38,"likert"
"FD55FA578CB840E7AB8035325CE2CF4F",1,"01990a98-703b-7003-880d-0def9b35ec96","01990a84-c4ee-73c2-a87b-ff46a7d3dde5","2025-09-02_08h24.26.845",NA,NA,383.129,383.129,383.129,383.649,NA,NA,NA,NA,NA,NA,NA,TRUE,5,1.331,380.315,383.129,0,38,38,81,1,95,40,NA,NA,NA,NA,NA,1,39,"likert"
"FD55FA578CB840E7AB8035325CE2CF4F",1,"01990a98-703b-7003-880d-0def9b35ec96","01990a84-c4ee-73c2-a87b-ff46a7d3dde5","2025-09-02_08h24.26.845",NA,NA,386.466,386.466,386.466,386.96,NA,NA,NA,NA,NA,NA,NA,TRUE,5,0.601,383.653,386.466,0,39,39,59,1,45,46,NA,NA,NA,NA,NA,1,40,"likert"
"FD55FA578CB840E7AB8035325CE2CF4F",1,"01990a98-703b-7003-880d-0def9b35ec96","01990a84-c4ee-73c2-a87b-ff46a7d3dde5","2025-09-02_08h24.26.845",NA,NA,389.845,389.845,389.845,390.324,NA,NA,NA,NA,NA,NA,NA,TRUE,5,2.638,386.968,389.844,0,40,40,7,1,10,26,NA,NA,NA,NA,NA,1,41,"likert"
"FD55FA578CB840E7AB8035325CE2CF4F",1,"01990a98-703b-7003-880d-0def9b35ec96","01990a84-c4ee-73c2-a87b-ff46a7d3dde5","2025-09-02_08h24.26.845",NA,NA,393.171,393.171,393.171,393.679,NA,NA,NA,NA,NA,NA,NA,TRUE,5,0.736,390.325,393.171,0,41,41,104,1,200,35,NA,NA,NA,NA,NA,1,42,"likert"
"FD55FA578CB840E7AB8035325CE2CF4F",1,"01990a98-703b-7003-880d-0def9b35ec96","01990a84-c4ee-73c2-a87b-ff46a7d3dde5","2025-09-02_08h24.26.845",NA,NA,396.701,396.702,396.702,397.064,NA,NA,NA,NA,NA,NA,NA,TRUE,5,0.96,393.681,396.701,0,42,42,107,1,200,54,NA,NA,NA,NA,NA,1,43,"likert"
"FD55FA578CB840E7AB8035325CE2CF4F",1,"01990a98-703b-7003-880d-0def9b35ec96","01990a84-c4ee-73c2-a87b-ff46a7d3dde5","2025-09-02_08h24.26.845",NA,NA,400.02,400.02,400.02,400.364,NA,NA,NA,NA,NA,NA,NA,TRUE,5,0.611,397.072,400.02,0,43,43,87,1,100,39,NA,NA,NA,NA,NA,1,44,"likert"
"FD55FA578CB840E7AB8035325CE2CF4F",1,"01990a98-703b-7003-880d-0def9b35ec96","01990a84-c4ee-73c2-a87b-ff46a7d3dde5","2025-09-02_08h24.26.845",NA,NA,403.259,403.259,403.259,403.607,NA,NA,NA,NA,NA,NA,NA,TRUE,5,0.625,400.365,403.259,0,44,44,90,1,150,31,NA,NA,NA,NA,NA,1,45,"likert"
"FD55FA578CB840E7AB8035325CE2CF4F",1,"01990a98-703b-7003-880d-0def9b35ec96","01990a84-c4ee-73c2-a87b-ff46a7d3dde5","2025-09-02_08h24.26.845",NA,NA,406.647,406.647,406.647,406.983,NA,NA,NA,NA,NA,NA,NA,TRUE,5,0.807,403.616,406.647,0,45,45,94,1,150,47,NA,NA,NA,NA,NA,1,46,"likert"
"FD55FA578CB840E7AB8035325CE2CF4F",1,"01990a98-703b-7003-880d-0def9b35ec96","01990a84-c4ee-73c2-a87b-ff46a7d3dde5","2025-09-02_08h24.26.845",NA,NA,410.005,410.005,410.005,410.327,NA,NA,NA,NA,NA,NA,NA,TRUE,5,0.356,406.985,410.005,0,46,46,101,1,180,54,NA,NA,NA,NA,NA,1,47,"likert"
"FD55FA578CB840E7AB8035325CE2CF4F",1,"01990a98-703b-7003-880d-0def9b35ec96","01990a84-c4ee-73c2-a87b-ff46a7d3dde5","2025-09-02_08h24.26.845",NA,NA,413.397,413.397,413.397,413.727,NA,NA,NA,NA,NA,NA,NA,TRUE,5,0.962,410.335,413.397,0,47,47,42,1,30,26,NA,NA,NA,NA,NA,1,48,"likert"
"FD55FA578CB840E7AB8035325CE2CF4F",1,"01990a98-703b-7003-880d-0def9b35ec96","01990a84-c4ee-73c2-a87b-ff46a7d3dde5","2025-09-02_08h24.26.845",NA,NA,416.687,416.687,416.687,417.042,NA,NA,NA,NA,NA,NA,NA,TRUE,5,0.67,413.735,416.686,0,48,48,89,1,100,54,NA,NA,NA,NA,NA,1,49,"likert"
"FD55FA578CB840E7AB8035325CE2CF4F",1,"01990a98-703b-7003-880d-0def9b35ec96","01990a84-c4ee-73c2-a87b-ff46a7d3dde5","2025-09-02_08h24.26.845",NA,NA,420.145,420.145,420.145,420.526,NA,NA,NA,NA,NA,NA,NA,TRUE,5,0.932,417.044,420.145,0,49,49,49,1,40,33,NA,NA,NA,NA,NA,1,50,"likert"
"FD55FA578CB840E7AB8035325CE2CF4F",1,"01990a98-703b-7003-880d-0def9b35ec96","01990a84-c4ee-73c2-a87b-ff46a7d3dde5","2025-09-02_08h24.26.845",NA,NA,423.322,423.322,423.322,423.795,NA,NA,NA,NA,NA,NA,NA,TRUE,5,2.759,420.536,423.321,0,50,50,12,1,12,25,NA,NA,NA,NA,NA,1,51,"likert"
"FD55FA578CB840E7AB8035325CE2CF4F",1,"01990a98-703b-7003-880d-0def9b35ec96","01990a84-c4ee-73c2-a87b-ff46a7d3dde5","2025-09-02_08h24.26.845",NA,NA,426.786,426.786,426.786,427.11,NA,NA,NA,NA,NA,NA,NA,TRUE,5,0.969,423.797,426.786,0,51,51,71,1,60,54,NA,NA,NA,NA,NA,1,52,"likert"
"FD55FA578CB840E7AB8035325CE2CF4F",1,"01990a98-703b-7003-880d-0def9b35ec96","01990a84-c4ee-73c2-a87b-ff46a7d3dde5","2025-09-02_08h24.26.845",NA,NA,430.216,430.216,430.216,430.402,NA,NA,NA,NA,NA,NA,NA,TRUE,5,0.741,427.119,430.215,0,52,52,11,1,10,32,NA,NA,NA,NA,NA,1,53,"likert"
"FD55FA578CB840E7AB8035325CE2CF4F",1,"01990a98-703b-7003-880d-0def9b35ec96","01990a84-c4ee-73c2-a87b-ff46a7d3dde5","2025-09-02_08h24.26.845",NA,NA,433.447,433.447,433.447,433.771,NA,NA,NA,NA,NA,NA,NA,TRUE,5,0.608,430.404,433.447,0,53,53,38,1,28,32,NA,NA,NA,NA,NA,1,54,"likert"
"FD55FA578CB840E7AB8035325CE2CF4F",1,"01990a98-703b-7003-880d-0def9b35ec96","01990a84-c4ee-73c2-a87b-ff46a7d3dde5","2025-09-02_08h24.26.845",NA,NA,436.723,436.723,436.723,437.097,NA,NA,NA,NA,NA,NA,NA,TRUE,5,0.829,433.772,436.722,0,54,54,65,1,50,54,NA,NA,NA,NA,NA,1,55,"likert"
"FD55FA578CB840E7AB8035325CE2CF4F",1,"01990a98-703b-7003-880d-0def9b35ec96","01990a84-c4ee-73c2-a87b-ff46a7d3dde5","2025-09-02_08h24.26.845",NA,NA,440.082,440.082,440.082,440.622,NA,NA,NA,NA,NA,NA,NA,TRUE,5,0.828,437.108,440.081,0,55,55,46,1,30,32,NA,NA,NA,NA,NA,1,56,"likert"
"FD55FA578CB840E7AB8035325CE2CF4F",1,"01990a98-703b-7003-880d-0def9b35ec96","01990a84-c4ee-73c2-a87b-ff46a7d3dde5","2025-09-02_08h24.26.845",NA,NA,443.446,443.446,443.446,443.957,NA,NA,NA,NA,NA,NA,NA,TRUE,5,0.641,440.623,443.445,0,56,56,97,1,180,31,NA,NA,NA,NA,NA,1,57,"likert"
"FD55FA578CB840E7AB8035325CE2CF4F",1,"01990a98-703b-7003-880d-0def9b35ec96","01990a84-c4ee-73c2-a87b-ff46a7d3dde5","2025-09-02_08h24.26.845",NA,NA,446.908,446.908,446.908,447.274,NA,NA,NA,NA,NA,NA,NA,TRUE,5,0.009,443.965,446.907,0,57,57,54,1,45,26,NA,NA,NA,NA,NA,1,58,"likert"
"FD55FA578CB840E7AB8035325CE2CF4F",1,"01990a98-703b-7003-880d-0def9b35ec96","01990a84-c4ee-73c2-a87b-ff46a7d3dde5","2025-09-02_08h24.26.845",NA,NA,450.239,450.239,450.239,450.607,NA,NA,NA,NA,NA,NA,NA,TRUE,5,0.81,447.276,450.239,0,58,58,58,1,45,40,NA,NA,NA,NA,NA,1,59,"likert"
"FD55FA578CB840E7AB8035325CE2CF4F",1,"01990a98-703b-7003-880d-0def9b35ec96","01990a84-c4ee-73c2-a87b-ff46a7d3dde5","2025-09-02_08h24.26.845",NA,NA,453.631,453.632,453.632,453.976,NA,NA,NA,NA,NA,NA,NA,TRUE,5,1.005,450.609,453.631,0,59,59,16,1,12,33,NA,NA,NA,NA,NA,1,60,"likert"
"FD55FA578CB840E7AB8035325CE2CF4F",1,"01990a98-703b-7003-880d-0def9b35ec96","01990a84-c4ee-73c2-a87b-ff46a7d3dde5","2025-09-02_08h24.26.845",NA,NA,456.844,456.844,456.844,457.34,NA,NA,NA,NA,NA,NA,NA,TRUE,5,0.6,453.984,456.844,0,60,60,79,1,95,33,NA,NA,NA,NA,NA,1,61,"likert"
"FD55FA578CB840E7AB8035325CE2CF4F",1,"01990a98-703b-7003-880d-0def9b35ec96","01990a84-c4ee-73c2-a87b-ff46a7d3dde5","2025-09-02_08h24.26.845",NA,NA,460.238,460.238,460.238,460.6,NA,NA,NA,NA,NA,NA,NA,TRUE,5,0.961,457.341,460.238,0,61,61,76,1,90,46,NA,NA,NA,NA,NA,1,62,"likert"
"FD55FA578CB840E7AB8035325CE2CF4F",1,"01990a98-703b-7003-880d-0def9b35ec96","01990a84-c4ee-73c2-a87b-ff46a7d3dde5","2025-09-02_08h24.26.845",NA,NA,463.687,463.687,463.687,464.01,NA,NA,NA,NA,NA,NA,NA,TRUE,5,0.593,460.609,463.687,0,62,62,83,1,95,54,NA,NA,NA,NA,NA,1,63,"likert"
"FD55FA578CB840E7AB8035325CE2CF4F",1,"01990a98-703b-7003-880d-0def9b35ec96","01990a84-c4ee-73c2-a87b-ff46a7d3dde5","2025-09-02_08h24.26.845",NA,NA,467.006,467.006,467.006,467.321,NA,NA,NA,NA,NA,NA,NA,TRUE,5,0.749,464.011,467.006,0,63,63,67,1,60,33,NA,NA,NA,NA,NA,1,64,"likert"
"FD55FA578CB840E7AB8035325CE2CF4F",1,"01990a98-703b-7003-880d-0def9b35ec96","01990a84-c4ee-73c2-a87b-ff46a7d3dde5","2025-09-02_08h24.26.845",NA,NA,470.276,470.276,470.276,470.754,NA,NA,NA,NA,NA,NA,NA,TRUE,5,1.357,467.329,470.275,0,64,64,62,1,50,35,NA,NA,NA,NA,NA,1,65,"likert"
"FD55FA578CB840E7AB8035325CE2CF4F",1,"01990a98-703b-7003-880d-0def9b35ec96","01990a84-c4ee-73c2-a87b-ff46a7d3dde5","2025-09-02_08h24.26.845",NA,NA,473.615,473.615,473.615,474.022,NA,NA,NA,NA,NA,NA,NA,TRUE,5,0.583,470.755,473.614,0,65,65,14,1,12,28,NA,NA,NA,NA,NA,1,66,"likert"
"FD55FA578CB840E7AB8035325CE2CF4F",1,"01990a98-703b-7003-880d-0def9b35ec96","01990a84-c4ee-73c2-a87b-ff46a7d3dde5","2025-09-02_08h24.26.845",NA,NA,477.002,477.003,477.003,477.312,NA,NA,NA,NA,NA,NA,NA,TRUE,5,0.788,474.03,477.002,0,66,66,93,1,150,40,NA,NA,NA,NA,NA,1,67,"likert"
"FD55FA578CB840E7AB8035325CE2CF4F",1,"01990a98-703b-7003-880d-0def9b35ec96","01990a84-c4ee-73c2-a87b-ff46a7d3dde5","2025-09-02_08h24.26.845",NA,NA,480.346,480.346,480.347,480.67,NA,NA,NA,NA,NA,NA,NA,TRUE,5,0.574,477.314,480.346,0,67,67,85,1,100,31,NA,NA,NA,NA,NA,1,68,"likert"
"FD55FA578CB840E7AB8035325CE2CF4F",1,"01990a98-703b-7003-880d-0def9b35ec96","01990a84-c4ee-73c2-a87b-ff46a7d3dde5","2025-09-02_08h24.26.845",NA,NA,483.599,483.599,483.599,484.179,NA,NA,NA,NA,NA,NA,NA,TRUE,5,0.755,480.678,483.598,0,68,68,68,1,60,35,NA,NA,NA,NA,NA,1,69,"likert"
"FD55FA578CB840E7AB8035325CE2CF4F",1,"01990a98-703b-7003-880d-0def9b35ec96","01990a84-c4ee-73c2-a87b-ff46a7d3dde5","2025-09-02_08h24.26.845",NA,NA,486.982,486.982,486.982,487.537,NA,NA,NA,NA,NA,NA,NA,TRUE,5,0.01,484.181,486.981,0,69,69,1,1,7,26,NA,NA,NA,NA,NA,1,70,"likert"
"FD55FA578CB840E7AB8035325CE2CF4F",1,"01990a98-703b-7003-880d-0def9b35ec96","01990a84-c4ee-73c2-a87b-ff46a7d3dde5","2025-09-02_08h24.26.845",NA,NA,490.353,490.353,490.353,490.863,NA,NA,NA,NA,NA,NA,NA,TRUE,5,0.743,487.545,490.352,0,70,70,40,1,28,39,NA,NA,NA,NA,NA,1,71,"likert"
"FD55FA578CB840E7AB8035325CE2CF4F",1,"01990a98-703b-7003-880d-0def9b35ec96","01990a84-c4ee-73c2-a87b-ff46a7d3dde5","2025-09-02_08h24.26.845",NA,NA,493.848,493.848,493.848,494.239,NA,NA,NA,NA,NA,NA,NA,TRUE,5,0.766,490.864,493.847,0,71,71,29,1,21,38,NA,NA,NA,NA,NA,1,72,"likert"
"FD55FA578CB840E7AB8035325CE2CF4F",1,"01990a98-703b-7003-880d-0def9b35ec96","01990a84-c4ee-73c2-a87b-ff46a7d3dde5","2025-09-02_08h24.26.845",NA,NA,497.109,497.109,497.109,497.45,NA,NA,NA,NA,NA,NA,NA,TRUE,5,0.749,494.248,497.109,0,72,72,91,1,150,33,NA,NA,NA,NA,NA,1,73,"likert"
"FD55FA578CB840E7AB8035325CE2CF4F",1,"01990a98-703b-7003-880d-0def9b35ec96","01990a84-c4ee-73c2-a87b-ff46a7d3dde5","2025-09-02_08h24.26.845",NA,NA,500.458,500.458,500.458,500.775,NA,NA,NA,NA,NA,NA,NA,TRUE,5,0.009,497.452,500.457,0,73,73,13,1,12,26,NA,NA,NA,NA,NA,1,74,"likert"
"FD55FA578CB840E7AB8035325CE2CF4F",1,"01990a98-703b-7003-880d-0def9b35ec96","01990a84-c4ee-73c2-a87b-ff46a7d3dde5","2025-09-02_08h24.26.845",NA,NA,503.829,503.829,503.829,504.147,NA,NA,NA,NA,NA,NA,NA,TRUE,5,0.943,500.784,503.828,0,74,74,26,1,21,29,NA,NA,NA,NA,NA,1,75,"likert"
"FD55FA578CB840E7AB8035325CE2CF4F",1,"01990a98-703b-7003-880d-0def9b35ec96","01990a84-c4ee-73c2-a87b-ff46a7d3dde5","2025-09-02_08h24.26.845",NA,NA,507.129,507.129,507.129,507.463,NA,NA,NA,NA,NA,NA,NA,TRUE,5,0.795,504.149,507.128,0,75,75,55,1,45,29,NA,NA,NA,NA,NA,1,76,"likert"
"FD55FA578CB840E7AB8035325CE2CF4F",1,"01990a98-703b-7003-880d-0def9b35ec96","01990a84-c4ee-73c2-a87b-ff46a7d3dde5","2025-09-02_08h24.26.845",NA,NA,510.453,510.615,510.616,510.8,NA,NA,NA,NA,NA,NA,NA,FALSE,NA,NA,507.478,510.452,0,76,76,41,1,28,46,NA,NA,NA,NA,NA,1,77,"likert"
"FD55FA578CB840E7AB8035325CE2CF4F",1,"01990a98-703b-7003-880d-0def9b35ec96","01990a84-c4ee-73c2-a87b-ff46a7d3dde5","2025-09-02_08h24.26.845",NA,NA,513.909,513.909,513.909,514.254,NA,NA,NA,NA,NA,NA,NA,TRUE,5,0.94,510.802,513.908,0,77,77,19,1,14,26,NA,NA,NA,NA,NA,1,78,"likert"
"FD55FA578CB840E7AB8035325CE2CF4F",1,"01990a98-703b-7003-880d-0def9b35ec96","01990a84-c4ee-73c2-a87b-ff46a7d3dde5","2025-09-02_08h24.26.845",NA,NA,517.232,517.232,517.232,517.593,NA,NA,NA,NA,NA,NA,NA,TRUE,5,0.597,514.262,517.231,0,78,78,9,1,10,29,NA,NA,NA,NA,NA,1,79,"likert"
"FD55FA578CB840E7AB8035325CE2CF4F",1,"01990a98-703b-7003-880d-0def9b35ec96","01990a84-c4ee-73c2-a87b-ff46a7d3dde5","2025-09-02_08h24.26.845",NA,NA,520.576,520.576,520.576,520.926,NA,NA,NA,NA,NA,NA,NA,TRUE,5,0.759,517.594,520.576,0,79,79,48,1,40,27,NA,NA,NA,NA,NA,1,80,"likert"
"FD55FA578CB840E7AB8035325CE2CF4F",1,"01990a98-703b-7003-880d-0def9b35ec96","01990a84-c4ee-73c2-a87b-ff46a7d3dde5","2025-09-02_08h24.26.845",NA,NA,523.856,523.856,523.857,524.358,NA,NA,NA,NA,NA,NA,NA,TRUE,5,1.724,520.928,523.856,0,80,80,92,1,150,35,NA,NA,NA,NA,NA,1,81,"likert"
"FD55FA578CB840E7AB8035325CE2CF4F",1,"01990a98-703b-7003-880d-0def9b35ec96","01990a84-c4ee-73c2-a87b-ff46a7d3dde5","2025-09-02_08h24.26.845",NA,NA,527.285,527.285,527.285,527.628,NA,NA,NA,NA,NA,NA,NA,TRUE,5,0.75,524.368,527.285,0,81,81,100,1,180,46,NA,NA,NA,NA,NA,1,82,"likert"
"FD55FA578CB840E7AB8035325CE2CF4F",1,"01990a98-703b-7003-880d-0def9b35ec96","01990a84-c4ee-73c2-a87b-ff46a7d3dde5","2025-09-02_08h24.26.845",NA,NA,530.543,530.543,530.543,531.037,NA,NA,NA,NA,NA,NA,NA,TRUE,5,0.581,527.629,530.543,0,82,82,33,1,25,33,NA,NA,NA,NA,NA,1,83,"likert"
"FD55FA578CB840E7AB8035325CE2CF4F",1,"01990a98-703b-7003-880d-0def9b35ec96","01990a84-c4ee-73c2-a87b-ff46a7d3dde5","2025-09-02_08h24.26.845",NA,NA,533.992,533.992,533.992,534.322,NA,NA,NA,NA,NA,NA,NA,TRUE,5,0.717,531.045,533.991,0,83,83,53,1,40,54,NA,NA,NA,NA,NA,1,84,"likert"
"FD55FA578CB840E7AB8035325CE2CF4F",1,"01990a98-703b-7003-880d-0def9b35ec96","01990a84-c4ee-73c2-a87b-ff46a7d3dde5","2025-09-02_08h24.26.845",NA,NA,537.354,537.354,537.354,537.674,NA,NA,NA,NA,NA,NA,NA,TRUE,5,0.781,534.322,537.353,0,84,84,69,1,60,40,NA,NA,NA,NA,NA,1,85,"likert"
"FD55FA578CB840E7AB8035325CE2CF4F",1,"01990a98-703b-7003-880d-0def9b35ec96","01990a84-c4ee-73c2-a87b-ff46a7d3dde5","2025-09-02_08h24.26.845",NA,NA,540.742,540.743,540.743,541.122,NA,NA,NA,NA,NA,NA,NA,TRUE,5,0.739,537.682,540.742,0,85,85,52,1,40,47,NA,NA,NA,NA,NA,1,86,"likert"
"FD55FA578CB840E7AB8035325CE2CF4F",1,"01990a98-703b-7003-880d-0def9b35ec96","01990a84-c4ee-73c2-a87b-ff46a7d3dde5","2025-09-02_08h24.26.845",NA,NA,544.038,544.038,544.038,544.38,NA,NA,NA,NA,NA,NA,NA,TRUE,5,0.566,541.124,544.037,0,86,86,36,1,28,26,NA,NA,NA,NA,NA,1,87,"likert"
"FD55FA578CB840E7AB8035325CE2CF4F",1,"01990a98-703b-7003-880d-0def9b35ec96","01990a84-c4ee-73c2-a87b-ff46a7d3dde5","2025-09-02_08h24.26.845",NA,NA,547.347,547.347,547.347,547.668,NA,NA,NA,NA,NA,NA,NA,TRUE,5,0.358,544.388,547.347,0,87,87,56,1,45,31,NA,NA,NA,NA,NA,1,88,"likert"
"FD55FA578CB840E7AB8035325CE2CF4F",1,"01990a98-703b-7003-880d-0def9b35ec96","01990a84-c4ee-73c2-a87b-ff46a7d3dde5","2025-09-02_08h24.26.845",NA,NA,550.746,550.746,550.746,551.14,NA,NA,NA,NA,NA,NA,NA,TRUE,5,0.614,547.67,550.746,0,88,88,64,1,50,46,NA,NA,NA,NA,NA,1,89,"likert"
"FD55FA578CB840E7AB8035325CE2CF4F",1,"01990a98-703b-7003-880d-0def9b35ec96","01990a84-c4ee-73c2-a87b-ff46a7d3dde5","2025-09-02_08h24.26.845",NA,NA,554.012,554.012,554.012,554.489,NA,NA,NA,NA,NA,NA,NA,TRUE,5,0.846,551.149,554.012,0,89,89,10,1,10,30,NA,NA,NA,NA,NA,1,90,"likert"
"FD55FA578CB840E7AB8035325CE2CF4F",1,"01990a98-703b-7003-880d-0def9b35ec96","01990a84-c4ee-73c2-a87b-ff46a7d3dde5","2025-09-02_08h24.26.845",NA,NA,557.521,557.521,557.521,557.734,NA,NA,NA,NA,NA,NA,NA,TRUE,5,0.751,554.491,557.521,0,90,90,45,1,30,30,NA,NA,NA,NA,NA,1,91,"likert"
"FD55FA578CB840E7AB8035325CE2CF4F",1,"01990a98-703b-7003-880d-0def9b35ec96","01990a84-c4ee-73c2-a87b-ff46a7d3dde5","2025-09-02_08h24.26.845",NA,NA,560.792,560.792,560.792,561.112,NA,NA,NA,NA,NA,NA,NA,TRUE,5,1.531,557.735,560.792,0,91,91,24,1,21,26,NA,NA,NA,NA,NA,1,92,"likert"
"FD55FA578CB840E7AB8035325CE2CF4F",1,"01990a98-703b-7003-880d-0def9b35ec96","01990a84-c4ee-73c2-a87b-ff46a7d3dde5","2025-09-02_08h24.26.845",NA,NA,564.083,564.083,564.083,564.424,NA,NA,NA,NA,NA,NA,NA,TRUE,5,2.118,561.12,564.083,0,92,92,18,1,14,25,NA,NA,NA,NA,NA,1,93,"likert"
"FD55FA578CB840E7AB8035325CE2CF4F",1,"01990a98-703b-7003-880d-0def9b35ec96","01990a84-c4ee-73c2-a87b-ff46a7d3dde5","2025-09-02_08h24.26.845",NA,NA,567.481,567.481,567.482,567.807,NA,NA,NA,NA,NA,NA,NA,TRUE,5,2.332,564.425,567.481,0,93,93,78,1,95,31,NA,NA,NA,NA,NA,1,94,"likert"
"FD55FA578CB840E7AB8035325CE2CF4F",1,"01990a98-703b-7003-880d-0def9b35ec96","01990a84-c4ee-73c2-a87b-ff46a7d3dde5","2025-09-02_08h24.26.845",NA,NA,570.893,570.893,570.893,571.246,NA,NA,NA,NA,NA,NA,NA,TRUE,5,1.255,567.815,570.893,0,94,94,95,1,150,54,NA,NA,NA,NA,NA,1,95,"likert"
"FD55FA578CB840E7AB8035325CE2CF4F",1,"01990a98-703b-7003-880d-0def9b35ec96","01990a84-c4ee-73c2-a87b-ff46a7d3dde5","2025-09-02_08h24.26.845",NA,NA,574.075,574.075,574.075,574.492,NA,NA,NA,NA,NA,NA,NA,TRUE,5,2.637,571.248,574.074,0,95,95,60,1,50,27,NA,NA,NA,NA,NA,1,96,"likert"
"FD55FA578CB840E7AB8035325CE2CF4F",1,"01990a98-703b-7003-880d-0def9b35ec96","01990a84-c4ee-73c2-a87b-ff46a7d3dde5","2025-09-02_08h24.26.845",NA,NA,577.533,577.533,577.533,577.879,NA,NA,NA,NA,NA,NA,NA,TRUE,5,1.728,574.501,577.533,0,96,96,105,1,200,39,NA,NA,NA,NA,NA,1,97,"likert"
"FD55FA578CB840E7AB8035325CE2CF4F",1,"01990a98-703b-7003-880d-0def9b35ec96","01990a84-c4ee-73c2-a87b-ff46a7d3dde5","2025-09-02_08h24.26.845",NA,NA,580.84,580.84,580.84,581.149,NA,NA,NA,NA,NA,NA,NA,TRUE,5,0.927,577.88,580.84,0,97,97,3,1,7,30,NA,NA,NA,NA,NA,1,98,"likert"
"FD55FA578CB840E7AB8035325CE2CF4F",1,"01990a98-703b-7003-880d-0def9b35ec96","01990a84-c4ee-73c2-a87b-ff46a7d3dde5","2025-09-02_08h24.26.845",NA,NA,584.229,584.229,584.229,584.558,NA,NA,NA,NA,NA,NA,NA,TRUE,5,0.833,581.157,584.228,0,98,98,74,1,90,33,NA,NA,NA,NA,NA,1,99,"likert"
"FD55FA578CB840E7AB8035325CE2CF4F",1,"01990a98-703b-7003-880d-0def9b35ec96","01990a84-c4ee-73c2-a87b-ff46a7d3dde5","2025-09-02_08h24.26.845",NA,NA,587.477,587.477,587.477,587.982,NA,NA,NA,NA,NA,NA,NA,TRUE,5,0.574,584.559,587.476,0,99,99,75,1,90,40,NA,NA,NA,NA,NA,1,100,"likert"
"FD55FA578CB840E7AB8035325CE2CF4F",1,"01990a98-703b-7003-880d-0def9b35ec96","01990a84-c4ee-73c2-a87b-ff46a7d3dde5","2025-09-02_08h24.26.845",NA,NA,591.005,591.005,591.005,591.348,NA,NA,NA,NA,NA,NA,NA,TRUE,5,0.74,587.99,591.005,0,100,100,43,1,30,27,NA,NA,NA,NA,NA,1,101,"likert"
"FD55FA578CB840E7AB8035325CE2CF4F",1,"01990a98-703b-7003-880d-0def9b35ec96","01990a84-c4ee-73c2-a87b-ff46a7d3dde5","2025-09-02_08h24.26.845",NA,NA,594.266,594.266,594.266,594.578,NA,NA,NA,NA,NA,NA,NA,TRUE,5,0.383,591.349,594.265,0,101,101,51,1,40,40,NA,NA,NA,NA,NA,1,102,"likert"
"FD55FA578CB840E7AB8035325CE2CF4F",1,"01990a98-703b-7003-880d-0def9b35ec96","01990a84-c4ee-73c2-a87b-ff46a7d3dde5","2025-09-02_08h24.26.845",NA,NA,597.658,597.659,597.659,597.997,NA,NA,NA,NA,NA,NA,NA,TRUE,5,0.756,594.586,597.658,0,102,102,27,1,21,30,NA,NA,NA,NA,NA,1,103,"likert"
"FD55FA578CB840E7AB8035325CE2CF4F",1,"01990a98-703b-7003-880d-0def9b35ec96","01990a84-c4ee-73c2-a87b-ff46a7d3dde5","2025-09-02_08h24.26.845",NA,NA,600.834,600.834,600.834,601.394,NA,NA,NA,NA,NA,NA,NA,TRUE,5,0.829,597.998,600.834,0,103,103,20,1,14,28,NA,NA,NA,NA,NA,1,104,"likert"
"FD55FA578CB840E7AB8035325CE2CF4F",1,"01990a98-703b-7003-880d-0def9b35ec96","01990a84-c4ee-73c2-a87b-ff46a7d3dde5","2025-09-02_08h24.26.845",NA,NA,604.403,604.403,604.403,604.721,NA,NA,NA,NA,NA,NA,NA,TRUE,5,0.571,601.403,604.402,0,104,104,35,1,25,46,NA,NA,NA,NA,NA,1,105,"likert"
"FD55FA578CB840E7AB8035325CE2CF4F",1,"01990a98-703b-7003-880d-0def9b35ec96","01990a84-c4ee-73c2-a87b-ff46a7d3dde5","2025-09-02_08h24.26.845",NA,NA,607.703,607.703,607.703,608.085,NA,NA,NA,NA,NA,NA,NA,TRUE,5,0.589,604.722,607.703,0,105,105,66,1,60,29,NA,NA,NA,NA,NA,1,106,"likert"
"FD55FA578CB840E7AB8035325CE2CF4F",1,"01990a98-703b-7003-880d-0def9b35ec96","01990a84-c4ee-73c2-a87b-ff46a7d3dde5","2025-09-02_08h24.26.845",NA,NA,610.999,610.999,610.999,611.32,NA,NA,NA,NA,NA,NA,NA,TRUE,5,0.759,608.094,610.998,0,106,106,5,1,7,35,NA,NA,NA,NA,NA,1,107,"likert"
"FD55FA578CB840E7AB8035325CE2CF4F",1,"01990a98-703b-7003-880d-0def9b35ec96","01990a84-c4ee-73c2-a87b-ff46a7d3dde5","2025-09-02_08h24.26.845",NA,NA,614.417,614.417,614.417,614.75,NA,NA,NA,NA,NA,NA,NA,TRUE,5,1.239,611.321,614.416,0,107,107,47,1,30,38,NA,NA,NA,NA,NA,1,108,"likert"
"FD55FA578CB840E7AB8035325CE2CF4F",1,"01990a98-703b-7003-880d-0def9b35ec96","01990a84-c4ee-73c2-a87b-ff46a7d3dde5","2025-09-02_08h24.26.845",NA,NA,663.896,663.896,663.896,664.391,NA,NA,NA,NA,NA,NA,NA,TRUE,5,1.802,661.045,663.896,NA,NA,NA,NA,NA,50,35,0,0,0,62,1,2,1,"likert"
"FD55FA578CB840E7AB8035325CE2CF4F",1,"01990a98-703b-7003-880d-0def9b35ec96","01990a84-c4ee-73c2-a87b-ff46a7d3dde5","2025-09-02_08h24.26.845",NA,NA,667.382,667.382,667.382,667.685,NA,NA,NA,NA,NA,NA,NA,TRUE,5,0.866,664.392,667.382,NA,NA,NA,NA,NA,12,26,0,1,1,13,1,2,2,"likert"
"FD55FA578CB840E7AB8035325CE2CF4F",1,"01990a98-703b-7003-880d-0def9b35ec96","01990a84-c4ee-73c2-a87b-ff46a7d3dde5","2025-09-02_08h24.26.845",NA,NA,670.626,670.626,670.626,670.98,NA,NA,NA,NA,NA,NA,NA,TRUE,5,0.717,667.686,670.625,NA,NA,NA,NA,NA,28,39,0,2,2,40,1,2,3,"likert"
"FD55FA578CB840E7AB8035325CE2CF4F",1,"01990a98-703b-7003-880d-0def9b35ec96","01990a84-c4ee-73c2-a87b-ff46a7d3dde5","2025-09-02_08h24.26.845",NA,NA,674.038,674.038,674.038,674.4,NA,NA,NA,NA,NA,NA,NA,TRUE,5,0.715,670.989,674.038,NA,NA,NA,NA,NA,150,33,0,3,3,91,1,2,4,"likert"
"FD55FA578CB840E7AB8035325CE2CF4F",1,"01990a98-703b-7003-880d-0def9b35ec96","01990a84-c4ee-73c2-a87b-ff46a7d3dde5","2025-09-02_08h24.26.845",NA,NA,677.321,677.322,677.322,677.691,NA,NA,NA,NA,NA,NA,NA,TRUE,5,0.743,674.402,677.321,NA,NA,NA,NA,NA,40,35,0,4,4,50,1,2,5,"likert"
"FD55FA578CB840E7AB8035325CE2CF4F",1,"01990a98-703b-7003-880d-0def9b35ec96","01990a84-c4ee-73c2-a87b-ff46a7d3dde5","2025-09-02_08h24.26.845",NA,NA,680.671,680.671,680.671,681.168,NA,NA,NA,NA,NA,NA,NA,TRUE,5,0.759,677.701,680.671,NA,NA,NA,NA,NA,95,35,0,5,5,80,1,2,6,"likert"
"FD55FA578CB840E7AB8035325CE2CF4F",1,"01990a98-703b-7003-880d-0def9b35ec96","01990a84-c4ee-73c2-a87b-ff46a7d3dde5","2025-09-02_08h24.26.845",NA,NA,684.164,684.164,684.164,684.52,NA,NA,NA,NA,NA,NA,NA,TRUE,5,1.137,681.169,684.163,NA,NA,NA,NA,NA,10,32,0,6,6,11,1,2,7,"likert"
"FD55FA578CB840E7AB8035325CE2CF4F",1,"01990a98-703b-7003-880d-0def9b35ec96","01990a84-c4ee-73c2-a87b-ff46a7d3dde5","2025-09-02_08h24.26.845",NA,NA,687.386,687.386,687.386,687.869,NA,NA,NA,NA,NA,NA,NA,TRUE,5,1.188,684.529,687.386,NA,NA,NA,NA,NA,14,28,0,7,7,20,1,2,8,"likert"
"FD55FA578CB840E7AB8035325CE2CF4F",1,"01990a98-703b-7003-880d-0def9b35ec96","01990a84-c4ee-73c2-a87b-ff46a7d3dde5","2025-09-02_08h24.26.845",NA,NA,690.747,690.748,690.748,691.088,NA,NA,NA,NA,NA,NA,NA,TRUE,5,0.982,687.87,690.747,NA,NA,NA,NA,NA,200,47,0,8,8,106,1,2,9,"likert"
"FD55FA578CB840E7AB8035325CE2CF4F",1,"01990a98-703b-7003-880d-0def9b35ec96","01990a84-c4ee-73c2-a87b-ff46a7d3dde5","2025-09-02_08h24.26.845",NA,NA,694.126,694.126,694.126,694.454,NA,NA,NA,NA,NA,NA,NA,TRUE,5,0.907,691.096,694.125,NA,NA,NA,NA,NA,30,38,0,9,9,47,1,2,10,"likert"
"FD55FA578CB840E7AB8035325CE2CF4F",1,"01990a98-703b-7003-880d-0def9b35ec96","01990a84-c4ee-73c2-a87b-ff46a7d3dde5","2025-09-02_08h24.26.845",NA,NA,697.494,697.495,697.495,697.959,NA,NA,NA,NA,NA,NA,NA,TRUE,5,0.762,694.456,697.494,NA,NA,NA,NA,NA,12,31,0,10,10,15,1,2,11,"likert"
"FD55FA578CB840E7AB8035325CE2CF4F",1,"01990a98-703b-7003-880d-0def9b35ec96","01990a84-c4ee-73c2-a87b-ff46a7d3dde5","2025-09-02_08h24.26.845",NA,NA,700.889,700.889,700.889,701.269,NA,NA,NA,NA,NA,NA,NA,TRUE,5,0.764,697.96,700.888,NA,NA,NA,NA,NA,180,54,0,11,11,101,1,2,12,"likert"
"FD55FA578CB840E7AB8035325CE2CF4F",1,"01990a98-703b-7003-880d-0def9b35ec96","01990a84-c4ee-73c2-a87b-ff46a7d3dde5","2025-09-02_08h24.26.845",NA,NA,704.163,704.163,704.163,704.503,NA,NA,NA,NA,NA,NA,NA,TRUE,5,0.726,701.276,704.163,NA,NA,NA,NA,NA,60,40,0,12,12,69,1,2,13,"likert"
"FD55FA578CB840E7AB8035325CE2CF4F",1,"01990a98-703b-7003-880d-0def9b35ec96","01990a84-c4ee-73c2-a87b-ff46a7d3dde5","2025-09-02_08h24.26.845",NA,NA,707.442,707.442,707.442,707.907,NA,NA,NA,NA,NA,NA,NA,TRUE,5,0.873,704.504,707.442,NA,NA,NA,NA,NA,12,25,0,13,13,12,1,2,14,"likert"
"FD55FA578CB840E7AB8035325CE2CF4F",1,"01990a98-703b-7003-880d-0def9b35ec96","01990a84-c4ee-73c2-a87b-ff46a7d3dde5","2025-09-02_08h24.26.845",NA,NA,710.945,710.945,710.945,711.301,NA,NA,NA,NA,NA,NA,NA,TRUE,5,0.701,707.915,710.945,NA,NA,NA,NA,NA,28,46,0,14,14,41,1,2,15,"likert"
"FD55FA578CB840E7AB8035325CE2CF4F",1,"01990a98-703b-7003-880d-0def9b35ec96","01990a84-c4ee-73c2-a87b-ff46a7d3dde5","2025-09-02_08h24.26.845",NA,NA,714.096,714.096,714.096,714.627,NA,NA,NA,NA,NA,NA,NA,TRUE,5,1.043,711.303,714.095,NA,NA,NA,NA,NA,25,33,0,15,15,33,1,2,16,"likert"
"FD55FA578CB840E7AB8035325CE2CF4F",1,"01990a98-703b-7003-880d-0def9b35ec96","01990a84-c4ee-73c2-a87b-ff46a7d3dde5","2025-09-02_08h24.26.845",NA,NA,717.494,717.494,717.494,718.015,NA,NA,NA,NA,NA,NA,NA,TRUE,5,0.878,714.635,717.494,NA,NA,NA,NA,NA,100,26,0,16,16,84,1,2,17,"likert"
"FD55FA578CB840E7AB8035325CE2CF4F",1,"01990a98-703b-7003-880d-0def9b35ec96","01990a84-c4ee-73c2-a87b-ff46a7d3dde5","2025-09-02_08h24.26.845",NA,NA,720.89,720.89,720.89,721.252,NA,NA,NA,NA,NA,NA,NA,TRUE,5,0.007,718.016,720.889,NA,NA,NA,NA,NA,100,39,0,17,17,87,1,2,18,"likert"
"FD55FA578CB840E7AB8035325CE2CF4F",1,"01990a98-703b-7003-880d-0def9b35ec96","01990a84-c4ee-73c2-a87b-ff46a7d3dde5","2025-09-02_08h24.26.845",NA,NA,724.2,724.2,724.2,724.733,NA,NA,NA,NA,NA,NA,NA,TRUE,5,0.801,721.262,724.2,NA,NA,NA,NA,NA,95,31,0,18,18,78,1,2,19,"likert"
"FD55FA578CB840E7AB8035325CE2CF4F",1,"01990a98-703b-7003-880d-0def9b35ec96","01990a84-c4ee-73c2-a87b-ff46a7d3dde5","2025-09-02_08h24.26.845",NA,NA,727.661,727.661,727.661,728.04,NA,NA,NA,NA,NA,NA,NA,TRUE,5,1.112,724.735,727.661,NA,NA,NA,NA,NA,14,32,0,19,19,21,1,2,20,"likert"
"FD55FA578CB840E7AB8035325CE2CF4F",1,"01990a98-703b-7003-880d-0def9b35ec96","01990a84-c4ee-73c2-a87b-ff46a7d3dde5","2025-09-02_08h24.26.845",NA,NA,731.028,731.028,731.028,731.362,NA,NA,NA,NA,NA,NA,NA,TRUE,5,1.3,728.049,731.028,NA,NA,NA,NA,NA,25,29,0,20,20,31,1,2,21,"likert"
"FD55FA578CB840E7AB8035325CE2CF4F",1,"01990a98-703b-7003-880d-0def9b35ec96","01990a84-c4ee-73c2-a87b-ff46a7d3dde5","2025-09-02_08h24.26.845",NA,NA,734.355,734.355,734.355,734.694,NA,NA,NA,NA,NA,NA,NA,TRUE,5,0.88,731.364,734.354,NA,NA,NA,NA,NA,12,28,0,21,21,14,1,2,22,"likert"
"FD55FA578CB840E7AB8035325CE2CF4F",1,"01990a98-703b-7003-880d-0def9b35ec96","01990a84-c4ee-73c2-a87b-ff46a7d3dde5","2025-09-02_08h24.26.845",NA,NA,737.745,737.745,737.745,738.065,NA,NA,NA,NA,NA,NA,NA,TRUE,5,0.906,734.701,737.744,NA,NA,NA,NA,NA,40,27,0,22,22,48,1,2,23,"likert"
"FD55FA578CB840E7AB8035325CE2CF4F",1,"01990a98-703b-7003-880d-0def9b35ec96","01990a84-c4ee-73c2-a87b-ff46a7d3dde5","2025-09-02_08h24.26.845",NA,NA,741.043,741.043,741.043,741.356,NA,NA,NA,NA,NA,NA,NA,TRUE,5,0.829,738.067,741.043,NA,NA,NA,NA,NA,200,28,0,23,23,103,1,2,24,"likert"
"FD55FA578CB840E7AB8035325CE2CF4F",1,"01990a98-703b-7003-880d-0def9b35ec96","01990a84-c4ee-73c2-a87b-ff46a7d3dde5","2025-09-02_08h24.26.845",NA,NA,744.372,744.372,744.372,744.717,NA,NA,NA,NA,NA,NA,NA,TRUE,5,0.938,741.365,744.371,NA,NA,NA,NA,NA,60,33,0,24,24,67,1,2,25,"likert"
"FD55FA578CB840E7AB8035325CE2CF4F",1,"01990a98-703b-7003-880d-0def9b35ec96","01990a84-c4ee-73c2-a87b-ff46a7d3dde5","2025-09-02_08h24.26.845",NA,NA,747.785,747.785,747.785,748.113,NA,NA,NA,NA,NA,NA,NA,TRUE,5,2.497,744.719,747.785,NA,NA,NA,NA,NA,150,47,0,25,25,94,1,2,26,"likert"
"FD55FA578CB840E7AB8035325CE2CF4F",1,"01990a98-703b-7003-880d-0def9b35ec96","01990a84-c4ee-73c2-a87b-ff46a7d3dde5","2025-09-02_08h24.26.845",NA,NA,751.035,751.035,751.035,751.527,NA,NA,NA,NA,NA,NA,NA,TRUE,5,2.412,748.12,751.034,NA,NA,NA,NA,NA,7,28,0,26,26,2,1,2,27,"likert"
"FD55FA578CB840E7AB8035325CE2CF4F",1,"01990a98-703b-7003-880d-0def9b35ec96","01990a84-c4ee-73c2-a87b-ff46a7d3dde5","2025-09-02_08h24.26.845",NA,NA,754.512,754.512,754.512,754.748,NA,NA,NA,NA,NA,NA,NA,TRUE,5,1.908,751.528,754.511,NA,NA,NA,NA,NA,25,46,0,27,27,35,1,2,28,"likert"
"FD55FA578CB840E7AB8035325CE2CF4F",1,"01990a98-703b-7003-880d-0def9b35ec96","01990a84-c4ee-73c2-a87b-ff46a7d3dde5","2025-09-02_08h24.26.845",NA,NA,757.848,757.848,757.848,758.184,NA,NA,NA,NA,NA,NA,NA,TRUE,5,1.21,754.749,757.848,NA,NA,NA,NA,NA,14,39,0,28,28,23,1,2,29,"likert"
"FD55FA578CB840E7AB8035325CE2CF4F",1,"01990a98-703b-7003-880d-0def9b35ec96","01990a84-c4ee-73c2-a87b-ff46a7d3dde5","2025-09-02_08h24.26.845",NA,NA,761.079,761.079,761.079,761.584,NA,NA,NA,NA,NA,NA,NA,TRUE,5,0.755,758.193,761.079,NA,NA,NA,NA,NA,50,46,0,29,29,64,1,2,30,"likert"
"FD55FA578CB840E7AB8035325CE2CF4F",1,"01990a98-703b-7003-880d-0def9b35ec96","01990a84-c4ee-73c2-a87b-ff46a7d3dde5","2025-09-02_08h24.26.845",NA,NA,764.535,764.535,764.535,764.861,NA,NA,NA,NA,NA,NA,NA,TRUE,5,0.559,761.586,764.534,NA,NA,NA,NA,NA,10,30,0,30,30,10,1,2,31,"likert"
"FD55FA578CB840E7AB8035325CE2CF4F",1,"01990a98-703b-7003-880d-0def9b35ec96","01990a84-c4ee-73c2-a87b-ff46a7d3dde5","2025-09-02_08h24.26.845",NA,NA,767.91,767.91,767.91,768.273,NA,NA,NA,NA,NA,NA,NA,TRUE,5,0.556,764.868,767.909,NA,NA,NA,NA,NA,95,40,0,31,31,81,1,2,32,"likert"
"FD55FA578CB840E7AB8035325CE2CF4F",1,"01990a98-703b-7003-880d-0def9b35ec96","01990a84-c4ee-73c2-a87b-ff46a7d3dde5","2025-09-02_08h24.26.845",NA,NA,771.096,771.096,771.096,771.565,NA,NA,NA,NA,NA,NA,NA,TRUE,5,1.315,768.274,771.095,NA,NA,NA,NA,NA,50,54,0,32,32,65,1,2,33,"likert"
"FD55FA578CB840E7AB8035325CE2CF4F",1,"01990a98-703b-7003-880d-0def9b35ec96","01990a84-c4ee-73c2-a87b-ff46a7d3dde5","2025-09-02_08h24.26.845",NA,NA,774.503,774.503,774.504,774.859,NA,NA,NA,NA,NA,NA,NA,TRUE,5,1.123,771.572,774.503,NA,NA,NA,NA,NA,60,35,0,33,33,68,1,2,34,"likert"
"FD55FA578CB840E7AB8035325CE2CF4F",1,"01990a98-703b-7003-880d-0def9b35ec96","01990a84-c4ee-73c2-a87b-ff46a7d3dde5","2025-09-02_08h24.26.845",NA,NA,777.919,777.919,777.919,778.267,NA,NA,NA,NA,NA,NA,NA,TRUE,5,0.978,774.861,777.918,NA,NA,NA,NA,NA,7,25,0,34,34,0,1,2,35,"likert"
"FD55FA578CB840E7AB8035325CE2CF4F",1,"01990a98-703b-7003-880d-0def9b35ec96","01990a84-c4ee-73c2-a87b-ff46a7d3dde5","2025-09-02_08h24.26.845",NA,NA,781.186,781.186,781.186,781.673,NA,NA,NA,NA,NA,NA,NA,TRUE,5,0.788,778.275,781.185,NA,NA,NA,NA,NA,7,32,0,35,35,4,1,2,36,"likert"
"FD55FA578CB840E7AB8035325CE2CF4F",1,"01990a98-703b-7003-880d-0def9b35ec96","01990a84-c4ee-73c2-a87b-ff46a7d3dde5","2025-09-02_08h24.26.845",NA,NA,784.526,784.526,784.526,785.005,NA,NA,NA,NA,NA,NA,NA,TRUE,5,0.978,781.675,784.525,NA,NA,NA,NA,NA,100,31,0,36,36,85,1,2,37,"likert"
"FD55FA578CB840E7AB8035325CE2CF4F",1,"01990a98-703b-7003-880d-0def9b35ec96","01990a84-c4ee-73c2-a87b-ff46a7d3dde5","2025-09-02_08h24.26.845",NA,NA,787.853,787.853,787.853,788.226,NA,NA,NA,NA,NA,NA,NA,TRUE,5,1.372,785.013,787.852,NA,NA,NA,NA,NA,60,47,0,37,37,70,1,2,38,"likert"
"FD55FA578CB840E7AB8035325CE2CF4F",1,"01990a98-703b-7003-880d-0def9b35ec96","01990a84-c4ee-73c2-a87b-ff46a7d3dde5","2025-09-02_08h24.26.845",NA,NA,791.338,791.338,791.338,791.667,NA,NA,NA,NA,NA,NA,NA,TRUE,5,0.766,788.227,791.338,NA,NA,NA,NA,NA,30,29,0,38,38,44,1,2,39,"likert"
"FD55FA578CB840E7AB8035325CE2CF4F",1,"01990a98-703b-7003-880d-0def9b35ec96","01990a84-c4ee-73c2-a87b-ff46a7d3dde5","2025-09-02_08h24.26.845",NA,NA,794.629,794.629,794.629,794.967,NA,NA,NA,NA,NA,NA,NA,TRUE,5,0.708,791.675,794.629,NA,NA,NA,NA,NA,90,33,0,39,39,74,1,2,40,"likert"
"FD55FA578CB840E7AB8035325CE2CF4F",1,"01990a98-703b-7003-880d-0def9b35ec96","01990a84-c4ee-73c2-a87b-ff46a7d3dde5","2025-09-02_08h24.26.845",NA,NA,798.079,798.079,798.079,798.429,NA,NA,NA,NA,NA,NA,NA,TRUE,5,0.979,794.968,798.079,NA,NA,NA,NA,NA,45,26,0,40,40,54,1,2,41,"likert"
"FD55FA578CB840E7AB8035325CE2CF4F",1,"01990a98-703b-7003-880d-0def9b35ec96","01990a84-c4ee-73c2-a87b-ff46a7d3dde5","2025-09-02_08h24.26.845",NA,NA,801.392,801.392,801.392,801.769,NA,NA,NA,NA,NA,NA,NA,TRUE,5,1.484,798.438,801.392,NA,NA,NA,NA,NA,12,35,0,41,41,17,1,2,42,"likert"
"FD55FA578CB840E7AB8035325CE2CF4F",1,"01990a98-703b-7003-880d-0def9b35ec96","01990a84-c4ee-73c2-a87b-ff46a7d3dde5","2025-09-02_08h24.26.845",NA,NA,804.659,804.659,804.66,804.985,NA,NA,NA,NA,NA,NA,NA,TRUE,5,0.988,801.771,804.659,NA,NA,NA,NA,NA,90,46,0,42,42,76,1,2,43,"likert"
"FD55FA578CB840E7AB8035325CE2CF4F",1,"01990a98-703b-7003-880d-0def9b35ec96","01990a84-c4ee-73c2-a87b-ff46a7d3dde5","2025-09-02_08h24.26.845",NA,NA,807.982,807.982,807.982,808.328,NA,NA,NA,NA,NA,NA,NA,TRUE,5,0.816,804.993,807.982,NA,NA,NA,NA,NA,40,54,0,43,43,53,1,2,44,"likert"
"FD55FA578CB840E7AB8035325CE2CF4F",1,"01990a98-703b-7003-880d-0def9b35ec96","01990a84-c4ee-73c2-a87b-ff46a7d3dde5","2025-09-02_08h24.26.845",NA,NA,811.468,811.468,811.468,811.798,NA,NA,NA,NA,NA,NA,NA,TRUE,5,0.727,808.329,811.468,NA,NA,NA,NA,NA,25,31,0,44,44,32,1,2,45,"likert"
"FD55FA578CB840E7AB8035325CE2CF4F",1,"01990a98-703b-7003-880d-0def9b35ec96","01990a84-c4ee-73c2-a87b-ff46a7d3dde5","2025-09-02_08h24.26.845",NA,NA,814.653,814.653,814.653,815.152,NA,NA,NA,NA,NA,NA,NA,TRUE,5,0.175,811.799,814.653,NA,NA,NA,NA,NA,7,30,0,45,45,3,1,2,46,"likert"
"FD55FA578CB840E7AB8035325CE2CF4F",1,"01990a98-703b-7003-880d-0def9b35ec96","01990a84-c4ee-73c2-a87b-ff46a7d3dde5","2025-09-02_08h24.26.845",NA,NA,818.114,818.114,818.114,818.465,NA,NA,NA,NA,NA,NA,NA,TRUE,5,2.675,815.159,818.113,NA,NA,NA,NA,NA,30,27,0,46,46,43,1,2,47,"likert"
"FD55FA578CB840E7AB8035325CE2CF4F",1,"01990a98-703b-7003-880d-0def9b35ec96","01990a84-c4ee-73c2-a87b-ff46a7d3dde5","2025-09-02_08h24.26.845",NA,NA,821.502,821.502,821.502,821.817,NA,NA,NA,NA,NA,NA,NA,TRUE,5,0.787,818.466,821.502,NA,NA,NA,NA,NA,50,40,0,47,47,63,1,2,48,"likert"
"FD55FA578CB840E7AB8035325CE2CF4F",1,"01990a98-703b-7003-880d-0def9b35ec96","01990a84-c4ee-73c2-a87b-ff46a7d3dde5","2025-09-02_08h24.26.845",NA,NA,824.777,824.777,824.777,825.132,NA,NA,NA,NA,NA,NA,NA,TRUE,5,0.836,821.826,824.776,NA,NA,NA,NA,NA,21,29,0,48,48,26,1,2,49,"likert"
"FD55FA578CB840E7AB8035325CE2CF4F",1,"01990a98-703b-7003-880d-0def9b35ec96","01990a84-c4ee-73c2-a87b-ff46a7d3dde5","2025-09-02_08h24.26.845",NA,NA,828.097,828.097,828.097,828.56,NA,NA,NA,NA,NA,NA,NA,TRUE,5,0.395,825.134,828.096,NA,NA,NA,NA,NA,200,26,0,49,49,102,1,2,50,"likert"
"FD55FA578CB840E7AB8035325CE2CF4F",1,"01990a98-703b-7003-880d-0def9b35ec96","01990a84-c4ee-73c2-a87b-ff46a7d3dde5","2025-09-02_08h24.26.845",NA,NA,831.401,831.401,831.401,831.912,NA,NA,NA,NA,NA,NA,NA,TRUE,5,0.544,828.567,831.401,NA,NA,NA,NA,NA,7,26,0,50,50,1,1,2,51,"likert"
"FD55FA578CB840E7AB8035325CE2CF4F",1,"01990a98-703b-7003-880d-0def9b35ec96","01990a84-c4ee-73c2-a87b-ff46a7d3dde5","2025-09-02_08h24.26.845",NA,NA,834.791,834.791,834.791,835.265,NA,NA,NA,NA,NA,NA,NA,TRUE,5,0.393,831.913,834.791,NA,NA,NA,NA,NA,21,32,0,51,51,28,1,2,52,"likert"
"FD55FA578CB840E7AB8035325CE2CF4F",1,"01990a98-703b-7003-880d-0def9b35ec96","01990a84-c4ee-73c2-a87b-ff46a7d3dde5","2025-09-02_08h24.26.845",NA,NA,838.135,838.135,838.135,838.495,NA,NA,NA,NA,NA,NA,NA,TRUE,5,1.087,835.274,838.134,NA,NA,NA,NA,NA,50,30,0,52,52,61,1,2,53,"likert"
"FD55FA578CB840E7AB8035325CE2CF4F",1,"01990a98-703b-7003-880d-0def9b35ec96","01990a84-c4ee-73c2-a87b-ff46a7d3dde5","2025-09-02_08h24.26.845",NA,NA,841.526,841.526,841.526,841.851,NA,NA,NA,NA,NA,NA,NA,TRUE,5,0.846,838.497,841.526,NA,NA,NA,NA,NA,14,26,0,53,53,19,1,2,54,"likert"
"FD55FA578CB840E7AB8035325CE2CF4F",1,"01990a98-703b-7003-880d-0def9b35ec96","01990a84-c4ee-73c2-a87b-ff46a7d3dde5","2025-09-02_08h24.26.845",NA,NA,844.955,844.955,844.955,845.303,NA,NA,NA,NA,NA,NA,NA,TRUE,5,0.586,841.852,844.954,NA,NA,NA,NA,NA,25,35,0,54,54,34,1,2,55,"likert"
"FD55FA578CB840E7AB8035325CE2CF4F",1,"01990a98-703b-7003-880d-0def9b35ec96","01990a84-c4ee-73c2-a87b-ff46a7d3dde5","2025-09-02_08h24.26.845",NA,NA,848.198,848.198,848.198,848.689,NA,NA,NA,NA,NA,NA,NA,TRUE,5,0.59,845.312,848.198,NA,NA,NA,NA,NA,30,26,0,55,55,42,1,2,56,"likert"
"FD55FA578CB840E7AB8035325CE2CF4F",1,"01990a98-703b-7003-880d-0def9b35ec96","01990a84-c4ee-73c2-a87b-ff46a7d3dde5","2025-09-02_08h24.26.845",NA,NA,851.492,851.492,851.492,852.005,NA,NA,NA,NA,NA,NA,NA,TRUE,5,0.591,848.69,851.491,NA,NA,NA,NA,NA,150,35,0,56,56,92,1,2,57,"likert"
"FD55FA578CB840E7AB8035325CE2CF4F",1,"01990a98-703b-7003-880d-0def9b35ec96","01990a84-c4ee-73c2-a87b-ff46a7d3dde5","2025-09-02_08h24.26.845",NA,NA,854.917,854.917,854.917,855.227,NA,NA,NA,NA,NA,NA,NA,TRUE,5,0.921,852.013,854.917,NA,NA,NA,NA,NA,40,33,0,57,57,49,1,2,58,"likert"
"FD55FA578CB840E7AB8035325CE2CF4F",1,"01990a98-703b-7003-880d-0def9b35ec96","01990a84-c4ee-73c2-a87b-ff46a7d3dde5","2025-09-02_08h24.26.845",NA,NA,858.304,858.304,858.304,858.624,NA,NA,NA,NA,NA,NA,NA,TRUE,5,0.58,855.228,858.304,NA,NA,NA,NA,NA,180,39,0,58,58,99,1,2,59,"likert"
"FD55FA578CB840E7AB8035325CE2CF4F",1,"01990a98-703b-7003-880d-0def9b35ec96","01990a84-c4ee-73c2-a87b-ff46a7d3dde5","2025-09-02_08h24.26.845",NA,NA,861.66,861.66,861.66,861.999,NA,NA,NA,NA,NA,NA,NA,TRUE,5,2.718,858.632,861.66,NA,NA,NA,NA,NA,150,54,0,59,59,95,1,2,60,"likert"
"FD55FA578CB840E7AB8035325CE2CF4F",1,"01990a98-703b-7003-880d-0def9b35ec96","01990a84-c4ee-73c2-a87b-ff46a7d3dde5","2025-09-02_08h24.26.845",NA,NA,865.022,865.022,865.022,865.336,NA,NA,NA,NA,NA,NA,NA,TRUE,5,0.768,862.001,865.021,NA,NA,NA,NA,NA,60,29,0,60,60,66,1,2,61,"likert"
"FD55FA578CB840E7AB8035325CE2CF4F",1,"01990a98-703b-7003-880d-0def9b35ec96","01990a84-c4ee-73c2-a87b-ff46a7d3dde5","2025-09-02_08h24.26.845",NA,NA,868.279,868.279,868.279,868.791,NA,NA,NA,NA,NA,NA,NA,TRUE,5,1.835,865.344,868.279,NA,NA,NA,NA,NA,45,40,0,61,61,58,1,2,62,"likert"
"FD55FA578CB840E7AB8035325CE2CF4F",1,"01990a98-703b-7003-880d-0def9b35ec96","01990a84-c4ee-73c2-a87b-ff46a7d3dde5","2025-09-02_08h24.26.845",NA,NA,871.656,871.656,871.656,872.011,NA,NA,NA,NA,NA,NA,NA,TRUE,5,0.787,868.793,871.655,NA,NA,NA,NA,NA,90,40,0,62,62,75,1,2,63,"likert"
"FD55FA578CB840E7AB8035325CE2CF4F",1,"01990a98-703b-7003-880d-0def9b35ec96","01990a84-c4ee-73c2-a87b-ff46a7d3dde5","2025-09-02_08h24.26.845",NA,NA,874.961,874.961,874.961,875.351,NA,NA,NA,NA,NA,NA,NA,TRUE,5,0.612,872.019,874.961,NA,NA,NA,NA,NA,90,54,0,63,63,77,1,2,64,"likert"
"FD55FA578CB840E7AB8035325CE2CF4F",1,"01990a98-703b-7003-880d-0def9b35ec96","01990a84-c4ee-73c2-a87b-ff46a7d3dde5","2025-09-02_08h24.26.845",NA,NA,878.317,878.318,878.318,878.719,NA,NA,NA,NA,NA,NA,NA,TRUE,5,0.448,875.353,878.317,NA,NA,NA,NA,NA,180,46,0,64,64,100,1,2,65,"likert"
"FD55FA578CB840E7AB8035325CE2CF4F",1,"01990a98-703b-7003-880d-0def9b35ec96","01990a84-c4ee-73c2-a87b-ff46a7d3dde5","2025-09-02_08h24.26.845",NA,NA,881.839,881.84,881.84,882.181,NA,NA,NA,NA,NA,NA,NA,TRUE,5,0.404,878.721,881.839,NA,NA,NA,NA,NA,200,54,0,65,65,107,1,2,66,"likert"
"FD55FA578CB840E7AB8035325CE2CF4F",1,"01990a98-703b-7003-880d-0def9b35ec96","01990a84-c4ee-73c2-a87b-ff46a7d3dde5","2025-09-02_08h24.26.845",NA,NA,885.024,885.024,885.024,885.528,NA,NA,NA,NA,NA,NA,NA,TRUE,5,0.185,882.191,885.023,NA,NA,NA,NA,NA,90,26,0,66,66,72,1,2,67,"likert"
"FD55FA578CB840E7AB8035325CE2CF4F",1,"01990a98-703b-7003-880d-0def9b35ec96","01990a84-c4ee-73c2-a87b-ff46a7d3dde5","2025-09-02_08h24.26.845",NA,NA,888.502,888.503,888.503,888.836,NA,NA,NA,NA,NA,NA,NA,TRUE,5,0.619,885.53,888.502,NA,NA,NA,NA,NA,21,30,0,67,67,27,1,2,68,"likert"
"FD55FA578CB840E7AB8035325CE2CF4F",1,"01990a98-703b-7003-880d-0def9b35ec96","01990a84-c4ee-73c2-a87b-ff46a7d3dde5","2025-09-02_08h24.26.845",NA,NA,891.849,891.849,891.849,892.17,NA,NA,NA,NA,NA,NA,NA,TRUE,5,1.177,888.844,891.849,NA,NA,NA,NA,NA,12,33,0,68,68,16,1,2,69,"likert"
"FD55FA578CB840E7AB8035325CE2CF4F",1,"01990a98-703b-7003-880d-0def9b35ec96","01990a84-c4ee-73c2-a87b-ff46a7d3dde5","2025-09-02_08h24.26.845",NA,NA,895.094,895.094,895.094,895.43,NA,NA,NA,NA,NA,NA,NA,TRUE,5,1.083,892.178,895.093,NA,NA,NA,NA,NA,14,25,0,69,69,18,1,2,70,"likert"
"FD55FA578CB840E7AB8035325CE2CF4F",1,"01990a98-703b-7003-880d-0def9b35ec96","01990a84-c4ee-73c2-a87b-ff46a7d3dde5","2025-09-02_08h24.26.845",NA,NA,898.523,898.523,898.523,898.863,NA,NA,NA,NA,NA,NA,NA,TRUE,5,1.31,895.431,898.523,NA,NA,NA,NA,NA,45,35,0,70,70,57,1,2,71,"likert"
"FD55FA578CB840E7AB8035325CE2CF4F",1,"01990a98-703b-7003-880d-0def9b35ec96","01990a84-c4ee-73c2-a87b-ff46a7d3dde5","2025-09-02_08h24.26.845",NA,NA,901.802,901.802,901.802,902.276,NA,NA,NA,NA,NA,NA,NA,TRUE,5,0.802,898.865,901.801,NA,NA,NA,NA,NA,45,46,0,71,71,59,1,2,72,"likert"
"FD55FA578CB840E7AB8035325CE2CF4F",1,"01990a98-703b-7003-880d-0def9b35ec96","01990a84-c4ee-73c2-a87b-ff46a7d3dde5","2025-09-02_08h24.26.845",NA,NA,905.207,905.207,905.207,905.559,NA,NA,NA,NA,NA,NA,NA,TRUE,5,1.316,902.284,905.207,NA,NA,NA,NA,NA,30,30,0,72,72,45,1,2,73,"likert"
"FD55FA578CB840E7AB8035325CE2CF4F",1,"01990a98-703b-7003-880d-0def9b35ec96","01990a84-c4ee-73c2-a87b-ff46a7d3dde5","2025-09-02_08h24.26.845",NA,NA,908.455,908.455,908.455,908.956,NA,NA,NA,NA,NA,NA,NA,TRUE,5,0.746,905.56,908.454,NA,NA,NA,NA,NA,180,35,0,73,73,98,1,2,74,"likert"
"FD55FA578CB840E7AB8035325CE2CF4F",1,"01990a98-703b-7003-880d-0def9b35ec96","01990a84-c4ee-73c2-a87b-ff46a7d3dde5","2025-09-02_08h24.26.845",NA,NA,911.923,911.923,911.923,912.246,NA,NA,NA,NA,NA,NA,NA,TRUE,5,0.933,908.965,911.922,NA,NA,NA,NA,NA,180,27,0,74,74,96,1,2,75,"likert"
"FD55FA578CB840E7AB8035325CE2CF4F",1,"01990a98-703b-7003-880d-0def9b35ec96","01990a84-c4ee-73c2-a87b-ff46a7d3dde5","2025-09-02_08h24.26.845",NA,NA,915.167,915.167,915.167,915.632,NA,NA,NA,NA,NA,NA,NA,TRUE,5,0.749,912.248,915.167,NA,NA,NA,NA,NA,200,39,0,75,75,105,1,2,76,"likert"
"FD55FA578CB840E7AB8035325CE2CF4F",1,"01990a98-703b-7003-880d-0def9b35ec96","01990a84-c4ee-73c2-a87b-ff46a7d3dde5","2025-09-02_08h24.26.845",NA,NA,918.543,918.543,918.543,919.024,NA,NA,NA,NA,NA,NA,NA,TRUE,5,0.736,915.64,918.542,NA,NA,NA,NA,NA,90,30,0,76,76,73,1,2,77,"likert"
"FD55FA578CB840E7AB8035325CE2CF4F",1,"01990a98-703b-7003-880d-0def9b35ec96","01990a84-c4ee-73c2-a87b-ff46a7d3dde5","2025-09-02_08h24.26.845",NA,NA,921.896,921.896,921.896,922.238,NA,NA,NA,NA,NA,NA,NA,TRUE,5,0.935,919.025,921.895,NA,NA,NA,NA,NA,100,46,0,77,77,88,1,2,78,"likert"
"FD55FA578CB840E7AB8035325CE2CF4F",1,"01990a98-703b-7003-880d-0def9b35ec96","01990a84-c4ee-73c2-a87b-ff46a7d3dde5","2025-09-02_08h24.26.845",NA,NA,925.283,925.283,925.283,925.597,NA,NA,NA,NA,NA,NA,NA,TRUE,5,0.008,922.245,925.283,NA,NA,NA,NA,NA,30,32,0,78,78,46,1,2,79,"likert"
"FD55FA578CB840E7AB8035325CE2CF4F",1,"01990a98-703b-7003-880d-0def9b35ec96","01990a84-c4ee-73c2-a87b-ff46a7d3dde5","2025-09-02_08h24.26.845",NA,NA,928.597,928.597,928.597,929.084,NA,NA,NA,NA,NA,NA,NA,TRUE,5,0.388,925.598,928.597,NA,NA,NA,NA,NA,10,26,0,79,79,7,1,2,80,"likert"
"FD55FA578CB840E7AB8035325CE2CF4F",1,"01990a98-703b-7003-880d-0def9b35ec96","01990a84-c4ee-73c2-a87b-ff46a7d3dde5","2025-09-02_08h24.26.845",NA,NA,931.991,931.991,931.991,932.333,NA,NA,NA,NA,NA,NA,NA,TRUE,5,0.625,929.092,931.99,NA,NA,NA,NA,NA,95,47,0,80,80,82,1,2,81,"likert"
"FD55FA578CB840E7AB8035325CE2CF4F",1,"01990a98-703b-7003-880d-0def9b35ec96","01990a84-c4ee-73c2-a87b-ff46a7d3dde5","2025-09-02_08h24.26.845",NA,NA,935.278,935.278,935.278,935.739,NA,NA,NA,NA,NA,NA,NA,TRUE,5,0.619,932.335,935.277,NA,NA,NA,NA,NA,40,47,0,81,81,52,1,2,82,"likert"
"FD55FA578CB840E7AB8035325CE2CF4F",1,"01990a98-703b-7003-880d-0def9b35ec96","01990a84-c4ee-73c2-a87b-ff46a7d3dde5","2025-09-02_08h24.26.845",NA,NA,938.786,938.786,938.786,939.005,NA,NA,NA,NA,NA,NA,NA,TRUE,5,0.009,935.741,938.786,NA,NA,NA,NA,NA,25,27,0,82,82,30,1,2,83,"likert"
"FD55FA578CB840E7AB8035325CE2CF4F",1,"01990a98-703b-7003-880d-0def9b35ec96","01990a84-c4ee-73c2-a87b-ff46a7d3dde5","2025-09-02_08h24.26.845",NA,NA,942.017,942.017,942.017,942.428,NA,NA,NA,NA,NA,NA,NA,TRUE,5,1.433,939.016,942.017,NA,NA,NA,NA,NA,21,38,0,83,83,29,1,2,84,"likert"
"FD55FA578CB840E7AB8035325CE2CF4F",1,"01990a98-703b-7003-880d-0def9b35ec96","01990a84-c4ee-73c2-a87b-ff46a7d3dde5","2025-09-02_08h24.26.845",NA,NA,945.273,945.273,945.273,945.767,NA,NA,NA,NA,NA,NA,NA,TRUE,5,0.598,942.43,945.272,NA,NA,NA,NA,NA,21,26,0,84,84,24,1,2,85,"likert"
"FD55FA578CB840E7AB8035325CE2CF4F",1,"01990a98-703b-7003-880d-0def9b35ec96","01990a84-c4ee-73c2-a87b-ff46a7d3dde5","2025-09-02_08h24.26.845",NA,NA,948.717,948.717,948.717,949.161,NA,NA,NA,NA,NA,NA,NA,TRUE,5,1.884,945.777,948.716,NA,NA,NA,NA,NA,100,38,0,85,85,86,1,2,86,"likert"
"FD55FA578CB840E7AB8035325CE2CF4F",1,"01990a98-703b-7003-880d-0def9b35ec96","01990a84-c4ee-73c2-a87b-ff46a7d3dde5","2025-09-02_08h24.26.845",NA,NA,952.001,952.001,952.001,952.527,NA,NA,NA,NA,NA,NA,NA,TRUE,5,0.789,949.163,952.001,NA,NA,NA,NA,NA,10,27,0,86,86,8,1,2,87,"likert"
"FD55FA578CB840E7AB8035325CE2CF4F",1,"01990a98-703b-7003-880d-0def9b35ec96","01990a84-c4ee-73c2-a87b-ff46a7d3dde5","2025-09-02_08h24.26.845",NA,NA,955.482,955.482,955.482,955.724,NA,NA,NA,NA,NA,NA,NA,TRUE,5,0.217,952.535,955.481,NA,NA,NA,NA,NA,150,40,0,87,87,93,1,2,88,"likert"
"FD55FA578CB840E7AB8035325CE2CF4F",1,"01990a98-703b-7003-880d-0def9b35ec96","01990a84-c4ee-73c2-a87b-ff46a7d3dde5","2025-09-02_08h24.26.845",NA,NA,958.7,958.7,958.7,959.174,NA,NA,NA,NA,NA,NA,NA,TRUE,5,2.763,955.725,958.699,NA,NA,NA,NA,NA,200,35,0,88,88,104,1,2,89,"likert"
"FD55FA578CB840E7AB8035325CE2CF4F",1,"01990a98-703b-7003-880d-0def9b35ec96","01990a84-c4ee-73c2-a87b-ff46a7d3dde5","2025-09-02_08h24.26.845",NA,NA,962.126,962.126,962.126,962.441,NA,NA,NA,NA,NA,NA,NA,TRUE,5,0.584,959.182,962.125,NA,NA,NA,NA,NA,10,25,0,89,89,6,1,2,90,"likert"
"FD55FA578CB840E7AB8035325CE2CF4F",1,"01990a98-703b-7003-880d-0def9b35ec96","01990a84-c4ee-73c2-a87b-ff46a7d3dde5","2025-09-02_08h24.26.845",NA,NA,965.536,965.536,965.536,965.867,NA,NA,NA,NA,NA,NA,NA,TRUE,5,0.767,962.442,965.536,NA,NA,NA,NA,NA,10,29,0,90,90,9,1,2,91,"likert"
"FD55FA578CB840E7AB8035325CE2CF4F",1,"01990a98-703b-7003-880d-0def9b35ec96","01990a84-c4ee-73c2-a87b-ff46a7d3dde5","2025-09-02_08h24.26.845",NA,NA,968.786,968.786,968.786,969.262,NA,NA,NA,NA,NA,NA,NA,TRUE,5,0.359,965.868,968.785,NA,NA,NA,NA,NA,7,35,0,91,91,5,1,2,92,"likert"
"FD55FA578CB840E7AB8035325CE2CF4F",1,"01990a98-703b-7003-880d-0def9b35ec96","01990a84-c4ee-73c2-a87b-ff46a7d3dde5","2025-09-02_08h24.26.845",NA,NA,972.159,972.159,972.159,972.487,NA,NA,NA,NA,NA,NA,NA,TRUE,5,1.246,969.27,972.159,NA,NA,NA,NA,NA,100,54,0,92,92,89,1,2,93,"likert"
"FD55FA578CB840E7AB8035325CE2CF4F",1,"01990a98-703b-7003-880d-0def9b35ec96","01990a84-c4ee-73c2-a87b-ff46a7d3dde5","2025-09-02_08h24.26.845",NA,NA,975.584,975.584,975.584,975.966,NA,NA,NA,NA,NA,NA,NA,TRUE,5,0.974,972.488,975.584,NA,NA,NA,NA,NA,28,35,0,93,93,39,1,2,94,"likert"
"FD55FA578CB840E7AB8035325CE2CF4F",1,"01990a98-703b-7003-880d-0def9b35ec96","01990a84-c4ee-73c2-a87b-ff46a7d3dde5","2025-09-02_08h24.26.845",NA,NA,978.922,978.922,978.922,979.307,NA,NA,NA,NA,NA,NA,NA,TRUE,5,0.825,975.976,978.922,NA,NA,NA,NA,NA,95,54,0,94,94,83,1,2,95,"likert"
"FD55FA578CB840E7AB8035325CE2CF4F",1,"01990a98-703b-7003-880d-0def9b35ec96","01990a84-c4ee-73c2-a87b-ff46a7d3dde5","2025-09-02_08h24.26.845",NA,NA,982.187,982.187,982.187,982.524,NA,NA,NA,NA,NA,NA,NA,TRUE,5,0.899,979.308,982.187,NA,NA,NA,NA,NA,14,35,0,95,95,22,1,2,96,"likert"
"FD55FA578CB840E7AB8035325CE2CF4F",1,"01990a98-703b-7003-880d-0def9b35ec96","01990a84-c4ee-73c2-a87b-ff46a7d3dde5","2025-09-02_08h24.26.845",NA,NA,985.584,985.584,985.584,985.913,NA,NA,NA,NA,NA,NA,NA,TRUE,5,0.76,982.525,985.583,NA,NA,NA,NA,NA,45,31,0,96,96,56,1,2,97,"likert"
"FD55FA578CB840E7AB8035325CE2CF4F",1,"01990a98-703b-7003-880d-0def9b35ec96","01990a84-c4ee-73c2-a87b-ff46a7d3dde5","2025-09-02_08h24.26.845",NA,NA,988.869,988.869,988.869,989.359,NA,NA,NA,NA,NA,NA,NA,TRUE,5,0.764,985.921,988.868,NA,NA,NA,NA,NA,150,31,0,97,97,90,1,2,98,"likert"
"FD55FA578CB840E7AB8035325CE2CF4F",1,"01990a98-703b-7003-880d-0def9b35ec96","01990a84-c4ee-73c2-a87b-ff46a7d3dde5","2025-09-02_08h24.26.845",NA,NA,992.309,992.309,992.309,992.785,NA,NA,NA,NA,NA,NA,NA,TRUE,5,0.947,989.36,992.308,NA,NA,NA,NA,NA,40,40,0,98,98,51,1,2,99,"likert"
"FD55FA578CB840E7AB8035325CE2CF4F",1,"01990a98-703b-7003-880d-0def9b35ec96","01990a84-c4ee-73c2-a87b-ff46a7d3dde5","2025-09-02_08h24.26.845",NA,NA,995.724,995.724,995.724,996.068,NA,NA,NA,NA,NA,NA,NA,TRUE,4,1.297,992.793,995.723,NA,NA,NA,NA,NA,180,31,0,99,99,97,1,2,100,"likert"
"FD55FA578CB840E7AB8035325CE2CF4F",1,"01990a98-703b-7003-880d-0def9b35ec96","01990a84-c4ee-73c2-a87b-ff46a7d3dde5","2025-09-02_08h24.26.845",NA,NA,998.931,998.931,998.931,999.432,NA,NA,NA,NA,NA,NA,NA,TRUE,4,2.109,996.07,998.93,NA,NA,NA,NA,NA,95,33,0,100,100,79,1,2,101,"likert"
"FD55FA578CB840E7AB8035325CE2CF4F",1,"01990a98-703b-7003-880d-0def9b35ec96","01990a84-c4ee-73c2-a87b-ff46a7d3dde5","2025-09-02_08h24.26.845",NA,NA,1002.32,1002.32,1002.32,1002.763,NA,NA,NA,NA,NA,NA,NA,TRUE,5,1.044,999.441,1002.32,NA,NA,NA,NA,NA,21,27,0,101,101,25,1,2,102,"likert"
"FD55FA578CB840E7AB8035325CE2CF4F",1,"01990a98-703b-7003-880d-0def9b35ec96","01990a84-c4ee-73c2-a87b-ff46a7d3dde5","2025-09-02_08h24.26.845",NA,NA,1005.646,1005.646,1005.646,1005.977,NA,NA,NA,NA,NA,NA,NA,TRUE,5,1.258,1002.765,1005.646,NA,NA,NA,NA,NA,45,29,0,102,102,55,1,2,103,"likert"
"FD55FA578CB840E7AB8035325CE2CF4F",1,"01990a98-703b-7003-880d-0def9b35ec96","01990a84-c4ee-73c2-a87b-ff46a7d3dde5","2025-09-02_08h24.26.845",NA,NA,1009.035,1009.035,1009.035,1009.359,NA,NA,NA,NA,NA,NA,NA,TRUE,5,0.937,1005.985,1009.034,NA,NA,NA,NA,NA,28,32,0,103,103,38,1,2,104,"likert"
"FD55FA578CB840E7AB8035325CE2CF4F",1,"01990a98-703b-7003-880d-0def9b35ec96","01990a84-c4ee-73c2-a87b-ff46a7d3dde5","2025-09-02_08h24.26.845",NA,NA,1012.295,1012.295,1012.295,1012.828,NA,NA,NA,NA,NA,NA,NA,TRUE,5,0.585,1009.36,1012.294,NA,NA,NA,NA,NA,50,27,0,104,104,60,1,2,105,"likert"
"FD55FA578CB840E7AB8035325CE2CF4F",1,"01990a98-703b-7003-880d-0def9b35ec96","01990a84-c4ee-73c2-a87b-ff46a7d3dde5","2025-09-02_08h24.26.845",NA,NA,1015.657,1015.657,1015.657,1016.133,NA,NA,NA,NA,NA,NA,NA,TRUE,5,0.591,1012.838,1015.657,NA,NA,NA,NA,NA,60,54,0,105,105,71,1,2,106,"likert"
"FD55FA578CB840E7AB8035325CE2CF4F",1,"01990a98-703b-7003-880d-0def9b35ec96","01990a84-c4ee-73c2-a87b-ff46a7d3dde5","2025-09-02_08h24.26.845",NA,NA,1019.092,1019.092,1019.092,1019.535,NA,NA,NA,NA,NA,NA,NA,TRUE,5,0.731,1016.134,1019.092,NA,NA,NA,NA,NA,28,26,0,106,106,36,1,2,107,"likert"
"FD55FA578CB840E7AB8035325CE2CF4F",1,"01990a98-703b-7003-880d-0def9b35ec96","01990a84-c4ee-73c2-a87b-ff46a7d3dde5","2025-09-02_08h24.26.845",NA,NA,1022.366,1022.366,1022.366,1022.864,NA,NA,NA,NA,NA,NA,NA,TRUE,5,0.531,1019.536,1022.366,NA,NA,NA,NA,NA,28,28,0,107,107,37,1,2,108,"likert"
