"participant","session","assignmentId","projectId","date","practiceTrial.started","practiceTrial.stopped","tooLate.started","tooLate.stopped","blank.started","blank.stopped","trials_pract.thisRepN","trials_pract.thisTrialN","trials_pract.thisN","trials_pract.thisIndex","trials_pract.ran","delay_pract","amount_pract","responseMade","key","rt","trial.started","trial.stopped","trials.thisRepN","trials.thisTrialN","trials.thisN","trials.thisIndex","trials.ran","delay","amount","trials_2.thisRepN","trials_2.thisTrialN","trials_2.thisN","trials_2.thisIndex","trials_2.ran","block","trial","taskType"
"FF0BAF21C46C4D9ABA513C417FFA195F",1,"0198f77d-33c2-7e99-9cea-f386c3ffce05","0198f768-e4d2-711c-944b-6f03c09216de","2025-08-29_16h21.33.393",28.1359,31.1111,31.1116,31.3606,31.3608,31.4609,0,0,0,4,1,30,40,FALSE,NA,NA,NA,NA,NA,NA,NA,NA,NA,NA,NA,NA,NA,NA,NA,NA,0,1,"likert"
"FF0BAF21C46C4D9ABA513C417FFA195F",1,"0198f77d-33c2-7e99-9cea-f386c3ffce05","0198f768-e4d2-711c-944b-6f03c09216de","2025-08-29_16h21.33.393",31.4625,34.4576,34.4576,34.7075,34.7076,34.8074,0,1,1,3,1,3,27,FALSE,NA,NA,NA,NA,NA,NA,NA,NA,NA,NA,NA,NA,NA,NA,NA,NA,0,2,"likert"
"FF0BAF21C46C4D9ABA513C417FFA195F",1,"0198f77d-33c2-7e99-9cea-f386c3ffce05","0198f768-e4d2-711c-944b-6f03c09216de","2025-08-29_16h21.33.393",34.809,37.8042,37.8043,37.8043,37.8043,38.1538,0,2,2,2,1,14,45,TRUE,5,0.9181,NA,NA,NA,NA,NA,NA,NA,NA,NA,NA,NA,NA,NA,NA,0,3,"likert"
"FF0BAF21C46C4D9ABA513C417FFA195F",1,"0198f77d-33c2-7e99-9cea-f386c3ffce05","0198f768-e4d2-711c-944b-6f03c09216de","2025-08-29_16h21.33.393",38.1547,41.1677,41.1679,41.1679,41.1679,41.5173,0,3,3,1,1,100,50,TRUE,5,1.0448,NA,NA,NA,NA,NA,NA,NA,NA,NA,NA,NA,NA,NA,NA,0,4,"likert"
"FF0BAF21C46C4D9ABA513C417FFA195F",1,"0198f77d-33c2-7e99-9cea-f386c3ffce05","0198f768-e4d2-711c-944b-6f03c09216de","2025-08-29_16h21.33.393",41.5182,44.5145,44.5146,44.5147,44.5147,44.8637,0,4,4,0,1,7,30,TRUE,1,2.217,NA,NA,NA,NA,NA,NA,NA,NA,NA,NA,NA,NA,NA,NA,0,5,"likert"
"FF0BAF21C46C4D9ABA513C417FFA195F",1,"0198f77d-33c2-7e99-9cea-f386c3ffce05","0198f768-e4d2-711c-944b-6f03c09216de","2025-08-29_16h21.33.393",NA,NA,67.8417,67.8417,67.8417,68.1905,NA,NA,NA,NA,NA,NA,NA,TRUE,1,1.3402,64.8575,67.8416,0,0,0,80,1,95,35,NA,NA,NA,NA,NA,1,1,"likert"
"FF0BAF21C46C4D9ABA513C417FFA195F",1,"0198f77d-33c2-7e99-9cea-f386c3ffce05","0198f768-e4d2-711c-944b-6f03c09216de","2025-08-29_16h21.33.393",NA,NA,71.1881,71.1881,71.1881,71.5374,NA,NA,NA,NA,NA,NA,NA,TRUE,1,1.3104,68.1916,71.188,0,1,1,83,1,95,54,NA,NA,NA,NA,NA,1,2,"likert"
"FF0BAF21C46C4D9ABA513C417FFA195F",1,"0198f77d-33c2-7e99-9cea-f386c3ffce05","0198f768-e4d2-711c-944b-6f03c09216de","2025-08-29_16h21.33.393",NA,NA,74.5344,74.5345,74.5345,74.8839,NA,NA,NA,NA,NA,NA,NA,TRUE,5,1.7678,71.5385,74.5343,0,2,2,4,1,7,32,NA,NA,NA,NA,NA,1,3,"likert"
"FF0BAF21C46C4D9ABA513C417FFA195F",1,"0198f77d-33c2-7e99-9cea-f386c3ffce05","0198f768-e4d2-711c-944b-6f03c09216de","2025-08-29_16h21.33.393",NA,NA,77.8982,77.8982,77.8982,78.2472,NA,NA,NA,NA,NA,NA,NA,TRUE,1,1.2661,74.8847,77.8979,0,3,3,74,1,90,33,NA,NA,NA,NA,NA,1,4,"likert"
"FF0BAF21C46C4D9ABA513C417FFA195F",1,"0198f77d-33c2-7e99-9cea-f386c3ffce05","0198f768-e4d2-711c-944b-6f03c09216de","2025-08-29_16h21.33.393",NA,NA,81.2447,81.2447,81.2447,81.5939,NA,NA,NA,NA,NA,NA,NA,TRUE,5,1.0303,78.248,81.2445,0,4,4,77,1,90,54,NA,NA,NA,NA,NA,1,5,"likert"
"FF0BAF21C46C4D9ABA513C417FFA195F",1,"0198f77d-33c2-7e99-9cea-f386c3ffce05","0198f768-e4d2-711c-944b-6f03c09216de","2025-08-29_16h21.33.393",NA,NA,84.591,84.5911,84.5911,84.9405,NA,NA,NA,NA,NA,NA,NA,TRUE,1,0.9982,81.5947,84.591,0,5,5,89,1,100,54,NA,NA,NA,NA,NA,1,6,"likert"
"FF0BAF21C46C4D9ABA513C417FFA195F",1,"0198f77d-33c2-7e99-9cea-f386c3ffce05","0198f768-e4d2-711c-944b-6f03c09216de","2025-08-29_16h21.33.393",NA,NA,87.9381,87.9381,87.9381,88.2872,NA,NA,NA,NA,NA,NA,NA,TRUE,1,1.5816,84.9414,87.9379,0,6,6,75,1,90,40,NA,NA,NA,NA,NA,1,7,"likert"
"FF0BAF21C46C4D9ABA513C417FFA195F",1,"0198f77d-33c2-7e99-9cea-f386c3ffce05","0198f768-e4d2-711c-944b-6f03c09216de","2025-08-29_16h21.33.393",NA,NA,91.2845,91.2846,91.2846,91.6339,NA,NA,NA,NA,NA,NA,NA,TRUE,1,0.88,88.2883,91.2844,0,7,7,93,1,150,40,NA,NA,NA,NA,NA,1,8,"likert"
"FF0BAF21C46C4D9ABA513C417FFA195F",1,"0198f77d-33c2-7e99-9cea-f386c3ffce05","0198f768-e4d2-711c-944b-6f03c09216de","2025-08-29_16h21.33.393",NA,NA,94.6478,94.6478,94.6478,94.9975,NA,NA,NA,NA,NA,NA,NA,TRUE,1,1.7894,91.6346,94.6477,0,8,8,62,1,50,35,NA,NA,NA,NA,NA,1,9,"likert"
"FF0BAF21C46C4D9ABA513C417FFA195F",1,"0198f77d-33c2-7e99-9cea-f386c3ffce05","0198f768-e4d2-711c-944b-6f03c09216de","2025-08-29_16h21.33.393",NA,NA,97.9947,97.9948,97.9948,98.3439,NA,NA,NA,NA,NA,NA,NA,TRUE,1,1.4149,94.9986,97.9946,0,9,9,63,1,50,40,NA,NA,NA,NA,NA,1,10,"likert"
"FF0BAF21C46C4D9ABA513C417FFA195F",1,"0198f77d-33c2-7e99-9cea-f386c3ffce05","0198f768-e4d2-711c-944b-6f03c09216de","2025-08-29_16h21.33.393",NA,NA,101.3413,101.3413,101.3413,101.6906,NA,NA,NA,NA,NA,NA,NA,TRUE,5,1.552,98.3449,101.3412,0,10,10,45,1,30,30,NA,NA,NA,NA,NA,1,11,"likert"
"FF0BAF21C46C4D9ABA513C417FFA195F",1,"0198f77d-33c2-7e99-9cea-f386c3ffce05","0198f768-e4d2-711c-944b-6f03c09216de","2025-08-29_16h21.33.393",NA,NA,104.6878,104.6878,104.6878,105.0372,NA,NA,NA,NA,NA,NA,NA,TRUE,1,1.1668,101.6917,104.6877,0,11,11,101,1,180,54,NA,NA,NA,NA,NA,1,12,"likert"
"FF0BAF21C46C4D9ABA513C417FFA195F",1,"0198f77d-33c2-7e99-9cea-f386c3ffce05","0198f768-e4d2-711c-944b-6f03c09216de","2025-08-29_16h21.33.393",NA,NA,108.0345,108.0345,108.0345,108.384,NA,NA,NA,NA,NA,NA,NA,TRUE,1,1.646,105.0381,108.0344,0,12,12,25,1,21,27,NA,NA,NA,NA,NA,1,13,"likert"
"FF0BAF21C46C4D9ABA513C417FFA195F",1,"0198f77d-33c2-7e99-9cea-f386c3ffce05","0198f768-e4d2-711c-944b-6f03c09216de","2025-08-29_16h21.33.393",NA,NA,111.3979,111.398,111.398,111.7474,NA,NA,NA,NA,NA,NA,NA,TRUE,5,0.7722,108.3848,111.3978,0,13,13,9,1,10,29,NA,NA,NA,NA,NA,1,14,"likert"
"FF0BAF21C46C4D9ABA513C417FFA195F",1,"0198f77d-33c2-7e99-9cea-f386c3ffce05","0198f768-e4d2-711c-944b-6f03c09216de","2025-08-29_16h21.33.393",NA,NA,114.7447,114.7447,114.7447,115.0939,NA,NA,NA,NA,NA,NA,NA,TRUE,1,1.9433,111.7485,114.7445,0,14,14,22,1,14,35,NA,NA,NA,NA,NA,1,15,"likert"
"FF0BAF21C46C4D9ABA513C417FFA195F",1,"0198f77d-33c2-7e99-9cea-f386c3ffce05","0198f768-e4d2-711c-944b-6f03c09216de","2025-08-29_16h21.33.393",NA,NA,118.0917,118.0917,118.0917,118.4407,NA,NA,NA,NA,NA,NA,NA,TRUE,1,2.0931,115.0947,118.0914,0,15,15,51,1,40,40,NA,NA,NA,NA,NA,1,16,"likert"
"FF0BAF21C46C4D9ABA513C417FFA195F",1,"0198f77d-33c2-7e99-9cea-f386c3ffce05","0198f768-e4d2-711c-944b-6f03c09216de","2025-08-29_16h21.33.393",NA,NA,121.4379,121.4379,121.4379,121.7872,NA,NA,NA,NA,NA,NA,NA,TRUE,1,1.0111,118.4418,121.4378,0,16,16,103,1,200,28,NA,NA,NA,NA,NA,1,17,"likert"
"FF0BAF21C46C4D9ABA513C417FFA195F",1,"0198f77d-33c2-7e99-9cea-f386c3ffce05","0198f768-e4d2-711c-944b-6f03c09216de","2025-08-29_16h21.33.393",NA,NA,124.7849,124.7851,124.7851,125.134,NA,NA,NA,NA,NA,NA,NA,TRUE,1,1.6356,121.7883,124.7848,0,17,17,46,1,30,32,NA,NA,NA,NA,NA,1,18,"likert"
"FF0BAF21C46C4D9ABA513C417FFA195F",1,"0198f77d-33c2-7e99-9cea-f386c3ffce05","0198f768-e4d2-711c-944b-6f03c09216de","2025-08-29_16h21.33.393",NA,NA,128.1478,128.1479,128.1479,128.4975,NA,NA,NA,NA,NA,NA,NA,TRUE,1,1.4444,125.1347,128.1478,0,18,18,78,1,95,31,NA,NA,NA,NA,NA,1,19,"likert"
"FF0BAF21C46C4D9ABA513C417FFA195F",1,"0198f77d-33c2-7e99-9cea-f386c3ffce05","0198f768-e4d2-711c-944b-6f03c09216de","2025-08-29_16h21.33.393",NA,NA,131.4943,131.4943,131.4943,131.8439,NA,NA,NA,NA,NA,NA,NA,TRUE,1,0.9553,128.4984,131.4943,0,19,19,86,1,100,38,NA,NA,NA,NA,NA,1,20,"likert"
"FF0BAF21C46C4D9ABA513C417FFA195F",1,"0198f77d-33c2-7e99-9cea-f386c3ffce05","0198f768-e4d2-711c-944b-6f03c09216de","2025-08-29_16h21.33.393",NA,NA,134.8411,134.8411,134.8411,135.1909,NA,NA,NA,NA,NA,NA,NA,TRUE,1,1.2945,131.8447,134.841,0,20,20,21,1,14,32,NA,NA,NA,NA,NA,1,21,"likert"
"FF0BAF21C46C4D9ABA513C417FFA195F",1,"0198f77d-33c2-7e99-9cea-f386c3ffce05","0198f768-e4d2-711c-944b-6f03c09216de","2025-08-29_16h21.33.393",NA,NA,138.1878,138.1879,138.1879,138.5376,NA,NA,NA,NA,NA,NA,NA,TRUE,5,1.7986,135.1917,138.1878,0,21,21,15,1,12,31,NA,NA,NA,NA,NA,1,22,"likert"
"FF0BAF21C46C4D9ABA513C417FFA195F",1,"0198f77d-33c2-7e99-9cea-f386c3ffce05","0198f768-e4d2-711c-944b-6f03c09216de","2025-08-29_16h21.33.393",NA,NA,141.5345,141.5345,141.5345,141.8839,NA,NA,NA,NA,NA,NA,NA,TRUE,5,2.0861,138.539,141.5343,0,22,22,41,1,28,46,NA,NA,NA,NA,NA,1,23,"likert"
"FF0BAF21C46C4D9ABA513C417FFA195F",1,"0198f77d-33c2-7e99-9cea-f386c3ffce05","0198f768-e4d2-711c-944b-6f03c09216de","2025-08-29_16h21.33.393",NA,NA,144.898,144.8981,144.8981,145.2473,NA,NA,NA,NA,NA,NA,NA,TRUE,5,1.7147,141.8847,144.8978,0,23,23,34,1,25,35,NA,NA,NA,NA,NA,1,24,"likert"
"FF0BAF21C46C4D9ABA513C417FFA195F",1,"0198f77d-33c2-7e99-9cea-f386c3ffce05","0198f768-e4d2-711c-944b-6f03c09216de","2025-08-29_16h21.33.393",NA,NA,148.2443,148.2443,148.2443,148.5939,NA,NA,NA,NA,NA,NA,NA,TRUE,5,0.8289,145.2481,148.2442,0,24,24,1,1,7,26,NA,NA,NA,NA,NA,1,25,"likert"
"FF0BAF21C46C4D9ABA513C417FFA195F",1,"0198f77d-33c2-7e99-9cea-f386c3ffce05","0198f768-e4d2-711c-944b-6f03c09216de","2025-08-29_16h21.33.393",NA,NA,151.5911,151.5911,151.5911,151.9408,NA,NA,NA,NA,NA,NA,NA,TRUE,1,1.2642,148.5947,151.591,0,25,25,94,1,150,47,NA,NA,NA,NA,NA,1,26,"likert"
"FF0BAF21C46C4D9ABA513C417FFA195F",1,"0198f77d-33c2-7e99-9cea-f386c3ffce05","0198f768-e4d2-711c-944b-6f03c09216de","2025-08-29_16h21.33.393",NA,NA,154.938,154.938,154.938,155.2874,NA,NA,NA,NA,NA,NA,NA,TRUE,1,1.5479,151.9416,154.9379,0,26,26,70,1,60,47,NA,NA,NA,NA,NA,1,27,"likert"
"FF0BAF21C46C4D9ABA513C417FFA195F",1,"0198f77d-33c2-7e99-9cea-f386c3ffce05","0198f768-e4d2-711c-944b-6f03c09216de","2025-08-29_16h21.33.393",NA,NA,158.2844,158.2844,158.2844,158.6339,NA,NA,NA,NA,NA,NA,NA,TRUE,5,1.1644,155.2883,158.2843,0,27,27,84,1,100,26,NA,NA,NA,NA,NA,1,28,"likert"
"FF0BAF21C46C4D9ABA513C417FFA195F",1,"0198f77d-33c2-7e99-9cea-f386c3ffce05","0198f768-e4d2-711c-944b-6f03c09216de","2025-08-29_16h21.33.393",NA,NA,161.6477,161.6477,161.6478,161.9973,NA,NA,NA,NA,NA,NA,NA,TRUE,5,1.0724,158.6347,161.6476,0,28,28,17,1,12,35,NA,NA,NA,NA,NA,1,29,"likert"
"FF0BAF21C46C4D9ABA513C417FFA195F",1,"0198f77d-33c2-7e99-9cea-f386c3ffce05","0198f768-e4d2-711c-944b-6f03c09216de","2025-08-29_16h21.33.393",NA,NA,164.9944,164.9944,164.9944,165.3439,NA,NA,NA,NA,NA,NA,NA,TRUE,1,0.9611,161.9981,164.9943,0,29,29,67,1,60,33,NA,NA,NA,NA,NA,1,30,"likert"
"FF0BAF21C46C4D9ABA513C417FFA195F",1,"0198f77d-33c2-7e99-9cea-f386c3ffce05","0198f768-e4d2-711c-944b-6f03c09216de","2025-08-29_16h21.33.393",NA,NA,168.3413,168.3413,168.3414,168.6907,NA,NA,NA,NA,NA,NA,NA,TRUE,5,0.6957,165.3446,168.3412,0,30,30,14,1,12,28,NA,NA,NA,NA,NA,1,31,"likert"
"FF0BAF21C46C4D9ABA513C417FFA195F",1,"0198f77d-33c2-7e99-9cea-f386c3ffce05","0198f768-e4d2-711c-944b-6f03c09216de","2025-08-29_16h21.33.393",NA,NA,171.688,171.688,171.688,172.0374,NA,NA,NA,NA,NA,NA,NA,TRUE,1,1.2951,168.6918,171.6879,0,31,31,38,1,28,32,NA,NA,NA,NA,NA,1,32,"likert"
"FF0BAF21C46C4D9ABA513C417FFA195F",1,"0198f77d-33c2-7e99-9cea-f386c3ffce05","0198f768-e4d2-711c-944b-6f03c09216de","2025-08-29_16h21.33.393",NA,NA,175.0344,175.0344,175.0344,175.384,NA,NA,NA,NA,NA,NA,NA,TRUE,1,1.4466,172.0386,175.0343,0,32,32,40,1,28,39,NA,NA,NA,NA,NA,1,33,"likert"
"FF0BAF21C46C4D9ABA513C417FFA195F",1,"0198f77d-33c2-7e99-9cea-f386c3ffce05","0198f768-e4d2-711c-944b-6f03c09216de","2025-08-29_16h21.33.393",NA,NA,178.3977,178.3977,178.3977,178.7472,NA,NA,NA,NA,NA,NA,NA,TRUE,1,1.3724,175.3847,178.3976,0,33,33,79,1,95,33,NA,NA,NA,NA,NA,1,34,"likert"
"FF0BAF21C46C4D9ABA513C417FFA195F",1,"0198f77d-33c2-7e99-9cea-f386c3ffce05","0198f768-e4d2-711c-944b-6f03c09216de","2025-08-29_16h21.33.393",NA,NA,181.7445,181.7445,181.7445,182.0939,NA,NA,NA,NA,NA,NA,NA,TRUE,5,1.1809,178.7484,181.7444,0,34,34,10,1,10,30,NA,NA,NA,NA,NA,1,35,"likert"
"FF0BAF21C46C4D9ABA513C417FFA195F",1,"0198f77d-33c2-7e99-9cea-f386c3ffce05","0198f768-e4d2-711c-944b-6f03c09216de","2025-08-29_16h21.33.393",NA,NA,185.0912,185.0912,185.0912,185.4406,NA,NA,NA,NA,NA,NA,NA,TRUE,1,0.7528,182.0947,185.0911,0,35,35,107,1,200,54,NA,NA,NA,NA,NA,1,36,"likert"
"FF0BAF21C46C4D9ABA513C417FFA195F",1,"0198f77d-33c2-7e99-9cea-f386c3ffce05","0198f768-e4d2-711c-944b-6f03c09216de","2025-08-29_16h21.33.393",NA,NA,188.438,188.4381,188.4381,188.7875,NA,NA,NA,NA,NA,NA,NA,TRUE,5,1.0791,185.4414,188.4379,0,36,36,16,1,12,33,NA,NA,NA,NA,NA,1,37,"likert"
"FF0BAF21C46C4D9ABA513C417FFA195F",1,"0198f77d-33c2-7e99-9cea-f386c3ffce05","0198f768-e4d2-711c-944b-6f03c09216de","2025-08-29_16h21.33.393",NA,NA,191.7845,191.7846,191.7846,192.1339,NA,NA,NA,NA,NA,NA,NA,TRUE,1,0.6797,188.7886,191.7844,0,37,37,92,1,150,35,NA,NA,NA,NA,NA,1,38,"likert"
"FF0BAF21C46C4D9ABA513C417FFA195F",1,"0198f77d-33c2-7e99-9cea-f386c3ffce05","0198f768-e4d2-711c-944b-6f03c09216de","2025-08-29_16h21.33.393",NA,NA,195.148,195.148,195.1481,195.4974,NA,NA,NA,NA,NA,NA,NA,TRUE,1,0.5212,192.1348,195.1478,0,38,38,82,1,95,47,NA,NA,NA,NA,NA,1,39,"likert"
"FF0BAF21C46C4D9ABA513C417FFA195F",1,"0198f77d-33c2-7e99-9cea-f386c3ffce05","0198f768-e4d2-711c-944b-6f03c09216de","2025-08-29_16h21.33.393",NA,NA,198.4944,198.4944,198.4944,198.8439,NA,NA,NA,NA,NA,NA,NA,TRUE,1,0.6945,195.4984,198.4943,0,39,39,60,1,50,27,NA,NA,NA,NA,NA,1,40,"likert"
"FF0BAF21C46C4D9ABA513C417FFA195F",1,"0198f77d-33c2-7e99-9cea-f386c3ffce05","0198f768-e4d2-711c-944b-6f03c09216de","2025-08-29_16h21.33.393",NA,NA,201.841,201.8411,201.8411,202.1907,NA,NA,NA,NA,NA,NA,NA,TRUE,1,0.6568,198.8446,201.841,0,40,40,95,1,150,54,NA,NA,NA,NA,NA,1,41,"likert"
"FF0BAF21C46C4D9ABA513C417FFA195F",1,"0198f77d-33c2-7e99-9cea-f386c3ffce05","0198f768-e4d2-711c-944b-6f03c09216de","2025-08-29_16h21.33.393",NA,NA,205.1883,205.1883,205.1883,205.5374,NA,NA,NA,NA,NA,NA,NA,TRUE,1,1.7789,202.1914,205.1882,0,41,41,58,1,45,40,NA,NA,NA,NA,NA,1,42,"likert"
"FF0BAF21C46C4D9ABA513C417FFA195F",1,"0198f77d-33c2-7e99-9cea-f386c3ffce05","0198f768-e4d2-711c-944b-6f03c09216de","2025-08-29_16h21.33.393",NA,NA,208.5343,208.5344,208.5344,208.8839,NA,NA,NA,NA,NA,NA,NA,TRUE,1,0.9481,205.5386,208.5343,0,42,42,106,1,200,47,NA,NA,NA,NA,NA,1,43,"likert"
"FF0BAF21C46C4D9ABA513C417FFA195F",1,"0198f77d-33c2-7e99-9cea-f386c3ffce05","0198f768-e4d2-711c-944b-6f03c09216de","2025-08-29_16h21.33.393",NA,NA,211.898,211.8981,211.8981,212.2474,NA,NA,NA,NA,NA,NA,NA,TRUE,1,1.6614,208.8846,211.8979,0,43,43,47,1,30,38,NA,NA,NA,NA,NA,1,44,"likert"
"FF0BAF21C46C4D9ABA513C417FFA195F",1,"0198f77d-33c2-7e99-9cea-f386c3ffce05","0198f768-e4d2-711c-944b-6f03c09216de","2025-08-29_16h21.33.393",NA,NA,215.2445,215.2445,215.2445,215.5939,NA,NA,NA,NA,NA,NA,NA,TRUE,1,0.8683,212.2485,215.2443,0,44,44,102,1,200,26,NA,NA,NA,NA,NA,1,45,"likert"
"FF0BAF21C46C4D9ABA513C417FFA195F",1,"0198f77d-33c2-7e99-9cea-f386c3ffce05","0198f768-e4d2-711c-944b-6f03c09216de","2025-08-29_16h21.33.393",NA,NA,218.5912,218.5912,218.5912,218.9408,NA,NA,NA,NA,NA,NA,NA,TRUE,1,0.8881,215.5946,218.5911,0,45,45,50,1,40,35,NA,NA,NA,NA,NA,1,46,"likert"
"FF0BAF21C46C4D9ABA513C417FFA195F",1,"0198f77d-33c2-7e99-9cea-f386c3ffce05","0198f768-e4d2-711c-944b-6f03c09216de","2025-08-29_16h21.33.393",NA,NA,221.9377,221.9377,221.9377,222.2874,NA,NA,NA,NA,NA,NA,NA,TRUE,5,1.2379,218.9417,221.9377,0,46,46,7,1,10,26,NA,NA,NA,NA,NA,1,47,"likert"
"FF0BAF21C46C4D9ABA513C417FFA195F",1,"0198f77d-33c2-7e99-9cea-f386c3ffce05","0198f768-e4d2-711c-944b-6f03c09216de","2025-08-29_16h21.33.393",NA,NA,225.2844,225.2844,225.2844,225.6339,NA,NA,NA,NA,NA,NA,NA,TRUE,1,0.9125,222.2885,225.2843,0,47,47,73,1,90,30,NA,NA,NA,NA,NA,1,48,"likert"
"FF0BAF21C46C4D9ABA513C417FFA195F",1,"0198f77d-33c2-7e99-9cea-f386c3ffce05","0198f768-e4d2-711c-944b-6f03c09216de","2025-08-29_16h21.33.393",NA,NA,228.648,228.6481,228.6481,228.9975,NA,NA,NA,NA,NA,NA,NA,TRUE,1,1.0196,225.6347,228.6478,0,48,48,28,1,21,32,NA,NA,NA,NA,NA,1,49,"likert"
"FF0BAF21C46C4D9ABA513C417FFA195F",1,"0198f77d-33c2-7e99-9cea-f386c3ffce05","0198f768-e4d2-711c-944b-6f03c09216de","2025-08-29_16h21.33.393",NA,NA,231.9944,231.9944,231.9944,232.3439,NA,NA,NA,NA,NA,NA,NA,TRUE,1,1.16,228.9985,231.9942,0,49,49,37,1,28,28,NA,NA,NA,NA,NA,1,50,"likert"
"FF0BAF21C46C4D9ABA513C417FFA195F",1,"0198f77d-33c2-7e99-9cea-f386c3ffce05","0198f768-e4d2-711c-944b-6f03c09216de","2025-08-29_16h21.33.393",NA,NA,235.3412,235.3412,235.3412,235.6906,NA,NA,NA,NA,NA,NA,NA,TRUE,5,1.4935,232.3447,235.3411,0,50,50,23,1,14,39,NA,NA,NA,NA,NA,1,51,"likert"
"FF0BAF21C46C4D9ABA513C417FFA195F",1,"0198f77d-33c2-7e99-9cea-f386c3ffce05","0198f768-e4d2-711c-944b-6f03c09216de","2025-08-29_16h21.33.393",NA,NA,238.688,238.688,238.6881,239.0375,NA,NA,NA,NA,NA,NA,NA,TRUE,5,1.7386,235.6914,238.6878,0,51,51,11,1,10,32,NA,NA,NA,NA,NA,1,52,"likert"
"FF0BAF21C46C4D9ABA513C417FFA195F",1,"0198f77d-33c2-7e99-9cea-f386c3ffce05","0198f768-e4d2-711c-944b-6f03c09216de","2025-08-29_16h21.33.393",NA,NA,242.0344,242.0344,242.0344,242.384,NA,NA,NA,NA,NA,NA,NA,TRUE,5,1.3859,239.0386,242.0344,0,52,52,20,1,14,28,NA,NA,NA,NA,NA,1,53,"likert"
"FF0BAF21C46C4D9ABA513C417FFA195F",1,"0198f77d-33c2-7e99-9cea-f386c3ffce05","0198f768-e4d2-711c-944b-6f03c09216de","2025-08-29_16h21.33.393",NA,NA,245.398,245.3981,245.3981,245.7475,NA,NA,NA,NA,NA,NA,NA,TRUE,5,1.115,242.3846,245.3979,0,53,53,5,1,7,35,NA,NA,NA,NA,NA,1,54,"likert"
"FF0BAF21C46C4D9ABA513C417FFA195F",1,"0198f77d-33c2-7e99-9cea-f386c3ffce05","0198f768-e4d2-711c-944b-6f03c09216de","2025-08-29_16h21.33.393",NA,NA,248.7445,248.7445,248.7445,249.094,NA,NA,NA,NA,NA,NA,NA,TRUE,5,0.878,245.7483,248.7443,0,54,54,19,1,14,26,NA,NA,NA,NA,NA,1,55,"likert"
"FF0BAF21C46C4D9ABA513C417FFA195F",1,"0198f77d-33c2-7e99-9cea-f386c3ffce05","0198f768-e4d2-711c-944b-6f03c09216de","2025-08-29_16h21.33.393",NA,NA,252.0914,252.0914,252.0914,252.4408,NA,NA,NA,NA,NA,NA,NA,TRUE,1,0.8163,249.0949,252.0912,0,55,55,43,1,30,27,NA,NA,NA,NA,NA,1,56,"likert"
"FF0BAF21C46C4D9ABA513C417FFA195F",1,"0198f77d-33c2-7e99-9cea-f386c3ffce05","0198f768-e4d2-711c-944b-6f03c09216de","2025-08-29_16h21.33.393",NA,NA,255.4377,255.4377,255.4378,255.7875,NA,NA,NA,NA,NA,NA,NA,TRUE,1,1.4873,252.4417,255.4377,0,56,56,24,1,21,26,NA,NA,NA,NA,NA,1,57,"likert"
"FF0BAF21C46C4D9ABA513C417FFA195F",1,"0198f77d-33c2-7e99-9cea-f386c3ffce05","0198f768-e4d2-711c-944b-6f03c09216de","2025-08-29_16h21.33.393",NA,NA,258.7845,258.7845,258.7845,259.1339,NA,NA,NA,NA,NA,NA,NA,TRUE,5,1.0313,255.7886,258.7843,0,57,57,6,1,10,25,NA,NA,NA,NA,NA,1,58,"likert"
"FF0BAF21C46C4D9ABA513C417FFA195F",1,"0198f77d-33c2-7e99-9cea-f386c3ffce05","0198f768-e4d2-711c-944b-6f03c09216de","2025-08-29_16h21.33.393",NA,NA,262.1479,262.1479,262.1479,262.4975,NA,NA,NA,NA,NA,NA,NA,TRUE,1,0.78,259.1347,262.1477,0,58,58,105,1,200,39,NA,NA,NA,NA,NA,1,59,"likert"
"FF0BAF21C46C4D9ABA513C417FFA195F",1,"0198f77d-33c2-7e99-9cea-f386c3ffce05","0198f768-e4d2-711c-944b-6f03c09216de","2025-08-29_16h21.33.393",NA,NA,265.4944,265.4945,265.4945,265.8439,NA,NA,NA,NA,NA,NA,NA,TRUE,1,1.484,262.4985,265.4943,0,59,59,69,1,60,40,NA,NA,NA,NA,NA,1,60,"likert"
"FF0BAF21C46C4D9ABA513C417FFA195F",1,"0198f77d-33c2-7e99-9cea-f386c3ffce05","0198f768-e4d2-711c-944b-6f03c09216de","2025-08-29_16h21.33.393",NA,NA,268.8411,268.8411,268.8411,269.1906,NA,NA,NA,NA,NA,NA,NA,TRUE,1,1.1177,265.8446,268.841,0,60,60,53,1,40,54,NA,NA,NA,NA,NA,1,61,"likert"
"FF0BAF21C46C4D9ABA513C417FFA195F",1,"0198f77d-33c2-7e99-9cea-f386c3ffce05","0198f768-e4d2-711c-944b-6f03c09216de","2025-08-29_16h21.33.393",NA,NA,272.1885,272.1885,272.1886,272.5372,NA,NA,NA,NA,NA,NA,NA,TRUE,1,1.0454,269.1915,272.1882,0,61,61,18,1,14,25,NA,NA,NA,NA,NA,1,62,"likert"
"FF0BAF21C46C4D9ABA513C417FFA195F",1,"0198f77d-33c2-7e99-9cea-f386c3ffce05","0198f768-e4d2-711c-944b-6f03c09216de","2025-08-29_16h21.33.393",NA,NA,275.5345,275.5345,275.5345,275.884,NA,NA,NA,NA,NA,NA,NA,TRUE,1,1.1392,272.538,275.5344,0,62,62,87,1,100,39,NA,NA,NA,NA,NA,1,63,"likert"
"FF0BAF21C46C4D9ABA513C417FFA195F",1,"0198f77d-33c2-7e99-9cea-f386c3ffce05","0198f768-e4d2-711c-944b-6f03c09216de","2025-08-29_16h21.33.393",NA,NA,278.8979,278.8979,278.8979,279.2475,NA,NA,NA,NA,NA,NA,NA,TRUE,1,0.9786,275.8846,278.8977,0,63,63,96,1,180,27,NA,NA,NA,NA,NA,1,64,"likert"
"FF0BAF21C46C4D9ABA513C417FFA195F",1,"0198f77d-33c2-7e99-9cea-f386c3ffce05","0198f768-e4d2-711c-944b-6f03c09216de","2025-08-29_16h21.33.393",NA,NA,282.2444,282.2445,282.2445,282.5939,NA,NA,NA,NA,NA,NA,NA,TRUE,1,0.8478,279.2486,282.2443,0,64,64,54,1,45,26,NA,NA,NA,NA,NA,1,65,"likert"
"FF0BAF21C46C4D9ABA513C417FFA195F",1,"0198f77d-33c2-7e99-9cea-f386c3ffce05","0198f768-e4d2-711c-944b-6f03c09216de","2025-08-29_16h21.33.393",NA,NA,285.5913,285.5913,285.5913,285.9406,NA,NA,NA,NA,NA,NA,NA,TRUE,1,1.4555,282.5946,285.5912,0,65,65,42,1,30,26,NA,NA,NA,NA,NA,1,66,"likert"
"FF0BAF21C46C4D9ABA513C417FFA195F",1,"0198f77d-33c2-7e99-9cea-f386c3ffce05","0198f768-e4d2-711c-944b-6f03c09216de","2025-08-29_16h21.33.393",NA,NA,288.9377,288.9378,288.9378,289.2875,NA,NA,NA,NA,NA,NA,NA,TRUE,1,1.2827,285.9414,288.9377,0,66,66,13,1,12,26,NA,NA,NA,NA,NA,1,67,"likert"
"FF0BAF21C46C4D9ABA513C417FFA195F",1,"0198f77d-33c2-7e99-9cea-f386c3ffce05","0198f768-e4d2-711c-944b-6f03c09216de","2025-08-29_16h21.33.393",NA,NA,292.2844,292.2844,292.2844,292.6339,NA,NA,NA,NA,NA,NA,NA,TRUE,1,0.7617,289.2886,292.2843,0,67,67,97,1,180,31,NA,NA,NA,NA,NA,1,68,"likert"
"FF0BAF21C46C4D9ABA513C417FFA195F",1,"0198f77d-33c2-7e99-9cea-f386c3ffce05","0198f768-e4d2-711c-944b-6f03c09216de","2025-08-29_16h21.33.393",NA,NA,295.6477,295.6478,295.6478,295.9975,NA,NA,NA,NA,NA,NA,NA,TRUE,1,1.72,292.6347,295.6476,0,68,68,33,1,25,33,NA,NA,NA,NA,NA,1,69,"likert"
"FF0BAF21C46C4D9ABA513C417FFA195F",1,"0198f77d-33c2-7e99-9cea-f386c3ffce05","0198f768-e4d2-711c-944b-6f03c09216de","2025-08-29_16h21.33.393",NA,NA,298.9944,298.9944,298.9944,299.3439,NA,NA,NA,NA,NA,NA,NA,TRUE,5,2.0336,295.9985,298.9943,0,69,69,29,1,21,38,NA,NA,NA,NA,NA,1,70,"likert"
"FF0BAF21C46C4D9ABA513C417FFA195F",1,"0198f77d-33c2-7e99-9cea-f386c3ffce05","0198f768-e4d2-711c-944b-6f03c09216de","2025-08-29_16h21.33.393",NA,NA,302.3411,302.3411,302.3411,302.6906,NA,NA,NA,NA,NA,NA,NA,TRUE,5,1.6904,299.3447,302.341,0,70,70,39,1,28,35,NA,NA,NA,NA,NA,1,71,"likert"
"FF0BAF21C46C4D9ABA513C417FFA195F",1,"0198f77d-33c2-7e99-9cea-f386c3ffce05","0198f768-e4d2-711c-944b-6f03c09216de","2025-08-29_16h21.33.393",NA,NA,305.688,305.6881,305.6881,306.0375,NA,NA,NA,NA,NA,NA,NA,TRUE,1,0.8012,302.6913,305.6879,0,71,71,85,1,100,31,NA,NA,NA,NA,NA,1,72,"likert"
"FF0BAF21C46C4D9ABA513C417FFA195F",1,"0198f77d-33c2-7e99-9cea-f386c3ffce05","0198f768-e4d2-711c-944b-6f03c09216de","2025-08-29_16h21.33.393",NA,NA,309.0345,309.0345,309.0345,309.3839,NA,NA,NA,NA,NA,NA,NA,TRUE,1,1.104,306.0383,309.0343,0,72,72,55,1,45,29,NA,NA,NA,NA,NA,1,73,"likert"
"FF0BAF21C46C4D9ABA513C417FFA195F",1,"0198f77d-33c2-7e99-9cea-f386c3ffce05","0198f768-e4d2-711c-944b-6f03c09216de","2025-08-29_16h21.33.393",NA,NA,312.398,312.3981,312.3981,312.7473,NA,NA,NA,NA,NA,NA,NA,TRUE,1,1.0466,309.3847,312.3979,0,73,73,61,1,50,30,NA,NA,NA,NA,NA,1,74,"likert"
"FF0BAF21C46C4D9ABA513C417FFA195F",1,"0198f77d-33c2-7e99-9cea-f386c3ffce05","0198f768-e4d2-711c-944b-6f03c09216de","2025-08-29_16h21.33.393",NA,NA,315.7445,315.7445,315.7445,316.0939,NA,NA,NA,NA,NA,NA,NA,TRUE,1,1.2688,312.748,315.7443,0,74,74,32,1,25,31,NA,NA,NA,NA,NA,1,75,"likert"
"FF0BAF21C46C4D9ABA513C417FFA195F",1,"0198f77d-33c2-7e99-9cea-f386c3ffce05","0198f768-e4d2-711c-944b-6f03c09216de","2025-08-29_16h21.33.393",NA,NA,319.0912,319.0912,319.0912,319.4409,NA,NA,NA,NA,NA,NA,NA,TRUE,1,1.2687,316.0947,319.0911,0,75,75,49,1,40,33,NA,NA,NA,NA,NA,1,76,"likert"
"FF0BAF21C46C4D9ABA513C417FFA195F",1,"0198f77d-33c2-7e99-9cea-f386c3ffce05","0198f768-e4d2-711c-944b-6f03c09216de","2025-08-29_16h21.33.393",NA,NA,322.4381,322.4381,322.4381,322.7873,NA,NA,NA,NA,NA,NA,NA,TRUE,1,0.7299,319.4418,322.4379,0,76,76,99,1,180,39,NA,NA,NA,NA,NA,1,77,"likert"
"FF0BAF21C46C4D9ABA513C417FFA195F",1,"0198f77d-33c2-7e99-9cea-f386c3ffce05","0198f768-e4d2-711c-944b-6f03c09216de","2025-08-29_16h21.33.393",NA,NA,325.7845,325.7845,325.7845,326.1339,NA,NA,NA,NA,NA,NA,NA,TRUE,1,0.6301,322.7879,325.7843,0,77,77,65,1,50,54,NA,NA,NA,NA,NA,1,78,"likert"
"FF0BAF21C46C4D9ABA513C417FFA195F",1,"0198f77d-33c2-7e99-9cea-f386c3ffce05","0198f768-e4d2-711c-944b-6f03c09216de","2025-08-29_16h21.33.393",NA,NA,329.1481,329.1481,329.1481,329.4974,NA,NA,NA,NA,NA,NA,NA,TRUE,5,0.9837,326.1347,329.148,0,78,78,8,1,10,27,NA,NA,NA,NA,NA,1,79,"likert"
"FF0BAF21C46C4D9ABA513C417FFA195F",1,"0198f77d-33c2-7e99-9cea-f386c3ffce05","0198f768-e4d2-711c-944b-6f03c09216de","2025-08-29_16h21.33.393",NA,NA,332.4945,332.4945,332.4945,332.8439,NA,NA,NA,NA,NA,NA,NA,TRUE,1,0.6117,329.4986,332.4943,0,79,79,91,1,150,33,NA,NA,NA,NA,NA,1,80,"likert"
"FF0BAF21C46C4D9ABA513C417FFA195F",1,"0198f77d-33c2-7e99-9cea-f386c3ffce05","0198f768-e4d2-711c-944b-6f03c09216de","2025-08-29_16h21.33.393",NA,NA,335.8414,335.8414,335.8415,336.1907,NA,NA,NA,NA,NA,NA,NA,TRUE,1,1.1005,332.8446,335.8413,0,80,80,44,1,30,29,NA,NA,NA,NA,NA,1,81,"likert"
"FF0BAF21C46C4D9ABA513C417FFA195F",1,"0198f77d-33c2-7e99-9cea-f386c3ffce05","0198f768-e4d2-711c-944b-6f03c09216de","2025-08-29_16h21.33.393",NA,NA,339.188,339.1881,339.1881,339.5375,NA,NA,NA,NA,NA,NA,NA,TRUE,5,1.6903,336.1915,339.1879,0,81,81,3,1,7,30,NA,NA,NA,NA,NA,1,82,"likert"
"FF0BAF21C46C4D9ABA513C417FFA195F",1,"0198f77d-33c2-7e99-9cea-f386c3ffce05","0198f768-e4d2-711c-944b-6f03c09216de","2025-08-29_16h21.33.393",NA,NA,342.5344,342.5345,342.5345,342.884,NA,NA,NA,NA,NA,NA,NA,TRUE,1,1.1629,339.5386,342.5343,0,82,82,48,1,40,27,NA,NA,NA,NA,NA,1,83,"likert"
"FF0BAF21C46C4D9ABA513C417FFA195F",1,"0198f77d-33c2-7e99-9cea-f386c3ffce05","0198f768-e4d2-711c-944b-6f03c09216de","2025-08-29_16h21.33.393",NA,NA,345.898,345.898,345.898,346.2475,NA,NA,NA,NA,NA,NA,NA,TRUE,5,0.9011,342.8848,345.8979,0,83,83,2,1,7,28,NA,NA,NA,NA,NA,1,84,"likert"
"FF0BAF21C46C4D9ABA513C417FFA195F",1,"0198f77d-33c2-7e99-9cea-f386c3ffce05","0198f768-e4d2-711c-944b-6f03c09216de","2025-08-29_16h21.33.393",NA,NA,349.2445,349.2446,349.2446,349.5939,NA,NA,NA,NA,NA,NA,NA,TRUE,1,0.8708,346.2486,349.2444,0,84,84,98,1,180,35,NA,NA,NA,NA,NA,1,85,"likert"
"FF0BAF21C46C4D9ABA513C417FFA195F",1,"0198f77d-33c2-7e99-9cea-f386c3ffce05","0198f768-e4d2-711c-944b-6f03c09216de","2025-08-29_16h21.33.393",NA,NA,352.5911,352.5912,352.5912,352.9406,NA,NA,NA,NA,NA,NA,NA,TRUE,1,0.691,349.5946,352.591,0,85,85,90,1,150,31,NA,NA,NA,NA,NA,1,86,"likert"
"FF0BAF21C46C4D9ABA513C417FFA195F",1,"0198f77d-33c2-7e99-9cea-f386c3ffce05","0198f768-e4d2-711c-944b-6f03c09216de","2025-08-29_16h21.33.393",NA,NA,355.9381,355.9381,355.9381,356.2875,NA,NA,NA,NA,NA,NA,NA,TRUE,1,0.6341,352.9413,355.9378,0,86,86,68,1,60,35,NA,NA,NA,NA,NA,1,87,"likert"
"FF0BAF21C46C4D9ABA513C417FFA195F",1,"0198f77d-33c2-7e99-9cea-f386c3ffce05","0198f768-e4d2-711c-944b-6f03c09216de","2025-08-29_16h21.33.393",NA,NA,359.2845,359.2845,359.2845,359.634,NA,NA,NA,NA,NA,NA,NA,TRUE,1,0.6038,356.2886,359.2844,0,87,87,71,1,60,54,NA,NA,NA,NA,NA,1,88,"likert"
"FF0BAF21C46C4D9ABA513C417FFA195F",1,"0198f77d-33c2-7e99-9cea-f386c3ffce05","0198f768-e4d2-711c-944b-6f03c09216de","2025-08-29_16h21.33.393",NA,NA,362.6481,362.6482,362.6482,362.9976,NA,NA,NA,NA,NA,NA,NA,TRUE,1,1.0288,359.6348,362.6479,0,88,88,72,1,90,26,NA,NA,NA,NA,NA,1,89,"likert"
"FF0BAF21C46C4D9ABA513C417FFA195F",1,"0198f77d-33c2-7e99-9cea-f386c3ffce05","0198f768-e4d2-711c-944b-6f03c09216de","2025-08-29_16h21.33.393",NA,NA,365.9945,365.9945,365.9945,366.344,NA,NA,NA,NA,NA,NA,NA,TRUE,1,0.8955,362.9988,365.9943,0,89,89,57,1,45,35,NA,NA,NA,NA,NA,1,90,"likert"
"FF0BAF21C46C4D9ABA513C417FFA195F",1,"0198f77d-33c2-7e99-9cea-f386c3ffce05","0198f768-e4d2-711c-944b-6f03c09216de","2025-08-29_16h21.33.393",NA,NA,369.3412,369.3412,369.3412,369.6907,NA,NA,NA,NA,NA,NA,NA,TRUE,1,0.9059,366.3447,369.341,0,90,90,36,1,28,26,NA,NA,NA,NA,NA,1,91,"likert"
"FF0BAF21C46C4D9ABA513C417FFA195F",1,"0198f77d-33c2-7e99-9cea-f386c3ffce05","0198f768-e4d2-711c-944b-6f03c09216de","2025-08-29_16h21.33.393",NA,NA,372.6879,372.6879,372.688,373.0376,NA,NA,NA,NA,NA,NA,NA,TRUE,5,1.0205,369.6914,372.6878,0,91,91,26,1,21,29,NA,NA,NA,NA,NA,1,92,"likert"
"FF0BAF21C46C4D9ABA513C417FFA195F",1,"0198f77d-33c2-7e99-9cea-f386c3ffce05","0198f768-e4d2-711c-944b-6f03c09216de","2025-08-29_16h21.33.393",NA,NA,376.0346,376.0346,376.0346,376.384,NA,NA,NA,NA,NA,NA,NA,TRUE,1,0.8754,373.0387,376.0344,0,92,92,56,1,45,31,NA,NA,NA,NA,NA,1,93,"likert"
"FF0BAF21C46C4D9ABA513C417FFA195F",1,"0198f77d-33c2-7e99-9cea-f386c3ffce05","0198f768-e4d2-711c-944b-6f03c09216de","2025-08-29_16h21.33.393",NA,NA,379.398,379.398,379.398,379.7473,NA,NA,NA,NA,NA,NA,NA,TRUE,1,0.5795,376.3848,379.3979,0,93,93,81,1,95,40,NA,NA,NA,NA,NA,1,94,"likert"
"FF0BAF21C46C4D9ABA513C417FFA195F",1,"0198f77d-33c2-7e99-9cea-f386c3ffce05","0198f768-e4d2-711c-944b-6f03c09216de","2025-08-29_16h21.33.393",NA,NA,382.7444,382.7445,382.7445,383.094,NA,NA,NA,NA,NA,NA,NA,TRUE,1,0.6618,379.748,382.7443,0,94,94,88,1,100,46,NA,NA,NA,NA,NA,1,95,"likert"
"FF0BAF21C46C4D9ABA513C417FFA195F",1,"0198f77d-33c2-7e99-9cea-f386c3ffce05","0198f768-e4d2-711c-944b-6f03c09216de","2025-08-29_16h21.33.393",NA,NA,386.0914,386.0915,386.0915,386.4408,NA,NA,NA,NA,NA,NA,NA,TRUE,1,0.7622,383.0947,386.0912,0,95,95,66,1,60,29,NA,NA,NA,NA,NA,1,96,"likert"
"FF0BAF21C46C4D9ABA513C417FFA195F",1,"0198f77d-33c2-7e99-9cea-f386c3ffce05","0198f768-e4d2-711c-944b-6f03c09216de","2025-08-29_16h21.33.393",NA,NA,389.4378,389.4378,389.4378,389.788,NA,NA,NA,NA,NA,NA,NA,TRUE,1,1.0459,386.4419,389.4377,0,96,96,64,1,50,46,NA,NA,NA,NA,NA,1,97,"likert"
"FF0BAF21C46C4D9ABA513C417FFA195F",1,"0198f77d-33c2-7e99-9cea-f386c3ffce05","0198f768-e4d2-711c-944b-6f03c09216de","2025-08-29_16h21.33.393",NA,NA,392.7844,392.7844,392.7845,393.134,NA,NA,NA,NA,NA,NA,NA,TRUE,1,2.0311,389.7892,392.7843,0,97,97,30,1,25,27,NA,NA,NA,NA,NA,1,98,"likert"
"FF0BAF21C46C4D9ABA513C417FFA195F",1,"0198f77d-33c2-7e99-9cea-f386c3ffce05","0198f768-e4d2-711c-944b-6f03c09216de","2025-08-29_16h21.33.393",NA,NA,396.148,396.148,396.148,396.4974,NA,NA,NA,NA,NA,NA,NA,TRUE,5,1.2186,393.1346,396.1478,0,98,98,12,1,12,25,NA,NA,NA,NA,NA,1,99,"likert"
"FF0BAF21C46C4D9ABA513C417FFA195F",1,"0198f77d-33c2-7e99-9cea-f386c3ffce05","0198f768-e4d2-711c-944b-6f03c09216de","2025-08-29_16h21.33.393",NA,NA,399.4944,399.4945,399.4945,399.8439,NA,NA,NA,NA,NA,NA,NA,TRUE,1,0.7769,396.4986,399.4943,0,99,99,76,1,90,46,NA,NA,NA,NA,NA,1,100,"likert"
"FF0BAF21C46C4D9ABA513C417FFA195F",1,"0198f77d-33c2-7e99-9cea-f386c3ffce05","0198f768-e4d2-711c-944b-6f03c09216de","2025-08-29_16h21.33.393",NA,NA,402.8415,402.8415,402.8415,403.1908,NA,NA,NA,NA,NA,NA,NA,TRUE,1,0.886,399.8447,402.8413,0,100,100,52,1,40,47,NA,NA,NA,NA,NA,1,101,"likert"
"FF0BAF21C46C4D9ABA513C417FFA195F",1,"0198f77d-33c2-7e99-9cea-f386c3ffce05","0198f768-e4d2-711c-944b-6f03c09216de","2025-08-29_16h21.33.393",NA,NA,406.188,406.188,406.188,406.5373,NA,NA,NA,NA,NA,NA,NA,TRUE,1,0.9733,403.1917,406.1878,0,101,101,104,1,200,35,NA,NA,NA,NA,NA,1,102,"likert"
"FF0BAF21C46C4D9ABA513C417FFA195F",1,"0198f77d-33c2-7e99-9cea-f386c3ffce05","0198f768-e4d2-711c-944b-6f03c09216de","2025-08-29_16h21.33.393",NA,NA,409.5345,409.5345,409.5345,409.884,NA,NA,NA,NA,NA,NA,NA,TRUE,1,1.788,406.5381,409.5343,0,102,102,35,1,25,46,NA,NA,NA,NA,NA,1,103,"likert"
"FF0BAF21C46C4D9ABA513C417FFA195F",1,"0198f77d-33c2-7e99-9cea-f386c3ffce05","0198f768-e4d2-711c-944b-6f03c09216de","2025-08-29_16h21.33.393",NA,NA,412.8981,412.8981,412.8981,413.2476,NA,NA,NA,NA,NA,NA,NA,TRUE,1,1.5741,409.8847,412.8978,0,103,103,27,1,21,30,NA,NA,NA,NA,NA,1,104,"likert"
"FF0BAF21C46C4D9ABA513C417FFA195F",1,"0198f77d-33c2-7e99-9cea-f386c3ffce05","0198f768-e4d2-711c-944b-6f03c09216de","2025-08-29_16h21.33.393",NA,NA,416.2444,416.2445,416.2445,416.5939,NA,NA,NA,NA,NA,NA,NA,TRUE,1,1.1852,413.2486,416.2443,0,104,104,0,1,7,25,NA,NA,NA,NA,NA,1,105,"likert"
"FF0BAF21C46C4D9ABA513C417FFA195F",1,"0198f77d-33c2-7e99-9cea-f386c3ffce05","0198f768-e4d2-711c-944b-6f03c09216de","2025-08-29_16h21.33.393",NA,NA,419.5911,419.5911,419.5911,419.9406,NA,NA,NA,NA,NA,NA,NA,TRUE,1,1.1643,416.5946,419.591,0,105,105,31,1,25,29,NA,NA,NA,NA,NA,1,106,"likert"
"FF0BAF21C46C4D9ABA513C417FFA195F",1,"0198f77d-33c2-7e99-9cea-f386c3ffce05","0198f768-e4d2-711c-944b-6f03c09216de","2025-08-29_16h21.33.393",NA,NA,422.9381,422.9382,422.9382,423.2875,NA,NA,NA,NA,NA,NA,NA,TRUE,1,0.5239,419.9414,422.938,0,106,106,100,1,180,46,NA,NA,NA,NA,NA,1,107,"likert"
"FF0BAF21C46C4D9ABA513C417FFA195F",1,"0198f77d-33c2-7e99-9cea-f386c3ffce05","0198f768-e4d2-711c-944b-6f03c09216de","2025-08-29_16h21.33.393",NA,NA,426.2844,426.2845,426.2845,426.6339,NA,NA,NA,NA,NA,NA,NA,TRUE,1,0.9187,423.2886,426.2843,0,107,107,59,1,45,46,NA,NA,NA,NA,NA,1,108,"likert"
"FF0BAF21C46C4D9ABA513C417FFA195F",1,"0198f77d-33c2-7e99-9cea-f386c3ffce05","0198f768-e4d2-711c-944b-6f03c09216de","2025-08-29_16h21.33.393",NA,NA,432.4451,432.4452,432.4452,432.7948,NA,NA,NA,NA,NA,NA,NA,TRUE,1,1.6651,429.4621,432.445,NA,NA,NA,NA,NA,28,32,0,0,0,38,1,2,1,"likert"
"FF0BAF21C46C4D9ABA513C417FFA195F",1,"0198f77d-33c2-7e99-9cea-f386c3ffce05","0198f768-e4d2-711c-944b-6f03c09216de","2025-08-29_16h21.33.393",NA,NA,435.7917,435.7917,435.7917,436.1412,NA,NA,NA,NA,NA,NA,NA,TRUE,1,1.5966,432.796,435.7916,NA,NA,NA,NA,NA,10,26,0,1,1,7,1,2,2,"likert"
"FF0BAF21C46C4D9ABA513C417FFA195F",1,"0198f77d-33c2-7e99-9cea-f386c3ffce05","0198f768-e4d2-711c-944b-6f03c09216de","2025-08-29_16h21.33.393",NA,NA,439.1384,439.1384,439.1384,439.488,NA,NA,NA,NA,NA,NA,NA,TRUE,1,0.8004,436.142,439.1383,NA,NA,NA,NA,NA,40,33,0,2,2,49,1,2,3,"likert"
"FF0BAF21C46C4D9ABA513C417FFA195F",1,"0198f77d-33c2-7e99-9cea-f386c3ffce05","0198f768-e4d2-711c-944b-6f03c09216de","2025-08-29_16h21.33.393",NA,NA,442.5017,442.5017,442.5017,442.8513,NA,NA,NA,NA,NA,NA,NA,TRUE,1,0.8998,439.4892,442.5016,NA,NA,NA,NA,NA,14,35,0,3,3,22,1,2,4,"likert"
"FF0BAF21C46C4D9ABA513C417FFA195F",1,"0198f77d-33c2-7e99-9cea-f386c3ffce05","0198f768-e4d2-711c-944b-6f03c09216de","2025-08-29_16h21.33.393",NA,NA,445.8486,445.8487,445.8487,446.1981,NA,NA,NA,NA,NA,NA,NA,TRUE,1,1.1317,442.852,445.8484,NA,NA,NA,NA,NA,28,28,0,4,4,37,1,2,5,"likert"
"FF0BAF21C46C4D9ABA513C417FFA195F",1,"0198f77d-33c2-7e99-9cea-f386c3ffce05","0198f768-e4d2-711c-944b-6f03c09216de","2025-08-29_16h21.33.393",NA,NA,449.195,449.195,449.195,449.5445,NA,NA,NA,NA,NA,NA,NA,TRUE,1,1.1518,446.1992,449.1949,NA,NA,NA,NA,NA,14,25,0,5,5,18,1,2,6,"likert"
"FF0BAF21C46C4D9ABA513C417FFA195F",1,"0198f77d-33c2-7e99-9cea-f386c3ffce05","0198f768-e4d2-711c-944b-6f03c09216de","2025-08-29_16h21.33.393",NA,NA,452.5417,452.5417,452.5417,452.8914,NA,NA,NA,NA,NA,NA,NA,TRUE,1,0.9894,449.5454,452.5416,NA,NA,NA,NA,NA,40,47,0,6,6,52,1,2,7,"likert"
"FF0BAF21C46C4D9ABA513C417FFA195F",1,"0198f77d-33c2-7e99-9cea-f386c3ffce05","0198f768-e4d2-711c-944b-6f03c09216de","2025-08-29_16h21.33.393",NA,NA,455.8887,455.8887,455.8887,456.2379,NA,NA,NA,NA,NA,NA,NA,TRUE,1,0.8336,452.8924,455.8885,NA,NA,NA,NA,NA,100,46,0,7,7,88,1,2,8,"likert"
"FF0BAF21C46C4D9ABA513C417FFA195F",1,"0198f77d-33c2-7e99-9cea-f386c3ffce05","0198f768-e4d2-711c-944b-6f03c09216de","2025-08-29_16h21.33.393",NA,NA,459.252,459.2521,459.2521,459.6014,NA,NA,NA,NA,NA,NA,NA,TRUE,1,0.5847,456.2387,459.2518,NA,NA,NA,NA,NA,40,35,0,8,8,50,1,2,9,"likert"
"FF0BAF21C46C4D9ABA513C417FFA195F",1,"0198f77d-33c2-7e99-9cea-f386c3ffce05","0198f768-e4d2-711c-944b-6f03c09216de","2025-08-29_16h21.33.393",NA,NA,462.5987,462.5987,462.5987,462.948,NA,NA,NA,NA,NA,NA,NA,TRUE,5,1.9833,459.6026,462.5986,NA,NA,NA,NA,NA,10,27,0,9,9,8,1,2,10,"likert"
"FF0BAF21C46C4D9ABA513C417FFA195F",1,"0198f77d-33c2-7e99-9cea-f386c3ffce05","0198f768-e4d2-711c-944b-6f03c09216de","2025-08-29_16h21.33.393",NA,NA,465.9454,465.9454,465.9454,466.2947,NA,NA,NA,NA,NA,NA,NA,TRUE,1,0.7908,462.9492,465.9452,NA,NA,NA,NA,NA,200,28,0,10,10,103,1,2,11,"likert"
"FF0BAF21C46C4D9ABA513C417FFA195F",1,"0198f77d-33c2-7e99-9cea-f386c3ffce05","0198f768-e4d2-711c-944b-6f03c09216de","2025-08-29_16h21.33.393",NA,NA,469.2917,469.2917,469.2917,469.6412,NA,NA,NA,NA,NA,NA,NA,TRUE,1,0.9532,466.2958,469.2916,NA,NA,NA,NA,NA,150,31,0,11,11,90,1,2,12,"likert"
"FF0BAF21C46C4D9ABA513C417FFA195F",1,"0198f77d-33c2-7e99-9cea-f386c3ffce05","0198f768-e4d2-711c-944b-6f03c09216de","2025-08-29_16h21.33.393",NA,NA,472.6387,472.6387,472.6387,472.9881,NA,NA,NA,NA,NA,NA,NA,TRUE,1,1.3224,469.642,472.6385,NA,NA,NA,NA,NA,25,46,0,12,12,35,1,2,13,"likert"
"FF0BAF21C46C4D9ABA513C417FFA195F",1,"0198f77d-33c2-7e99-9cea-f386c3ffce05","0198f768-e4d2-711c-944b-6f03c09216de","2025-08-29_16h21.33.393",NA,NA,476.0017,476.0017,476.0017,476.3513,NA,NA,NA,NA,NA,NA,NA,TRUE,1,0.5919,472.9892,476.0016,NA,NA,NA,NA,NA,95,47,0,13,13,82,1,2,14,"likert"
"FF0BAF21C46C4D9ABA513C417FFA195F",1,"0198f77d-33c2-7e99-9cea-f386c3ffce05","0198f768-e4d2-711c-944b-6f03c09216de","2025-08-29_16h21.33.393",NA,NA,479.3484,479.3484,479.3485,479.6981,NA,NA,NA,NA,NA,NA,NA,TRUE,5,1.3778,476.3524,479.3484,NA,NA,NA,NA,NA,10,32,0,14,14,11,1,2,15,"likert"
"FF0BAF21C46C4D9ABA513C417FFA195F",1,"0198f77d-33c2-7e99-9cea-f386c3ffce05","0198f768-e4d2-711c-944b-6f03c09216de","2025-08-29_16h21.33.393",NA,NA,482.6951,482.6951,482.6951,483.0445,NA,NA,NA,NA,NA,NA,NA,TRUE,1,2.1497,479.6992,482.6949,NA,NA,NA,NA,NA,21,32,0,15,15,28,1,2,16,"likert"
"FF0BAF21C46C4D9ABA513C417FFA195F",1,"0198f77d-33c2-7e99-9cea-f386c3ffce05","0198f768-e4d2-711c-944b-6f03c09216de","2025-08-29_16h21.33.393",NA,NA,486.0417,486.0417,486.0417,486.3912,NA,NA,NA,NA,NA,NA,NA,TRUE,1,1.3621,483.0453,486.0415,NA,NA,NA,NA,NA,30,29,0,16,16,44,1,2,17,"likert"
"FF0BAF21C46C4D9ABA513C417FFA195F",1,"0198f77d-33c2-7e99-9cea-f386c3ffce05","0198f768-e4d2-711c-944b-6f03c09216de","2025-08-29_16h21.33.393",NA,NA,489.3886,489.3886,489.3886,489.7379,NA,NA,NA,NA,NA,NA,NA,TRUE,1,0.907,486.3919,489.3885,NA,NA,NA,NA,NA,28,35,0,17,17,39,1,2,18,"likert"
"FF0BAF21C46C4D9ABA513C417FFA195F",1,"0198f77d-33c2-7e99-9cea-f386c3ffce05","0198f768-e4d2-711c-944b-6f03c09216de","2025-08-29_16h21.33.393",NA,NA,492.7517,492.7517,492.7517,493.1012,NA,NA,NA,NA,NA,NA,NA,TRUE,1,0.7834,489.7386,492.7516,NA,NA,NA,NA,NA,90,30,0,18,18,73,1,2,19,"likert"
"FF0BAF21C46C4D9ABA513C417FFA195F",1,"0198f77d-33c2-7e99-9cea-f386c3ffce05","0198f768-e4d2-711c-944b-6f03c09216de","2025-08-29_16h21.33.393",NA,NA,496.0986,496.0987,496.0987,496.448,NA,NA,NA,NA,NA,NA,NA,TRUE,1,0.6973,493.102,496.0985,NA,NA,NA,NA,NA,100,39,0,19,19,87,1,2,20,"likert"
"FF0BAF21C46C4D9ABA513C417FFA195F",1,"0198f77d-33c2-7e99-9cea-f386c3ffce05","0198f768-e4d2-711c-944b-6f03c09216de","2025-08-29_16h21.33.393",NA,NA,499.445,499.445,499.4451,499.7946,NA,NA,NA,NA,NA,NA,NA,TRUE,1,0.5884,496.4491,499.445,NA,NA,NA,NA,NA,180,27,0,20,20,96,1,2,21,"likert"
"FF0BAF21C46C4D9ABA513C417FFA195F",1,"0198f77d-33c2-7e99-9cea-f386c3ffce05","0198f768-e4d2-711c-944b-6f03c09216de","2025-08-29_16h21.33.393",NA,NA,502.7916,502.7917,502.7918,503.1414,NA,NA,NA,NA,NA,NA,NA,TRUE,1,1.0688,499.7955,502.7916,NA,NA,NA,NA,NA,30,32,0,21,21,46,1,2,22,"likert"
"FF0BAF21C46C4D9ABA513C417FFA195F",1,"0198f77d-33c2-7e99-9cea-f386c3ffce05","0198f768-e4d2-711c-944b-6f03c09216de","2025-08-29_16h21.33.393",NA,NA,506.1386,506.1386,506.1386,506.4881,NA,NA,NA,NA,NA,NA,NA,TRUE,5,1.4984,503.1421,506.1385,NA,NA,NA,NA,NA,12,31,0,22,22,15,1,2,23,"likert"
"FF0BAF21C46C4D9ABA513C417FFA195F",1,"0198f77d-33c2-7e99-9cea-f386c3ffce05","0198f768-e4d2-711c-944b-6f03c09216de","2025-08-29_16h21.33.393",NA,NA,509.5018,509.5018,509.5018,509.8513,NA,NA,NA,NA,NA,NA,NA,TRUE,1,0.5823,506.4892,509.5016,NA,NA,NA,NA,NA,25,27,0,23,23,30,1,2,24,"likert"
"FF0BAF21C46C4D9ABA513C417FFA195F",1,"0198f77d-33c2-7e99-9cea-f386c3ffce05","0198f768-e4d2-711c-944b-6f03c09216de","2025-08-29_16h21.33.393",NA,NA,512.8484,512.8485,512.8485,513.198,NA,NA,NA,NA,NA,NA,NA,TRUE,1,0.9244,509.8523,512.8483,NA,NA,NA,NA,NA,150,33,0,24,24,91,1,2,25,"likert"
"FF0BAF21C46C4D9ABA513C417FFA195F",1,"0198f77d-33c2-7e99-9cea-f386c3ffce05","0198f768-e4d2-711c-944b-6f03c09216de","2025-08-29_16h21.33.393",NA,NA,516.195,516.195,516.195,516.5447,NA,NA,NA,NA,NA,NA,NA,TRUE,1,0.7159,513.1998,516.1949,NA,NA,NA,NA,NA,28,46,0,25,25,41,1,2,26,"likert"
"FF0BAF21C46C4D9ABA513C417FFA195F",1,"0198f77d-33c2-7e99-9cea-f386c3ffce05","0198f768-e4d2-711c-944b-6f03c09216de","2025-08-29_16h21.33.393",NA,NA,519.5417,519.5417,519.5417,519.8913,NA,NA,NA,NA,NA,NA,NA,TRUE,5,0.9954,516.5459,519.5415,NA,NA,NA,NA,NA,10,29,0,26,26,9,1,2,27,"likert"
"FF0BAF21C46C4D9ABA513C417FFA195F",1,"0198f77d-33c2-7e99-9cea-f386c3ffce05","0198f768-e4d2-711c-944b-6f03c09216de","2025-08-29_16h21.33.393",NA,NA,522.8887,522.8887,522.8887,523.2379,NA,NA,NA,NA,NA,NA,NA,TRUE,5,0.9725,519.8922,522.8885,NA,NA,NA,NA,NA,10,30,0,27,27,10,1,2,28,"likert"
"FF0BAF21C46C4D9ABA513C417FFA195F",1,"0198f77d-33c2-7e99-9cea-f386c3ffce05","0198f768-e4d2-711c-944b-6f03c09216de","2025-08-29_16h21.33.393",NA,NA,526.2517,526.2517,526.2517,526.6013,NA,NA,NA,NA,NA,NA,NA,TRUE,5,1.1071,523.2388,526.2516,NA,NA,NA,NA,NA,7,35,0,28,28,5,1,2,29,"likert"
"FF0BAF21C46C4D9ABA513C417FFA195F",1,"0198f77d-33c2-7e99-9cea-f386c3ffce05","0198f768-e4d2-711c-944b-6f03c09216de","2025-08-29_16h21.33.393",NA,NA,529.5986,529.5987,529.5987,529.9479,NA,NA,NA,NA,NA,NA,NA,TRUE,1,0.4209,526.602,529.5984,NA,NA,NA,NA,NA,180,46,0,29,29,100,1,2,30,"likert"
"FF0BAF21C46C4D9ABA513C417FFA195F",1,"0198f77d-33c2-7e99-9cea-f386c3ffce05","0198f768-e4d2-711c-944b-6f03c09216de","2025-08-29_16h21.33.393",NA,NA,532.945,532.945,532.945,533.2945,NA,NA,NA,NA,NA,NA,NA,TRUE,1,1.0742,529.949,532.945,NA,NA,NA,NA,NA,21,27,0,30,30,25,1,2,31,"likert"
"FF0BAF21C46C4D9ABA513C417FFA195F",1,"0198f77d-33c2-7e99-9cea-f386c3ffce05","0198f768-e4d2-711c-944b-6f03c09216de","2025-08-29_16h21.33.393",NA,NA,536.2918,536.2918,536.2919,536.6412,NA,NA,NA,NA,NA,NA,NA,TRUE,1,0.8629,533.2955,536.2916,NA,NA,NA,NA,NA,95,40,0,31,31,81,1,2,32,"likert"
"FF0BAF21C46C4D9ABA513C417FFA195F",1,"0198f77d-33c2-7e99-9cea-f386c3ffce05","0198f768-e4d2-711c-944b-6f03c09216de","2025-08-29_16h21.33.393",NA,NA,539.6386,539.6386,539.6386,539.9879,NA,NA,NA,NA,NA,NA,NA,TRUE,1,0.5017,536.642,539.6385,NA,NA,NA,NA,NA,180,39,0,32,32,99,1,2,33,"likert"
"FF0BAF21C46C4D9ABA513C417FFA195F",1,"0198f77d-33c2-7e99-9cea-f386c3ffce05","0198f768-e4d2-711c-944b-6f03c09216de","2025-08-29_16h21.33.393",NA,NA,543.0018,543.0018,543.0018,543.3512,NA,NA,NA,NA,NA,NA,NA,TRUE,1,0.6455,539.9888,543.0017,NA,NA,NA,NA,NA,100,26,0,33,33,84,1,2,34,"likert"
"FF0BAF21C46C4D9ABA513C417FFA195F",1,"0198f77d-33c2-7e99-9cea-f386c3ffce05","0198f768-e4d2-711c-944b-6f03c09216de","2025-08-29_16h21.33.393",NA,NA,546.3487,546.3487,546.3487,546.698,NA,NA,NA,NA,NA,NA,NA,TRUE,1,0.8014,543.3521,546.3485,NA,NA,NA,NA,NA,60,35,0,34,34,68,1,2,35,"likert"
"FF0BAF21C46C4D9ABA513C417FFA195F",1,"0198f77d-33c2-7e99-9cea-f386c3ffce05","0198f768-e4d2-711c-944b-6f03c09216de","2025-08-29_16h21.33.393",NA,NA,549.6951,549.6951,549.6951,550.0446,NA,NA,NA,NA,NA,NA,NA,TRUE,1,0.3833,546.6991,549.6949,NA,NA,NA,NA,NA,180,54,0,35,35,101,1,2,36,"likert"
"FF0BAF21C46C4D9ABA513C417FFA195F",1,"0198f77d-33c2-7e99-9cea-f386c3ffce05","0198f768-e4d2-711c-944b-6f03c09216de","2025-08-29_16h21.33.393",NA,NA,553.0417,553.0417,553.0417,553.3912,NA,NA,NA,NA,NA,NA,NA,TRUE,1,1.2625,550.0454,553.0415,NA,NA,NA,NA,NA,25,33,0,36,36,33,1,2,37,"likert"
"FF0BAF21C46C4D9ABA513C417FFA195F",1,"0198f77d-33c2-7e99-9cea-f386c3ffce05","0198f768-e4d2-711c-944b-6f03c09216de","2025-08-29_16h21.33.393",NA,NA,556.3887,556.3887,556.3887,556.7379,NA,NA,NA,NA,NA,NA,NA,TRUE,1,0.5029,553.3919,556.3885,NA,NA,NA,NA,NA,90,33,0,37,37,74,1,2,38,"likert"
"FF0BAF21C46C4D9ABA513C417FFA195F",1,"0198f77d-33c2-7e99-9cea-f386c3ffce05","0198f768-e4d2-711c-944b-6f03c09216de","2025-08-29_16h21.33.393",NA,NA,559.7517,559.7517,559.7517,560.1013,NA,NA,NA,NA,NA,NA,NA,TRUE,1,0.8225,556.7387,559.7515,NA,NA,NA,NA,NA,150,47,0,38,38,94,1,2,39,"likert"
"FF0BAF21C46C4D9ABA513C417FFA195F",1,"0198f77d-33c2-7e99-9cea-f386c3ffce05","0198f768-e4d2-711c-944b-6f03c09216de","2025-08-29_16h21.33.393",NA,NA,563.0988,563.0988,563.0988,563.448,NA,NA,NA,NA,NA,NA,NA,TRUE,1,1.614,560.1022,563.0986,NA,NA,NA,NA,NA,12,26,0,39,39,13,1,2,40,"likert"
"FF0BAF21C46C4D9ABA513C417FFA195F",1,"0198f77d-33c2-7e99-9cea-f386c3ffce05","0198f768-e4d2-711c-944b-6f03c09216de","2025-08-29_16h21.33.393",NA,NA,566.4451,566.4451,566.4451,566.7946,NA,NA,NA,NA,NA,NA,NA,TRUE,5,1.7303,563.4492,566.445,NA,NA,NA,NA,NA,7,28,0,40,40,2,1,2,41,"likert"
"FF0BAF21C46C4D9ABA513C417FFA195F",1,"0198f77d-33c2-7e99-9cea-f386c3ffce05","0198f768-e4d2-711c-944b-6f03c09216de","2025-08-29_16h21.33.393",NA,NA,569.7919,569.7919,569.7919,570.1414,NA,NA,NA,NA,NA,NA,NA,TRUE,1,0.5473,566.7952,569.7917,NA,NA,NA,NA,NA,200,26,0,41,41,102,1,2,42,"likert"
"FF0BAF21C46C4D9ABA513C417FFA195F",1,"0198f77d-33c2-7e99-9cea-f386c3ffce05","0198f768-e4d2-711c-944b-6f03c09216de","2025-08-29_16h21.33.393",NA,NA,573.1387,573.1387,573.1387,573.4881,NA,NA,NA,NA,NA,NA,NA,TRUE,1,0.5962,570.1422,573.1385,NA,NA,NA,NA,NA,30,38,0,42,42,47,1,2,43,"likert"
"FF0BAF21C46C4D9ABA513C417FFA195F",1,"0198f77d-33c2-7e99-9cea-f386c3ffce05","0198f768-e4d2-711c-944b-6f03c09216de","2025-08-29_16h21.33.393",NA,NA,576.5016,576.5017,576.5017,576.8512,NA,NA,NA,NA,NA,NA,NA,TRUE,1,0.8483,573.489,576.5015,NA,NA,NA,NA,NA,95,54,0,43,43,83,1,2,44,"likert"
"FF0BAF21C46C4D9ABA513C417FFA195F",1,"0198f77d-33c2-7e99-9cea-f386c3ffce05","0198f768-e4d2-711c-944b-6f03c09216de","2025-08-29_16h21.33.393",NA,NA,579.8484,579.8484,579.8484,580.198,NA,NA,NA,NA,NA,NA,NA,TRUE,1,0.9205,576.8519,579.8483,NA,NA,NA,NA,NA,150,54,0,44,44,95,1,2,45,"likert"
"FF0BAF21C46C4D9ABA513C417FFA195F",1,"0198f77d-33c2-7e99-9cea-f386c3ffce05","0198f768-e4d2-711c-944b-6f03c09216de","2025-08-29_16h21.33.393",NA,NA,583.195,583.195,583.195,583.5447,NA,NA,NA,NA,NA,NA,NA,TRUE,1,1.2799,580.199,583.1949,NA,NA,NA,NA,NA,90,40,0,45,45,75,1,2,46,"likert"
"FF0BAF21C46C4D9ABA513C417FFA195F",1,"0198f77d-33c2-7e99-9cea-f386c3ffce05","0198f768-e4d2-711c-944b-6f03c09216de","2025-08-29_16h21.33.393",NA,NA,586.5417,586.5418,586.5418,586.8913,NA,NA,NA,NA,NA,NA,NA,TRUE,1,1.0807,583.546,586.5417,NA,NA,NA,NA,NA,7,26,0,46,46,1,1,2,47,"likert"
"FF0BAF21C46C4D9ABA513C417FFA195F",1,"0198f77d-33c2-7e99-9cea-f386c3ffce05","0198f768-e4d2-711c-944b-6f03c09216de","2025-08-29_16h21.33.393",NA,NA,589.8888,589.8888,589.8888,590.238,NA,NA,NA,NA,NA,NA,NA,TRUE,1,2.045,586.8921,589.8886,NA,NA,NA,NA,NA,14,39,0,47,47,23,1,2,48,"likert"
"FF0BAF21C46C4D9ABA513C417FFA195F",1,"0198f77d-33c2-7e99-9cea-f386c3ffce05","0198f768-e4d2-711c-944b-6f03c09216de","2025-08-29_16h21.33.393",NA,NA,593.2518,593.2518,593.2518,593.6013,NA,NA,NA,NA,NA,NA,NA,TRUE,1,1.3873,590.2386,593.2517,NA,NA,NA,NA,NA,21,29,0,48,48,26,1,2,49,"likert"
"FF0BAF21C46C4D9ABA513C417FFA195F",1,"0198f77d-33c2-7e99-9cea-f386c3ffce05","0198f768-e4d2-711c-944b-6f03c09216de","2025-08-29_16h21.33.393",NA,NA,596.599,596.599,596.599,596.948,NA,NA,NA,NA,NA,NA,NA,TRUE,1,0.5055,593.6021,596.5989,NA,NA,NA,NA,NA,200,35,0,49,49,104,1,2,50,"likert"
"FF0BAF21C46C4D9ABA513C417FFA195F",1,"0198f77d-33c2-7e99-9cea-f386c3ffce05","0198f768-e4d2-711c-944b-6f03c09216de","2025-08-29_16h21.33.393",NA,NA,599.9451,599.9451,599.9451,600.2946,NA,NA,NA,NA,NA,NA,NA,TRUE,1,0.5846,596.9491,599.945,NA,NA,NA,NA,NA,50,54,0,50,50,65,1,2,51,"likert"
"FF0BAF21C46C4D9ABA513C417FFA195F",1,"0198f77d-33c2-7e99-9cea-f386c3ffce05","0198f768-e4d2-711c-944b-6f03c09216de","2025-08-29_16h21.33.393",NA,NA,603.2919,603.2919,603.292,603.6413,NA,NA,NA,NA,NA,NA,NA,TRUE,1,1.4567,600.2956,603.2918,NA,NA,NA,NA,NA,14,26,0,51,51,19,1,2,52,"likert"
"FF0BAF21C46C4D9ABA513C417FFA195F",1,"0198f77d-33c2-7e99-9cea-f386c3ffce05","0198f768-e4d2-711c-944b-6f03c09216de","2025-08-29_16h21.33.393",NA,NA,606.6387,606.6387,606.6388,606.9879,NA,NA,NA,NA,NA,NA,NA,TRUE,1,0.504,603.642,606.6386,NA,NA,NA,NA,NA,200,54,0,52,52,107,1,2,53,"likert"
"FF0BAF21C46C4D9ABA513C417FFA195F",1,"0198f77d-33c2-7e99-9cea-f386c3ffce05","0198f768-e4d2-711c-944b-6f03c09216de","2025-08-29_16h21.33.393",NA,NA,610.0017,610.0018,610.0018,610.3512,NA,NA,NA,NA,NA,NA,NA,TRUE,1,0.4983,606.9886,610.0016,NA,NA,NA,NA,NA,60,54,0,53,53,71,1,2,54,"likert"
"FF0BAF21C46C4D9ABA513C417FFA195F",1,"0198f77d-33c2-7e99-9cea-f386c3ffce05","0198f768-e4d2-711c-944b-6f03c09216de","2025-08-29_16h21.33.393",NA,NA,613.3485,613.3485,613.3485,613.6979,NA,NA,NA,NA,NA,NA,NA,TRUE,1,0.7995,610.352,613.3484,NA,NA,NA,NA,NA,60,33,0,54,54,67,1,2,55,"likert"
"FF0BAF21C46C4D9ABA513C417FFA195F",1,"0198f77d-33c2-7e99-9cea-f386c3ffce05","0198f768-e4d2-711c-944b-6f03c09216de","2025-08-29_16h21.33.393",NA,NA,616.6951,616.6951,616.6951,617.0445,NA,NA,NA,NA,NA,NA,NA,TRUE,1,0.7791,613.6988,616.695,NA,NA,NA,NA,NA,50,35,0,55,55,62,1,2,56,"likert"
"FF0BAF21C46C4D9ABA513C417FFA195F",1,"0198f77d-33c2-7e99-9cea-f386c3ffce05","0198f768-e4d2-711c-944b-6f03c09216de","2025-08-29_16h21.33.393",NA,NA,620.0418,620.0418,620.0418,620.3916,NA,NA,NA,NA,NA,NA,NA,TRUE,1,0.8037,617.0455,620.0417,NA,NA,NA,NA,NA,100,54,0,56,56,89,1,2,57,"likert"
"FF0BAF21C46C4D9ABA513C417FFA195F",1,"0198f77d-33c2-7e99-9cea-f386c3ffce05","0198f768-e4d2-711c-944b-6f03c09216de","2025-08-29_16h21.33.393",NA,NA,623.3885,623.3885,623.3885,623.7383,NA,NA,NA,NA,NA,NA,NA,TRUE,5,1.5612,620.3924,623.3883,NA,NA,NA,NA,NA,12,35,0,57,57,17,1,2,58,"likert"
"FF0BAF21C46C4D9ABA513C417FFA195F",1,"0198f77d-33c2-7e99-9cea-f386c3ffce05","0198f768-e4d2-711c-944b-6f03c09216de","2025-08-29_16h21.33.393",NA,NA,626.7517,626.7518,626.7518,627.1014,NA,NA,NA,NA,NA,NA,NA,TRUE,1,0.5533,623.7392,626.7516,NA,NA,NA,NA,NA,60,40,0,58,58,69,1,2,59,"likert"
"FF0BAF21C46C4D9ABA513C417FFA195F",1,"0198f77d-33c2-7e99-9cea-f386c3ffce05","0198f768-e4d2-711c-944b-6f03c09216de","2025-08-29_16h21.33.393",NA,NA,630.0984,630.0984,630.0984,630.4481,NA,NA,NA,NA,NA,NA,NA,TRUE,1,0.6721,627.1022,630.0983,NA,NA,NA,NA,NA,90,26,0,59,59,72,1,2,60,"likert"
"FF0BAF21C46C4D9ABA513C417FFA195F",1,"0198f77d-33c2-7e99-9cea-f386c3ffce05","0198f768-e4d2-711c-944b-6f03c09216de","2025-08-29_16h21.33.393",NA,NA,633.4452,633.4453,633.4453,633.7948,NA,NA,NA,NA,NA,NA,NA,TRUE,1,0.7478,630.4492,633.445,NA,NA,NA,NA,NA,30,26,0,60,60,42,1,2,61,"likert"
"FF0BAF21C46C4D9ABA513C417FFA195F",1,"0198f77d-33c2-7e99-9cea-f386c3ffce05","0198f768-e4d2-711c-944b-6f03c09216de","2025-08-29_16h21.33.393",NA,NA,636.7917,636.7917,636.7918,637.1412,NA,NA,NA,NA,NA,NA,NA,TRUE,1,0.9466,633.796,636.7916,NA,NA,NA,NA,NA,50,46,0,61,61,64,1,2,62,"likert"
"FF0BAF21C46C4D9ABA513C417FFA195F",1,"0198f77d-33c2-7e99-9cea-f386c3ffce05","0198f768-e4d2-711c-944b-6f03c09216de","2025-08-29_16h21.33.393",NA,NA,640.1386,640.1386,640.1386,640.4879,NA,NA,NA,NA,NA,NA,NA,TRUE,1,0.5892,637.142,640.1385,NA,NA,NA,NA,NA,200,39,0,62,62,105,1,2,63,"likert"
"FF0BAF21C46C4D9ABA513C417FFA195F",1,"0198f77d-33c2-7e99-9cea-f386c3ffce05","0198f768-e4d2-711c-944b-6f03c09216de","2025-08-29_16h21.33.393",NA,NA,643.5017,643.5017,643.5017,643.8512,NA,NA,NA,NA,NA,NA,NA,TRUE,1,0.5795,640.4886,643.5016,NA,NA,NA,NA,NA,45,46,0,63,63,59,1,2,64,"likert"
"FF0BAF21C46C4D9ABA513C417FFA195F",1,"0198f77d-33c2-7e99-9cea-f386c3ffce05","0198f768-e4d2-711c-944b-6f03c09216de","2025-08-29_16h21.33.393",NA,NA,646.8486,646.8487,646.8487,647.1981,NA,NA,NA,NA,NA,NA,NA,TRUE,1,1.2854,643.8519,646.8485,NA,NA,NA,NA,NA,28,26,0,64,64,36,1,2,65,"likert"
"FF0BAF21C46C4D9ABA513C417FFA195F",1,"0198f77d-33c2-7e99-9cea-f386c3ffce05","0198f768-e4d2-711c-944b-6f03c09216de","2025-08-29_16h21.33.393",NA,NA,650.1951,650.1951,650.1951,650.5448,NA,NA,NA,NA,NA,NA,NA,TRUE,1,1.003,647.1992,650.195,NA,NA,NA,NA,NA,30,27,0,65,65,43,1,2,66,"likert"
"FF0BAF21C46C4D9ABA513C417FFA195F",1,"0198f77d-33c2-7e99-9cea-f386c3ffce05","0198f768-e4d2-711c-944b-6f03c09216de","2025-08-29_16h21.33.393",NA,NA,653.5417,653.5417,653.5417,653.8913,NA,NA,NA,NA,NA,NA,NA,TRUE,1,0.8229,650.5459,653.5416,NA,NA,NA,NA,NA,60,29,0,66,66,66,1,2,67,"likert"
"FF0BAF21C46C4D9ABA513C417FFA195F",1,"0198f77d-33c2-7e99-9cea-f386c3ffce05","0198f768-e4d2-711c-944b-6f03c09216de","2025-08-29_16h21.33.393",NA,NA,656.8886,656.8886,656.8887,657.2382,NA,NA,NA,NA,NA,NA,NA,TRUE,1,0.6975,653.8921,656.8885,NA,NA,NA,NA,NA,45,29,0,67,67,55,1,2,68,"likert"
"FF0BAF21C46C4D9ABA513C417FFA195F",1,"0198f77d-33c2-7e99-9cea-f386c3ffce05","0198f768-e4d2-711c-944b-6f03c09216de","2025-08-29_16h21.33.393",NA,NA,660.2518,660.2518,660.2518,660.6014,NA,NA,NA,NA,NA,NA,NA,TRUE,1,0.9513,657.2389,660.2517,NA,NA,NA,NA,NA,45,35,0,68,68,57,1,2,69,"likert"
"FF0BAF21C46C4D9ABA513C417FFA195F",1,"0198f77d-33c2-7e99-9cea-f386c3ffce05","0198f768-e4d2-711c-944b-6f03c09216de","2025-08-29_16h21.33.393",NA,NA,663.5984,663.5984,663.5984,663.9479,NA,NA,NA,NA,NA,NA,NA,TRUE,5,1.4347,660.6022,663.5983,NA,NA,NA,NA,NA,14,32,0,69,69,21,1,2,70,"likert"
"FF0BAF21C46C4D9ABA513C417FFA195F",1,"0198f77d-33c2-7e99-9cea-f386c3ffce05","0198f768-e4d2-711c-944b-6f03c09216de","2025-08-29_16h21.33.393",NA,NA,666.9451,666.9451,666.9451,667.2947,NA,NA,NA,NA,NA,NA,NA,TRUE,1,0.5118,663.9488,666.9449,NA,NA,NA,NA,NA,50,40,0,70,70,63,1,2,71,"likert"
"FF0BAF21C46C4D9ABA513C417FFA195F",1,"0198f77d-33c2-7e99-9cea-f386c3ffce05","0198f768-e4d2-711c-944b-6f03c09216de","2025-08-29_16h21.33.393",NA,NA,670.2919,670.2919,670.2919,670.6415,NA,NA,NA,NA,NA,NA,NA,TRUE,1,1.2513,667.2954,670.2918,NA,NA,NA,NA,NA,7,25,0,71,71,0,1,2,72,"likert"
"FF0BAF21C46C4D9ABA513C417FFA195F",1,"0198f77d-33c2-7e99-9cea-f386c3ffce05","0198f768-e4d2-711c-944b-6f03c09216de","2025-08-29_16h21.33.393",NA,NA,673.6386,673.6387,673.6387,673.988,NA,NA,NA,NA,NA,NA,NA,TRUE,1,0.729,670.6424,673.6385,NA,NA,NA,NA,NA,180,31,0,72,72,97,1,2,73,"likert"
"FF0BAF21C46C4D9ABA513C417FFA195F",1,"0198f77d-33c2-7e99-9cea-f386c3ffce05","0198f768-e4d2-711c-944b-6f03c09216de","2025-08-29_16h21.33.393",NA,NA,677.002,677.0021,677.0021,677.3512,NA,NA,NA,NA,NA,NA,NA,TRUE,1,1.1624,673.9888,677.0019,NA,NA,NA,NA,NA,10,25,0,73,73,6,1,2,74,"likert"
"FF0BAF21C46C4D9ABA513C417FFA195F",1,"0198f77d-33c2-7e99-9cea-f386c3ffce05","0198f768-e4d2-711c-944b-6f03c09216de","2025-08-29_16h21.33.393",NA,NA,680.3487,680.3488,680.3488,680.6979,NA,NA,NA,NA,NA,NA,NA,TRUE,1,0.5546,677.352,680.3485,NA,NA,NA,NA,NA,150,35,0,74,74,92,1,2,75,"likert"
"FF0BAF21C46C4D9ABA513C417FFA195F",1,"0198f77d-33c2-7e99-9cea-f386c3ffce05","0198f768-e4d2-711c-944b-6f03c09216de","2025-08-29_16h21.33.393",NA,NA,683.6952,683.6952,683.6952,684.0445,NA,NA,NA,NA,NA,NA,NA,TRUE,1,0.521,680.6986,683.695,NA,NA,NA,NA,NA,45,31,0,75,75,56,1,2,76,"likert"
"FF0BAF21C46C4D9ABA513C417FFA195F",1,"0198f77d-33c2-7e99-9cea-f386c3ffce05","0198f768-e4d2-711c-944b-6f03c09216de","2025-08-29_16h21.33.393",NA,NA,687.0418,687.0418,687.0418,687.3913,NA,NA,NA,NA,NA,NA,NA,TRUE,1,0.9722,684.0453,687.0417,NA,NA,NA,NA,NA,60,47,0,76,76,70,1,2,77,"likert"
"FF0BAF21C46C4D9ABA513C417FFA195F",1,"0198f77d-33c2-7e99-9cea-f386c3ffce05","0198f768-e4d2-711c-944b-6f03c09216de","2025-08-29_16h21.33.393",NA,NA,690.3886,690.3886,690.3886,690.7381,NA,NA,NA,NA,NA,NA,NA,TRUE,1,0.6092,687.392,690.3885,NA,NA,NA,NA,NA,90,46,0,77,77,76,1,2,78,"likert"
"FF0BAF21C46C4D9ABA513C417FFA195F",1,"0198f77d-33c2-7e99-9cea-f386c3ffce05","0198f768-e4d2-711c-944b-6f03c09216de","2025-08-29_16h21.33.393",NA,NA,693.7517,693.7517,693.7517,694.1012,NA,NA,NA,NA,NA,NA,NA,TRUE,1,1.2054,690.7393,693.7516,NA,NA,NA,NA,NA,90,54,0,78,78,77,1,2,79,"likert"
"FF0BAF21C46C4D9ABA513C417FFA195F",1,"0198f77d-33c2-7e99-9cea-f386c3ffce05","0198f768-e4d2-711c-944b-6f03c09216de","2025-08-29_16h21.33.393",NA,NA,697.0987,697.0988,697.0988,697.4481,NA,NA,NA,NA,NA,NA,NA,TRUE,1,1.4666,694.102,697.0985,NA,NA,NA,NA,NA,100,38,0,79,79,86,1,2,80,"likert"
"FF0BAF21C46C4D9ABA513C417FFA195F",1,"0198f77d-33c2-7e99-9cea-f386c3ffce05","0198f768-e4d2-711c-944b-6f03c09216de","2025-08-29_16h21.33.393",NA,NA,700.4451,700.4451,700.4451,700.7949,NA,NA,NA,NA,NA,NA,NA,TRUE,1,0.8485,697.4492,700.4451,NA,NA,NA,NA,NA,45,40,0,80,80,58,1,2,81,"likert"
"FF0BAF21C46C4D9ABA513C417FFA195F",1,"0198f77d-33c2-7e99-9cea-f386c3ffce05","0198f768-e4d2-711c-944b-6f03c09216de","2025-08-29_16h21.33.393",NA,NA,703.7918,703.7918,703.7918,704.1412,NA,NA,NA,NA,NA,NA,NA,TRUE,1,1.0353,700.7959,703.7916,NA,NA,NA,NA,NA,25,29,0,81,81,31,1,2,82,"likert"
"FF0BAF21C46C4D9ABA513C417FFA195F",1,"0198f77d-33c2-7e99-9cea-f386c3ffce05","0198f768-e4d2-711c-944b-6f03c09216de","2025-08-29_16h21.33.393",NA,NA,707.1384,707.1384,707.1384,707.488,NA,NA,NA,NA,NA,NA,NA,TRUE,1,0.4029,704.1419,707.1382,NA,NA,NA,NA,NA,100,31,0,82,82,85,1,2,83,"likert"
"FF0BAF21C46C4D9ABA513C417FFA195F",1,"0198f77d-33c2-7e99-9cea-f386c3ffce05","0198f768-e4d2-711c-944b-6f03c09216de","2025-08-29_16h21.33.393",NA,NA,710.5018,710.5019,710.5019,710.8513,NA,NA,NA,NA,NA,NA,NA,TRUE,5,1.3396,707.4889,710.5017,NA,NA,NA,NA,NA,12,33,0,83,83,16,1,2,84,"likert"
"FF0BAF21C46C4D9ABA513C417FFA195F",1,"0198f77d-33c2-7e99-9cea-f386c3ffce05","0198f768-e4d2-711c-944b-6f03c09216de","2025-08-29_16h21.33.393",NA,NA,713.8488,713.8488,713.8488,714.1984,NA,NA,NA,NA,NA,NA,NA,TRUE,1,0.8406,710.8521,713.8486,NA,NA,NA,NA,NA,30,30,0,84,84,45,1,2,85,"likert"
"FF0BAF21C46C4D9ABA513C417FFA195F",1,"0198f77d-33c2-7e99-9cea-f386c3ffce05","0198f768-e4d2-711c-944b-6f03c09216de","2025-08-29_16h21.33.393",NA,NA,717.1954,717.1954,717.1954,717.5446,NA,NA,NA,NA,NA,NA,NA,TRUE,1,0.6048,714.1991,717.1953,NA,NA,NA,NA,NA,150,40,0,85,85,93,1,2,86,"likert"
"FF0BAF21C46C4D9ABA513C417FFA195F",1,"0198f77d-33c2-7e99-9cea-f386c3ffce05","0198f768-e4d2-711c-944b-6f03c09216de","2025-08-29_16h21.33.393",NA,NA,720.5419,720.5419,720.5419,720.8912,NA,NA,NA,NA,NA,NA,NA,TRUE,1,1.6278,717.5453,720.5418,NA,NA,NA,NA,NA,12,28,0,86,86,14,1,2,87,"likert"
"FF0BAF21C46C4D9ABA513C417FFA195F",1,"0198f77d-33c2-7e99-9cea-f386c3ffce05","0198f768-e4d2-711c-944b-6f03c09216de","2025-08-29_16h21.33.393",NA,NA,723.8887,723.8888,723.8888,724.238,NA,NA,NA,NA,NA,NA,NA,TRUE,1,0.7649,720.892,723.8885,NA,NA,NA,NA,NA,95,35,0,87,87,80,1,2,88,"likert"
"FF0BAF21C46C4D9ABA513C417FFA195F",1,"0198f77d-33c2-7e99-9cea-f386c3ffce05","0198f768-e4d2-711c-944b-6f03c09216de","2025-08-29_16h21.33.393",NA,NA,727.2518,727.2519,727.2519,727.6015,NA,NA,NA,NA,NA,NA,NA,TRUE,1,1.0887,724.2393,727.2518,NA,NA,NA,NA,NA,25,31,0,88,88,32,1,2,89,"likert"
"FF0BAF21C46C4D9ABA513C417FFA195F",1,"0198f77d-33c2-7e99-9cea-f386c3ffce05","0198f768-e4d2-711c-944b-6f03c09216de","2025-08-29_16h21.33.393",NA,NA,730.5985,730.5986,730.5986,730.9481,NA,NA,NA,NA,NA,NA,NA,TRUE,1,0.7891,727.6023,730.5984,NA,NA,NA,NA,NA,40,40,0,89,89,51,1,2,90,"likert"
"FF0BAF21C46C4D9ABA513C417FFA195F",1,"0198f77d-33c2-7e99-9cea-f386c3ffce05","0198f768-e4d2-711c-944b-6f03c09216de","2025-08-29_16h21.33.393",NA,NA,733.945,733.945,733.9451,734.2946,NA,NA,NA,NA,NA,NA,NA,TRUE,1,0.8242,730.949,733.945,NA,NA,NA,NA,NA,50,27,0,90,90,60,1,2,91,"likert"
"FF0BAF21C46C4D9ABA513C417FFA195F",1,"0198f77d-33c2-7e99-9cea-f386c3ffce05","0198f768-e4d2-711c-944b-6f03c09216de","2025-08-29_16h21.33.393",NA,NA,737.2917,737.2917,737.2918,737.6415,NA,NA,NA,NA,NA,NA,NA,TRUE,1,0.5649,734.2953,737.2917,NA,NA,NA,NA,NA,95,33,0,91,91,79,1,2,92,"likert"
"FF0BAF21C46C4D9ABA513C417FFA195F",1,"0198f77d-33c2-7e99-9cea-f386c3ffce05","0198f768-e4d2-711c-944b-6f03c09216de","2025-08-29_16h21.33.393",NA,NA,740.6386,740.6386,740.6387,740.9882,NA,NA,NA,NA,NA,NA,NA,TRUE,1,0.8254,737.6426,740.6386,NA,NA,NA,NA,NA,21,30,0,92,92,27,1,2,93,"likert"
"FF0BAF21C46C4D9ABA513C417FFA195F",1,"0198f77d-33c2-7e99-9cea-f386c3ffce05","0198f768-e4d2-711c-944b-6f03c09216de","2025-08-29_16h21.33.393",NA,NA,744.0018,744.0018,744.0018,744.3513,NA,NA,NA,NA,NA,NA,NA,TRUE,1,0.6812,740.9892,744.0016,NA,NA,NA,NA,NA,21,38,0,93,93,29,1,2,94,"likert"
"FF0BAF21C46C4D9ABA513C417FFA195F",1,"0198f77d-33c2-7e99-9cea-f386c3ffce05","0198f768-e4d2-711c-944b-6f03c09216de","2025-08-29_16h21.33.393",NA,NA,747.3484,747.3484,747.3484,747.6982,NA,NA,NA,NA,NA,NA,NA,TRUE,1,1.1722,744.352,747.3483,NA,NA,NA,NA,NA,12,25,0,94,94,12,1,2,95,"likert"
"FF0BAF21C46C4D9ABA513C417FFA195F",1,"0198f77d-33c2-7e99-9cea-f386c3ffce05","0198f768-e4d2-711c-944b-6f03c09216de","2025-08-29_16h21.33.393",NA,NA,750.6951,750.6951,750.6951,751.0447,NA,NA,NA,NA,NA,NA,NA,TRUE,1,0.682,747.6992,750.695,NA,NA,NA,NA,NA,40,54,0,95,95,53,1,2,96,"likert"
"FF0BAF21C46C4D9ABA513C417FFA195F",1,"0198f77d-33c2-7e99-9cea-f386c3ffce05","0198f768-e4d2-711c-944b-6f03c09216de","2025-08-29_16h21.33.393",NA,NA,754.0417,754.0418,754.0418,754.3913,NA,NA,NA,NA,NA,NA,NA,TRUE,1,1.208,751.0454,754.0416,NA,NA,NA,NA,NA,25,35,0,96,96,34,1,2,97,"likert"
"FF0BAF21C46C4D9ABA513C417FFA195F",1,"0198f77d-33c2-7e99-9cea-f386c3ffce05","0198f768-e4d2-711c-944b-6f03c09216de","2025-08-29_16h21.33.393",NA,NA,757.3883,757.3884,757.3884,757.7382,NA,NA,NA,NA,NA,NA,NA,TRUE,1,0.9411,754.3921,757.3883,NA,NA,NA,NA,NA,14,28,0,97,97,20,1,2,98,"likert"
"FF0BAF21C46C4D9ABA513C417FFA195F",1,"0198f77d-33c2-7e99-9cea-f386c3ffce05","0198f768-e4d2-711c-944b-6f03c09216de","2025-08-29_16h21.33.393",NA,NA,760.7522,760.7523,760.7523,761.1013,NA,NA,NA,NA,NA,NA,NA,TRUE,1,1.0696,757.7392,760.7521,NA,NA,NA,NA,NA,28,39,0,98,98,40,1,2,99,"likert"
"FF0BAF21C46C4D9ABA513C417FFA195F",1,"0198f77d-33c2-7e99-9cea-f386c3ffce05","0198f768-e4d2-711c-944b-6f03c09216de","2025-08-29_16h21.33.393",NA,NA,764.0988,764.0988,764.0988,764.4482,NA,NA,NA,NA,NA,NA,NA,TRUE,1,0.548,761.1023,764.0986,NA,NA,NA,NA,NA,45,26,0,99,99,54,1,2,100,"likert"
"FF0BAF21C46C4D9ABA513C417FFA195F",1,"0198f77d-33c2-7e99-9cea-f386c3ffce05","0198f768-e4d2-711c-944b-6f03c09216de","2025-08-29_16h21.33.393",NA,NA,767.4451,767.4451,767.4451,767.7945,NA,NA,NA,NA,NA,NA,NA,TRUE,5,1.0599,764.4493,767.4449,NA,NA,NA,NA,NA,7,30,0,100,100,3,1,2,101,"likert"
"FF0BAF21C46C4D9ABA513C417FFA195F",1,"0198f77d-33c2-7e99-9cea-f386c3ffce05","0198f768-e4d2-711c-944b-6f03c09216de","2025-08-29_16h21.33.393",NA,NA,770.7917,770.7918,770.7918,771.1413,NA,NA,NA,NA,NA,NA,NA,TRUE,1,0.4381,767.7953,770.7917,NA,NA,NA,NA,NA,180,35,0,101,101,98,1,2,102,"likert"
"FF0BAF21C46C4D9ABA513C417FFA195F",1,"0198f77d-33c2-7e99-9cea-f386c3ffce05","0198f768-e4d2-711c-944b-6f03c09216de","2025-08-29_16h21.33.393",NA,NA,774.1387,774.1387,774.1387,774.4881,NA,NA,NA,NA,NA,NA,NA,TRUE,1,0.5955,771.1419,774.1385,NA,NA,NA,NA,NA,50,30,0,102,102,61,1,2,103,"likert"
"FF0BAF21C46C4D9ABA513C417FFA195F",1,"0198f77d-33c2-7e99-9cea-f386c3ffce05","0198f768-e4d2-711c-944b-6f03c09216de","2025-08-29_16h21.33.393",NA,NA,777.5018,777.5018,777.5018,777.8514,NA,NA,NA,NA,NA,NA,NA,TRUE,1,0.5465,774.4893,777.5017,NA,NA,NA,NA,NA,95,31,0,103,103,78,1,2,104,"likert"
"FF0BAF21C46C4D9ABA513C417FFA195F",1,"0198f77d-33c2-7e99-9cea-f386c3ffce05","0198f768-e4d2-711c-944b-6f03c09216de","2025-08-29_16h21.33.393",NA,NA,780.8487,780.8487,780.8488,781.198,NA,NA,NA,NA,NA,NA,NA,TRUE,1,0.5882,777.8521,780.8486,NA,NA,NA,NA,NA,200,47,0,104,104,106,1,2,105,"likert"
"FF0BAF21C46C4D9ABA513C417FFA195F",1,"0198f77d-33c2-7e99-9cea-f386c3ffce05","0198f768-e4d2-711c-944b-6f03c09216de","2025-08-29_16h21.33.393",NA,NA,784.1951,784.1951,784.1951,784.5447,NA,NA,NA,NA,NA,NA,NA,TRUE,1,1.0609,781.199,784.195,NA,NA,NA,NA,NA,21,26,0,105,105,24,1,2,106,"likert"
"FF0BAF21C46C4D9ABA513C417FFA195F",1,"0198f77d-33c2-7e99-9cea-f386c3ffce05","0198f768-e4d2-711c-944b-6f03c09216de","2025-08-29_16h21.33.393",NA,NA,787.5419,787.5419,787.5419,787.8915,NA,NA,NA,NA,NA,NA,NA,TRUE,1,1.0307,784.5456,787.5417,NA,NA,NA,NA,NA,40,27,0,106,106,48,1,2,107,"likert"
"FF0BAF21C46C4D9ABA513C417FFA195F",1,"0198f77d-33c2-7e99-9cea-f386c3ffce05","0198f768-e4d2-711c-944b-6f03c09216de","2025-08-29_16h21.33.393",NA,NA,790.8886,790.8887,790.8887,791.2381,NA,NA,NA,NA,NA,NA,NA,TRUE,5,1.2331,787.8924,790.8885,NA,NA,NA,NA,NA,7,32,0,107,107,4,1,2,108,"likert"
