"participant","session","assignmentId","projectId","date","practiceTrial.started","practiceTrial.stopped","tooLate.started","tooLate.stopped","blank.started","blank.stopped","trials_pract.thisRepN","trials_pract.thisTrialN","trials_pract.thisN","trials_pract.thisIndex","trials_pract.ran","delay_pract","amount_pract","responseMade","key","rt","trial.started","trial.stopped","trials.thisRepN","trials.thisTrialN","trials.thisN","trials.thisIndex","trials.ran","delay","amount","trials_2.thisRepN","trials_2.thisTrialN","trials_2.thisN","trials_2.thisIndex","trials_2.ran","block","trial","taskType"
"FFCFFBFB91904311B5C239A9433C2BAB",1,"01990a98-bfa7-7abd-99e2-14b68b195447","01990a84-c4ee-73c2-a87b-ff46a7d3dde5","2025-09-02_08h44.25.600",25.4716,28.4271,28.4282,28.4441,28.4443,28.7773,0,0,0,2,1,14,45,TRUE,1,0.6517,NA,NA,NA,NA,NA,NA,NA,NA,NA,NA,NA,NA,NA,NA,0,1,"likert"
"FFCFFBFB91904311B5C239A9433C2BAB",1,"01990a98-bfa7-7abd-99e2-14b68b195447","01990a84-c4ee-73c2-a87b-ff46a7d3dde5","2025-09-02_08h44.25.600",28.7823,31.7778,31.778,31.7781,31.7782,32.1277,0,1,1,4,1,30,40,TRUE,5,0.6872,NA,NA,NA,NA,NA,NA,NA,NA,NA,NA,NA,NA,NA,NA,0,2,"likert"
"FFCFFBFB91904311B5C239A9433C2BAB",1,"01990a98-bfa7-7abd-99e2-14b68b195447","01990a84-c4ee-73c2-a87b-ff46a7d3dde5","2025-09-02_08h44.25.600",32.1314,35.1282,35.1286,35.1287,35.1287,35.4784,0,2,2,3,1,3,27,TRUE,1,0.7269,NA,NA,NA,NA,NA,NA,NA,NA,NA,NA,NA,NA,NA,NA,0,3,"likert"
"FFCFFBFB91904311B5C239A9433C2BAB",1,"01990a98-bfa7-7abd-99e2-14b68b195447","01990a84-c4ee-73c2-a87b-ff46a7d3dde5","2025-09-02_08h44.25.600",35.4806,38.4789,38.4792,38.4793,38.4794,38.8292,0,3,3,0,1,7,30,TRUE,5,0.9338,NA,NA,NA,NA,NA,NA,NA,NA,NA,NA,NA,NA,NA,NA,0,4,"likert"
"FFCFFBFB91904311B5C239A9433C2BAB",1,"01990a98-bfa7-7abd-99e2-14b68b195447","01990a84-c4ee-73c2-a87b-ff46a7d3dde5","2025-09-02_08h44.25.600",38.8322,41.8297,41.8298,41.83,41.83,42.1796,0,4,4,1,1,100,50,TRUE,5,1.0743,NA,NA,NA,NA,NA,NA,NA,NA,NA,NA,NA,NA,NA,NA,0,5,"likert"
"FFCFFBFB91904311B5C239A9433C2BAB",1,"01990a98-bfa7-7abd-99e2-14b68b195447","01990a84-c4ee-73c2-a87b-ff46a7d3dde5","2025-09-02_08h44.25.600",NA,NA,63.3681,63.3682,63.3682,63.7177,NA,NA,NA,NA,NA,NA,NA,TRUE,1,1.4434,60.3909,63.3679,0,0,0,72,1,90,26,NA,NA,NA,NA,NA,1,1,"likert"
"FFCFFBFB91904311B5C239A9433C2BAB",1,"01990a98-bfa7-7abd-99e2-14b68b195447","01990a84-c4ee-73c2-a87b-ff46a7d3dde5","2025-09-02_08h44.25.600",NA,NA,66.7185,66.7185,66.7186,67.0682,NA,NA,NA,NA,NA,NA,NA,TRUE,1,0.6984,63.72,66.7183,0,1,1,30,1,25,27,NA,NA,NA,NA,NA,1,2,"likert"
"FFCFFBFB91904311B5C239A9433C2BAB",1,"01990a98-bfa7-7abd-99e2-14b68b195447","01990a84-c4ee-73c2-a87b-ff46a7d3dde5","2025-09-02_08h44.25.600",NA,NA,70.0691,70.0692,70.0693,70.419,NA,NA,NA,NA,NA,NA,NA,TRUE,1,0.8112,67.072,70.069,0,2,2,14,1,12,28,NA,NA,NA,NA,NA,1,3,"likert"
"FFCFFBFB91904311B5C239A9433C2BAB",1,"01990a98-bfa7-7abd-99e2-14b68b195447","01990a84-c4ee-73c2-a87b-ff46a7d3dde5","2025-09-02_08h44.25.600",NA,NA,73.4199,73.4201,73.4202,73.7696,NA,NA,NA,NA,NA,NA,NA,TRUE,5,0.8624,70.4205,73.4197,0,3,3,65,1,50,54,NA,NA,NA,NA,NA,1,4,"likert"
"FFCFFBFB91904311B5C239A9433C2BAB",1,"01990a98-bfa7-7abd-99e2-14b68b195447","01990a84-c4ee-73c2-a87b-ff46a7d3dde5","2025-09-02_08h44.25.600",NA,NA,76.7705,76.7706,76.7706,77.1204,NA,NA,NA,NA,NA,NA,NA,TRUE,1,0.8966,73.7722,76.7703,0,4,4,48,1,40,27,NA,NA,NA,NA,NA,1,5,"likert"
"FFCFFBFB91904311B5C239A9433C2BAB",1,"01990a98-bfa7-7abd-99e2-14b68b195447","01990a84-c4ee-73c2-a87b-ff46a7d3dde5","2025-09-02_08h44.25.600",NA,NA,80.1214,80.1214,80.1215,80.4713,NA,NA,NA,NA,NA,NA,NA,TRUE,1,0.6792,77.1241,80.1211,0,5,5,3,1,7,30,NA,NA,NA,NA,NA,1,6,"likert"
"FFCFFBFB91904311B5C239A9433C2BAB",1,"01990a98-bfa7-7abd-99e2-14b68b195447","01990a84-c4ee-73c2-a87b-ff46a7d3dde5","2025-09-02_08h44.25.600",NA,NA,83.4552,83.4552,83.4552,83.8054,NA,NA,NA,NA,NA,NA,NA,TRUE,1,0.4777,80.4738,83.455,0,6,6,46,1,30,32,NA,NA,NA,NA,NA,1,7,"likert"
"FFCFFBFB91904311B5C239A9433C2BAB",1,"01990a98-bfa7-7abd-99e2-14b68b195447","01990a84-c4ee-73c2-a87b-ff46a7d3dde5","2025-09-02_08h44.25.600",NA,NA,86.8059,86.8061,86.8061,87.1557,NA,NA,NA,NA,NA,NA,NA,TRUE,1,0.6157,83.8075,86.8058,0,7,7,73,1,90,30,NA,NA,NA,NA,NA,1,8,"likert"
"FFCFFBFB91904311B5C239A9433C2BAB",1,"01990a98-bfa7-7abd-99e2-14b68b195447","01990a84-c4ee-73c2-a87b-ff46a7d3dde5","2025-09-02_08h44.25.600",NA,NA,90.1565,90.1565,90.1566,90.5066,NA,NA,NA,NA,NA,NA,NA,TRUE,1,0.759,87.1579,90.1564,0,8,8,66,1,60,29,NA,NA,NA,NA,NA,1,9,"likert"
"FFCFFBFB91904311B5C239A9433C2BAB",1,"01990a98-bfa7-7abd-99e2-14b68b195447","01990a84-c4ee-73c2-a87b-ff46a7d3dde5","2025-09-02_08h44.25.600",NA,NA,93.5075,93.5076,93.5076,93.8572,NA,NA,NA,NA,NA,NA,NA,TRUE,1,0.6618,90.5087,93.5073,0,9,9,102,1,200,26,NA,NA,NA,NA,NA,1,10,"likert"
"FFCFFBFB91904311B5C239A9433C2BAB",1,"01990a98-bfa7-7abd-99e2-14b68b195447","01990a84-c4ee-73c2-a87b-ff46a7d3dde5","2025-09-02_08h44.25.600",NA,NA,96.858,96.8581,96.8581,97.2079,NA,NA,NA,NA,NA,NA,NA,TRUE,1,0.6125,93.86,96.8578,0,10,10,63,1,50,40,NA,NA,NA,NA,NA,1,11,"likert"
"FFCFFBFB91904311B5C239A9433C2BAB",1,"01990a98-bfa7-7abd-99e2-14b68b195447","01990a84-c4ee-73c2-a87b-ff46a7d3dde5","2025-09-02_08h44.25.600",NA,NA,100.2087,100.2088,100.2088,100.5585,NA,NA,NA,NA,NA,NA,NA,TRUE,1,0.7615,97.211,100.2085,0,11,11,61,1,50,30,NA,NA,NA,NA,NA,1,12,"likert"
"FFCFFBFB91904311B5C239A9433C2BAB",1,"01990a98-bfa7-7abd-99e2-14b68b195447","01990a84-c4ee-73c2-a87b-ff46a7d3dde5","2025-09-02_08h44.25.600",NA,NA,103.56,103.5601,103.5601,103.9092,NA,NA,NA,NA,NA,NA,NA,TRUE,1,0.7105,100.5625,103.5597,0,12,12,29,1,21,38,NA,NA,NA,NA,NA,1,13,"likert"
"FFCFFBFB91904311B5C239A9433C2BAB",1,"01990a98-bfa7-7abd-99e2-14b68b195447","01990a84-c4ee-73c2-a87b-ff46a7d3dde5","2025-09-02_08h44.25.600",NA,NA,106.9103,106.9103,106.9104,107.26,NA,NA,NA,NA,NA,NA,NA,TRUE,1,0.5798,103.9112,106.91,0,13,13,68,1,60,35,NA,NA,NA,NA,NA,1,14,"likert"
"FFCFFBFB91904311B5C239A9433C2BAB",1,"01990a98-bfa7-7abd-99e2-14b68b195447","01990a84-c4ee-73c2-a87b-ff46a7d3dde5","2025-09-02_08h44.25.600",NA,NA,110.261,110.2611,110.2612,110.6106,NA,NA,NA,NA,NA,NA,NA,TRUE,1,0.8596,107.2623,110.2608,0,14,14,82,1,95,47,NA,NA,NA,NA,NA,1,15,"likert"
"FFCFFBFB91904311B5C239A9433C2BAB",1,"01990a98-bfa7-7abd-99e2-14b68b195447","01990a84-c4ee-73c2-a87b-ff46a7d3dde5","2025-09-02_08h44.25.600",NA,NA,113.6116,113.6116,113.6117,113.9615,NA,NA,NA,NA,NA,NA,NA,TRUE,1,0.5286,110.6129,113.6114,0,15,15,28,1,21,32,NA,NA,NA,NA,NA,1,16,"likert"
"FFCFFBFB91904311B5C239A9433C2BAB",1,"01990a98-bfa7-7abd-99e2-14b68b195447","01990a84-c4ee-73c2-a87b-ff46a7d3dde5","2025-09-02_08h44.25.600",NA,NA,116.9623,116.9623,116.9624,117.3124,NA,NA,NA,NA,NA,NA,NA,TRUE,5,1.0847,113.9634,116.9622,0,16,16,59,1,45,46,NA,NA,NA,NA,NA,1,17,"likert"
"FFCFFBFB91904311B5C239A9433C2BAB",1,"01990a98-bfa7-7abd-99e2-14b68b195447","01990a84-c4ee-73c2-a87b-ff46a7d3dde5","2025-09-02_08h44.25.600",NA,NA,120.3133,120.3134,120.3134,120.6627,NA,NA,NA,NA,NA,NA,NA,TRUE,1,0.961,117.3145,120.3129,0,17,17,99,1,180,39,NA,NA,NA,NA,NA,1,18,"likert"
"FFCFFBFB91904311B5C239A9433C2BAB",1,"01990a98-bfa7-7abd-99e2-14b68b195447","01990a84-c4ee-73c2-a87b-ff46a7d3dde5","2025-09-02_08h44.25.600",NA,NA,123.6637,123.6638,123.6639,124.0135,NA,NA,NA,NA,NA,NA,NA,TRUE,1,0.6317,120.6645,123.6636,0,18,18,40,1,28,39,NA,NA,NA,NA,NA,1,19,"likert"
"FFCFFBFB91904311B5C239A9433C2BAB",1,"01990a98-bfa7-7abd-99e2-14b68b195447","01990a84-c4ee-73c2-a87b-ff46a7d3dde5","2025-09-02_08h44.25.600",NA,NA,127.0142,127.0143,127.0143,127.3641,NA,NA,NA,NA,NA,NA,NA,TRUE,1,0.5807,124.0156,127.014,0,19,19,103,1,200,28,NA,NA,NA,NA,NA,1,20,"likert"
"FFCFFBFB91904311B5C239A9433C2BAB",1,"01990a98-bfa7-7abd-99e2-14b68b195447","01990a84-c4ee-73c2-a87b-ff46a7d3dde5","2025-09-02_08h44.25.600",NA,NA,130.3652,130.3652,130.3652,130.7153,NA,NA,NA,NA,NA,NA,NA,TRUE,1,0.7257,127.3659,130.365,0,20,20,54,1,45,26,NA,NA,NA,NA,NA,1,21,"likert"
"FFCFFBFB91904311B5C239A9433C2BAB",1,"01990a98-bfa7-7abd-99e2-14b68b195447","01990a84-c4ee-73c2-a87b-ff46a7d3dde5","2025-09-02_08h44.25.600",NA,NA,133.7156,133.7157,133.7157,134.0657,NA,NA,NA,NA,NA,NA,NA,TRUE,1,0.8171,130.718,133.7155,0,21,21,79,1,95,33,NA,NA,NA,NA,NA,1,22,"likert"
"FFCFFBFB91904311B5C239A9433C2BAB",1,"01990a98-bfa7-7abd-99e2-14b68b195447","01990a84-c4ee-73c2-a87b-ff46a7d3dde5","2025-09-02_08h44.25.600",NA,NA,137.0665,137.0667,137.0667,137.4164,NA,NA,NA,NA,NA,NA,NA,TRUE,5,0.8765,134.068,137.0664,0,22,22,56,1,45,31,NA,NA,NA,NA,NA,1,23,"likert"
"FFCFFBFB91904311B5C239A9433C2BAB",1,"01990a98-bfa7-7abd-99e2-14b68b195447","01990a84-c4ee-73c2-a87b-ff46a7d3dde5","2025-09-02_08h44.25.600",NA,NA,140.4177,140.4179,140.418,140.7671,NA,NA,NA,NA,NA,NA,NA,TRUE,1,0.6143,137.4187,140.417,0,23,23,76,1,90,46,NA,NA,NA,NA,NA,1,24,"likert"
"FFCFFBFB91904311B5C239A9433C2BAB",1,"01990a98-bfa7-7abd-99e2-14b68b195447","01990a84-c4ee-73c2-a87b-ff46a7d3dde5","2025-09-02_08h44.25.600",NA,NA,143.7679,143.7679,143.768,144.1177,NA,NA,NA,NA,NA,NA,NA,TRUE,1,0.6772,140.7691,143.7677,0,24,24,97,1,180,31,NA,NA,NA,NA,NA,1,25,"likert"
"FFCFFBFB91904311B5C239A9433C2BAB",1,"01990a98-bfa7-7abd-99e2-14b68b195447","01990a84-c4ee-73c2-a87b-ff46a7d3dde5","2025-09-02_08h44.25.600",NA,NA,147.1186,147.1187,147.1187,147.4684,NA,NA,NA,NA,NA,NA,NA,TRUE,5,1.4924,144.1194,147.1183,0,25,25,45,1,30,30,NA,NA,NA,NA,NA,1,26,"likert"
"FFCFFBFB91904311B5C239A9433C2BAB",1,"01990a98-bfa7-7abd-99e2-14b68b195447","01990a84-c4ee-73c2-a87b-ff46a7d3dde5","2025-09-02_08h44.25.600",NA,NA,150.4693,150.4694,150.4694,150.819,NA,NA,NA,NA,NA,NA,NA,TRUE,5,1.1437,147.4706,150.469,0,26,26,51,1,40,40,NA,NA,NA,NA,NA,1,27,"likert"
"FFCFFBFB91904311B5C239A9433C2BAB",1,"01990a98-bfa7-7abd-99e2-14b68b195447","01990a84-c4ee-73c2-a87b-ff46a7d3dde5","2025-09-02_08h44.25.600",NA,NA,153.8201,153.8202,153.8202,154.1697,NA,NA,NA,NA,NA,NA,NA,TRUE,1,0.5634,150.8201,153.8198,0,27,27,16,1,12,33,NA,NA,NA,NA,NA,1,28,"likert"
"FFCFFBFB91904311B5C239A9433C2BAB",1,"01990a98-bfa7-7abd-99e2-14b68b195447","01990a84-c4ee-73c2-a87b-ff46a7d3dde5","2025-09-02_08h44.25.600",NA,NA,157.1705,157.1706,157.1706,157.5204,NA,NA,NA,NA,NA,NA,NA,TRUE,1,1.496,154.1724,157.1704,0,28,28,37,1,28,28,NA,NA,NA,NA,NA,1,29,"likert"
"FFCFFBFB91904311B5C239A9433C2BAB",1,"01990a98-bfa7-7abd-99e2-14b68b195447","01990a84-c4ee-73c2-a87b-ff46a7d3dde5","2025-09-02_08h44.25.600",NA,NA,160.5215,160.5216,160.5217,160.8547,NA,NA,NA,NA,NA,NA,NA,TRUE,1,1.1291,157.5215,160.5213,0,29,29,74,1,90,33,NA,NA,NA,NA,NA,1,30,"likert"
"FFCFFBFB91904311B5C239A9433C2BAB",1,"01990a98-bfa7-7abd-99e2-14b68b195447","01990a84-c4ee-73c2-a87b-ff46a7d3dde5","2025-09-02_08h44.25.600",NA,NA,163.8554,163.8554,163.8554,164.2052,NA,NA,NA,NA,NA,NA,NA,TRUE,1,1.0139,160.8572,163.8553,0,30,30,93,1,150,40,NA,NA,NA,NA,NA,1,31,"likert"
"FFCFFBFB91904311B5C239A9433C2BAB",1,"01990a98-bfa7-7abd-99e2-14b68b195447","01990a84-c4ee-73c2-a87b-ff46a7d3dde5","2025-09-02_08h44.25.600",NA,NA,167.206,167.206,167.206,167.5559,NA,NA,NA,NA,NA,NA,NA,TRUE,5,1.0004,164.2063,167.2059,0,31,31,10,1,10,30,NA,NA,NA,NA,NA,1,32,"likert"
"FFCFFBFB91904311B5C239A9433C2BAB",1,"01990a98-bfa7-7abd-99e2-14b68b195447","01990a84-c4ee-73c2-a87b-ff46a7d3dde5","2025-09-02_08h44.25.600",NA,NA,170.5568,170.5568,170.5568,170.9066,NA,NA,NA,NA,NA,NA,NA,TRUE,5,0.9653,167.558,170.5566,0,32,32,71,1,60,54,NA,NA,NA,NA,NA,1,33,"likert"
"FFCFFBFB91904311B5C239A9433C2BAB",1,"01990a98-bfa7-7abd-99e2-14b68b195447","01990a84-c4ee-73c2-a87b-ff46a7d3dde5","2025-09-02_08h44.25.600",NA,NA,173.9078,173.9078,173.9078,174.2574,NA,NA,NA,NA,NA,NA,NA,TRUE,5,0.9517,170.9102,173.9075,0,33,33,64,1,50,46,NA,NA,NA,NA,NA,1,34,"likert"
"FFCFFBFB91904311B5C239A9433C2BAB",1,"01990a98-bfa7-7abd-99e2-14b68b195447","01990a84-c4ee-73c2-a87b-ff46a7d3dde5","2025-09-02_08h44.25.600",NA,NA,177.2585,177.2586,177.2586,177.6082,NA,NA,NA,NA,NA,NA,NA,TRUE,1,0.6948,174.2592,177.258,0,34,34,91,1,150,33,NA,NA,NA,NA,NA,1,35,"likert"
"FFCFFBFB91904311B5C239A9433C2BAB",1,"01990a98-bfa7-7abd-99e2-14b68b195447","01990a84-c4ee-73c2-a87b-ff46a7d3dde5","2025-09-02_08h44.25.600",NA,NA,180.609,180.609,180.609,180.9591,NA,NA,NA,NA,NA,NA,NA,TRUE,1,0.8108,177.6103,180.6087,0,35,35,92,1,150,35,NA,NA,NA,NA,NA,1,36,"likert"
"FFCFFBFB91904311B5C239A9433C2BAB",1,"01990a98-bfa7-7abd-99e2-14b68b195447","01990a84-c4ee-73c2-a87b-ff46a7d3dde5","2025-09-02_08h44.25.600",NA,NA,183.9599,183.96,183.96,184.3094,NA,NA,NA,NA,NA,NA,NA,TRUE,1,0.7947,180.9622,183.9597,0,36,36,0,1,7,25,NA,NA,NA,NA,NA,1,37,"likert"
"FFCFFBFB91904311B5C239A9433C2BAB",1,"01990a98-bfa7-7abd-99e2-14b68b195447","01990a84-c4ee-73c2-a87b-ff46a7d3dde5","2025-09-02_08h44.25.600",NA,NA,187.3103,187.3104,187.3104,187.6602,NA,NA,NA,NA,NA,NA,NA,TRUE,1,0.5621,184.3123,187.3101,0,37,37,43,1,30,27,NA,NA,NA,NA,NA,1,38,"likert"
"FFCFFBFB91904311B5C239A9433C2BAB",1,"01990a98-bfa7-7abd-99e2-14b68b195447","01990a84-c4ee-73c2-a87b-ff46a7d3dde5","2025-09-02_08h44.25.600",NA,NA,190.6611,190.6611,190.6612,191.0109,NA,NA,NA,NA,NA,NA,NA,TRUE,1,0.8999,187.663,190.6609,0,38,38,15,1,12,31,NA,NA,NA,NA,NA,1,39,"likert"
"FFCFFBFB91904311B5C239A9433C2BAB",1,"01990a98-bfa7-7abd-99e2-14b68b195447","01990a84-c4ee-73c2-a87b-ff46a7d3dde5","2025-09-02_08h44.25.600",NA,NA,194.0118,194.0119,194.0119,194.3616,NA,NA,NA,NA,NA,NA,NA,TRUE,1,0.5683,191.0146,194.0117,0,39,39,77,1,90,54,NA,NA,NA,NA,NA,1,40,"likert"
"FFCFFBFB91904311B5C239A9433C2BAB",1,"01990a98-bfa7-7abd-99e2-14b68b195447","01990a84-c4ee-73c2-a87b-ff46a7d3dde5","2025-09-02_08h44.25.600",NA,NA,197.3624,197.3625,197.3625,197.7122,NA,NA,NA,NA,NA,NA,NA,TRUE,1,0.6113,194.3634,197.3623,0,40,40,2,1,7,28,NA,NA,NA,NA,NA,1,41,"likert"
"FFCFFBFB91904311B5C239A9433C2BAB",1,"01990a98-bfa7-7abd-99e2-14b68b195447","01990a84-c4ee-73c2-a87b-ff46a7d3dde5","2025-09-02_08h44.25.600",NA,NA,200.7131,200.7131,200.7132,201.0629,NA,NA,NA,NA,NA,NA,NA,TRUE,1,0.5118,197.7139,200.7128,0,41,41,49,1,40,33,NA,NA,NA,NA,NA,1,42,"likert"
"FFCFFBFB91904311B5C239A9433C2BAB",1,"01990a98-bfa7-7abd-99e2-14b68b195447","01990a84-c4ee-73c2-a87b-ff46a7d3dde5","2025-09-02_08h44.25.600",NA,NA,204.0638,204.0639,204.0639,204.4136,NA,NA,NA,NA,NA,NA,NA,TRUE,1,0.4298,201.0655,204.0637,0,42,42,32,1,25,31,NA,NA,NA,NA,NA,1,43,"likert"
"FFCFFBFB91904311B5C239A9433C2BAB",1,"01990a98-bfa7-7abd-99e2-14b68b195447","01990a84-c4ee-73c2-a87b-ff46a7d3dde5","2025-09-02_08h44.25.600",NA,NA,207.4145,207.4146,207.4146,207.7642,NA,NA,NA,NA,NA,NA,NA,TRUE,1,1.3466,204.4161,207.4144,0,43,43,67,1,60,33,NA,NA,NA,NA,NA,1,44,"likert"
"FFCFFBFB91904311B5C239A9433C2BAB",1,"01990a98-bfa7-7abd-99e2-14b68b195447","01990a84-c4ee-73c2-a87b-ff46a7d3dde5","2025-09-02_08h44.25.600",NA,NA,210.7652,210.7652,210.7653,211.115,NA,NA,NA,NA,NA,NA,NA,TRUE,1,0.8621,207.7663,210.765,0,44,44,26,1,21,29,NA,NA,NA,NA,NA,1,45,"likert"
"FFCFFBFB91904311B5C239A9433C2BAB",1,"01990a98-bfa7-7abd-99e2-14b68b195447","01990a84-c4ee-73c2-a87b-ff46a7d3dde5","2025-09-02_08h44.25.600",NA,NA,214.1161,214.1162,214.1162,214.4656,NA,NA,NA,NA,NA,NA,NA,TRUE,1,0.6428,211.1181,214.1158,0,45,45,69,1,60,40,NA,NA,NA,NA,NA,1,46,"likert"
"FFCFFBFB91904311B5C239A9433C2BAB",1,"01990a98-bfa7-7abd-99e2-14b68b195447","01990a84-c4ee-73c2-a87b-ff46a7d3dde5","2025-09-02_08h44.25.600",NA,NA,217.4665,217.4666,217.4666,217.8164,NA,NA,NA,NA,NA,NA,NA,TRUE,1,0.5621,214.4675,217.4664,0,46,46,70,1,60,47,NA,NA,NA,NA,NA,1,47,"likert"
"FFCFFBFB91904311B5C239A9433C2BAB",1,"01990a98-bfa7-7abd-99e2-14b68b195447","01990a84-c4ee-73c2-a87b-ff46a7d3dde5","2025-09-02_08h44.25.600",NA,NA,220.8173,220.8175,220.8175,221.1671,NA,NA,NA,NA,NA,NA,NA,TRUE,5,0.7616,217.8183,220.8172,0,47,47,104,1,200,35,NA,NA,NA,NA,NA,1,48,"likert"
"FFCFFBFB91904311B5C239A9433C2BAB",1,"01990a98-bfa7-7abd-99e2-14b68b195447","01990a84-c4ee-73c2-a87b-ff46a7d3dde5","2025-09-02_08h44.25.600",NA,NA,224.1696,224.17,224.1701,224.5178,NA,NA,NA,NA,NA,NA,NA,TRUE,1,0.7762,221.1694,224.1685,0,48,48,34,1,25,35,NA,NA,NA,NA,NA,1,49,"likert"
"FFCFFBFB91904311B5C239A9433C2BAB",1,"01990a98-bfa7-7abd-99e2-14b68b195447","01990a84-c4ee-73c2-a87b-ff46a7d3dde5","2025-09-02_08h44.25.600",NA,NA,227.5187,227.5188,227.5188,227.8685,NA,NA,NA,NA,NA,NA,NA,TRUE,1,0.4969,224.5197,227.5184,0,49,49,39,1,28,35,NA,NA,NA,NA,NA,1,50,"likert"
"FFCFFBFB91904311B5C239A9433C2BAB",1,"01990a98-bfa7-7abd-99e2-14b68b195447","01990a84-c4ee-73c2-a87b-ff46a7d3dde5","2025-09-02_08h44.25.600",NA,NA,230.8696,230.8697,230.8697,231.2194,NA,NA,NA,NA,NA,NA,NA,TRUE,1,0.5906,227.8695,230.8694,0,50,50,96,1,180,27,NA,NA,NA,NA,NA,1,51,"likert"
"FFCFFBFB91904311B5C239A9433C2BAB",1,"01990a98-bfa7-7abd-99e2-14b68b195447","01990a84-c4ee-73c2-a87b-ff46a7d3dde5","2025-09-02_08h44.25.600",NA,NA,234.2201,234.2202,234.2202,234.5699,NA,NA,NA,NA,NA,NA,NA,TRUE,1,0.5753,231.223,234.22,0,51,51,19,1,14,26,NA,NA,NA,NA,NA,1,52,"likert"
"FFCFFBFB91904311B5C239A9433C2BAB",1,"01990a98-bfa7-7abd-99e2-14b68b195447","01990a84-c4ee-73c2-a87b-ff46a7d3dde5","2025-09-02_08h44.25.600",NA,NA,237.5709,237.821,237.821,237.9206,NA,NA,NA,NA,NA,NA,NA,FALSE,NA,NA,234.5724,237.5707,0,52,52,44,1,30,29,NA,NA,NA,NA,NA,1,53,"likert"
"FFCFFBFB91904311B5C239A9433C2BAB",1,"01990a98-bfa7-7abd-99e2-14b68b195447","01990a84-c4ee-73c2-a87b-ff46a7d3dde5","2025-09-02_08h44.25.600",NA,NA,240.9051,240.9051,240.9052,241.2547,NA,NA,NA,NA,NA,NA,NA,TRUE,1,1.1281,237.9232,240.9048,0,53,53,23,1,14,39,NA,NA,NA,NA,NA,1,54,"likert"
"FFCFFBFB91904311B5C239A9433C2BAB",1,"01990a98-bfa7-7abd-99e2-14b68b195447","01990a84-c4ee-73c2-a87b-ff46a7d3dde5","2025-09-02_08h44.25.600",NA,NA,244.2557,244.2558,244.2559,244.6055,NA,NA,NA,NA,NA,NA,NA,TRUE,5,1.1459,241.2576,244.2555,0,54,54,78,1,95,31,NA,NA,NA,NA,NA,1,55,"likert"
"FFCFFBFB91904311B5C239A9433C2BAB",1,"01990a98-bfa7-7abd-99e2-14b68b195447","01990a84-c4ee-73c2-a87b-ff46a7d3dde5","2025-09-02_08h44.25.600",NA,NA,247.6061,247.6061,247.6061,247.9561,NA,NA,NA,NA,NA,NA,NA,TRUE,1,1.5633,244.6076,247.606,0,55,55,13,1,12,26,NA,NA,NA,NA,NA,1,56,"likert"
"FFCFFBFB91904311B5C239A9433C2BAB",1,"01990a98-bfa7-7abd-99e2-14b68b195447","01990a84-c4ee-73c2-a87b-ff46a7d3dde5","2025-09-02_08h44.25.600",NA,NA,250.957,250.957,250.9571,251.3068,NA,NA,NA,NA,NA,NA,NA,TRUE,1,0.7985,247.9582,250.9568,0,56,56,7,1,10,26,NA,NA,NA,NA,NA,1,57,"likert"
"FFCFFBFB91904311B5C239A9433C2BAB",1,"01990a98-bfa7-7abd-99e2-14b68b195447","01990a84-c4ee-73c2-a87b-ff46a7d3dde5","2025-09-02_08h44.25.600",NA,NA,254.3077,254.3078,254.3078,254.6574,NA,NA,NA,NA,NA,NA,NA,TRUE,1,0.5324,251.3087,254.3076,0,57,57,84,1,100,26,NA,NA,NA,NA,NA,1,58,"likert"
"FFCFFBFB91904311B5C239A9433C2BAB",1,"01990a98-bfa7-7abd-99e2-14b68b195447","01990a84-c4ee-73c2-a87b-ff46a7d3dde5","2025-09-02_08h44.25.600",NA,NA,257.6586,257.6587,257.6587,258.0083,NA,NA,NA,NA,NA,NA,NA,TRUE,1,0.4984,254.6596,257.6584,0,58,58,87,1,100,39,NA,NA,NA,NA,NA,1,59,"likert"
"FFCFFBFB91904311B5C239A9433C2BAB",1,"01990a98-bfa7-7abd-99e2-14b68b195447","01990a84-c4ee-73c2-a87b-ff46a7d3dde5","2025-09-02_08h44.25.600",NA,NA,261.0091,261.0091,261.0091,261.3589,NA,NA,NA,NA,NA,NA,NA,TRUE,1,0.8794,258.0101,261.0087,0,59,59,18,1,14,25,NA,NA,NA,NA,NA,1,60,"likert"
"FFCFFBFB91904311B5C239A9433C2BAB",1,"01990a98-bfa7-7abd-99e2-14b68b195447","01990a84-c4ee-73c2-a87b-ff46a7d3dde5","2025-09-02_08h44.25.600",NA,NA,264.3598,264.3599,264.36,264.7095,NA,NA,NA,NA,NA,NA,NA,TRUE,1,0.6601,261.3609,264.3596,0,60,60,12,1,12,25,NA,NA,NA,NA,NA,1,61,"likert"
"FFCFFBFB91904311B5C239A9433C2BAB",1,"01990a98-bfa7-7abd-99e2-14b68b195447","01990a84-c4ee-73c2-a87b-ff46a7d3dde5","2025-09-02_08h44.25.600",NA,NA,267.7104,267.7105,267.7105,268.0603,NA,NA,NA,NA,NA,NA,NA,TRUE,1,0.4155,264.7115,267.7103,0,61,61,31,1,25,29,NA,NA,NA,NA,NA,1,62,"likert"
"FFCFFBFB91904311B5C239A9433C2BAB",1,"01990a98-bfa7-7abd-99e2-14b68b195447","01990a84-c4ee-73c2-a87b-ff46a7d3dde5","2025-09-02_08h44.25.600",NA,NA,271.0612,271.0613,271.0614,271.411,NA,NA,NA,NA,NA,NA,NA,TRUE,1,0.559,268.0637,271.0611,0,62,62,89,1,100,54,NA,NA,NA,NA,NA,1,63,"likert"
"FFCFFBFB91904311B5C239A9433C2BAB",1,"01990a98-bfa7-7abd-99e2-14b68b195447","01990a84-c4ee-73c2-a87b-ff46a7d3dde5","2025-09-02_08h44.25.600",NA,NA,274.412,274.412,274.4121,274.7617,NA,NA,NA,NA,NA,NA,NA,TRUE,1,0.5505,271.413,274.4117,0,63,63,6,1,10,25,NA,NA,NA,NA,NA,1,64,"likert"
"FFCFFBFB91904311B5C239A9433C2BAB",1,"01990a98-bfa7-7abd-99e2-14b68b195447","01990a84-c4ee-73c2-a87b-ff46a7d3dde5","2025-09-02_08h44.25.600",NA,NA,277.7625,277.7625,277.7625,278.1124,NA,NA,NA,NA,NA,NA,NA,TRUE,1,0.5455,274.7639,277.7623,0,64,64,106,1,200,47,NA,NA,NA,NA,NA,1,65,"likert"
"FFCFFBFB91904311B5C239A9433C2BAB",1,"01990a98-bfa7-7abd-99e2-14b68b195447","01990a84-c4ee-73c2-a87b-ff46a7d3dde5","2025-09-02_08h44.25.600",NA,NA,281.1133,281.1133,281.1133,281.4631,NA,NA,NA,NA,NA,NA,NA,TRUE,1,0.7769,278.1139,281.1131,0,65,65,57,1,45,35,NA,NA,NA,NA,NA,1,66,"likert"
"FFCFFBFB91904311B5C239A9433C2BAB",1,"01990a98-bfa7-7abd-99e2-14b68b195447","01990a84-c4ee-73c2-a87b-ff46a7d3dde5","2025-09-02_08h44.25.600",NA,NA,284.4639,284.4639,284.4639,284.8137,NA,NA,NA,NA,NA,NA,NA,TRUE,1,0.613,281.4653,284.4638,0,66,66,9,1,10,29,NA,NA,NA,NA,NA,1,67,"likert"
"FFCFFBFB91904311B5C239A9433C2BAB",1,"01990a98-bfa7-7abd-99e2-14b68b195447","01990a84-c4ee-73c2-a87b-ff46a7d3dde5","2025-09-02_08h44.25.600",NA,NA,287.8146,287.8146,287.8146,288.1644,NA,NA,NA,NA,NA,NA,NA,TRUE,1,0.5795,284.8156,287.8143,0,67,67,36,1,28,26,NA,NA,NA,NA,NA,1,68,"likert"
"FFCFFBFB91904311B5C239A9433C2BAB",1,"01990a98-bfa7-7abd-99e2-14b68b195447","01990a84-c4ee-73c2-a87b-ff46a7d3dde5","2025-09-02_08h44.25.600",NA,NA,291.1653,291.1653,291.1654,291.5151,NA,NA,NA,NA,NA,NA,NA,TRUE,1,0.7927,288.1665,291.1651,0,68,68,38,1,28,32,NA,NA,NA,NA,NA,1,69,"likert"
"FFCFFBFB91904311B5C239A9433C2BAB",1,"01990a98-bfa7-7abd-99e2-14b68b195447","01990a84-c4ee-73c2-a87b-ff46a7d3dde5","2025-09-02_08h44.25.600",NA,NA,294.5159,294.516,294.5161,294.8659,NA,NA,NA,NA,NA,NA,NA,TRUE,1,0.5169,291.5168,294.5157,0,69,69,81,1,95,40,NA,NA,NA,NA,NA,1,70,"likert"
"FFCFFBFB91904311B5C239A9433C2BAB",1,"01990a98-bfa7-7abd-99e2-14b68b195447","01990a84-c4ee-73c2-a87b-ff46a7d3dde5","2025-09-02_08h44.25.600",NA,NA,297.8668,297.8668,297.8668,298.2165,NA,NA,NA,NA,NA,NA,NA,TRUE,5,1.002,294.8669,297.8666,0,70,70,35,1,25,46,NA,NA,NA,NA,NA,1,71,"likert"
"FFCFFBFB91904311B5C239A9433C2BAB",1,"01990a98-bfa7-7abd-99e2-14b68b195447","01990a84-c4ee-73c2-a87b-ff46a7d3dde5","2025-09-02_08h44.25.600",NA,NA,301.2175,301.2175,301.2176,301.5673,NA,NA,NA,NA,NA,NA,NA,TRUE,5,0.8278,298.2182,301.2173,0,71,71,17,1,12,35,NA,NA,NA,NA,NA,1,72,"likert"
"FFCFFBFB91904311B5C239A9433C2BAB",1,"01990a98-bfa7-7abd-99e2-14b68b195447","01990a84-c4ee-73c2-a87b-ff46a7d3dde5","2025-09-02_08h44.25.600",NA,NA,304.5682,304.5683,304.5683,304.9178,NA,NA,NA,NA,NA,NA,NA,TRUE,1,0.8113,301.5689,304.568,0,72,72,90,1,150,31,NA,NA,NA,NA,NA,1,73,"likert"
"FFCFFBFB91904311B5C239A9433C2BAB",1,"01990a98-bfa7-7abd-99e2-14b68b195447","01990a84-c4ee-73c2-a87b-ff46a7d3dde5","2025-09-02_08h44.25.600",NA,NA,307.9189,307.919,307.919,308.2688,NA,NA,NA,NA,NA,NA,NA,TRUE,1,1.101,304.92,307.9187,0,73,73,101,1,180,54,NA,NA,NA,NA,NA,1,74,"likert"
"FFCFFBFB91904311B5C239A9433C2BAB",1,"01990a98-bfa7-7abd-99e2-14b68b195447","01990a84-c4ee-73c2-a87b-ff46a7d3dde5","2025-09-02_08h44.25.600",NA,NA,311.2697,311.2699,311.2699,311.6193,NA,NA,NA,NA,NA,NA,NA,TRUE,1,0.8648,308.2709,311.2695,0,74,74,60,1,50,27,NA,NA,NA,NA,NA,1,75,"likert"
"FFCFFBFB91904311B5C239A9433C2BAB",1,"01990a98-bfa7-7abd-99e2-14b68b195447","01990a84-c4ee-73c2-a87b-ff46a7d3dde5","2025-09-02_08h44.25.600",NA,NA,314.6201,314.6202,314.6202,314.9701,NA,NA,NA,NA,NA,NA,NA,TRUE,1,0.7441,311.6212,314.6201,0,75,75,21,1,14,32,NA,NA,NA,NA,NA,1,76,"likert"
"FFCFFBFB91904311B5C239A9433C2BAB",1,"01990a98-bfa7-7abd-99e2-14b68b195447","01990a84-c4ee-73c2-a87b-ff46a7d3dde5","2025-09-02_08h44.25.600",NA,NA,317.9711,317.9712,317.9712,318.3208,NA,NA,NA,NA,NA,NA,NA,TRUE,5,1.5135,314.9712,317.9709,0,76,76,25,1,21,27,NA,NA,NA,NA,NA,1,77,"likert"
"FFCFFBFB91904311B5C239A9433C2BAB",1,"01990a98-bfa7-7abd-99e2-14b68b195447","01990a84-c4ee-73c2-a87b-ff46a7d3dde5","2025-09-02_08h44.25.600",NA,NA,321.305,321.305,321.305,321.6548,NA,NA,NA,NA,NA,NA,NA,TRUE,1,1.1964,318.3226,321.3048,0,77,77,80,1,95,35,NA,NA,NA,NA,NA,1,78,"likert"
"FFCFFBFB91904311B5C239A9433C2BAB",1,"01990a98-bfa7-7abd-99e2-14b68b195447","01990a84-c4ee-73c2-a87b-ff46a7d3dde5","2025-09-02_08h44.25.600",NA,NA,324.6558,324.6558,324.6558,325.0055,NA,NA,NA,NA,NA,NA,NA,TRUE,1,1.213,321.656,324.6555,0,78,78,100,1,180,46,NA,NA,NA,NA,NA,1,79,"likert"
"FFCFFBFB91904311B5C239A9433C2BAB",1,"01990a98-bfa7-7abd-99e2-14b68b195447","01990a84-c4ee-73c2-a87b-ff46a7d3dde5","2025-09-02_08h44.25.600",NA,NA,328.0064,328.0065,328.0065,328.3563,NA,NA,NA,NA,NA,NA,NA,TRUE,5,1.3869,325.0076,328.0062,0,79,79,5,1,7,35,NA,NA,NA,NA,NA,1,80,"likert"
"FFCFFBFB91904311B5C239A9433C2BAB",1,"01990a98-bfa7-7abd-99e2-14b68b195447","01990a84-c4ee-73c2-a87b-ff46a7d3dde5","2025-09-02_08h44.25.600",NA,NA,331.3571,331.3571,331.3571,331.7068,NA,NA,NA,NA,NA,NA,NA,TRUE,1,1.6625,328.3589,331.3569,0,80,80,85,1,100,31,NA,NA,NA,NA,NA,1,81,"likert"
"FFCFFBFB91904311B5C239A9433C2BAB",1,"01990a98-bfa7-7abd-99e2-14b68b195447","01990a84-c4ee-73c2-a87b-ff46a7d3dde5","2025-09-02_08h44.25.600",NA,NA,334.7077,334.7077,334.7077,335.0577,NA,NA,NA,NA,NA,NA,NA,TRUE,1,1.5113,331.7078,334.7075,0,81,81,1,1,7,26,NA,NA,NA,NA,NA,1,82,"likert"
"FFCFFBFB91904311B5C239A9433C2BAB",1,"01990a98-bfa7-7abd-99e2-14b68b195447","01990a84-c4ee-73c2-a87b-ff46a7d3dde5","2025-09-02_08h44.25.600",NA,NA,338.0585,338.0585,338.0586,338.4082,NA,NA,NA,NA,NA,NA,NA,TRUE,1,1.3413,335.0599,338.0583,0,82,82,24,1,21,26,NA,NA,NA,NA,NA,1,83,"likert"
"FFCFFBFB91904311B5C239A9433C2BAB",1,"01990a98-bfa7-7abd-99e2-14b68b195447","01990a84-c4ee-73c2-a87b-ff46a7d3dde5","2025-09-02_08h44.25.600",NA,NA,341.4092,341.4092,341.4093,341.7591,NA,NA,NA,NA,NA,NA,NA,TRUE,1,1.5127,338.4109,341.409,0,83,83,62,1,50,35,NA,NA,NA,NA,NA,1,84,"likert"
"FFCFFBFB91904311B5C239A9433C2BAB",1,"01990a98-bfa7-7abd-99e2-14b68b195447","01990a84-c4ee-73c2-a87b-ff46a7d3dde5","2025-09-02_08h44.25.600",NA,NA,344.7599,344.7599,344.7599,345.1097,NA,NA,NA,NA,NA,NA,NA,TRUE,1,1.2662,341.7615,344.7597,0,84,84,94,1,150,47,NA,NA,NA,NA,NA,1,85,"likert"
"FFCFFBFB91904311B5C239A9433C2BAB",1,"01990a98-bfa7-7abd-99e2-14b68b195447","01990a84-c4ee-73c2-a87b-ff46a7d3dde5","2025-09-02_08h44.25.600",NA,NA,348.1107,348.1108,348.1108,348.4605,NA,NA,NA,NA,NA,NA,NA,TRUE,1,1.22,345.112,348.1106,0,85,85,42,1,30,26,NA,NA,NA,NA,NA,1,86,"likert"
"FFCFFBFB91904311B5C239A9433C2BAB",1,"01990a98-bfa7-7abd-99e2-14b68b195447","01990a84-c4ee-73c2-a87b-ff46a7d3dde5","2025-09-02_08h44.25.600",NA,NA,351.4613,351.4614,351.4614,351.8112,NA,NA,NA,NA,NA,NA,NA,TRUE,1,1.0946,348.4622,351.4612,0,86,86,55,1,45,29,NA,NA,NA,NA,NA,1,87,"likert"
"FFCFFBFB91904311B5C239A9433C2BAB",1,"01990a98-bfa7-7abd-99e2-14b68b195447","01990a84-c4ee-73c2-a87b-ff46a7d3dde5","2025-09-02_08h44.25.600",NA,NA,354.8121,354.8122,354.8122,355.1618,NA,NA,NA,NA,NA,NA,NA,TRUE,1,1.2128,351.8133,354.8119,0,87,87,20,1,14,28,NA,NA,NA,NA,NA,1,88,"likert"
"FFCFFBFB91904311B5C239A9433C2BAB",1,"01990a98-bfa7-7abd-99e2-14b68b195447","01990a84-c4ee-73c2-a87b-ff46a7d3dde5","2025-09-02_08h44.25.600",NA,NA,358.1632,358.1632,358.1632,358.5124,NA,NA,NA,NA,NA,NA,NA,TRUE,5,1.2138,355.1633,358.1628,0,88,88,33,1,25,33,NA,NA,NA,NA,NA,1,89,"likert"
"FFCFFBFB91904311B5C239A9433C2BAB",1,"01990a98-bfa7-7abd-99e2-14b68b195447","01990a84-c4ee-73c2-a87b-ff46a7d3dde5","2025-09-02_08h44.25.600",NA,NA,361.5135,361.5135,361.5135,361.8632,NA,NA,NA,NA,NA,NA,NA,TRUE,1,1.4125,358.5142,361.5131,0,89,89,50,1,40,35,NA,NA,NA,NA,NA,1,90,"likert"
"FFCFFBFB91904311B5C239A9433C2BAB",1,"01990a98-bfa7-7abd-99e2-14b68b195447","01990a84-c4ee-73c2-a87b-ff46a7d3dde5","2025-09-02_08h44.25.600",NA,NA,364.864,364.864,364.864,365.214,NA,NA,NA,NA,NA,NA,NA,TRUE,5,1.8183,361.8656,364.8638,0,90,90,4,1,7,32,NA,NA,NA,NA,NA,1,91,"likert"
"FFCFFBFB91904311B5C239A9433C2BAB",1,"01990a98-bfa7-7abd-99e2-14b68b195447","01990a84-c4ee-73c2-a87b-ff46a7d3dde5","2025-09-02_08h44.25.600",NA,NA,368.2148,368.2148,368.2148,368.5647,NA,NA,NA,NA,NA,NA,NA,TRUE,1,1.1528,365.215,368.2145,0,91,91,107,1,200,54,NA,NA,NA,NA,NA,1,92,"likert"
"FFCFFBFB91904311B5C239A9433C2BAB",1,"01990a98-bfa7-7abd-99e2-14b68b195447","01990a84-c4ee-73c2-a87b-ff46a7d3dde5","2025-09-02_08h44.25.600",NA,NA,371.5658,371.5659,371.5659,371.9153,NA,NA,NA,NA,NA,NA,NA,TRUE,5,1.4952,368.5665,371.5657,0,92,92,52,1,40,47,NA,NA,NA,NA,NA,1,93,"likert"
"FFCFFBFB91904311B5C239A9433C2BAB",1,"01990a98-bfa7-7abd-99e2-14b68b195447","01990a84-c4ee-73c2-a87b-ff46a7d3dde5","2025-09-02_08h44.25.600",NA,NA,374.9162,374.9163,374.9163,375.266,NA,NA,NA,NA,NA,NA,NA,TRUE,5,1.6442,371.9182,374.916,0,93,93,53,1,40,54,NA,NA,NA,NA,NA,1,94,"likert"
"FFCFFBFB91904311B5C239A9433C2BAB",1,"01990a98-bfa7-7abd-99e2-14b68b195447","01990a84-c4ee-73c2-a87b-ff46a7d3dde5","2025-09-02_08h44.25.600",NA,NA,378.2669,378.267,378.267,378.6169,NA,NA,NA,NA,NA,NA,NA,TRUE,5,1.6334,375.268,378.2667,0,94,94,41,1,28,46,NA,NA,NA,NA,NA,1,95,"likert"
"FFCFFBFB91904311B5C239A9433C2BAB",1,"01990a98-bfa7-7abd-99e2-14b68b195447","01990a84-c4ee-73c2-a87b-ff46a7d3dde5","2025-09-02_08h44.25.600",NA,NA,381.6176,381.6178,381.6178,381.9674,NA,NA,NA,NA,NA,NA,NA,TRUE,5,1.1514,378.6196,381.6175,0,95,95,47,1,30,38,NA,NA,NA,NA,NA,1,96,"likert"
"FFCFFBFB91904311B5C239A9433C2BAB",1,"01990a98-bfa7-7abd-99e2-14b68b195447","01990a84-c4ee-73c2-a87b-ff46a7d3dde5","2025-09-02_08h44.25.600",NA,NA,384.9682,384.9682,384.9682,385.3181,NA,NA,NA,NA,NA,NA,NA,TRUE,1,1.1104,381.9683,384.968,0,96,96,105,1,200,39,NA,NA,NA,NA,NA,1,97,"likert"
"FFCFFBFB91904311B5C239A9433C2BAB",1,"01990a98-bfa7-7abd-99e2-14b68b195447","01990a84-c4ee-73c2-a87b-ff46a7d3dde5","2025-09-02_08h44.25.600",NA,NA,388.3192,388.3193,388.3194,388.6687,NA,NA,NA,NA,NA,NA,NA,TRUE,5,1.2956,385.3193,388.3189,0,97,97,11,1,10,32,NA,NA,NA,NA,NA,1,98,"likert"
"FFCFFBFB91904311B5C239A9433C2BAB",1,"01990a98-bfa7-7abd-99e2-14b68b195447","01990a84-c4ee-73c2-a87b-ff46a7d3dde5","2025-09-02_08h44.25.600",NA,NA,391.67,391.6702,391.6702,392.0196,NA,NA,NA,NA,NA,NA,NA,TRUE,5,0.6871,388.6719,391.6698,0,98,98,75,1,90,40,NA,NA,NA,NA,NA,1,99,"likert"
"FFCFFBFB91904311B5C239A9433C2BAB",1,"01990a98-bfa7-7abd-99e2-14b68b195447","01990a84-c4ee-73c2-a87b-ff46a7d3dde5","2025-09-02_08h44.25.600",NA,NA,395.0205,395.0206,395.0206,395.3704,NA,NA,NA,NA,NA,NA,NA,TRUE,1,1.0951,392.0223,395.0204,0,99,99,95,1,150,54,NA,NA,NA,NA,NA,1,100,"likert"
"FFCFFBFB91904311B5C239A9433C2BAB",1,"01990a98-bfa7-7abd-99e2-14b68b195447","01990a84-c4ee-73c2-a87b-ff46a7d3dde5","2025-09-02_08h44.25.600",NA,NA,398.3709,398.3712,398.3712,398.7208,NA,NA,NA,NA,NA,NA,NA,TRUE,1,0.5447,395.372,398.3708,0,100,100,88,1,100,46,NA,NA,NA,NA,NA,1,101,"likert"
"FFCFFBFB91904311B5C239A9433C2BAB",1,"01990a98-bfa7-7abd-99e2-14b68b195447","01990a84-c4ee-73c2-a87b-ff46a7d3dde5","2025-09-02_08h44.25.600",NA,NA,401.7051,401.7051,401.7053,402.0549,NA,NA,NA,NA,NA,NA,NA,TRUE,1,0.5403,398.7227,401.7049,0,101,101,86,1,100,38,NA,NA,NA,NA,NA,1,102,"likert"
"FFCFFBFB91904311B5C239A9433C2BAB",1,"01990a98-bfa7-7abd-99e2-14b68b195447","01990a84-c4ee-73c2-a87b-ff46a7d3dde5","2025-09-02_08h44.25.600",NA,NA,405.0559,405.0559,405.056,405.4055,NA,NA,NA,NA,NA,NA,NA,TRUE,5,1.1118,402.0572,405.0556,0,102,102,27,1,21,30,NA,NA,NA,NA,NA,1,103,"likert"
"FFCFFBFB91904311B5C239A9433C2BAB",1,"01990a98-bfa7-7abd-99e2-14b68b195447","01990a84-c4ee-73c2-a87b-ff46a7d3dde5","2025-09-02_08h44.25.600",NA,NA,408.4066,408.4066,408.4066,408.7563,NA,NA,NA,NA,NA,NA,NA,TRUE,1,1.0504,405.4077,408.4064,0,103,103,98,1,180,35,NA,NA,NA,NA,NA,1,104,"likert"
"FFCFFBFB91904311B5C239A9433C2BAB",1,"01990a98-bfa7-7abd-99e2-14b68b195447","01990a84-c4ee-73c2-a87b-ff46a7d3dde5","2025-09-02_08h44.25.600",NA,NA,411.7573,411.7574,411.7574,412.107,NA,NA,NA,NA,NA,NA,NA,TRUE,5,1.4012,408.7582,411.757,0,104,104,8,1,10,27,NA,NA,NA,NA,NA,1,105,"likert"
"FFCFFBFB91904311B5C239A9433C2BAB",1,"01990a98-bfa7-7abd-99e2-14b68b195447","01990a84-c4ee-73c2-a87b-ff46a7d3dde5","2025-09-02_08h44.25.600",NA,NA,415.1081,415.1081,415.1082,415.4578,NA,NA,NA,NA,NA,NA,NA,TRUE,5,0.8527,412.1096,415.1077,0,105,105,58,1,45,40,NA,NA,NA,NA,NA,1,106,"likert"
"FFCFFBFB91904311B5C239A9433C2BAB",1,"01990a98-bfa7-7abd-99e2-14b68b195447","01990a84-c4ee-73c2-a87b-ff46a7d3dde5","2025-09-02_08h44.25.600",NA,NA,418.4587,418.4587,418.4588,418.8084,NA,NA,NA,NA,NA,NA,NA,TRUE,5,0.7302,415.4604,418.4584,0,106,106,83,1,95,54,NA,NA,NA,NA,NA,1,107,"likert"
"FFCFFBFB91904311B5C239A9433C2BAB",1,"01990a98-bfa7-7abd-99e2-14b68b195447","01990a84-c4ee-73c2-a87b-ff46a7d3dde5","2025-09-02_08h44.25.600",NA,NA,421.8094,421.8095,421.8095,422.1591,NA,NA,NA,NA,NA,NA,NA,TRUE,5,0.8765,418.8102,421.8092,0,107,107,22,1,14,35,NA,NA,NA,NA,NA,1,108,"likert"
"FFCFFBFB91904311B5C239A9433C2BAB",1,"01990a98-bfa7-7abd-99e2-14b68b195447","01990a84-c4ee-73c2-a87b-ff46a7d3dde5","2025-09-02_08h44.25.600",NA,NA,431.878,432.1281,432.1281,432.2279,NA,NA,NA,NA,NA,NA,NA,FALSE,NA,NA,428.907,431.8779,NA,NA,NA,NA,NA,200,54,0,0,0,107,1,2,1,"likert"
"FFCFFBFB91904311B5C239A9433C2BAB",1,"01990a98-bfa7-7abd-99e2-14b68b195447","01990a84-c4ee-73c2-a87b-ff46a7d3dde5","2025-09-02_08h44.25.600",NA,NA,435.2288,435.2288,435.2288,435.5787,NA,NA,NA,NA,NA,NA,NA,TRUE,1,1.2636,432.2319,435.2286,NA,NA,NA,NA,NA,7,30,0,1,1,3,1,2,2,"likert"
"FFCFFBFB91904311B5C239A9433C2BAB",1,"01990a98-bfa7-7abd-99e2-14b68b195447","01990a84-c4ee-73c2-a87b-ff46a7d3dde5","2025-09-02_08h44.25.600",NA,NA,438.5795,438.5798,438.5798,438.9297,NA,NA,NA,NA,NA,NA,NA,TRUE,5,1.3946,435.5824,438.5794,NA,NA,NA,NA,NA,14,39,0,2,2,23,1,2,3,"likert"
"FFCFFBFB91904311B5C239A9433C2BAB",1,"01990a98-bfa7-7abd-99e2-14b68b195447","01990a84-c4ee-73c2-a87b-ff46a7d3dde5","2025-09-02_08h44.25.600",NA,NA,441.9303,441.9304,441.9304,442.2802,NA,NA,NA,NA,NA,NA,NA,TRUE,1,0.9833,438.934,441.9301,NA,NA,NA,NA,NA,50,30,0,3,3,61,1,2,4,"likert"
"FFCFFBFB91904311B5C239A9433C2BAB",1,"01990a98-bfa7-7abd-99e2-14b68b195447","01990a84-c4ee-73c2-a87b-ff46a7d3dde5","2025-09-02_08h44.25.600",NA,NA,445.2809,445.2811,445.2811,445.6309,NA,NA,NA,NA,NA,NA,NA,TRUE,1,0.7328,442.2821,445.2807,NA,NA,NA,NA,NA,12,26,0,4,4,13,1,2,5,"likert"
"FFCFFBFB91904311B5C239A9433C2BAB",1,"01990a98-bfa7-7abd-99e2-14b68b195447","01990a84-c4ee-73c2-a87b-ff46a7d3dde5","2025-09-02_08h44.25.600",NA,NA,448.6316,448.6316,448.6316,448.9814,NA,NA,NA,NA,NA,NA,NA,TRUE,1,1.0296,445.6318,448.6314,NA,NA,NA,NA,NA,60,40,0,5,5,69,1,2,6,"likert"
"FFCFFBFB91904311B5C239A9433C2BAB",1,"01990a98-bfa7-7abd-99e2-14b68b195447","01990a84-c4ee-73c2-a87b-ff46a7d3dde5","2025-09-02_08h44.25.600",NA,NA,451.9659,451.966,451.966,452.3156,NA,NA,NA,NA,NA,NA,NA,TRUE,5,0.9759,448.9825,451.9658,NA,NA,NA,NA,NA,21,26,0,6,6,24,1,2,7,"likert"
"FFCFFBFB91904311B5C239A9433C2BAB",1,"01990a98-bfa7-7abd-99e2-14b68b195447","01990a84-c4ee-73c2-a87b-ff46a7d3dde5","2025-09-02_08h44.25.600",NA,NA,455.3163,455.3164,455.3164,455.6662,NA,NA,NA,NA,NA,NA,NA,TRUE,1,0.7307,452.3179,455.3162,NA,NA,NA,NA,NA,30,38,0,7,7,47,1,2,8,"likert"
"FFCFFBFB91904311B5C239A9433C2BAB",1,"01990a98-bfa7-7abd-99e2-14b68b195447","01990a84-c4ee-73c2-a87b-ff46a7d3dde5","2025-09-02_08h44.25.600",NA,NA,458.6674,458.6674,458.6674,459.0169,NA,NA,NA,NA,NA,NA,NA,TRUE,5,1.03,455.6679,458.6671,NA,NA,NA,NA,NA,30,32,0,8,8,46,1,2,9,"likert"
"FFCFFBFB91904311B5C239A9433C2BAB",1,"01990a98-bfa7-7abd-99e2-14b68b195447","01990a84-c4ee-73c2-a87b-ff46a7d3dde5","2025-09-02_08h44.25.600",NA,NA,462.0178,462.0178,462.0178,462.3676,NA,NA,NA,NA,NA,NA,NA,TRUE,1,1.1276,459.0201,462.0175,NA,NA,NA,NA,NA,100,46,0,9,9,88,1,2,10,"likert"
"FFCFFBFB91904311B5C239A9433C2BAB",1,"01990a98-bfa7-7abd-99e2-14b68b195447","01990a84-c4ee-73c2-a87b-ff46a7d3dde5","2025-09-02_08h44.25.600",NA,NA,465.3685,465.3686,465.3686,465.7182,NA,NA,NA,NA,NA,NA,NA,TRUE,1,1.3775,462.3699,465.3682,NA,NA,NA,NA,NA,60,47,0,10,10,70,1,2,11,"likert"
"FFCFFBFB91904311B5C239A9433C2BAB",1,"01990a98-bfa7-7abd-99e2-14b68b195447","01990a84-c4ee-73c2-a87b-ff46a7d3dde5","2025-09-02_08h44.25.600",NA,NA,468.7191,468.7192,468.7193,469.0689,NA,NA,NA,NA,NA,NA,NA,TRUE,1,1.3099,465.7217,468.7189,NA,NA,NA,NA,NA,95,33,0,11,11,79,1,2,12,"likert"
"FFCFFBFB91904311B5C239A9433C2BAB",1,"01990a98-bfa7-7abd-99e2-14b68b195447","01990a84-c4ee-73c2-a87b-ff46a7d3dde5","2025-09-02_08h44.25.600",NA,NA,472.0699,472.0699,472.07,472.4196,NA,NA,NA,NA,NA,NA,NA,TRUE,1,1.5125,469.0705,472.0696,NA,NA,NA,NA,NA,50,54,0,12,12,65,1,2,13,"likert"
"FFCFFBFB91904311B5C239A9433C2BAB",1,"01990a98-bfa7-7abd-99e2-14b68b195447","01990a84-c4ee-73c2-a87b-ff46a7d3dde5","2025-09-02_08h44.25.600",NA,NA,475.4206,475.4206,475.4207,475.7704,NA,NA,NA,NA,NA,NA,NA,TRUE,5,1.119,472.4219,475.4204,NA,NA,NA,NA,NA,14,35,0,13,13,22,1,2,14,"likert"
"FFCFFBFB91904311B5C239A9433C2BAB",1,"01990a98-bfa7-7abd-99e2-14b68b195447","01990a84-c4ee-73c2-a87b-ff46a7d3dde5","2025-09-02_08h44.25.600",NA,NA,478.7712,478.7712,478.7713,479.1211,NA,NA,NA,NA,NA,NA,NA,TRUE,1,1.1454,475.7713,478.771,NA,NA,NA,NA,NA,95,35,0,14,14,80,1,2,15,"likert"
"FFCFFBFB91904311B5C239A9433C2BAB",1,"01990a98-bfa7-7abd-99e2-14b68b195447","01990a84-c4ee-73c2-a87b-ff46a7d3dde5","2025-09-02_08h44.25.600",NA,NA,482.1223,482.1223,482.1223,482.4718,NA,NA,NA,NA,NA,NA,NA,TRUE,1,0.911,479.123,482.1218,NA,NA,NA,NA,NA,180,35,0,15,15,98,1,2,16,"likert"
"FFCFFBFB91904311B5C239A9433C2BAB",1,"01990a98-bfa7-7abd-99e2-14b68b195447","01990a84-c4ee-73c2-a87b-ff46a7d3dde5","2025-09-02_08h44.25.600",NA,NA,485.4727,485.4728,485.473,485.8225,NA,NA,NA,NA,NA,NA,NA,TRUE,1,0.7464,482.4738,485.4725,NA,NA,NA,NA,NA,60,35,0,16,16,68,1,2,17,"likert"
"FFCFFBFB91904311B5C239A9433C2BAB",1,"01990a98-bfa7-7abd-99e2-14b68b195447","01990a84-c4ee-73c2-a87b-ff46a7d3dde5","2025-09-02_08h44.25.600",NA,NA,488.8235,488.8235,488.8235,489.1732,NA,NA,NA,NA,NA,NA,NA,TRUE,1,0.9624,485.8237,488.8232,NA,NA,NA,NA,NA,150,33,0,17,17,91,1,2,18,"likert"
"FFCFFBFB91904311B5C239A9433C2BAB",1,"01990a98-bfa7-7abd-99e2-14b68b195447","01990a84-c4ee-73c2-a87b-ff46a7d3dde5","2025-09-02_08h44.25.600",NA,NA,492.1741,492.1742,492.1742,492.5239,NA,NA,NA,NA,NA,NA,NA,TRUE,1,1.1617,489.1742,492.1739,NA,NA,NA,NA,NA,40,47,0,18,18,52,1,2,19,"likert"
"FFCFFBFB91904311B5C239A9433C2BAB",1,"01990a98-bfa7-7abd-99e2-14b68b195447","01990a84-c4ee-73c2-a87b-ff46a7d3dde5","2025-09-02_08h44.25.600",NA,NA,495.525,495.5251,495.5251,495.8745,NA,NA,NA,NA,NA,NA,NA,TRUE,1,1.1448,492.525,495.5246,NA,NA,NA,NA,NA,28,28,0,19,19,37,1,2,20,"likert"
"FFCFFBFB91904311B5C239A9433C2BAB",1,"01990a98-bfa7-7abd-99e2-14b68b195447","01990a84-c4ee-73c2-a87b-ff46a7d3dde5","2025-09-02_08h44.25.600",NA,NA,498.8756,498.8756,498.8757,499.2252,NA,NA,NA,NA,NA,NA,NA,TRUE,1,1.1002,495.878,498.8753,NA,NA,NA,NA,NA,21,27,0,20,20,25,1,2,21,"likert"
"FFCFFBFB91904311B5C239A9433C2BAB",1,"01990a98-bfa7-7abd-99e2-14b68b195447","01990a84-c4ee-73c2-a87b-ff46a7d3dde5","2025-09-02_08h44.25.600",NA,NA,502.2262,502.2263,502.2263,502.5762,NA,NA,NA,NA,NA,NA,NA,TRUE,1,1.1203,499.227,502.2258,NA,NA,NA,NA,NA,60,29,0,21,21,66,1,2,22,"likert"
"FFCFFBFB91904311B5C239A9433C2BAB",1,"01990a98-bfa7-7abd-99e2-14b68b195447","01990a84-c4ee-73c2-a87b-ff46a7d3dde5","2025-09-02_08h44.25.600",NA,NA,505.577,505.577,505.577,505.9267,NA,NA,NA,NA,NA,NA,NA,TRUE,1,0.8139,502.5781,505.5768,NA,NA,NA,NA,NA,100,54,0,22,22,89,1,2,23,"likert"
"FFCFFBFB91904311B5C239A9433C2BAB",1,"01990a98-bfa7-7abd-99e2-14b68b195447","01990a84-c4ee-73c2-a87b-ff46a7d3dde5","2025-09-02_08h44.25.600",NA,NA,508.9276,508.9277,508.9277,509.2774,NA,NA,NA,NA,NA,NA,NA,TRUE,5,1.0619,505.9287,508.9274,NA,NA,NA,NA,NA,25,46,0,23,23,35,1,2,24,"likert"
"FFCFFBFB91904311B5C239A9433C2BAB",1,"01990a98-bfa7-7abd-99e2-14b68b195447","01990a84-c4ee-73c2-a87b-ff46a7d3dde5","2025-09-02_08h44.25.600",NA,NA,512.2781,512.2782,512.2782,512.6281,NA,NA,NA,NA,NA,NA,NA,TRUE,1,0.8583,509.2794,512.278,NA,NA,NA,NA,NA,100,26,0,24,24,84,1,2,25,"likert"
"FFCFFBFB91904311B5C239A9433C2BAB",1,"01990a98-bfa7-7abd-99e2-14b68b195447","01990a84-c4ee-73c2-a87b-ff46a7d3dde5","2025-09-02_08h44.25.600",NA,NA,515.629,515.629,515.6291,515.9787,NA,NA,NA,NA,NA,NA,NA,TRUE,1,0.9633,512.6297,515.6287,NA,NA,NA,NA,NA,150,31,0,25,25,90,1,2,26,"likert"
"FFCFFBFB91904311B5C239A9433C2BAB",1,"01990a98-bfa7-7abd-99e2-14b68b195447","01990a84-c4ee-73c2-a87b-ff46a7d3dde5","2025-09-02_08h44.25.600",NA,NA,518.9797,518.9798,518.9798,519.3296,NA,NA,NA,NA,NA,NA,NA,TRUE,1,0.9017,515.9801,518.9794,NA,NA,NA,NA,NA,28,32,0,26,26,38,1,2,27,"likert"
"FFCFFBFB91904311B5C239A9433C2BAB",1,"01990a98-bfa7-7abd-99e2-14b68b195447","01990a84-c4ee-73c2-a87b-ff46a7d3dde5","2025-09-02_08h44.25.600",NA,NA,522.3305,522.3306,522.3306,522.6803,NA,NA,NA,NA,NA,NA,NA,TRUE,1,0.7335,519.3314,522.3304,NA,NA,NA,NA,NA,200,35,0,27,27,104,1,2,28,"likert"
"FFCFFBFB91904311B5C239A9433C2BAB",1,"01990a98-bfa7-7abd-99e2-14b68b195447","01990a84-c4ee-73c2-a87b-ff46a7d3dde5","2025-09-02_08h44.25.600",NA,NA,525.6811,525.6812,525.6813,526.0309,NA,NA,NA,NA,NA,NA,NA,TRUE,1,0.5955,522.6815,525.681,NA,NA,NA,NA,NA,150,35,0,28,28,92,1,2,29,"likert"
"FFCFFBFB91904311B5C239A9433C2BAB",1,"01990a98-bfa7-7abd-99e2-14b68b195447","01990a84-c4ee-73c2-a87b-ff46a7d3dde5","2025-09-02_08h44.25.600",NA,NA,529.0317,529.0319,529.0319,529.3816,NA,NA,NA,NA,NA,NA,NA,TRUE,1,0.6971,526.0321,529.0315,NA,NA,NA,NA,NA,150,54,0,29,29,95,1,2,30,"likert"
"FFCFFBFB91904311B5C239A9433C2BAB",1,"01990a98-bfa7-7abd-99e2-14b68b195447","01990a84-c4ee-73c2-a87b-ff46a7d3dde5","2025-09-02_08h44.25.600",NA,NA,532.3658,532.3659,532.3659,532.7156,NA,NA,NA,NA,NA,NA,NA,TRUE,1,0.7283,529.3843,532.3656,NA,NA,NA,NA,NA,95,47,0,30,30,82,1,2,31,"likert"
"FFCFFBFB91904311B5C239A9433C2BAB",1,"01990a98-bfa7-7abd-99e2-14b68b195447","01990a84-c4ee-73c2-a87b-ff46a7d3dde5","2025-09-02_08h44.25.600",NA,NA,535.7165,535.7165,535.7166,536.0662,NA,NA,NA,NA,NA,NA,NA,TRUE,1,0.7771,532.7184,535.7163,NA,NA,NA,NA,NA,180,31,0,31,31,97,1,2,32,"likert"
"FFCFFBFB91904311B5C239A9433C2BAB",1,"01990a98-bfa7-7abd-99e2-14b68b195447","01990a84-c4ee-73c2-a87b-ff46a7d3dde5","2025-09-02_08h44.25.600",NA,NA,539.0672,539.0672,539.0673,539.4171,NA,NA,NA,NA,NA,NA,NA,TRUE,1,0.5605,536.0681,539.067,NA,NA,NA,NA,NA,180,46,0,32,32,100,1,2,33,"likert"
"FFCFFBFB91904311B5C239A9433C2BAB",1,"01990a98-bfa7-7abd-99e2-14b68b195447","01990a84-c4ee-73c2-a87b-ff46a7d3dde5","2025-09-02_08h44.25.600",NA,NA,542.4179,542.4179,542.418,542.7676,NA,NA,NA,NA,NA,NA,NA,TRUE,1,0.6641,539.4181,542.4177,NA,NA,NA,NA,NA,45,46,0,33,33,59,1,2,34,"likert"
"FFCFFBFB91904311B5C239A9433C2BAB",1,"01990a98-bfa7-7abd-99e2-14b68b195447","01990a84-c4ee-73c2-a87b-ff46a7d3dde5","2025-09-02_08h44.25.600",NA,NA,545.7686,545.7686,545.7686,546.1183,NA,NA,NA,NA,NA,NA,NA,TRUE,1,1.2359,542.7691,545.7685,NA,NA,NA,NA,NA,10,29,0,34,34,9,1,2,35,"likert"
"FFCFFBFB91904311B5C239A9433C2BAB",1,"01990a98-bfa7-7abd-99e2-14b68b195447","01990a84-c4ee-73c2-a87b-ff46a7d3dde5","2025-09-02_08h44.25.600",NA,NA,549.1193,549.1194,549.1194,549.4692,NA,NA,NA,NA,NA,NA,NA,TRUE,5,1.2131,546.1197,549.1191,NA,NA,NA,NA,NA,50,40,0,35,35,63,1,2,36,"likert"
"FFCFFBFB91904311B5C239A9433C2BAB",1,"01990a98-bfa7-7abd-99e2-14b68b195447","01990a84-c4ee-73c2-a87b-ff46a7d3dde5","2025-09-02_08h44.25.600",NA,NA,552.4699,552.47,552.4702,552.82,NA,NA,NA,NA,NA,NA,NA,TRUE,1,0.8784,549.4705,552.4698,NA,NA,NA,NA,NA,90,40,0,36,36,75,1,2,37,"likert"
"FFCFFBFB91904311B5C239A9433C2BAB",1,"01990a98-bfa7-7abd-99e2-14b68b195447","01990a84-c4ee-73c2-a87b-ff46a7d3dde5","2025-09-02_08h44.25.600",NA,NA,555.8207,555.8207,555.8208,556.1705,NA,NA,NA,NA,NA,NA,NA,TRUE,1,0.8123,552.821,555.8204,NA,NA,NA,NA,NA,90,26,0,37,37,72,1,2,38,"likert"
"FFCFFBFB91904311B5C239A9433C2BAB",1,"01990a98-bfa7-7abd-99e2-14b68b195447","01990a84-c4ee-73c2-a87b-ff46a7d3dde5","2025-09-02_08h44.25.600",NA,NA,559.1713,559.1714,559.1714,559.5212,NA,NA,NA,NA,NA,NA,NA,TRUE,1,0.797,556.1716,559.1712,NA,NA,NA,NA,NA,90,33,0,38,38,74,1,2,39,"likert"
"FFCFFBFB91904311B5C239A9433C2BAB",1,"01990a98-bfa7-7abd-99e2-14b68b195447","01990a84-c4ee-73c2-a87b-ff46a7d3dde5","2025-09-02_08h44.25.600",NA,NA,562.5221,562.5221,562.5221,562.8719,NA,NA,NA,NA,NA,NA,NA,TRUE,1,0.6278,559.5229,562.5218,NA,NA,NA,NA,NA,7,32,0,39,39,4,1,2,40,"likert"
"FFCFFBFB91904311B5C239A9433C2BAB",1,"01990a98-bfa7-7abd-99e2-14b68b195447","01990a84-c4ee-73c2-a87b-ff46a7d3dde5","2025-09-02_08h44.25.600",NA,NA,565.8728,565.8728,565.8728,566.2225,NA,NA,NA,NA,NA,NA,NA,TRUE,1,0.7015,562.8742,565.8727,NA,NA,NA,NA,NA,28,39,0,40,40,40,1,2,41,"likert"
"FFCFFBFB91904311B5C239A9433C2BAB",1,"01990a98-bfa7-7abd-99e2-14b68b195447","01990a84-c4ee-73c2-a87b-ff46a7d3dde5","2025-09-02_08h44.25.600",NA,NA,569.2234,569.2234,569.2235,569.5732,NA,NA,NA,NA,NA,NA,NA,TRUE,1,0.9513,566.2237,569.2233,NA,NA,NA,NA,NA,200,47,0,41,41,106,1,2,42,"likert"
"FFCFFBFB91904311B5C239A9433C2BAB",1,"01990a98-bfa7-7abd-99e2-14b68b195447","01990a84-c4ee-73c2-a87b-ff46a7d3dde5","2025-09-02_08h44.25.600",NA,NA,572.5751,572.5754,572.5756,572.924,NA,NA,NA,NA,NA,NA,NA,TRUE,5,0.9078,569.5742,572.5746,NA,NA,NA,NA,NA,25,35,0,42,42,34,1,2,43,"likert"
"FFCFFBFB91904311B5C239A9433C2BAB",1,"01990a98-bfa7-7abd-99e2-14b68b195447","01990a84-c4ee-73c2-a87b-ff46a7d3dde5","2025-09-02_08h44.25.600",NA,NA,575.9249,575.9249,575.9249,576.2746,NA,NA,NA,NA,NA,NA,NA,TRUE,1,0.6993,572.925,575.9246,NA,NA,NA,NA,NA,100,31,0,43,43,85,1,2,44,"likert"
"FFCFFBFB91904311B5C239A9433C2BAB",1,"01990a98-bfa7-7abd-99e2-14b68b195447","01990a84-c4ee-73c2-a87b-ff46a7d3dde5","2025-09-02_08h44.25.600",NA,NA,579.2756,579.2757,579.2757,579.6253,NA,NA,NA,NA,NA,NA,NA,TRUE,1,0.6156,576.2758,579.2754,NA,NA,NA,NA,NA,180,54,0,44,44,101,1,2,45,"likert"
"FFCFFBFB91904311B5C239A9433C2BAB",1,"01990a98-bfa7-7abd-99e2-14b68b195447","01990a84-c4ee-73c2-a87b-ff46a7d3dde5","2025-09-02_08h44.25.600",NA,NA,582.6264,582.6264,582.6265,582.976,NA,NA,NA,NA,NA,NA,NA,TRUE,1,1.1161,579.6264,582.6262,NA,NA,NA,NA,NA,45,31,0,45,45,56,1,2,46,"likert"
"FFCFFBFB91904311B5C239A9433C2BAB",1,"01990a98-bfa7-7abd-99e2-14b68b195447","01990a84-c4ee-73c2-a87b-ff46a7d3dde5","2025-09-02_08h44.25.600",NA,NA,585.9769,585.9769,585.9769,586.3267,NA,NA,NA,NA,NA,NA,NA,TRUE,1,0.7448,582.9789,585.9767,NA,NA,NA,NA,NA,40,27,0,46,46,48,1,2,47,"likert"
"FFCFFBFB91904311B5C239A9433C2BAB",1,"01990a98-bfa7-7abd-99e2-14b68b195447","01990a84-c4ee-73c2-a87b-ff46a7d3dde5","2025-09-02_08h44.25.600",NA,NA,589.3278,589.3278,589.3279,589.6775,NA,NA,NA,NA,NA,NA,NA,TRUE,1,0.7815,586.3276,589.3276,NA,NA,NA,NA,NA,10,32,0,47,47,11,1,2,48,"likert"
"FFCFFBFB91904311B5C239A9433C2BAB",1,"01990a98-bfa7-7abd-99e2-14b68b195447","01990a84-c4ee-73c2-a87b-ff46a7d3dde5","2025-09-02_08h44.25.600",NA,NA,592.6785,592.6785,592.6785,593.0283,NA,NA,NA,NA,NA,NA,NA,TRUE,1,0.7301,589.6794,592.6782,NA,NA,NA,NA,NA,200,39,0,48,48,105,1,2,49,"likert"
"FFCFFBFB91904311B5C239A9433C2BAB",1,"01990a98-bfa7-7abd-99e2-14b68b195447","01990a84-c4ee-73c2-a87b-ff46a7d3dde5","2025-09-02_08h44.25.600",NA,NA,596.0294,596.0295,596.0296,596.3788,NA,NA,NA,NA,NA,NA,NA,TRUE,1,0.632,593.0302,596.029,NA,NA,NA,NA,NA,10,25,0,49,49,6,1,2,50,"likert"
"FFCFFBFB91904311B5C239A9433C2BAB",1,"01990a98-bfa7-7abd-99e2-14b68b195447","01990a84-c4ee-73c2-a87b-ff46a7d3dde5","2025-09-02_08h44.25.600",NA,NA,599.3797,599.3798,599.3798,599.7296,NA,NA,NA,NA,NA,NA,NA,TRUE,1,1.2305,596.381,599.3795,NA,NA,NA,NA,NA,7,25,0,50,50,0,1,2,51,"likert"
"FFCFFBFB91904311B5C239A9433C2BAB",1,"01990a98-bfa7-7abd-99e2-14b68b195447","01990a84-c4ee-73c2-a87b-ff46a7d3dde5","2025-09-02_08h44.25.600",NA,NA,602.7306,602.7307,602.7308,603.0803,NA,NA,NA,NA,NA,NA,NA,TRUE,5,0.9992,599.7315,602.7304,NA,NA,NA,NA,NA,40,33,0,51,51,49,1,2,52,"likert"
"FFCFFBFB91904311B5C239A9433C2BAB",1,"01990a98-bfa7-7abd-99e2-14b68b195447","01990a84-c4ee-73c2-a87b-ff46a7d3dde5","2025-09-02_08h44.25.600",NA,NA,606.0812,606.0813,606.0813,606.4312,NA,NA,NA,NA,NA,NA,NA,TRUE,1,1.4635,603.0822,606.081,NA,NA,NA,NA,NA,30,29,0,52,52,44,1,2,53,"likert"
"FFCFFBFB91904311B5C239A9433C2BAB",1,"01990a98-bfa7-7abd-99e2-14b68b195447","01990a84-c4ee-73c2-a87b-ff46a7d3dde5","2025-09-02_08h44.25.600",NA,NA,609.4321,609.4323,609.4323,609.7817,NA,NA,NA,NA,NA,NA,NA,TRUE,1,0.895,606.4349,609.4319,NA,NA,NA,NA,NA,21,30,0,53,53,27,1,2,54,"likert"
"FFCFFBFB91904311B5C239A9433C2BAB",1,"01990a98-bfa7-7abd-99e2-14b68b195447","01990a84-c4ee-73c2-a87b-ff46a7d3dde5","2025-09-02_08h44.25.600",NA,NA,612.7659,612.766,612.766,613.1156,NA,NA,NA,NA,NA,NA,NA,TRUE,1,0.9295,609.7832,612.7657,NA,NA,NA,NA,NA,12,33,0,54,54,16,1,2,55,"likert"
"FFCFFBFB91904311B5C239A9433C2BAB",1,"01990a98-bfa7-7abd-99e2-14b68b195447","01990a84-c4ee-73c2-a87b-ff46a7d3dde5","2025-09-02_08h44.25.600",NA,NA,616.1167,616.1168,616.1168,616.4666,NA,NA,NA,NA,NA,NA,NA,TRUE,1,1.17,613.1171,616.1165,NA,NA,NA,NA,NA,12,31,0,55,55,15,1,2,56,"likert"
"FFCFFBFB91904311B5C239A9433C2BAB",1,"01990a98-bfa7-7abd-99e2-14b68b195447","01990a84-c4ee-73c2-a87b-ff46a7d3dde5","2025-09-02_08h44.25.600",NA,NA,619.4673,619.4675,619.4675,619.8173,NA,NA,NA,NA,NA,NA,NA,TRUE,1,1.4957,616.4692,619.4671,NA,NA,NA,NA,NA,12,28,0,56,56,14,1,2,57,"likert"
"FFCFFBFB91904311B5C239A9433C2BAB",1,"01990a98-bfa7-7abd-99e2-14b68b195447","01990a84-c4ee-73c2-a87b-ff46a7d3dde5","2025-09-02_08h44.25.600",NA,NA,622.818,622.818,622.818,623.1679,NA,NA,NA,NA,NA,NA,NA,TRUE,1,1.0109,619.819,622.8178,NA,NA,NA,NA,NA,30,26,0,57,57,42,1,2,58,"likert"
"FFCFFBFB91904311B5C239A9433C2BAB",1,"01990a98-bfa7-7abd-99e2-14b68b195447","01990a84-c4ee-73c2-a87b-ff46a7d3dde5","2025-09-02_08h44.25.600",NA,NA,626.1688,626.1688,626.1688,626.5186,NA,NA,NA,NA,NA,NA,NA,TRUE,1,0.8639,623.1696,626.1686,NA,NA,NA,NA,NA,10,26,0,58,58,7,1,2,59,"likert"
"FFCFFBFB91904311B5C239A9433C2BAB",1,"01990a98-bfa7-7abd-99e2-14b68b195447","01990a84-c4ee-73c2-a87b-ff46a7d3dde5","2025-09-02_08h44.25.600",NA,NA,629.5196,629.5196,629.5197,629.8693,NA,NA,NA,NA,NA,NA,NA,TRUE,1,0.662,626.5212,629.5194,NA,NA,NA,NA,NA,50,46,0,59,59,64,1,2,60,"likert"
"FFCFFBFB91904311B5C239A9433C2BAB",1,"01990a98-bfa7-7abd-99e2-14b68b195447","01990a84-c4ee-73c2-a87b-ff46a7d3dde5","2025-09-02_08h44.25.600",NA,NA,632.8701,632.8701,632.8702,633.2199,NA,NA,NA,NA,NA,NA,NA,TRUE,1,0.5799,629.8711,632.87,NA,NA,NA,NA,NA,25,29,0,60,60,31,1,2,61,"likert"
"FFCFFBFB91904311B5C239A9433C2BAB",1,"01990a98-bfa7-7abd-99e2-14b68b195447","01990a84-c4ee-73c2-a87b-ff46a7d3dde5","2025-09-02_08h44.25.600",NA,NA,636.2208,636.2208,636.2209,636.5706,NA,NA,NA,NA,NA,NA,NA,TRUE,1,0.5461,633.2218,636.2206,NA,NA,NA,NA,NA,21,29,0,61,61,26,1,2,62,"likert"
"FFCFFBFB91904311B5C239A9433C2BAB",1,"01990a98-bfa7-7abd-99e2-14b68b195447","01990a84-c4ee-73c2-a87b-ff46a7d3dde5","2025-09-02_08h44.25.600",NA,NA,639.5716,639.5716,639.5716,639.9214,NA,NA,NA,NA,NA,NA,NA,TRUE,1,0.5878,636.5718,639.5713,NA,NA,NA,NA,NA,25,33,0,62,62,33,1,2,63,"likert"
"FFCFFBFB91904311B5C239A9433C2BAB",1,"01990a98-bfa7-7abd-99e2-14b68b195447","01990a84-c4ee-73c2-a87b-ff46a7d3dde5","2025-09-02_08h44.25.600",NA,NA,642.9222,642.9223,642.9223,643.272,NA,NA,NA,NA,NA,NA,NA,TRUE,1,1.264,639.9232,642.922,NA,NA,NA,NA,NA,45,26,0,63,63,54,1,2,64,"likert"
"FFCFFBFB91904311B5C239A9433C2BAB",1,"01990a98-bfa7-7abd-99e2-14b68b195447","01990a84-c4ee-73c2-a87b-ff46a7d3dde5","2025-09-02_08h44.25.600",NA,NA,646.2729,646.2729,646.2729,646.6228,NA,NA,NA,NA,NA,NA,NA,TRUE,5,1.6822,643.2743,646.2727,NA,NA,NA,NA,NA,30,30,0,64,64,45,1,2,65,"likert"
"FFCFFBFB91904311B5C239A9433C2BAB",1,"01990a98-bfa7-7abd-99e2-14b68b195447","01990a84-c4ee-73c2-a87b-ff46a7d3dde5","2025-09-02_08h44.25.600",NA,NA,649.6236,649.6236,649.6236,649.9735,NA,NA,NA,NA,NA,NA,NA,TRUE,1,1.0345,646.6244,649.6235,NA,NA,NA,NA,NA,30,27,0,65,65,43,1,2,66,"likert"
"FFCFFBFB91904311B5C239A9433C2BAB",1,"01990a98-bfa7-7abd-99e2-14b68b195447","01990a84-c4ee-73c2-a87b-ff46a7d3dde5","2025-09-02_08h44.25.600",NA,NA,652.9744,652.9745,652.9745,653.3242,NA,NA,NA,NA,NA,NA,NA,TRUE,1,1.1449,649.9757,652.9742,NA,NA,NA,NA,NA,25,31,0,66,66,32,1,2,67,"likert"
"FFCFFBFB91904311B5C239A9433C2BAB",1,"01990a98-bfa7-7abd-99e2-14b68b195447","01990a84-c4ee-73c2-a87b-ff46a7d3dde5","2025-09-02_08h44.25.600",NA,NA,656.3272,656.3274,656.3275,656.6752,NA,NA,NA,NA,NA,NA,NA,TRUE,4,1.5633,653.3261,656.3262,NA,NA,NA,NA,NA,12,25,0,67,67,12,1,2,68,"likert"
"FFCFFBFB91904311B5C239A9433C2BAB",1,"01990a98-bfa7-7abd-99e2-14b68b195447","01990a84-c4ee-73c2-a87b-ff46a7d3dde5","2025-09-02_08h44.25.600",NA,NA,659.6759,659.676,659.676,660.0259,NA,NA,NA,NA,NA,NA,NA,TRUE,1,2.1629,656.6776,659.6757,NA,NA,NA,NA,NA,12,35,0,68,68,17,1,2,69,"likert"
"FFCFFBFB91904311B5C239A9433C2BAB",1,"01990a98-bfa7-7abd-99e2-14b68b195447","01990a84-c4ee-73c2-a87b-ff46a7d3dde5","2025-09-02_08h44.25.600",NA,NA,663.0265,663.0266,663.0266,663.3763,NA,NA,NA,NA,NA,NA,NA,TRUE,5,1.107,660.0309,663.0263,NA,NA,NA,NA,NA,90,46,0,69,69,76,1,2,70,"likert"
"FFCFFBFB91904311B5C239A9433C2BAB",1,"01990a98-bfa7-7abd-99e2-14b68b195447","01990a84-c4ee-73c2-a87b-ff46a7d3dde5","2025-09-02_08h44.25.600",NA,NA,666.4118,666.4119,666.4119,666.7269,NA,NA,NA,NA,NA,NA,NA,TRUE,2,1.5619,663.3778,666.4117,NA,NA,NA,NA,NA,40,35,0,70,70,50,1,2,71,"likert"
"FFCFFBFB91904311B5C239A9433C2BAB",1,"01990a98-bfa7-7abd-99e2-14b68b195447","01990a84-c4ee-73c2-a87b-ff46a7d3dde5","2025-09-02_08h44.25.600",NA,NA,669.728,669.9776,669.9776,670.0776,NA,NA,NA,NA,NA,NA,NA,FALSE,NA,NA,666.7274,669.7277,NA,NA,NA,NA,NA,95,31,0,71,71,78,1,2,72,"likert"
"FFCFFBFB91904311B5C239A9433C2BAB",1,"01990a98-bfa7-7abd-99e2-14b68b195447","01990a84-c4ee-73c2-a87b-ff46a7d3dde5","2025-09-02_08h44.25.600",NA,NA,673.0786,673.0786,673.0786,673.4284,NA,NA,NA,NA,NA,NA,NA,TRUE,1,1.4089,670.0805,673.0784,NA,NA,NA,NA,NA,7,35,0,72,72,5,1,2,73,"likert"
"FFCFFBFB91904311B5C239A9433C2BAB",1,"01990a98-bfa7-7abd-99e2-14b68b195447","01990a84-c4ee-73c2-a87b-ff46a7d3dde5","2025-09-02_08h44.25.600",NA,NA,676.4291,676.4292,676.4292,676.7792,NA,NA,NA,NA,NA,NA,NA,TRUE,1,0.7796,673.4306,676.4289,NA,NA,NA,NA,NA,40,54,0,73,73,53,1,2,74,"likert"
"FFCFFBFB91904311B5C239A9433C2BAB",1,"01990a98-bfa7-7abd-99e2-14b68b195447","01990a84-c4ee-73c2-a87b-ff46a7d3dde5","2025-09-02_08h44.25.600",NA,NA,679.7802,679.7802,679.7802,680.1299,NA,NA,NA,NA,NA,NA,NA,TRUE,1,0.615,676.7829,679.7797,NA,NA,NA,NA,NA,60,33,0,74,74,67,1,2,75,"likert"
"FFCFFBFB91904311B5C239A9433C2BAB",1,"01990a98-bfa7-7abd-99e2-14b68b195447","01990a84-c4ee-73c2-a87b-ff46a7d3dde5","2025-09-02_08h44.25.600",NA,NA,683.1305,683.1306,683.1306,683.4804,NA,NA,NA,NA,NA,NA,NA,TRUE,1,1.4438,680.1315,683.1303,NA,NA,NA,NA,NA,14,26,0,75,75,19,1,2,76,"likert"
"FFCFFBFB91904311B5C239A9433C2BAB",1,"01990a98-bfa7-7abd-99e2-14b68b195447","01990a84-c4ee-73c2-a87b-ff46a7d3dde5","2025-09-02_08h44.25.600",NA,NA,686.4814,686.4815,686.4815,686.8312,NA,NA,NA,NA,NA,NA,NA,TRUE,1,0.761,683.4839,686.4812,NA,NA,NA,NA,NA,28,26,0,76,76,36,1,2,77,"likert"
"FFCFFBFB91904311B5C239A9433C2BAB",1,"01990a98-bfa7-7abd-99e2-14b68b195447","01990a84-c4ee-73c2-a87b-ff46a7d3dde5","2025-09-02_08h44.25.600",NA,NA,689.8321,689.8322,689.8322,690.1818,NA,NA,NA,NA,NA,NA,NA,TRUE,1,0.595,686.8335,689.8319,NA,NA,NA,NA,NA,45,35,0,77,77,57,1,2,78,"likert"
"FFCFFBFB91904311B5C239A9433C2BAB",1,"01990a98-bfa7-7abd-99e2-14b68b195447","01990a84-c4ee-73c2-a87b-ff46a7d3dde5","2025-09-02_08h44.25.600",NA,NA,693.1662,693.1662,693.1662,693.5159,NA,NA,NA,NA,NA,NA,NA,TRUE,1,1.1799,690.1835,693.166,NA,NA,NA,NA,NA,28,46,0,78,78,41,1,2,79,"likert"
"FFCFFBFB91904311B5C239A9433C2BAB",1,"01990a98-bfa7-7abd-99e2-14b68b195447","01990a84-c4ee-73c2-a87b-ff46a7d3dde5","2025-09-02_08h44.25.600",NA,NA,696.5169,696.5169,696.5169,696.8665,NA,NA,NA,NA,NA,NA,NA,TRUE,1,0.5335,693.5178,696.5167,NA,NA,NA,NA,NA,14,28,0,79,79,20,1,2,80,"likert"
"FFCFFBFB91904311B5C239A9433C2BAB",1,"01990a98-bfa7-7abd-99e2-14b68b195447","01990a84-c4ee-73c2-a87b-ff46a7d3dde5","2025-09-02_08h44.25.600",NA,NA,699.8676,699.8676,699.8676,700.2173,NA,NA,NA,NA,NA,NA,NA,TRUE,1,0.5976,696.8686,699.8673,NA,NA,NA,NA,NA,14,25,0,80,80,18,1,2,81,"likert"
"FFCFFBFB91904311B5C239A9433C2BAB",1,"01990a98-bfa7-7abd-99e2-14b68b195447","01990a84-c4ee-73c2-a87b-ff46a7d3dde5","2025-09-02_08h44.25.600",NA,NA,703.2182,703.2183,703.2183,703.568,NA,NA,NA,NA,NA,NA,NA,TRUE,1,0.7777,700.2184,703.2181,NA,NA,NA,NA,NA,45,29,0,81,81,55,1,2,82,"likert"
"FFCFFBFB91904311B5C239A9433C2BAB",1,"01990a98-bfa7-7abd-99e2-14b68b195447","01990a84-c4ee-73c2-a87b-ff46a7d3dde5","2025-09-02_08h44.25.600",NA,NA,706.5691,706.5691,706.5691,706.9189,NA,NA,NA,NA,NA,NA,NA,TRUE,1,0.5797,703.5698,706.5687,NA,NA,NA,NA,NA,95,40,0,82,82,81,1,2,83,"likert"
"FFCFFBFB91904311B5C239A9433C2BAB",1,"01990a98-bfa7-7abd-99e2-14b68b195447","01990a84-c4ee-73c2-a87b-ff46a7d3dde5","2025-09-02_08h44.25.600",NA,NA,709.9196,709.9197,709.9197,710.2696,NA,NA,NA,NA,NA,NA,NA,TRUE,1,0.947,706.9208,709.9194,NA,NA,NA,NA,NA,180,39,0,83,83,99,1,2,84,"likert"
"FFCFFBFB91904311B5C239A9433C2BAB",1,"01990a98-bfa7-7abd-99e2-14b68b195447","01990a84-c4ee-73c2-a87b-ff46a7d3dde5","2025-09-02_08h44.25.600",NA,NA,713.2711,713.2712,713.2713,713.6201,NA,NA,NA,NA,NA,NA,NA,TRUE,1,0.7649,710.2712,713.2707,NA,NA,NA,NA,NA,50,35,0,84,84,62,1,2,85,"likert"
"FFCFFBFB91904311B5C239A9433C2BAB",1,"01990a98-bfa7-7abd-99e2-14b68b195447","01990a84-c4ee-73c2-a87b-ff46a7d3dde5","2025-09-02_08h44.25.600",NA,NA,716.6209,716.6209,716.6211,716.9709,NA,NA,NA,NA,NA,NA,NA,TRUE,1,0.6793,713.6226,716.6208,NA,NA,NA,NA,NA,50,27,0,85,85,60,1,2,86,"likert"
"FFCFFBFB91904311B5C239A9433C2BAB",1,"01990a98-bfa7-7abd-99e2-14b68b195447","01990a84-c4ee-73c2-a87b-ff46a7d3dde5","2025-09-02_08h44.25.600",NA,NA,719.972,719.9721,719.9721,720.3218,NA,NA,NA,NA,NA,NA,NA,TRUE,1,0.5945,716.9726,719.9718,NA,NA,NA,NA,NA,21,32,0,86,86,28,1,2,87,"likert"
"FFCFFBFB91904311B5C239A9433C2BAB",1,"01990a98-bfa7-7abd-99e2-14b68b195447","01990a84-c4ee-73c2-a87b-ff46a7d3dde5","2025-09-02_08h44.25.600",NA,NA,723.3224,723.3224,723.3225,723.6721,NA,NA,NA,NA,NA,NA,NA,TRUE,1,0.9109,720.3266,723.3222,NA,NA,NA,NA,NA,90,30,0,87,87,73,1,2,88,"likert"
"FFCFFBFB91904311B5C239A9433C2BAB",1,"01990a98-bfa7-7abd-99e2-14b68b195447","01990a84-c4ee-73c2-a87b-ff46a7d3dde5","2025-09-02_08h44.25.600",NA,NA,726.6732,726.6732,726.6732,727.023,NA,NA,NA,NA,NA,NA,NA,TRUE,1,0.4639,723.6732,726.6729,NA,NA,NA,NA,NA,7,28,0,88,88,2,1,2,89,"likert"
"FFCFFBFB91904311B5C239A9433C2BAB",1,"01990a98-bfa7-7abd-99e2-14b68b195447","01990a84-c4ee-73c2-a87b-ff46a7d3dde5","2025-09-02_08h44.25.600",NA,NA,730.0239,730.0239,730.0239,730.3736,NA,NA,NA,NA,NA,NA,NA,TRUE,1,0.3455,727.0247,730.0236,NA,NA,NA,NA,NA,150,40,0,89,89,93,1,2,90,"likert"
"FFCFFBFB91904311B5C239A9433C2BAB",1,"01990a98-bfa7-7abd-99e2-14b68b195447","01990a84-c4ee-73c2-a87b-ff46a7d3dde5","2025-09-02_08h44.25.600",NA,NA,733.3748,733.3749,733.3749,733.7243,NA,NA,NA,NA,NA,NA,NA,TRUE,1,0.6279,730.3757,733.3746,NA,NA,NA,NA,NA,21,38,0,90,90,29,1,2,91,"likert"
"FFCFFBFB91904311B5C239A9433C2BAB",1,"01990a98-bfa7-7abd-99e2-14b68b195447","01990a84-c4ee-73c2-a87b-ff46a7d3dde5","2025-09-02_08h44.25.600",NA,NA,736.7253,736.7253,736.7254,737.0751,NA,NA,NA,NA,NA,NA,NA,TRUE,1,0.8161,733.7254,736.7249,NA,NA,NA,NA,NA,90,54,0,91,91,77,1,2,92,"likert"
"FFCFFBFB91904311B5C239A9433C2BAB",1,"01990a98-bfa7-7abd-99e2-14b68b195447","01990a84-c4ee-73c2-a87b-ff46a7d3dde5","2025-09-02_08h44.25.600",NA,NA,740.0759,740.076,740.076,740.4258,NA,NA,NA,NA,NA,NA,NA,TRUE,1,0.8302,737.0774,740.0757,NA,NA,NA,NA,NA,40,40,0,92,92,51,1,2,93,"likert"
"FFCFFBFB91904311B5C239A9433C2BAB",1,"01990a98-bfa7-7abd-99e2-14b68b195447","01990a84-c4ee-73c2-a87b-ff46a7d3dde5","2025-09-02_08h44.25.600",NA,NA,743.4266,743.4267,743.4267,743.7764,NA,NA,NA,NA,NA,NA,NA,TRUE,1,0.8242,740.4275,743.4264,NA,NA,NA,NA,NA,100,39,0,93,93,87,1,2,94,"likert"
"FFCFFBFB91904311B5C239A9433C2BAB",1,"01990a98-bfa7-7abd-99e2-14b68b195447","01990a84-c4ee-73c2-a87b-ff46a7d3dde5","2025-09-02_08h44.25.600",NA,NA,746.7772,746.7772,746.7773,747.127,NA,NA,NA,NA,NA,NA,NA,TRUE,1,0.6812,743.7783,746.777,NA,NA,NA,NA,NA,60,54,0,94,94,71,1,2,95,"likert"
"FFCFFBFB91904311B5C239A9433C2BAB",1,"01990a98-bfa7-7abd-99e2-14b68b195447","01990a84-c4ee-73c2-a87b-ff46a7d3dde5","2025-09-02_08h44.25.600",NA,NA,750.1281,750.1281,750.1281,750.4778,NA,NA,NA,NA,NA,NA,NA,TRUE,1,0.8284,747.1292,750.1278,NA,NA,NA,NA,NA,10,30,0,95,95,10,1,2,96,"likert"
"FFCFFBFB91904311B5C239A9433C2BAB",1,"01990a98-bfa7-7abd-99e2-14b68b195447","01990a84-c4ee-73c2-a87b-ff46a7d3dde5","2025-09-02_08h44.25.600",NA,NA,753.4791,753.4791,753.4792,753.8285,NA,NA,NA,NA,NA,NA,NA,TRUE,1,0.7263,750.48,753.4786,NA,NA,NA,NA,NA,150,47,0,96,96,94,1,2,97,"likert"
"FFCFFBFB91904311B5C239A9433C2BAB",1,"01990a98-bfa7-7abd-99e2-14b68b195447","01990a84-c4ee-73c2-a87b-ff46a7d3dde5","2025-09-02_08h44.25.600",NA,NA,756.8295,756.8296,756.8296,757.1791,NA,NA,NA,NA,NA,NA,NA,TRUE,1,0.8275,753.8307,756.8293,NA,NA,NA,NA,NA,180,27,0,97,97,96,1,2,98,"likert"
"FFCFFBFB91904311B5C239A9433C2BAB",1,"01990a98-bfa7-7abd-99e2-14b68b195447","01990a84-c4ee-73c2-a87b-ff46a7d3dde5","2025-09-02_08h44.25.600",NA,NA,760.1802,760.1803,760.1803,760.5299,NA,NA,NA,NA,NA,NA,NA,TRUE,1,0.697,757.1806,760.1801,NA,NA,NA,NA,NA,95,54,0,98,98,83,1,2,99,"likert"
"FFCFFBFB91904311B5C239A9433C2BAB",1,"01990a98-bfa7-7abd-99e2-14b68b195447","01990a84-c4ee-73c2-a87b-ff46a7d3dde5","2025-09-02_08h44.25.600",NA,NA,763.531,763.531,763.531,763.8806,NA,NA,NA,NA,NA,NA,NA,TRUE,1,0.5804,760.5312,763.5306,NA,NA,NA,NA,NA,14,32,0,99,99,21,1,2,100,"likert"
"FFCFFBFB91904311B5C239A9433C2BAB",1,"01990a98-bfa7-7abd-99e2-14b68b195447","01990a84-c4ee-73c2-a87b-ff46a7d3dde5","2025-09-02_08h44.25.600",NA,NA,766.8815,766.8816,766.8816,767.2313,NA,NA,NA,NA,NA,NA,NA,TRUE,1,0.5471,763.8825,766.8814,NA,NA,NA,NA,NA,10,27,0,100,100,8,1,2,101,"likert"
"FFCFFBFB91904311B5C239A9433C2BAB",1,"01990a98-bfa7-7abd-99e2-14b68b195447","01990a84-c4ee-73c2-a87b-ff46a7d3dde5","2025-09-02_08h44.25.600",NA,NA,770.2157,770.2157,770.2157,770.5653,NA,NA,NA,NA,NA,NA,NA,TRUE,5,1.143,767.2338,770.2154,NA,NA,NA,NA,NA,28,35,0,101,101,39,1,2,102,"likert"
"FFCFFBFB91904311B5C239A9433C2BAB",1,"01990a98-bfa7-7abd-99e2-14b68b195447","01990a84-c4ee-73c2-a87b-ff46a7d3dde5","2025-09-02_08h44.25.600",NA,NA,773.5662,773.5662,773.5662,773.9161,NA,NA,NA,NA,NA,NA,NA,TRUE,4,0.9102,770.5684,773.566,NA,NA,NA,NA,NA,200,28,0,102,102,103,1,2,103,"likert"
"FFCFFBFB91904311B5C239A9433C2BAB",1,"01990a98-bfa7-7abd-99e2-14b68b195447","01990a84-c4ee-73c2-a87b-ff46a7d3dde5","2025-09-02_08h44.25.600",NA,NA,776.917,776.9171,776.9171,777.2668,NA,NA,NA,NA,NA,NA,NA,TRUE,1,0.9969,773.9181,776.9167,NA,NA,NA,NA,NA,45,40,0,103,103,58,1,2,104,"likert"
"FFCFFBFB91904311B5C239A9433C2BAB",1,"01990a98-bfa7-7abd-99e2-14b68b195447","01990a84-c4ee-73c2-a87b-ff46a7d3dde5","2025-09-02_08h44.25.600",NA,NA,780.2677,780.2677,780.2677,780.6177,NA,NA,NA,NA,NA,NA,NA,TRUE,4,1.8418,777.2677,780.2674,NA,NA,NA,NA,NA,100,38,0,104,104,86,1,2,105,"likert"
"FFCFFBFB91904311B5C239A9433C2BAB",1,"01990a98-bfa7-7abd-99e2-14b68b195447","01990a84-c4ee-73c2-a87b-ff46a7d3dde5","2025-09-02_08h44.25.600",NA,NA,783.6184,783.6184,783.6186,783.9682,NA,NA,NA,NA,NA,NA,NA,TRUE,1,1.1467,780.6197,783.6183,NA,NA,NA,NA,NA,7,26,0,105,105,1,1,2,106,"likert"
"FFCFFBFB91904311B5C239A9433C2BAB",1,"01990a98-bfa7-7abd-99e2-14b68b195447","01990a84-c4ee-73c2-a87b-ff46a7d3dde5","2025-09-02_08h44.25.600",NA,NA,786.9693,786.9694,786.9694,787.3189,NA,NA,NA,NA,NA,NA,NA,TRUE,1,1.1161,783.9696,786.969,NA,NA,NA,NA,NA,25,27,0,106,106,30,1,2,107,"likert"
"FFCFFBFB91904311B5C239A9433C2BAB",1,"01990a98-bfa7-7abd-99e2-14b68b195447","01990a84-c4ee-73c2-a87b-ff46a7d3dde5","2025-09-02_08h44.25.600",NA,NA,790.3197,790.3199,790.3199,790.6696,NA,NA,NA,NA,NA,NA,NA,TRUE,1,0.8614,787.3205,790.3195,NA,NA,NA,NA,NA,200,26,0,107,107,102,1,2,108,"likert"
