"participant","session","assignmentId","projectId","date","practiceTrial.started","practiceTrial.stopped","tooLate.started","tooLate.stopped","blank.started","blank.stopped","trials_pract.thisRepN","trials_pract.thisTrialN","trials_pract.thisN","trials_pract.thisIndex","trials_pract.ran","delay_pract","amount_pract","responseMade","key","rt","trial.started","trial.stopped","trials.thisRepN","trials.thisTrialN","trials.thisN","trials.thisIndex","trials.ran","delay","amount","trials_2.thisRepN","trials_2.thisTrialN","trials_2.thisN","trials_2.thisIndex","trials_2.ran","block","trial","taskType"
"4FE4DC6A565546AFB07A0159DCA5FCA7",1,"01990aa6-0d22-70ef-854d-25b999ac2f9e","01990a83-7673-7c0c-a792-bbd8fbbaf673","2025-09-02_07h12.25.368",26.04,29.004,29.004,29.005,29.005,29.391,0,0,0,4,1,30,40,TRUE,1,1.516,NA,NA,NA,NA,NA,NA,NA,NA,NA,NA,NA,NA,NA,NA,0,1,"binary"
"4FE4DC6A565546AFB07A0159DCA5FCA7",1,"01990aa6-0d22-70ef-854d-25b999ac2f9e","01990a83-7673-7c0c-a792-bbd8fbbaf673","2025-09-02_07h12.25.368",29.393,32.282,32.282,32.282,32.282,32.669,0,1,1,1,1,100,50,TRUE,1,2.212,NA,NA,NA,NA,NA,NA,NA,NA,NA,NA,NA,NA,NA,NA,0,2,"binary"
"4FE4DC6A565546AFB07A0159DCA5FCA7",1,"01990aa6-0d22-70ef-854d-25b999ac2f9e","01990a83-7673-7c0c-a792-bbd8fbbaf673","2025-09-02_07h12.25.368",32.677,35.733,35.733,35.736,35.736,35.976,0,2,2,3,1,3,27,TRUE,1,0.822,NA,NA,NA,NA,NA,NA,NA,NA,NA,NA,NA,NA,NA,NA,0,3,"binary"
"4FE4DC6A565546AFB07A0159DCA5FCA7",1,"01990aa6-0d22-70ef-854d-25b999ac2f9e","01990a83-7673-7c0c-a792-bbd8fbbaf673","2025-09-02_07h12.25.368",35.978,39.045,39.046,39.046,39.046,39.44,0,3,3,2,1,14,45,TRUE,2,1.77,NA,NA,NA,NA,NA,NA,NA,NA,NA,NA,NA,NA,NA,NA,0,4,"binary"
"4FE4DC6A565546AFB07A0159DCA5FCA7",1,"01990aa6-0d22-70ef-854d-25b999ac2f9e","01990a83-7673-7c0c-a792-bbd8fbbaf673","2025-09-02_07h12.25.368",39.447,42.427,42.428,42.428,42.428,42.679,0,4,4,0,1,7,30,TRUE,2,2.856,NA,NA,NA,NA,NA,NA,NA,NA,NA,NA,NA,NA,NA,NA,0,5,"binary"
"4FE4DC6A565546AFB07A0159DCA5FCA7",1,"01990aa6-0d22-70ef-854d-25b999ac2f9e","01990a83-7673-7c0c-a792-bbd8fbbaf673","2025-09-02_07h12.25.368",NA,NA,265.336,265.336,265.336,265.748,NA,NA,NA,NA,NA,NA,NA,TRUE,1,2.623,262.403,265.336,0,0,0,79,1,95,33,NA,NA,NA,NA,NA,1,1,"binary"
"4FE4DC6A565546AFB07A0159DCA5FCA7",1,"01990aa6-0d22-70ef-854d-25b999ac2f9e","01990a83-7673-7c0c-a792-bbd8fbbaf673","2025-09-02_07h12.25.368",NA,NA,268.684,268.684,268.684,269.077,NA,NA,NA,NA,NA,NA,NA,TRUE,2,1.075,265.755,268.683,0,1,1,60,1,50,27,NA,NA,NA,NA,NA,1,2,"binary"
"4FE4DC6A565546AFB07A0159DCA5FCA7",1,"01990aa6-0d22-70ef-854d-25b999ac2f9e","01990a83-7673-7c0c-a792-bbd8fbbaf673","2025-09-02_07h12.25.368",NA,NA,272.095,272.095,272.095,272.395,NA,NA,NA,NA,NA,NA,NA,TRUE,2,1.879,269.085,272.095,0,2,2,4,1,7,32,NA,NA,NA,NA,NA,1,3,"binary"
"4FE4DC6A565546AFB07A0159DCA5FCA7",1,"01990aa6-0d22-70ef-854d-25b999ac2f9e","01990a83-7673-7c0c-a792-bbd8fbbaf673","2025-09-02_07h12.25.368",NA,NA,275.455,275.455,275.455,275.75,NA,NA,NA,NA,NA,NA,NA,TRUE,2,0.955,272.397,275.454,0,3,3,10,1,10,30,NA,NA,NA,NA,NA,1,4,"binary"
"4FE4DC6A565546AFB07A0159DCA5FCA7",1,"01990aa6-0d22-70ef-854d-25b999ac2f9e","01990a83-7673-7c0c-a792-bbd8fbbaf673","2025-09-02_07h12.25.368",NA,NA,278.776,278.776,278.776,279.086,NA,NA,NA,NA,NA,NA,NA,TRUE,2,1.047,275.758,278.776,0,4,4,67,1,60,33,NA,NA,NA,NA,NA,1,5,"binary"
"4FE4DC6A565546AFB07A0159DCA5FCA7",1,"01990aa6-0d22-70ef-854d-25b999ac2f9e","01990a83-7673-7c0c-a792-bbd8fbbaf673","2025-09-02_07h12.25.368",NA,NA,282.148,282.148,282.148,282.439,NA,NA,NA,NA,NA,NA,NA,TRUE,2,2.249,279.088,282.148,0,5,5,13,1,12,26,NA,NA,NA,NA,NA,1,6,"binary"
"4FE4DC6A565546AFB07A0159DCA5FCA7",1,"01990aa6-0d22-70ef-854d-25b999ac2f9e","01990a83-7673-7c0c-a792-bbd8fbbaf673","2025-09-02_07h12.25.368",NA,NA,285.471,285.471,285.471,285.811,NA,NA,NA,NA,NA,NA,NA,TRUE,2,0.73,282.446,285.471,0,6,6,87,1,100,39,NA,NA,NA,NA,NA,1,7,"binary"
"4FE4DC6A565546AFB07A0159DCA5FCA7",1,"01990aa6-0d22-70ef-854d-25b999ac2f9e","01990a83-7673-7c0c-a792-bbd8fbbaf673","2025-09-02_07h12.25.368",NA,NA,288.773,288.773,288.773,289.177,NA,NA,NA,NA,NA,NA,NA,TRUE,2,0.838,285.812,288.772,0,7,7,49,1,40,33,NA,NA,NA,NA,NA,1,8,"binary"
"4FE4DC6A565546AFB07A0159DCA5FCA7",1,"01990aa6-0d22-70ef-854d-25b999ac2f9e","01990a83-7673-7c0c-a792-bbd8fbbaf673","2025-09-02_07h12.25.368",NA,NA,292.13,292.13,292.13,292.527,NA,NA,NA,NA,NA,NA,NA,TRUE,2,1.049,289.185,292.129,0,8,8,64,1,50,46,NA,NA,NA,NA,NA,1,9,"binary"
"4FE4DC6A565546AFB07A0159DCA5FCA7",1,"01990aa6-0d22-70ef-854d-25b999ac2f9e","01990a83-7673-7c0c-a792-bbd8fbbaf673","2025-09-02_07h12.25.368",NA,NA,295.564,295.564,295.564,295.872,NA,NA,NA,NA,NA,NA,NA,TRUE,2,1.368,292.529,295.563,0,9,9,28,1,21,32,NA,NA,NA,NA,NA,1,10,"binary"
"4FE4DC6A565546AFB07A0159DCA5FCA7",1,"01990aa6-0d22-70ef-854d-25b999ac2f9e","01990a83-7673-7c0c-a792-bbd8fbbaf673","2025-09-02_07h12.25.368",NA,NA,298.893,298.893,298.893,299.194,NA,NA,NA,NA,NA,NA,NA,TRUE,2,0.868,295.88,298.893,0,10,10,68,1,60,35,NA,NA,NA,NA,NA,1,11,"binary"
"4FE4DC6A565546AFB07A0159DCA5FCA7",1,"01990aa6-0d22-70ef-854d-25b999ac2f9e","01990a83-7673-7c0c-a792-bbd8fbbaf673","2025-09-02_07h12.25.368",NA,NA,302.246,302.246,302.246,302.544,NA,NA,NA,NA,NA,NA,NA,TRUE,2,0.884,299.201,302.246,0,11,11,29,1,21,38,NA,NA,NA,NA,NA,1,12,"binary"
"4FE4DC6A565546AFB07A0159DCA5FCA7",1,"01990aa6-0d22-70ef-854d-25b999ac2f9e","01990a83-7673-7c0c-a792-bbd8fbbaf673","2025-09-02_07h12.25.368",NA,NA,305.604,305.604,305.604,305.895,NA,NA,NA,NA,NA,NA,NA,TRUE,2,0.624,302.546,305.604,0,12,12,25,1,21,27,NA,NA,NA,NA,NA,1,13,"binary"
"4FE4DC6A565546AFB07A0159DCA5FCA7",1,"01990aa6-0d22-70ef-854d-25b999ac2f9e","01990a83-7673-7c0c-a792-bbd8fbbaf673","2025-09-02_07h12.25.368",NA,NA,308.892,308.892,308.892,309.309,NA,NA,NA,NA,NA,NA,NA,TRUE,2,1.464,305.902,308.892,0,13,13,80,1,95,35,NA,NA,NA,NA,NA,1,14,"binary"
"4FE4DC6A565546AFB07A0159DCA5FCA7",1,"01990aa6-0d22-70ef-854d-25b999ac2f9e","01990a83-7673-7c0c-a792-bbd8fbbaf673","2025-09-02_07h12.25.368",NA,NA,312.227,312.227,312.227,312.634,NA,NA,NA,NA,NA,NA,NA,TRUE,2,0.94,309.31,312.227,0,14,14,19,1,14,26,NA,NA,NA,NA,NA,1,15,"binary"
"4FE4DC6A565546AFB07A0159DCA5FCA7",1,"01990aa6-0d22-70ef-854d-25b999ac2f9e","01990a83-7673-7c0c-a792-bbd8fbbaf673","2025-09-02_07h12.25.368",NA,NA,315.602,315.602,315.603,316.002,NA,NA,NA,NA,NA,NA,NA,TRUE,2,1.183,312.641,315.602,0,15,15,55,1,45,29,NA,NA,NA,NA,NA,1,16,"binary"
"4FE4DC6A565546AFB07A0159DCA5FCA7",1,"01990aa6-0d22-70ef-854d-25b999ac2f9e","01990a83-7673-7c0c-a792-bbd8fbbaf673","2025-09-02_07h12.25.368",NA,NA,318.911,318.911,318.911,319.295,NA,NA,NA,NA,NA,NA,NA,TRUE,2,0.761,316.004,318.911,0,16,16,34,1,25,35,NA,NA,NA,NA,NA,1,17,"binary"
"4FE4DC6A565546AFB07A0159DCA5FCA7",1,"01990aa6-0d22-70ef-854d-25b999ac2f9e","01990a83-7673-7c0c-a792-bbd8fbbaf673","2025-09-02_07h12.25.368",NA,NA,322.326,322.326,322.326,322.625,NA,NA,NA,NA,NA,NA,NA,TRUE,2,0.658,319.303,322.326,0,17,17,21,1,14,32,NA,NA,NA,NA,NA,1,18,"binary"
"4FE4DC6A565546AFB07A0159DCA5FCA7",1,"01990aa6-0d22-70ef-854d-25b999ac2f9e","01990a83-7673-7c0c-a792-bbd8fbbaf673","2025-09-02_07h12.25.368",NA,NA,325.631,325.926,325.926,326.026,NA,NA,NA,NA,NA,NA,NA,FALSE,NA,NA,322.632,325.631,0,18,18,37,1,28,28,NA,NA,NA,NA,NA,1,19,"binary"
"4FE4DC6A565546AFB07A0159DCA5FCA7",1,"01990aa6-0d22-70ef-854d-25b999ac2f9e","01990a83-7673-7c0c-a792-bbd8fbbaf673","2025-09-02_07h12.25.368",NA,NA,328.978,328.978,328.978,329.381,NA,NA,NA,NA,NA,NA,NA,TRUE,2,1.137,326.027,328.977,0,19,19,1,1,7,26,NA,NA,NA,NA,NA,1,20,"binary"
"4FE4DC6A565546AFB07A0159DCA5FCA7",1,"01990aa6-0d22-70ef-854d-25b999ac2f9e","01990a83-7673-7c0c-a792-bbd8fbbaf673","2025-09-02_07h12.25.368",NA,NA,332.326,332.326,332.327,332.726,NA,NA,NA,NA,NA,NA,NA,TRUE,2,0.003,329.388,332.326,0,20,20,40,1,28,39,NA,NA,NA,NA,NA,1,21,"binary"
"4FE4DC6A565546AFB07A0159DCA5FCA7",1,"01990aa6-0d22-70ef-854d-25b999ac2f9e","01990a83-7673-7c0c-a792-bbd8fbbaf673","2025-09-02_07h12.25.368",NA,NA,335.746,335.746,335.746,336.063,NA,NA,NA,NA,NA,NA,NA,TRUE,2,0.749,332.727,335.745,0,21,21,18,1,14,25,NA,NA,NA,NA,NA,1,22,"binary"
"4FE4DC6A565546AFB07A0159DCA5FCA7",1,"01990aa6-0d22-70ef-854d-25b999ac2f9e","01990a83-7673-7c0c-a792-bbd8fbbaf673","2025-09-02_07h12.25.368",NA,NA,339.049,339.049,339.049,339.442,NA,NA,NA,NA,NA,NA,NA,TRUE,2,0.661,336.071,339.049,0,22,22,22,1,14,35,NA,NA,NA,NA,NA,1,23,"binary"
"4FE4DC6A565546AFB07A0159DCA5FCA7",1,"01990aa6-0d22-70ef-854d-25b999ac2f9e","01990a83-7673-7c0c-a792-bbd8fbbaf673","2025-09-02_07h12.25.368",NA,NA,342.425,342.425,342.425,342.719,NA,NA,NA,NA,NA,NA,NA,TRUE,2,1.213,339.444,342.425,0,23,23,83,1,95,54,NA,NA,NA,NA,NA,1,24,"binary"
"4FE4DC6A565546AFB07A0159DCA5FCA7",1,"01990aa6-0d22-70ef-854d-25b999ac2f9e","01990a83-7673-7c0c-a792-bbd8fbbaf673","2025-09-02_07h12.25.368",NA,NA,345.759,345.759,345.759,346.066,NA,NA,NA,NA,NA,NA,NA,TRUE,2,0.953,342.726,345.759,0,24,24,47,1,30,38,NA,NA,NA,NA,NA,1,25,"binary"
"4FE4DC6A565546AFB07A0159DCA5FCA7",1,"01990aa6-0d22-70ef-854d-25b999ac2f9e","01990a83-7673-7c0c-a792-bbd8fbbaf673","2025-09-02_07h12.25.368",NA,NA,349.059,349.059,349.059,349.459,NA,NA,NA,NA,NA,NA,NA,TRUE,2,1.249,346.068,349.059,0,25,25,20,1,14,28,NA,NA,NA,NA,NA,1,26,"binary"
"4FE4DC6A565546AFB07A0159DCA5FCA7",1,"01990aa6-0d22-70ef-854d-25b999ac2f9e","01990a83-7673-7c0c-a792-bbd8fbbaf673","2025-09-02_07h12.25.368",NA,NA,352.425,352.425,352.425,352.827,NA,NA,NA,NA,NA,NA,NA,TRUE,2,0.735,349.467,352.425,0,26,26,54,1,45,26,NA,NA,NA,NA,NA,1,27,"binary"
"4FE4DC6A565546AFB07A0159DCA5FCA7",1,"01990aa6-0d22-70ef-854d-25b999ac2f9e","01990a83-7673-7c0c-a792-bbd8fbbaf673","2025-09-02_07h12.25.368",NA,NA,355.837,355.837,355.837,356.141,NA,NA,NA,NA,NA,NA,NA,TRUE,2,0.646,352.834,355.836,0,27,27,12,1,12,25,NA,NA,NA,NA,NA,1,28,"binary"
"4FE4DC6A565546AFB07A0159DCA5FCA7",1,"01990aa6-0d22-70ef-854d-25b999ac2f9e","01990a83-7673-7c0c-a792-bbd8fbbaf673","2025-09-02_07h12.25.368",NA,NA,359.196,359.196,359.196,359.503,NA,NA,NA,NA,NA,NA,NA,TRUE,2,1.391,356.142,359.196,0,28,28,94,1,150,47,NA,NA,NA,NA,NA,1,29,"binary"
"4FE4DC6A565546AFB07A0159DCA5FCA7",1,"01990aa6-0d22-70ef-854d-25b999ac2f9e","01990a83-7673-7c0c-a792-bbd8fbbaf673","2025-09-02_07h12.25.368",NA,NA,362.504,362.799,362.799,362.897,NA,NA,NA,NA,NA,NA,NA,FALSE,NA,NA,359.51,362.503,0,29,29,69,1,60,40,NA,NA,NA,NA,NA,1,30,"binary"
"4FE4DC6A565546AFB07A0159DCA5FCA7",1,"01990aa6-0d22-70ef-854d-25b999ac2f9e","01990a83-7673-7c0c-a792-bbd8fbbaf673","2025-09-02_07h12.25.368",NA,NA,365.858,365.858,365.858,366.251,NA,NA,NA,NA,NA,NA,NA,TRUE,2,0.206,362.898,365.858,0,30,30,42,1,30,26,NA,NA,NA,NA,NA,1,31,"binary"
"4FE4DC6A565546AFB07A0159DCA5FCA7",1,"01990aa6-0d22-70ef-854d-25b999ac2f9e","01990a83-7673-7c0c-a792-bbd8fbbaf673","2025-09-02_07h12.25.368",NA,NA,369.234,369.234,369.234,369.548,NA,NA,NA,NA,NA,NA,NA,TRUE,2,1.042,366.258,369.233,0,31,31,88,1,100,46,NA,NA,NA,NA,NA,1,32,"binary"
"4FE4DC6A565546AFB07A0159DCA5FCA7",1,"01990aa6-0d22-70ef-854d-25b999ac2f9e","01990a83-7673-7c0c-a792-bbd8fbbaf673","2025-09-02_07h12.25.368",NA,NA,372.53,372.53,372.53,372.919,NA,NA,NA,NA,NA,NA,NA,TRUE,2,0.637,369.549,372.529,0,32,32,15,1,12,31,NA,NA,NA,NA,NA,1,33,"binary"
"4FE4DC6A565546AFB07A0159DCA5FCA7",1,"01990aa6-0d22-70ef-854d-25b999ac2f9e","01990a83-7673-7c0c-a792-bbd8fbbaf673","2025-09-02_07h12.25.368",NA,NA,375.87,375.871,375.871,376.278,NA,NA,NA,NA,NA,NA,NA,TRUE,2,0.967,372.927,375.87,0,33,33,74,1,90,33,NA,NA,NA,NA,NA,1,34,"binary"
"4FE4DC6A565546AFB07A0159DCA5FCA7",1,"01990aa6-0d22-70ef-854d-25b999ac2f9e","01990a83-7673-7c0c-a792-bbd8fbbaf673","2025-09-02_07h12.25.368",NA,NA,379.308,379.308,379.308,379.607,NA,NA,NA,NA,NA,NA,NA,TRUE,2,0.66,376.286,379.307,0,34,34,53,1,40,54,NA,NA,NA,NA,NA,1,35,"binary"
"4FE4DC6A565546AFB07A0159DCA5FCA7",1,"01990aa6-0d22-70ef-854d-25b999ac2f9e","01990a83-7673-7c0c-a792-bbd8fbbaf673","2025-09-02_07h12.25.368",NA,NA,382.573,382.573,382.573,382.952,NA,NA,NA,NA,NA,NA,NA,TRUE,2,0.629,379.608,382.573,0,35,35,104,1,200,35,NA,NA,NA,NA,NA,1,36,"binary"
"4FE4DC6A565546AFB07A0159DCA5FCA7",1,"01990aa6-0d22-70ef-854d-25b999ac2f9e","01990a83-7673-7c0c-a792-bbd8fbbaf673","2025-09-02_07h12.25.368",NA,NA,385.923,386.224,386.224,386.319,NA,NA,NA,NA,NA,NA,NA,FALSE,NA,NA,382.959,385.923,0,36,36,77,1,90,54,NA,NA,NA,NA,NA,1,37,"binary"
"4FE4DC6A565546AFB07A0159DCA5FCA7",1,"01990aa6-0d22-70ef-854d-25b999ac2f9e","01990a83-7673-7c0c-a792-bbd8fbbaf673","2025-09-02_07h12.25.368",NA,NA,389.345,389.345,389.345,389.632,NA,NA,NA,NA,NA,NA,NA,TRUE,2,0.004,386.321,389.344,0,37,37,82,1,95,47,NA,NA,NA,NA,NA,1,38,"binary"
"4FE4DC6A565546AFB07A0159DCA5FCA7",1,"01990aa6-0d22-70ef-854d-25b999ac2f9e","01990a83-7673-7c0c-a792-bbd8fbbaf673","2025-09-02_07h12.25.368",NA,NA,392.631,392.631,392.631,393.015,NA,NA,NA,NA,NA,NA,NA,TRUE,2,0.717,389.639,392.63,0,38,38,41,1,28,46,NA,NA,NA,NA,NA,1,39,"binary"
"4FE4DC6A565546AFB07A0159DCA5FCA7",1,"01990aa6-0d22-70ef-854d-25b999ac2f9e","01990a83-7673-7c0c-a792-bbd8fbbaf673","2025-09-02_07h12.25.368",NA,NA,396.043,396.043,396.043,396.332,NA,NA,NA,NA,NA,NA,NA,TRUE,2,0.723,393.022,396.042,0,39,39,78,1,95,31,NA,NA,NA,NA,NA,1,40,"binary"
"4FE4DC6A565546AFB07A0159DCA5FCA7",1,"01990aa6-0d22-70ef-854d-25b999ac2f9e","01990a83-7673-7c0c-a792-bbd8fbbaf673","2025-09-02_07h12.25.368",NA,NA,399.369,399.369,399.369,399.746,NA,NA,NA,NA,NA,NA,NA,TRUE,2,0.528,396.333,399.368,0,40,40,98,1,180,35,NA,NA,NA,NA,NA,1,41,"binary"
"4FE4DC6A565546AFB07A0159DCA5FCA7",1,"01990aa6-0d22-70ef-854d-25b999ac2f9e","01990a83-7673-7c0c-a792-bbd8fbbaf673","2025-09-02_07h12.25.368",NA,NA,402.739,402.739,402.739,403.023,NA,NA,NA,NA,NA,NA,NA,TRUE,2,0.925,399.753,402.739,0,41,41,81,1,95,40,NA,NA,NA,NA,NA,1,42,"binary"
"4FE4DC6A565546AFB07A0159DCA5FCA7",1,"01990aa6-0d22-70ef-854d-25b999ac2f9e","01990a83-7673-7c0c-a792-bbd8fbbaf673","2025-09-02_07h12.25.368",NA,NA,406.062,406.062,406.062,406.441,NA,NA,NA,NA,NA,NA,NA,TRUE,2,1.336,403.024,406.061,0,42,42,107,1,200,54,NA,NA,NA,NA,NA,1,43,"binary"
"4FE4DC6A565546AFB07A0159DCA5FCA7",1,"01990aa6-0d22-70ef-854d-25b999ac2f9e","01990a83-7673-7c0c-a792-bbd8fbbaf673","2025-09-02_07h12.25.368",NA,NA,409.397,409.397,409.397,409.707,NA,NA,NA,NA,NA,NA,NA,TRUE,2,0.602,406.447,409.397,0,43,43,85,1,100,31,NA,NA,NA,NA,NA,1,44,"binary"
"4FE4DC6A565546AFB07A0159DCA5FCA7",1,"01990aa6-0d22-70ef-854d-25b999ac2f9e","01990a83-7673-7c0c-a792-bbd8fbbaf673","2025-09-02_07h12.25.368",NA,NA,412.723,412.723,412.723,413.116,NA,NA,NA,NA,NA,NA,NA,TRUE,2,0.543,409.715,412.723,0,44,44,96,1,180,27,NA,NA,NA,NA,NA,1,45,"binary"
"4FE4DC6A565546AFB07A0159DCA5FCA7",1,"01990aa6-0d22-70ef-854d-25b999ac2f9e","01990a83-7673-7c0c-a792-bbd8fbbaf673","2025-09-02_07h12.25.368",NA,NA,416.138,416.138,416.138,416.429,NA,NA,NA,NA,NA,NA,NA,TRUE,2,0.54,413.118,416.138,0,45,45,35,1,25,46,NA,NA,NA,NA,NA,1,46,"binary"
"4FE4DC6A565546AFB07A0159DCA5FCA7",1,"01990aa6-0d22-70ef-854d-25b999ac2f9e","01990a83-7673-7c0c-a792-bbd8fbbaf673","2025-09-02_07h12.25.368",NA,NA,419.422,419.422,419.422,419.822,NA,NA,NA,NA,NA,NA,NA,TRUE,2,1.477,416.436,419.422,0,46,46,46,1,30,32,NA,NA,NA,NA,NA,1,47,"binary"
"4FE4DC6A565546AFB07A0159DCA5FCA7",1,"01990aa6-0d22-70ef-854d-25b999ac2f9e","01990a83-7673-7c0c-a792-bbd8fbbaf673","2025-09-02_07h12.25.368",NA,NA,422.76,422.76,422.76,423.15,NA,NA,NA,NA,NA,NA,NA,TRUE,2,0.526,419.823,422.76,0,47,47,95,1,150,54,NA,NA,NA,NA,NA,1,48,"binary"
"4FE4DC6A565546AFB07A0159DCA5FCA7",1,"01990aa6-0d22-70ef-854d-25b999ac2f9e","01990a83-7673-7c0c-a792-bbd8fbbaf673","2025-09-02_07h12.25.368",NA,NA,426.161,426.161,426.161,426.471,NA,NA,NA,NA,NA,NA,NA,TRUE,2,0.753,423.157,426.161,0,48,48,26,1,21,29,NA,NA,NA,NA,NA,1,49,"binary"
"4FE4DC6A565546AFB07A0159DCA5FCA7",1,"01990aa6-0d22-70ef-854d-25b999ac2f9e","01990a83-7673-7c0c-a792-bbd8fbbaf673","2025-09-02_07h12.25.368",NA,NA,429.467,429.467,429.467,429.872,NA,NA,NA,NA,NA,NA,NA,TRUE,2,0.737,426.473,429.467,0,49,49,75,1,90,40,NA,NA,NA,NA,NA,1,50,"binary"
"4FE4DC6A565546AFB07A0159DCA5FCA7",1,"01990aa6-0d22-70ef-854d-25b999ac2f9e","01990a83-7673-7c0c-a792-bbd8fbbaf673","2025-09-02_07h12.25.368",NA,NA,432.856,432.856,432.856,433.163,NA,NA,NA,NA,NA,NA,NA,TRUE,2,0.745,429.879,432.856,0,50,50,70,1,60,47,NA,NA,NA,NA,NA,1,51,"binary"
"4FE4DC6A565546AFB07A0159DCA5FCA7",1,"01990aa6-0d22-70ef-854d-25b999ac2f9e","01990a83-7673-7c0c-a792-bbd8fbbaf673","2025-09-02_07h12.25.368",NA,NA,436.206,436.206,436.206,436.605,NA,NA,NA,NA,NA,NA,NA,TRUE,2,0.966,433.164,436.205,0,51,51,48,1,40,27,NA,NA,NA,NA,NA,1,52,"binary"
"4FE4DC6A565546AFB07A0159DCA5FCA7",1,"01990aa6-0d22-70ef-854d-25b999ac2f9e","01990a83-7673-7c0c-a792-bbd8fbbaf673","2025-09-02_07h12.25.368",NA,NA,439.503,439.503,439.503,439.939,NA,NA,NA,NA,NA,NA,NA,TRUE,2,0.74,436.612,439.503,0,52,52,92,1,150,35,NA,NA,NA,NA,NA,1,53,"binary"
"4FE4DC6A565546AFB07A0159DCA5FCA7",1,"01990aa6-0d22-70ef-854d-25b999ac2f9e","01990a83-7673-7c0c-a792-bbd8fbbaf673","2025-09-02_07h12.25.368",NA,NA,442.937,442.937,442.937,443.231,NA,NA,NA,NA,NA,NA,NA,TRUE,2,0.734,439.946,442.937,0,53,53,8,1,10,27,NA,NA,NA,NA,NA,1,54,"binary"
"4FE4DC6A565546AFB07A0159DCA5FCA7",1,"01990aa6-0d22-70ef-854d-25b999ac2f9e","01990a83-7673-7c0c-a792-bbd8fbbaf673","2025-09-02_07h12.25.368",NA,NA,446.212,446.212,446.212,446.613,NA,NA,NA,NA,NA,NA,NA,TRUE,2,0.52,443.233,446.212,0,54,54,73,1,90,30,NA,NA,NA,NA,NA,1,55,"binary"
"4FE4DC6A565546AFB07A0159DCA5FCA7",1,"01990aa6-0d22-70ef-854d-25b999ac2f9e","01990a83-7673-7c0c-a792-bbd8fbbaf673","2025-09-02_07h12.25.368",NA,NA,449.595,449.595,449.595,449.991,NA,NA,NA,NA,NA,NA,NA,TRUE,2,0.636,446.62,449.595,0,55,55,72,1,90,26,NA,NA,NA,NA,NA,1,56,"binary"
"4FE4DC6A565546AFB07A0159DCA5FCA7",1,"01990aa6-0d22-70ef-854d-25b999ac2f9e","01990a83-7673-7c0c-a792-bbd8fbbaf673","2025-09-02_07h12.25.368",NA,NA,452.962,452.962,452.962,453.263,NA,NA,NA,NA,NA,NA,NA,TRUE,2,1.027,449.993,452.961,0,56,56,43,1,30,27,NA,NA,NA,NA,NA,1,57,"binary"
"4FE4DC6A565546AFB07A0159DCA5FCA7",1,"01990aa6-0d22-70ef-854d-25b999ac2f9e","01990a83-7673-7c0c-a792-bbd8fbbaf673","2025-09-02_07h12.25.368",NA,NA,456.291,456.291,456.291,456.688,NA,NA,NA,NA,NA,NA,NA,TRUE,2,1.293,453.27,456.29,0,57,57,84,1,100,26,NA,NA,NA,NA,NA,1,58,"binary"
"4FE4DC6A565546AFB07A0159DCA5FCA7",1,"01990aa6-0d22-70ef-854d-25b999ac2f9e","01990a83-7673-7c0c-a792-bbd8fbbaf673","2025-09-02_07h12.25.368",NA,NA,459.696,459.696,459.696,459.986,NA,NA,NA,NA,NA,NA,NA,TRUE,2,1.268,456.689,459.696,0,58,58,52,1,40,47,NA,NA,NA,NA,NA,1,59,"binary"
"4FE4DC6A565546AFB07A0159DCA5FCA7",1,"01990aa6-0d22-70ef-854d-25b999ac2f9e","01990a83-7673-7c0c-a792-bbd8fbbaf673","2025-09-02_07h12.25.368",NA,NA,462.964,462.964,462.964,463.352,NA,NA,NA,NA,NA,NA,NA,TRUE,2,0.644,459.993,462.964,0,59,59,59,1,45,46,NA,NA,NA,NA,NA,1,60,"binary"
"4FE4DC6A565546AFB07A0159DCA5FCA7",1,"01990aa6-0d22-70ef-854d-25b999ac2f9e","01990a83-7673-7c0c-a792-bbd8fbbaf673","2025-09-02_07h12.25.368",NA,NA,466.314,466.314,466.314,466.706,NA,NA,NA,NA,NA,NA,NA,TRUE,2,1.401,463.359,466.313,0,60,60,33,1,25,33,NA,NA,NA,NA,NA,1,61,"binary"
"4FE4DC6A565546AFB07A0159DCA5FCA7",1,"01990aa6-0d22-70ef-854d-25b999ac2f9e","01990a83-7673-7c0c-a792-bbd8fbbaf673","2025-09-02_07h12.25.368",NA,NA,469.698,469.698,469.698,470.004,NA,NA,NA,NA,NA,NA,NA,TRUE,2,2.342,466.708,469.698,0,61,61,45,1,30,30,NA,NA,NA,NA,NA,1,62,"binary"
"4FE4DC6A565546AFB07A0159DCA5FCA7",1,"01990aa6-0d22-70ef-854d-25b999ac2f9e","01990a83-7673-7c0c-a792-bbd8fbbaf673","2025-09-02_07h12.25.368",NA,NA,473.026,473.026,473.026,473.418,NA,NA,NA,NA,NA,NA,NA,TRUE,2,1.276,470.011,473.025,0,62,62,2,1,7,28,NA,NA,NA,NA,NA,1,63,"binary"
"4FE4DC6A565546AFB07A0159DCA5FCA7",1,"01990aa6-0d22-70ef-854d-25b999ac2f9e","01990a83-7673-7c0c-a792-bbd8fbbaf673","2025-09-02_07h12.25.368",NA,NA,476.452,476.452,476.452,476.758,NA,NA,NA,NA,NA,NA,NA,TRUE,2,0.309,473.419,476.452,0,63,63,89,1,100,54,NA,NA,NA,NA,NA,1,64,"binary"
"4FE4DC6A565546AFB07A0159DCA5FCA7",1,"01990aa6-0d22-70ef-854d-25b999ac2f9e","01990a83-7673-7c0c-a792-bbd8fbbaf673","2025-09-02_07h12.25.368",NA,NA,479.737,479.737,479.737,480.137,NA,NA,NA,NA,NA,NA,NA,TRUE,2,0.62,476.767,479.737,0,64,64,105,1,200,39,NA,NA,NA,NA,NA,1,65,"binary"
"4FE4DC6A565546AFB07A0159DCA5FCA7",1,"01990aa6-0d22-70ef-854d-25b999ac2f9e","01990a83-7673-7c0c-a792-bbd8fbbaf673","2025-09-02_07h12.25.368",NA,NA,483.052,483.052,483.052,483.441,NA,NA,NA,NA,NA,NA,NA,TRUE,2,2.293,480.138,483.052,0,65,65,91,1,150,33,NA,NA,NA,NA,NA,1,66,"binary"
"4FE4DC6A565546AFB07A0159DCA5FCA7",1,"01990aa6-0d22-70ef-854d-25b999ac2f9e","01990a83-7673-7c0c-a792-bbd8fbbaf673","2025-09-02_07h12.25.368",NA,NA,486.422,486.422,486.422,486.831,NA,NA,NA,NA,NA,NA,NA,TRUE,2,1.438,483.448,486.421,0,66,66,30,1,25,27,NA,NA,NA,NA,NA,1,67,"binary"
"4FE4DC6A565546AFB07A0159DCA5FCA7",1,"01990aa6-0d22-70ef-854d-25b999ac2f9e","01990a83-7673-7c0c-a792-bbd8fbbaf673","2025-09-02_07h12.25.368",NA,NA,489.811,489.811,489.811,490.195,NA,NA,NA,NA,NA,NA,NA,TRUE,2,0.003,486.832,489.81,0,67,67,50,1,40,35,NA,NA,NA,NA,NA,1,68,"binary"
"4FE4DC6A565546AFB07A0159DCA5FCA7",1,"01990aa6-0d22-70ef-854d-25b999ac2f9e","01990a83-7673-7c0c-a792-bbd8fbbaf673","2025-09-02_07h12.25.368",NA,NA,493.205,493.205,493.205,493.518,NA,NA,NA,NA,NA,NA,NA,TRUE,2,2.281,490.202,493.204,0,68,68,57,1,45,35,NA,NA,NA,NA,NA,1,69,"binary"
"4FE4DC6A565546AFB07A0159DCA5FCA7",1,"01990aa6-0d22-70ef-854d-25b999ac2f9e","01990a83-7673-7c0c-a792-bbd8fbbaf673","2025-09-02_07h12.25.368",NA,NA,496.518,496.518,496.518,496.824,NA,NA,NA,NA,NA,NA,NA,TRUE,2,1.052,493.525,496.518,0,69,69,17,1,12,35,NA,NA,NA,NA,NA,1,70,"binary"
"4FE4DC6A565546AFB07A0159DCA5FCA7",1,"01990aa6-0d22-70ef-854d-25b999ac2f9e","01990a83-7673-7c0c-a792-bbd8fbbaf673","2025-09-02_07h12.25.368",NA,NA,499.893,499.893,499.893,500.188,NA,NA,NA,NA,NA,NA,NA,TRUE,2,2.755,496.826,499.893,0,70,70,90,1,150,31,NA,NA,NA,NA,NA,1,71,"binary"
"4FE4DC6A565546AFB07A0159DCA5FCA7",1,"01990aa6-0d22-70ef-854d-25b999ac2f9e","01990a83-7673-7c0c-a792-bbd8fbbaf673","2025-09-02_07h12.25.368",NA,NA,503.223,503.223,503.223,503.513,NA,NA,NA,NA,NA,NA,NA,TRUE,2,1.606,500.195,503.223,0,71,71,11,1,10,32,NA,NA,NA,NA,NA,1,72,"binary"
"4FE4DC6A565546AFB07A0159DCA5FCA7",1,"01990aa6-0d22-70ef-854d-25b999ac2f9e","01990a83-7673-7c0c-a792-bbd8fbbaf673","2025-09-02_07h12.25.368",NA,NA,506.588,506.588,506.588,506.882,NA,NA,NA,NA,NA,NA,NA,TRUE,2,0.107,503.515,506.588,0,72,72,38,1,28,32,NA,NA,NA,NA,NA,1,73,"binary"
"4FE4DC6A565546AFB07A0159DCA5FCA7",1,"01990aa6-0d22-70ef-854d-25b999ac2f9e","01990a83-7673-7c0c-a792-bbd8fbbaf673","2025-09-02_07h12.25.368",NA,NA,509.91,509.91,509.91,510.302,NA,NA,NA,NA,NA,NA,NA,TRUE,2,0.629,506.889,509.909,0,73,73,7,1,10,26,NA,NA,NA,NA,NA,1,74,"binary"
"4FE4DC6A565546AFB07A0159DCA5FCA7",1,"01990aa6-0d22-70ef-854d-25b999ac2f9e","01990a83-7673-7c0c-a792-bbd8fbbaf673","2025-09-02_07h12.25.368",NA,NA,513.231,513.524,513.524,513.626,NA,NA,NA,NA,NA,NA,NA,FALSE,NA,NA,510.303,513.23,0,74,74,44,1,30,29,NA,NA,NA,NA,NA,1,75,"binary"
"4FE4DC6A565546AFB07A0159DCA5FCA7",1,"01990aa6-0d22-70ef-854d-25b999ac2f9e","01990a83-7673-7c0c-a792-bbd8fbbaf673","2025-09-02_07h12.25.368",NA,NA,516.661,516.872,516.873,516.972,NA,NA,NA,NA,NA,NA,NA,FALSE,NA,NA,513.633,516.661,0,75,75,16,1,12,33,NA,NA,NA,NA,NA,1,76,"binary"
"4FE4DC6A565546AFB07A0159DCA5FCA7",1,"01990aa6-0d22-70ef-854d-25b999ac2f9e","01990a83-7673-7c0c-a792-bbd8fbbaf673","2025-09-02_07h12.25.368",NA,NA,519.984,519.984,519.984,520.279,NA,NA,NA,NA,NA,NA,NA,TRUE,2,0.945,516.979,519.984,0,76,76,63,1,50,40,NA,NA,NA,NA,NA,1,77,"binary"
"4FE4DC6A565546AFB07A0159DCA5FCA7",1,"01990aa6-0d22-70ef-854d-25b999ac2f9e","01990a83-7673-7c0c-a792-bbd8fbbaf673","2025-09-02_07h12.25.368",NA,NA,523.336,523.336,523.336,523.624,NA,NA,NA,NA,NA,NA,NA,TRUE,2,2.433,520.28,523.336,0,77,77,56,1,45,31,NA,NA,NA,NA,NA,1,78,"binary"
"4FE4DC6A565546AFB07A0159DCA5FCA7",1,"01990aa6-0d22-70ef-854d-25b999ac2f9e","01990a83-7673-7c0c-a792-bbd8fbbaf673","2025-09-02_07h12.25.368",NA,NA,526.643,526.643,526.643,527.039,NA,NA,NA,NA,NA,NA,NA,TRUE,2,1.264,523.632,526.643,0,78,78,61,1,50,30,NA,NA,NA,NA,NA,1,79,"binary"
"4FE4DC6A565546AFB07A0159DCA5FCA7",1,"01990aa6-0d22-70ef-854d-25b999ac2f9e","01990a83-7673-7c0c-a792-bbd8fbbaf673","2025-09-02_07h12.25.368",NA,NA,529.979,529.979,529.979,530.363,NA,NA,NA,NA,NA,NA,NA,TRUE,2,0.979,527.04,529.978,0,79,79,62,1,50,35,NA,NA,NA,NA,NA,1,80,"binary"
"4FE4DC6A565546AFB07A0159DCA5FCA7",1,"01990aa6-0d22-70ef-854d-25b999ac2f9e","01990a83-7673-7c0c-a792-bbd8fbbaf673","2025-09-02_07h12.25.368",NA,NA,533.382,533.382,533.382,533.684,NA,NA,NA,NA,NA,NA,NA,TRUE,2,1.044,530.37,533.382,0,80,80,27,1,21,30,NA,NA,NA,NA,NA,1,81,"binary"
"4FE4DC6A565546AFB07A0159DCA5FCA7",1,"01990aa6-0d22-70ef-854d-25b999ac2f9e","01990a83-7673-7c0c-a792-bbd8fbbaf673","2025-09-02_07h12.25.368",NA,NA,536.705,536.705,536.705,537.109,NA,NA,NA,NA,NA,NA,NA,TRUE,2,0.855,533.686,536.704,0,81,81,103,1,200,28,NA,NA,NA,NA,NA,1,82,"binary"
"4FE4DC6A565546AFB07A0159DCA5FCA7",1,"01990aa6-0d22-70ef-854d-25b999ac2f9e","01990a83-7673-7c0c-a792-bbd8fbbaf673","2025-09-02_07h12.25.368",NA,NA,540.042,540.042,540.042,540.429,NA,NA,NA,NA,NA,NA,NA,TRUE,2,1.786,537.116,540.041,0,82,82,3,1,7,30,NA,NA,NA,NA,NA,1,83,"binary"
"4FE4DC6A565546AFB07A0159DCA5FCA7",1,"01990aa6-0d22-70ef-854d-25b999ac2f9e","01990a83-7673-7c0c-a792-bbd8fbbaf673","2025-09-02_07h12.25.368",NA,NA,543.417,543.417,543.417,543.717,NA,NA,NA,NA,NA,NA,NA,TRUE,2,2.767,540.436,543.417,0,83,83,66,1,60,29,NA,NA,NA,NA,NA,1,84,"binary"
"4FE4DC6A565546AFB07A0159DCA5FCA7",1,"01990aa6-0d22-70ef-854d-25b999ac2f9e","01990a83-7673-7c0c-a792-bbd8fbbaf673","2025-09-02_07h12.25.368",NA,NA,546.739,546.739,546.739,547.125,NA,NA,NA,NA,NA,NA,NA,TRUE,2,1.918,543.718,546.739,0,84,84,93,1,150,40,NA,NA,NA,NA,NA,1,85,"binary"
"4FE4DC6A565546AFB07A0159DCA5FCA7",1,"01990aa6-0d22-70ef-854d-25b999ac2f9e","01990a83-7673-7c0c-a792-bbd8fbbaf673","2025-09-02_07h12.25.368",NA,NA,550.117,550.117,550.117,550.51,NA,NA,NA,NA,NA,NA,NA,TRUE,2,0.324,547.133,550.117,0,85,85,86,1,100,38,NA,NA,NA,NA,NA,1,86,"binary"
"4FE4DC6A565546AFB07A0159DCA5FCA7",1,"01990aa6-0d22-70ef-854d-25b999ac2f9e","01990a83-7673-7c0c-a792-bbd8fbbaf673","2025-09-02_07h12.25.368",NA,NA,553.477,553.477,553.477,553.773,NA,NA,NA,NA,NA,NA,NA,TRUE,2,2.78,550.512,553.477,0,86,86,97,1,180,31,NA,NA,NA,NA,NA,1,87,"binary"
"4FE4DC6A565546AFB07A0159DCA5FCA7",1,"01990aa6-0d22-70ef-854d-25b999ac2f9e","01990a83-7673-7c0c-a792-bbd8fbbaf673","2025-09-02_07h12.25.368",NA,NA,556.779,556.779,556.779,557.185,NA,NA,NA,NA,NA,NA,NA,TRUE,2,1.879,553.78,556.779,0,87,87,36,1,28,26,NA,NA,NA,NA,NA,1,88,"binary"
"4FE4DC6A565546AFB07A0159DCA5FCA7",1,"01990aa6-0d22-70ef-854d-25b999ac2f9e","01990a83-7673-7c0c-a792-bbd8fbbaf673","2025-09-02_07h12.25.368",NA,NA,560.137,560.137,560.137,560.528,NA,NA,NA,NA,NA,NA,NA,TRUE,2,1.345,557.187,560.137,0,88,88,14,1,12,28,NA,NA,NA,NA,NA,1,89,"binary"
"4FE4DC6A565546AFB07A0159DCA5FCA7",1,"01990aa6-0d22-70ef-854d-25b999ac2f9e","01990a83-7673-7c0c-a792-bbd8fbbaf673","2025-09-02_07h12.25.368",NA,NA,563.533,563.533,563.533,563.833,NA,NA,NA,NA,NA,NA,NA,TRUE,2,0.421,560.535,563.532,0,89,89,24,1,21,26,NA,NA,NA,NA,NA,1,90,"binary"
"4FE4DC6A565546AFB07A0159DCA5FCA7",1,"01990aa6-0d22-70ef-854d-25b999ac2f9e","01990a83-7673-7c0c-a792-bbd8fbbaf673","2025-09-02_07h12.25.368",NA,NA,566.833,566.833,566.833,567.219,NA,NA,NA,NA,NA,NA,NA,TRUE,2,0.833,563.84,566.833,0,90,90,23,1,14,39,NA,NA,NA,NA,NA,1,91,"binary"
"4FE4DC6A565546AFB07A0159DCA5FCA7",1,"01990aa6-0d22-70ef-854d-25b999ac2f9e","01990a83-7673-7c0c-a792-bbd8fbbaf673","2025-09-02_07h12.25.368",NA,NA,570.192,570.192,570.192,570.582,NA,NA,NA,NA,NA,NA,NA,TRUE,2,0.224,567.22,570.191,0,91,91,102,1,200,26,NA,NA,NA,NA,NA,1,92,"binary"
"4FE4DC6A565546AFB07A0159DCA5FCA7",1,"01990aa6-0d22-70ef-854d-25b999ac2f9e","01990a83-7673-7c0c-a792-bbd8fbbaf673","2025-09-02_07h12.25.368",NA,NA,573.583,573.583,573.583,573.871,NA,NA,NA,NA,NA,NA,NA,TRUE,2,1.036,570.591,573.583,0,92,92,71,1,60,54,NA,NA,NA,NA,NA,1,93,"binary"
"4FE4DC6A565546AFB07A0159DCA5FCA7",1,"01990aa6-0d22-70ef-854d-25b999ac2f9e","01990a83-7673-7c0c-a792-bbd8fbbaf673","2025-09-02_07h12.25.368",NA,NA,576.935,576.935,576.935,577.227,NA,NA,NA,NA,NA,NA,NA,TRUE,2,0.103,573.873,576.935,0,93,93,5,1,7,35,NA,NA,NA,NA,NA,1,94,"binary"
"4FE4DC6A565546AFB07A0159DCA5FCA7",1,"01990aa6-0d22-70ef-854d-25b999ac2f9e","01990a83-7673-7c0c-a792-bbd8fbbaf673","2025-09-02_07h12.25.368",NA,NA,580.265,580.468,580.468,580.575,NA,NA,NA,NA,NA,NA,NA,FALSE,NA,NA,577.234,580.265,0,94,94,99,1,180,39,NA,NA,NA,NA,NA,1,95,"binary"
"4FE4DC6A565546AFB07A0159DCA5FCA7",1,"01990aa6-0d22-70ef-854d-25b999ac2f9e","01990a83-7673-7c0c-a792-bbd8fbbaf673","2025-09-02_07h12.25.368",NA,NA,583.657,583.657,583.657,583.953,NA,NA,NA,NA,NA,NA,NA,TRUE,2,0.336,580.582,583.657,0,95,95,32,1,25,31,NA,NA,NA,NA,NA,1,96,"binary"
"4FE4DC6A565546AFB07A0159DCA5FCA7",1,"01990aa6-0d22-70ef-854d-25b999ac2f9e","01990a83-7673-7c0c-a792-bbd8fbbaf673","2025-09-02_07h12.25.368",NA,NA,586.995,586.995,586.995,587.287,NA,NA,NA,NA,NA,NA,NA,TRUE,2,1.277,583.955,586.994,0,96,96,58,1,45,40,NA,NA,NA,NA,NA,1,97,"binary"
"4FE4DC6A565546AFB07A0159DCA5FCA7",1,"01990aa6-0d22-70ef-854d-25b999ac2f9e","01990a83-7673-7c0c-a792-bbd8fbbaf673","2025-09-02_07h12.25.368",NA,NA,590.254,590.558,590.558,590.658,NA,NA,NA,NA,NA,NA,NA,FALSE,NA,NA,587.294,590.253,0,97,97,31,1,25,29,NA,NA,NA,NA,NA,1,98,"binary"
"4FE4DC6A565546AFB07A0159DCA5FCA7",1,"01990aa6-0d22-70ef-854d-25b999ac2f9e","01990a83-7673-7c0c-a792-bbd8fbbaf673","2025-09-02_07h12.25.368",NA,NA,593.694,593.694,593.694,593.998,NA,NA,NA,NA,NA,NA,NA,TRUE,2,1.882,590.66,593.693,0,98,98,76,1,90,46,NA,NA,NA,NA,NA,1,99,"binary"
"4FE4DC6A565546AFB07A0159DCA5FCA7",1,"01990aa6-0d22-70ef-854d-25b999ac2f9e","01990a83-7673-7c0c-a792-bbd8fbbaf673","2025-09-02_07h12.25.368",NA,NA,597.036,597.036,597.036,597.336,NA,NA,NA,NA,NA,NA,NA,TRUE,2,2.114,594.005,597.035,0,99,99,39,1,28,35,NA,NA,NA,NA,NA,1,100,"binary"
"4FE4DC6A565546AFB07A0159DCA5FCA7",1,"01990aa6-0d22-70ef-854d-25b999ac2f9e","01990a83-7673-7c0c-a792-bbd8fbbaf673","2025-09-02_07h12.25.368",NA,NA,600.316,600.316,600.316,600.704,NA,NA,NA,NA,NA,NA,NA,TRUE,2,0.872,597.338,600.315,0,100,100,106,1,200,47,NA,NA,NA,NA,NA,1,101,"binary"
"4FE4DC6A565546AFB07A0159DCA5FCA7",1,"01990aa6-0d22-70ef-854d-25b999ac2f9e","01990a83-7673-7c0c-a792-bbd8fbbaf673","2025-09-02_07h12.25.368",NA,NA,603.732,603.732,603.732,604.026,NA,NA,NA,NA,NA,NA,NA,TRUE,2,0.109,600.712,603.732,0,101,101,0,1,7,25,NA,NA,NA,NA,NA,1,102,"binary"
"4FE4DC6A565546AFB07A0159DCA5FCA7",1,"01990aa6-0d22-70ef-854d-25b999ac2f9e","01990a83-7673-7c0c-a792-bbd8fbbaf673","2025-09-02_07h12.25.368",NA,NA,607.098,607.098,607.098,607.397,NA,NA,NA,NA,NA,NA,NA,TRUE,2,2.109,604.034,607.098,0,102,102,6,1,10,25,NA,NA,NA,NA,NA,1,103,"binary"
"4FE4DC6A565546AFB07A0159DCA5FCA7",1,"01990aa6-0d22-70ef-854d-25b999ac2f9e","01990a83-7673-7c0c-a792-bbd8fbbaf673","2025-09-02_07h12.25.368",NA,NA,610.44,610.44,610.44,610.73,NA,NA,NA,NA,NA,NA,NA,TRUE,2,1.143,607.398,610.44,0,103,103,101,1,180,54,NA,NA,NA,NA,NA,1,104,"binary"
"4FE4DC6A565546AFB07A0159DCA5FCA7",1,"01990aa6-0d22-70ef-854d-25b999ac2f9e","01990a83-7673-7c0c-a792-bbd8fbbaf673","2025-09-02_07h12.25.368",NA,NA,613.736,613.736,613.736,614.124,NA,NA,NA,NA,NA,NA,NA,TRUE,2,0.564,610.737,613.735,0,104,104,9,1,10,29,NA,NA,NA,NA,NA,1,105,"binary"
"4FE4DC6A565546AFB07A0159DCA5FCA7",1,"01990aa6-0d22-70ef-854d-25b999ac2f9e","01990a83-7673-7c0c-a792-bbd8fbbaf673","2025-09-02_07h12.25.368",NA,NA,617.097,617.097,617.097,617.499,NA,NA,NA,NA,NA,NA,NA,TRUE,2,1.619,614.125,617.097,0,105,105,65,1,50,54,NA,NA,NA,NA,NA,1,106,"binary"
"4FE4DC6A565546AFB07A0159DCA5FCA7",1,"01990aa6-0d22-70ef-854d-25b999ac2f9e","01990a83-7673-7c0c-a792-bbd8fbbaf673","2025-09-02_07h12.25.368",NA,NA,620.458,620.458,620.458,620.864,NA,NA,NA,NA,NA,NA,NA,TRUE,2,0.435,617.507,620.458,0,106,106,100,1,180,46,NA,NA,NA,NA,NA,1,107,"binary"
"4FE4DC6A565546AFB07A0159DCA5FCA7",1,"01990aa6-0d22-70ef-854d-25b999ac2f9e","01990a83-7673-7c0c-a792-bbd8fbbaf673","2025-09-02_07h12.25.368",NA,NA,623.791,623.791,623.791,624.186,NA,NA,NA,NA,NA,NA,NA,TRUE,2,0.758,620.871,623.79,0,107,107,51,1,40,40,NA,NA,NA,NA,NA,1,108,"binary"
"4FE4DC6A565546AFB07A0159DCA5FCA7",1,"01990aa6-0d22-70ef-854d-25b999ac2f9e","01990a83-7673-7c0c-a792-bbd8fbbaf673","2025-09-02_07h12.25.368",NA,NA,632.003,632.003,632.003,632.314,NA,NA,NA,NA,NA,NA,NA,TRUE,2,1.507,629.066,632.002,NA,NA,NA,NA,NA,21,27,0,0,0,25,1,2,1,"binary"
"4FE4DC6A565546AFB07A0159DCA5FCA7",1,"01990aa6-0d22-70ef-854d-25b999ac2f9e","01990a83-7673-7c0c-a792-bbd8fbbaf673","2025-09-02_07h12.25.368",NA,NA,635.369,635.369,635.369,635.671,NA,NA,NA,NA,NA,NA,NA,TRUE,2,0.431,632.322,635.368,NA,NA,NA,NA,NA,50,35,0,1,1,62,1,2,2,"binary"
"4FE4DC6A565546AFB07A0159DCA5FCA7",1,"01990aa6-0d22-70ef-854d-25b999ac2f9e","01990a83-7673-7c0c-a792-bbd8fbbaf673","2025-09-02_07h12.25.368",NA,NA,638.764,638.764,638.764,639.067,NA,NA,NA,NA,NA,NA,NA,TRUE,2,0.108,635.673,638.764,NA,NA,NA,NA,NA,60,54,0,2,2,71,1,2,3,"binary"
"4FE4DC6A565546AFB07A0159DCA5FCA7",1,"01990aa6-0d22-70ef-854d-25b999ac2f9e","01990a83-7673-7c0c-a792-bbd8fbbaf673","2025-09-02_07h12.25.368",NA,NA,642.046,642.046,642.046,642.372,NA,NA,NA,NA,NA,NA,NA,TRUE,2,0.708,639.075,642.046,NA,NA,NA,NA,NA,14,39,0,3,3,23,1,2,4,"binary"
"4FE4DC6A565546AFB07A0159DCA5FCA7",1,"01990aa6-0d22-70ef-854d-25b999ac2f9e","01990a83-7673-7c0c-a792-bbd8fbbaf673","2025-09-02_07h12.25.368",NA,NA,645.446,645.446,645.446,645.738,NA,NA,NA,NA,NA,NA,NA,TRUE,2,0.408,642.379,645.446,NA,NA,NA,NA,NA,30,26,0,4,4,42,1,2,5,"binary"
"4FE4DC6A565546AFB07A0159DCA5FCA7",1,"01990aa6-0d22-70ef-854d-25b999ac2f9e","01990a83-7673-7c0c-a792-bbd8fbbaf673","2025-09-02_07h12.25.368",NA,NA,648.78,648.78,648.78,649.164,NA,NA,NA,NA,NA,NA,NA,TRUE,2,1.481,645.74,648.78,NA,NA,NA,NA,NA,150,31,0,5,5,90,1,2,6,"binary"
"4FE4DC6A565546AFB07A0159DCA5FCA7",1,"01990aa6-0d22-70ef-854d-25b999ac2f9e","01990a83-7673-7c0c-a792-bbd8fbbaf673","2025-09-02_07h12.25.368",NA,NA,652.164,652.164,652.164,652.46,NA,NA,NA,NA,NA,NA,NA,TRUE,2,0.63,649.172,652.163,NA,NA,NA,NA,NA,95,54,0,6,6,83,1,2,7,"binary"
"4FE4DC6A565546AFB07A0159DCA5FCA7",1,"01990aa6-0d22-70ef-854d-25b999ac2f9e","01990a83-7673-7c0c-a792-bbd8fbbaf673","2025-09-02_07h12.25.368",NA,NA,655.43,655.734,655.734,655.833,NA,NA,NA,NA,NA,NA,NA,FALSE,NA,NA,652.461,655.429,NA,NA,NA,NA,NA,14,32,0,7,7,21,1,2,8,"binary"
"4FE4DC6A565546AFB07A0159DCA5FCA7",1,"01990aa6-0d22-70ef-854d-25b999ac2f9e","01990a83-7673-7c0c-a792-bbd8fbbaf673","2025-09-02_07h12.25.368",NA,NA,658.819,658.819,658.819,659.209,NA,NA,NA,NA,NA,NA,NA,TRUE,2,0.21,655.841,658.819,NA,NA,NA,NA,NA,10,27,0,8,8,8,1,2,9,"binary"
"4FE4DC6A565546AFB07A0159DCA5FCA7",1,"01990aa6-0d22-70ef-854d-25b999ac2f9e","01990a83-7673-7c0c-a792-bbd8fbbaf673","2025-09-02_07h12.25.368",NA,NA,662.191,662.191,662.191,662.472,NA,NA,NA,NA,NA,NA,NA,TRUE,2,1.182,659.216,662.19,NA,NA,NA,NA,NA,7,26,0,9,9,1,1,2,10,"binary"
"4FE4DC6A565546AFB07A0159DCA5FCA7",1,"01990aa6-0d22-70ef-854d-25b999ac2f9e","01990a83-7673-7c0c-a792-bbd8fbbaf673","2025-09-02_07h12.25.368",NA,NA,665.505,665.797,665.797,665.896,NA,NA,NA,NA,NA,NA,NA,FALSE,NA,NA,662.473,665.504,NA,NA,NA,NA,NA,60,47,0,10,10,70,1,2,11,"binary"
"4FE4DC6A565546AFB07A0159DCA5FCA7",1,"01990aa6-0d22-70ef-854d-25b999ac2f9e","01990a83-7673-7c0c-a792-bbd8fbbaf673","2025-09-02_07h12.25.368",NA,NA,668.895,668.895,668.895,669.196,NA,NA,NA,NA,NA,NA,NA,TRUE,2,0.976,665.903,668.895,NA,NA,NA,NA,NA,150,40,0,11,11,93,1,2,12,"binary"
"4FE4DC6A565546AFB07A0159DCA5FCA7",1,"01990aa6-0d22-70ef-854d-25b999ac2f9e","01990a83-7673-7c0c-a792-bbd8fbbaf673","2025-09-02_07h12.25.368",NA,NA,672.182,672.182,672.182,672.578,NA,NA,NA,NA,NA,NA,NA,TRUE,2,0.949,669.197,672.181,NA,NA,NA,NA,NA,30,27,0,12,12,43,1,2,13,"binary"
"4FE4DC6A565546AFB07A0159DCA5FCA7",1,"01990aa6-0d22-70ef-854d-25b999ac2f9e","01990a83-7673-7c0c-a792-bbd8fbbaf673","2025-09-02_07h12.25.368",NA,NA,675.583,675.583,675.583,675.894,NA,NA,NA,NA,NA,NA,NA,TRUE,2,0.735,672.585,675.582,NA,NA,NA,NA,NA,7,35,0,13,13,5,1,2,14,"binary"
"4FE4DC6A565546AFB07A0159DCA5FCA7",1,"01990aa6-0d22-70ef-854d-25b999ac2f9e","01990a83-7673-7c0c-a792-bbd8fbbaf673","2025-09-02_07h12.25.368",NA,NA,678.881,678.881,678.881,679.273,NA,NA,NA,NA,NA,NA,NA,TRUE,2,1.779,675.896,678.881,NA,NA,NA,NA,NA,12,26,0,14,14,13,1,2,15,"binary"
"4FE4DC6A565546AFB07A0159DCA5FCA7",1,"01990aa6-0d22-70ef-854d-25b999ac2f9e","01990a83-7673-7c0c-a792-bbd8fbbaf673","2025-09-02_07h12.25.368",NA,NA,682.284,682.284,682.284,682.586,NA,NA,NA,NA,NA,NA,NA,TRUE,2,0.937,679.28,682.284,NA,NA,NA,NA,NA,7,28,0,15,15,2,1,2,16,"binary"
"4FE4DC6A565546AFB07A0159DCA5FCA7",1,"01990aa6-0d22-70ef-854d-25b999ac2f9e","01990a83-7673-7c0c-a792-bbd8fbbaf673","2025-09-02_07h12.25.368",NA,NA,685.644,685.644,685.644,685.945,NA,NA,NA,NA,NA,NA,NA,TRUE,2,0.856,682.588,685.644,NA,NA,NA,NA,NA,7,32,0,16,16,4,1,2,17,"binary"
"4FE4DC6A565546AFB07A0159DCA5FCA7",1,"01990aa6-0d22-70ef-854d-25b999ac2f9e","01990a83-7673-7c0c-a792-bbd8fbbaf673","2025-09-02_07h12.25.368",NA,NA,689.015,689.015,689.015,689.311,NA,NA,NA,NA,NA,NA,NA,TRUE,2,1.838,685.952,689.014,NA,NA,NA,NA,NA,14,28,0,17,17,20,1,2,18,"binary"
"4FE4DC6A565546AFB07A0159DCA5FCA7",1,"01990aa6-0d22-70ef-854d-25b999ac2f9e","01990a83-7673-7c0c-a792-bbd8fbbaf673","2025-09-02_07h12.25.368",NA,NA,692.337,692.337,692.337,692.65,NA,NA,NA,NA,NA,NA,NA,TRUE,2,0.846,689.318,692.337,NA,NA,NA,NA,NA,60,33,0,18,18,67,1,2,19,"binary"
"4FE4DC6A565546AFB07A0159DCA5FCA7",1,"01990aa6-0d22-70ef-854d-25b999ac2f9e","01990a83-7673-7c0c-a792-bbd8fbbaf673","2025-09-02_07h12.25.368",NA,NA,695.723,695.723,695.723,696.013,NA,NA,NA,NA,NA,NA,NA,TRUE,2,2.339,692.652,695.722,NA,NA,NA,NA,NA,90,26,0,19,19,72,1,2,20,"binary"
"4FE4DC6A565546AFB07A0159DCA5FCA7",1,"01990aa6-0d22-70ef-854d-25b999ac2f9e","01990a83-7673-7c0c-a792-bbd8fbbaf673","2025-09-02_07h12.25.368",NA,NA,698.965,698.965,698.965,699.364,NA,NA,NA,NA,NA,NA,NA,TRUE,2,0.117,696.02,698.964,NA,NA,NA,NA,NA,10,32,0,20,20,11,1,2,21,"binary"
"4FE4DC6A565546AFB07A0159DCA5FCA7",1,"01990aa6-0d22-70ef-854d-25b999ac2f9e","01990a83-7673-7c0c-a792-bbd8fbbaf673","2025-09-02_07h12.25.368",NA,NA,702.381,702.381,702.381,702.685,NA,NA,NA,NA,NA,NA,NA,TRUE,2,0.004,699.366,702.38,NA,NA,NA,NA,NA,12,25,0,21,21,12,1,2,22,"binary"
"4FE4DC6A565546AFB07A0159DCA5FCA7",1,"01990aa6-0d22-70ef-854d-25b999ac2f9e","01990a83-7673-7c0c-a792-bbd8fbbaf673","2025-09-02_07h12.25.368",NA,NA,705.683,705.683,705.683,706.104,NA,NA,NA,NA,NA,NA,NA,TRUE,2,1.748,702.692,705.682,NA,NA,NA,NA,NA,21,38,0,22,22,29,1,2,23,"binary"
"4FE4DC6A565546AFB07A0159DCA5FCA7",1,"01990aa6-0d22-70ef-854d-25b999ac2f9e","01990a83-7673-7c0c-a792-bbd8fbbaf673","2025-09-02_07h12.25.368",NA,NA,709.044,709.044,709.044,709.443,NA,NA,NA,NA,NA,NA,NA,TRUE,2,0.742,706.106,709.044,NA,NA,NA,NA,NA,150,47,0,23,23,94,1,2,24,"binary"
"4FE4DC6A565546AFB07A0159DCA5FCA7",1,"01990aa6-0d22-70ef-854d-25b999ac2f9e","01990a83-7673-7c0c-a792-bbd8fbbaf673","2025-09-02_07h12.25.368",NA,NA,712.444,712.444,712.444,712.745,NA,NA,NA,NA,NA,NA,NA,TRUE,2,0.107,709.45,712.443,NA,NA,NA,NA,NA,90,30,0,24,24,73,1,2,25,"binary"
"4FE4DC6A565546AFB07A0159DCA5FCA7",1,"01990aa6-0d22-70ef-854d-25b999ac2f9e","01990a83-7673-7c0c-a792-bbd8fbbaf673","2025-09-02_07h12.25.368",NA,NA,715.721,715.721,715.721,716.134,NA,NA,NA,NA,NA,NA,NA,TRUE,2,0.119,712.747,715.721,NA,NA,NA,NA,NA,50,54,0,25,25,65,1,2,26,"binary"
"4FE4DC6A565546AFB07A0159DCA5FCA7",1,"01990aa6-0d22-70ef-854d-25b999ac2f9e","01990a83-7673-7c0c-a792-bbd8fbbaf673","2025-09-02_07h12.25.368",NA,NA,719.084,719.084,719.084,719.476,NA,NA,NA,NA,NA,NA,NA,TRUE,2,0.109,716.141,719.084,NA,NA,NA,NA,NA,28,46,0,26,26,41,1,2,27,"binary"
"4FE4DC6A565546AFB07A0159DCA5FCA7",1,"01990aa6-0d22-70ef-854d-25b999ac2f9e","01990a83-7673-7c0c-a792-bbd8fbbaf673","2025-09-02_07h12.25.368",NA,NA,722.472,722.472,722.472,722.773,NA,NA,NA,NA,NA,NA,NA,TRUE,2,0.64,719.478,722.472,NA,NA,NA,NA,NA,180,46,0,27,27,100,1,2,28,"binary"
"4FE4DC6A565546AFB07A0159DCA5FCA7",1,"01990aa6-0d22-70ef-854d-25b999ac2f9e","01990a83-7673-7c0c-a792-bbd8fbbaf673","2025-09-02_07h12.25.368",NA,NA,725.858,725.858,725.858,726.15,NA,NA,NA,NA,NA,NA,NA,TRUE,2,0.549,722.782,725.858,NA,NA,NA,NA,NA,12,35,0,28,28,17,1,2,29,"binary"
"4FE4DC6A565546AFB07A0159DCA5FCA7",1,"01990aa6-0d22-70ef-854d-25b999ac2f9e","01990a83-7673-7c0c-a792-bbd8fbbaf673","2025-09-02_07h12.25.368",NA,NA,729.132,729.132,729.132,729.529,NA,NA,NA,NA,NA,NA,NA,TRUE,2,0.004,726.151,729.132,NA,NA,NA,NA,NA,200,26,0,29,29,102,1,2,30,"binary"
"4FE4DC6A565546AFB07A0159DCA5FCA7",1,"01990aa6-0d22-70ef-854d-25b999ac2f9e","01990a83-7673-7c0c-a792-bbd8fbbaf673","2025-09-02_07h12.25.368",NA,NA,732.512,732.512,732.512,732.918,NA,NA,NA,NA,NA,NA,NA,TRUE,2,0.54,729.537,732.512,NA,NA,NA,NA,NA,100,46,0,30,30,88,1,2,31,"binary"
"4FE4DC6A565546AFB07A0159DCA5FCA7",1,"01990aa6-0d22-70ef-854d-25b999ac2f9e","01990a83-7673-7c0c-a792-bbd8fbbaf673","2025-09-02_07h12.25.368",NA,NA,735.876,735.876,735.876,736.268,NA,NA,NA,NA,NA,NA,NA,TRUE,2,0.316,732.925,735.875,NA,NA,NA,NA,NA,90,46,0,31,31,76,1,2,32,"binary"
"4FE4DC6A565546AFB07A0159DCA5FCA7",1,"01990aa6-0d22-70ef-854d-25b999ac2f9e","01990a83-7673-7c0c-a792-bbd8fbbaf673","2025-09-02_07h12.25.368",NA,NA,739.239,739.239,739.239,739.538,NA,NA,NA,NA,NA,NA,NA,TRUE,2,0.217,736.27,739.238,NA,NA,NA,NA,NA,28,26,0,32,32,36,1,2,33,"binary"
"4FE4DC6A565546AFB07A0159DCA5FCA7",1,"01990aa6-0d22-70ef-854d-25b999ac2f9e","01990a83-7673-7c0c-a792-bbd8fbbaf673","2025-09-02_07h12.25.368",NA,NA,742.545,742.545,742.545,742.936,NA,NA,NA,NA,NA,NA,NA,TRUE,2,0.005,739.545,742.544,NA,NA,NA,NA,NA,60,35,0,33,33,68,1,2,34,"binary"
"4FE4DC6A565546AFB07A0159DCA5FCA7",1,"01990aa6-0d22-70ef-854d-25b999ac2f9e","01990a83-7673-7c0c-a792-bbd8fbbaf673","2025-09-02_07h12.25.368",NA,NA,745.932,745.932,745.932,746.231,NA,NA,NA,NA,NA,NA,NA,TRUE,2,0.317,742.938,745.931,NA,NA,NA,NA,NA,30,32,0,34,34,46,1,2,35,"binary"
"4FE4DC6A565546AFB07A0159DCA5FCA7",1,"01990aa6-0d22-70ef-854d-25b999ac2f9e","01990a83-7673-7c0c-a792-bbd8fbbaf673","2025-09-02_07h12.25.368",NA,NA,749.235,749.235,749.235,749.649,NA,NA,NA,NA,NA,NA,NA,TRUE,2,0.005,746.238,749.235,NA,NA,NA,NA,NA,28,39,0,35,35,40,1,2,36,"binary"
"4FE4DC6A565546AFB07A0159DCA5FCA7",1,"01990aa6-0d22-70ef-854d-25b999ac2f9e","01990a83-7673-7c0c-a792-bbd8fbbaf673","2025-09-02_07h12.25.368",NA,NA,752.658,752.658,752.658,752.976,NA,NA,NA,NA,NA,NA,NA,TRUE,2,2.796,749.651,752.658,NA,NA,NA,NA,NA,28,32,0,36,36,38,1,2,37,"binary"
"4FE4DC6A565546AFB07A0159DCA5FCA7",1,"01990aa6-0d22-70ef-854d-25b999ac2f9e","01990a83-7673-7c0c-a792-bbd8fbbaf673","2025-09-02_07h12.25.368",NA,NA,755.945,755.945,755.945,756.358,NA,NA,NA,NA,NA,NA,NA,TRUE,2,0.45,752.984,755.945,NA,NA,NA,NA,NA,90,33,0,37,37,74,1,2,38,"binary"
"4FE4DC6A565546AFB07A0159DCA5FCA7",1,"01990aa6-0d22-70ef-854d-25b999ac2f9e","01990a83-7673-7c0c-a792-bbd8fbbaf673","2025-09-02_07h12.25.368",NA,NA,759.313,759.313,759.313,759.708,NA,NA,NA,NA,NA,NA,NA,TRUE,2,0.634,756.366,759.312,NA,NA,NA,NA,NA,28,35,0,38,38,39,1,2,39,"binary"
"4FE4DC6A565546AFB07A0159DCA5FCA7",1,"01990aa6-0d22-70ef-854d-25b999ac2f9e","01990a83-7673-7c0c-a792-bbd8fbbaf673","2025-09-02_07h12.25.368",NA,NA,762.725,762.725,762.725,763.037,NA,NA,NA,NA,NA,NA,NA,TRUE,2,2.84,759.71,762.725,NA,NA,NA,NA,NA,150,33,0,39,39,91,1,2,40,"binary"
"4FE4DC6A565546AFB07A0159DCA5FCA7",1,"01990aa6-0d22-70ef-854d-25b999ac2f9e","01990a83-7673-7c0c-a792-bbd8fbbaf673","2025-09-02_07h12.25.368",NA,NA,765.996,765.996,765.996,766.409,NA,NA,NA,NA,NA,NA,NA,TRUE,2,0.005,763.045,765.996,NA,NA,NA,NA,NA,45,35,0,40,40,57,1,2,41,"binary"
"4FE4DC6A565546AFB07A0159DCA5FCA7",1,"01990aa6-0d22-70ef-854d-25b999ac2f9e","01990a83-7673-7c0c-a792-bbd8fbbaf673","2025-09-02_07h12.25.368",NA,NA,769.325,769.325,769.325,769.731,NA,NA,NA,NA,NA,NA,NA,TRUE,2,0.108,766.411,769.325,NA,NA,NA,NA,NA,45,31,0,41,41,56,1,2,42,"binary"
"4FE4DC6A565546AFB07A0159DCA5FCA7",1,"01990aa6-0d22-70ef-854d-25b999ac2f9e","01990a83-7673-7c0c-a792-bbd8fbbaf673","2025-09-02_07h12.25.368",NA,NA,772.715,772.715,772.715,773.119,NA,NA,NA,NA,NA,NA,NA,TRUE,2,0.326,769.739,772.714,NA,NA,NA,NA,NA,200,54,0,42,42,107,1,2,43,"binary"
"4FE4DC6A565546AFB07A0159DCA5FCA7",1,"01990aa6-0d22-70ef-854d-25b999ac2f9e","01990a83-7673-7c0c-a792-bbd8fbbaf673","2025-09-02_07h12.25.368",NA,NA,776.042,776.042,776.042,776.456,NA,NA,NA,NA,NA,NA,NA,TRUE,2,1.897,773.122,776.041,NA,NA,NA,NA,NA,7,25,0,43,43,0,1,2,44,"binary"
"4FE4DC6A565546AFB07A0159DCA5FCA7",1,"01990aa6-0d22-70ef-854d-25b999ac2f9e","01990a83-7673-7c0c-a792-bbd8fbbaf673","2025-09-02_07h12.25.368",NA,NA,779.425,779.425,779.425,779.727,NA,NA,NA,NA,NA,NA,NA,TRUE,2,1.934,776.463,779.425,NA,NA,NA,NA,NA,150,35,0,44,44,92,1,2,45,"binary"
"4FE4DC6A565546AFB07A0159DCA5FCA7",1,"01990aa6-0d22-70ef-854d-25b999ac2f9e","01990a83-7673-7c0c-a792-bbd8fbbaf673","2025-09-02_07h12.25.368",NA,NA,782.808,782.808,782.808,783.114,NA,NA,NA,NA,NA,NA,NA,TRUE,2,0.413,779.729,782.808,NA,NA,NA,NA,NA,25,46,0,45,45,35,1,2,46,"binary"
"4FE4DC6A565546AFB07A0159DCA5FCA7",1,"01990aa6-0d22-70ef-854d-25b999ac2f9e","01990a83-7673-7c0c-a792-bbd8fbbaf673","2025-09-02_07h12.25.368",NA,NA,786.133,786.133,786.133,786.428,NA,NA,NA,NA,NA,NA,NA,TRUE,2,0.556,783.121,786.132,NA,NA,NA,NA,NA,50,30,0,46,46,61,1,2,47,"binary"
"4FE4DC6A565546AFB07A0159DCA5FCA7",1,"01990aa6-0d22-70ef-854d-25b999ac2f9e","01990a83-7673-7c0c-a792-bbd8fbbaf673","2025-09-02_07h12.25.368",NA,NA,789.41,789.71,789.71,789.814,NA,NA,NA,NA,NA,NA,NA,FALSE,NA,NA,786.43,789.41,NA,NA,NA,NA,NA,180,35,0,47,47,98,1,2,48,"binary"
"4FE4DC6A565546AFB07A0159DCA5FCA7",1,"01990aa6-0d22-70ef-854d-25b999ac2f9e","01990a83-7673-7c0c-a792-bbd8fbbaf673","2025-09-02_07h12.25.368",NA,NA,792.777,792.777,792.777,793.173,NA,NA,NA,NA,NA,NA,NA,TRUE,2,0.649,789.823,792.776,NA,NA,NA,NA,NA,50,27,0,48,48,60,1,2,49,"binary"
"4FE4DC6A565546AFB07A0159DCA5FCA7",1,"01990aa6-0d22-70ef-854d-25b999ac2f9e","01990a83-7673-7c0c-a792-bbd8fbbaf673","2025-09-02_07h12.25.368",NA,NA,796.151,796.151,796.151,796.556,NA,NA,NA,NA,NA,NA,NA,TRUE,2,1.393,793.181,796.151,NA,NA,NA,NA,NA,200,39,0,49,49,105,1,2,50,"binary"
"4FE4DC6A565546AFB07A0159DCA5FCA7",1,"01990aa6-0d22-70ef-854d-25b999ac2f9e","01990a83-7673-7c0c-a792-bbd8fbbaf673","2025-09-02_07h12.25.368",NA,NA,799.509,799.509,799.509,799.907,NA,NA,NA,NA,NA,NA,NA,TRUE,2,0.868,796.557,799.509,NA,NA,NA,NA,NA,25,29,0,50,50,31,1,2,51,"binary"
"4FE4DC6A565546AFB07A0159DCA5FCA7",1,"01990aa6-0d22-70ef-854d-25b999ac2f9e","01990a83-7673-7c0c-a792-bbd8fbbaf673","2025-09-02_07h12.25.368",NA,NA,802.832,802.832,802.832,803.247,NA,NA,NA,NA,NA,NA,NA,TRUE,2,0.423,799.915,802.832,NA,NA,NA,NA,NA,10,25,0,51,51,6,1,2,52,"binary"
"4FE4DC6A565546AFB07A0159DCA5FCA7",1,"01990aa6-0d22-70ef-854d-25b999ac2f9e","01990a83-7673-7c0c-a792-bbd8fbbaf673","2025-09-02_07h12.25.368",NA,NA,806.194,806.194,806.194,806.607,NA,NA,NA,NA,NA,NA,NA,TRUE,2,2.807,803.248,806.194,NA,NA,NA,NA,NA,50,46,0,52,52,64,1,2,53,"binary"
"4FE4DC6A565546AFB07A0159DCA5FCA7",1,"01990aa6-0d22-70ef-854d-25b999ac2f9e","01990a83-7673-7c0c-a792-bbd8fbbaf673","2025-09-02_07h12.25.368",NA,NA,809.609,809.609,809.609,809.902,NA,NA,NA,NA,NA,NA,NA,TRUE,2,0.216,806.615,809.608,NA,NA,NA,NA,NA,180,39,0,53,53,99,1,2,54,"binary"
"4FE4DC6A565546AFB07A0159DCA5FCA7",1,"01990aa6-0d22-70ef-854d-25b999ac2f9e","01990a83-7673-7c0c-a792-bbd8fbbaf673","2025-09-02_07h12.25.368",NA,NA,812.921,812.921,812.921,813.322,NA,NA,NA,NA,NA,NA,NA,TRUE,2,0.325,809.904,812.921,NA,NA,NA,NA,NA,25,35,0,54,54,34,1,2,55,"binary"
"4FE4DC6A565546AFB07A0159DCA5FCA7",1,"01990aa6-0d22-70ef-854d-25b999ac2f9e","01990a83-7673-7c0c-a792-bbd8fbbaf673","2025-09-02_07h12.25.368",NA,NA,816.24,816.24,816.24,816.643,NA,NA,NA,NA,NA,NA,NA,TRUE,2,0.972,813.329,816.24,NA,NA,NA,NA,NA,30,29,0,55,55,44,1,2,56,"binary"
"4FE4DC6A565546AFB07A0159DCA5FCA7",1,"01990aa6-0d22-70ef-854d-25b999ac2f9e","01990a83-7673-7c0c-a792-bbd8fbbaf673","2025-09-02_07h12.25.368",NA,NA,819.649,819.649,819.649,819.948,NA,NA,NA,NA,NA,NA,NA,TRUE,2,0.424,816.644,819.649,NA,NA,NA,NA,NA,40,35,0,56,56,50,1,2,57,"binary"
"4FE4DC6A565546AFB07A0159DCA5FCA7",1,"01990aa6-0d22-70ef-854d-25b999ac2f9e","01990a83-7673-7c0c-a792-bbd8fbbaf673","2025-09-02_07h12.25.368",NA,NA,822.939,822.939,822.939,823.343,NA,NA,NA,NA,NA,NA,NA,TRUE,2,0.94,819.955,822.939,NA,NA,NA,NA,NA,60,40,0,57,57,69,1,2,58,"binary"
"4FE4DC6A565546AFB07A0159DCA5FCA7",1,"01990aa6-0d22-70ef-854d-25b999ac2f9e","01990a83-7673-7c0c-a792-bbd8fbbaf673","2025-09-02_07h12.25.368",NA,NA,826.34,826.34,826.34,826.623,NA,NA,NA,NA,NA,NA,NA,TRUE,2,0.634,823.35,826.339,NA,NA,NA,NA,NA,100,26,0,58,58,84,1,2,59,"binary"
"4FE4DC6A565546AFB07A0159DCA5FCA7",1,"01990aa6-0d22-70ef-854d-25b999ac2f9e","01990a83-7673-7c0c-a792-bbd8fbbaf673","2025-09-02_07h12.25.368",NA,NA,829.659,829.659,829.659,830.067,NA,NA,NA,NA,NA,NA,NA,TRUE,2,0.519,826.624,829.658,NA,NA,NA,NA,NA,200,35,0,59,59,104,1,2,60,"binary"
"4FE4DC6A565546AFB07A0159DCA5FCA7",1,"01990aa6-0d22-70ef-854d-25b999ac2f9e","01990a83-7673-7c0c-a792-bbd8fbbaf673","2025-09-02_07h12.25.368",NA,NA,833.063,833.063,833.063,833.372,NA,NA,NA,NA,NA,NA,NA,TRUE,2,1.145,830.074,833.063,NA,NA,NA,NA,NA,100,38,0,60,60,86,1,2,61,"binary"
"4FE4DC6A565546AFB07A0159DCA5FCA7",1,"01990aa6-0d22-70ef-854d-25b999ac2f9e","01990a83-7673-7c0c-a792-bbd8fbbaf673","2025-09-02_07h12.25.368",NA,NA,836.368,836.368,836.368,836.764,NA,NA,NA,NA,NA,NA,NA,TRUE,2,0.416,833.374,836.368,NA,NA,NA,NA,NA,150,54,0,61,61,95,1,2,62,"binary"
"4FE4DC6A565546AFB07A0159DCA5FCA7",1,"01990aa6-0d22-70ef-854d-25b999ac2f9e","01990a83-7673-7c0c-a792-bbd8fbbaf673","2025-09-02_07h12.25.368",NA,NA,839.689,839.689,839.689,840.079,NA,NA,NA,NA,NA,NA,NA,TRUE,2,1.349,836.772,839.689,NA,NA,NA,NA,NA,40,47,0,62,62,52,1,2,63,"binary"
"4FE4DC6A565546AFB07A0159DCA5FCA7",1,"01990aa6-0d22-70ef-854d-25b999ac2f9e","01990a83-7673-7c0c-a792-bbd8fbbaf673","2025-09-02_07h12.25.368",NA,NA,843.055,843.055,843.055,843.455,NA,NA,NA,NA,NA,NA,NA,TRUE,2,0.005,840.081,843.055,NA,NA,NA,NA,NA,21,26,0,63,63,24,1,2,64,"binary"
"4FE4DC6A565546AFB07A0159DCA5FCA7",1,"01990aa6-0d22-70ef-854d-25b999ac2f9e","01990a83-7673-7c0c-a792-bbd8fbbaf673","2025-09-02_07h12.25.368",NA,NA,846.463,846.463,846.463,846.759,NA,NA,NA,NA,NA,NA,NA,TRUE,2,2.759,843.464,846.463,NA,NA,NA,NA,NA,45,29,0,64,64,55,1,2,65,"binary"
"4FE4DC6A565546AFB07A0159DCA5FCA7",1,"01990aa6-0d22-70ef-854d-25b999ac2f9e","01990a83-7673-7c0c-a792-bbd8fbbaf673","2025-09-02_07h12.25.368",NA,NA,849.739,849.739,849.739,850.132,NA,NA,NA,NA,NA,NA,NA,TRUE,2,0.635,846.761,849.738,NA,NA,NA,NA,NA,28,28,0,65,65,37,1,2,66,"binary"
"4FE4DC6A565546AFB07A0159DCA5FCA7",1,"01990aa6-0d22-70ef-854d-25b999ac2f9e","01990a83-7673-7c0c-a792-bbd8fbbaf673","2025-09-02_07h12.25.368",NA,NA,853.161,853.161,853.161,853.459,NA,NA,NA,NA,NA,NA,NA,TRUE,2,1.054,850.141,853.161,NA,NA,NA,NA,NA,95,31,0,66,66,78,1,2,67,"binary"
"4FE4DC6A565546AFB07A0159DCA5FCA7",1,"01990aa6-0d22-70ef-854d-25b999ac2f9e","01990a83-7673-7c0c-a792-bbd8fbbaf673","2025-09-02_07h12.25.368",NA,NA,856.484,856.484,856.484,856.774,NA,NA,NA,NA,NA,NA,NA,TRUE,2,2.583,853.467,856.483,NA,NA,NA,NA,NA,40,54,0,67,67,53,1,2,68,"binary"
"4FE4DC6A565546AFB07A0159DCA5FCA7",1,"01990aa6-0d22-70ef-854d-25b999ac2f9e","01990a83-7673-7c0c-a792-bbd8fbbaf673","2025-09-02_07h12.25.368",NA,NA,859.861,859.861,859.861,860.172,NA,NA,NA,NA,NA,NA,NA,TRUE,2,0.319,856.776,859.861,NA,NA,NA,NA,NA,21,32,0,68,68,28,1,2,69,"binary"
"4FE4DC6A565546AFB07A0159DCA5FCA7",1,"01990aa6-0d22-70ef-854d-25b999ac2f9e","01990a83-7673-7c0c-a792-bbd8fbbaf673","2025-09-02_07h12.25.368",NA,NA,863.2,863.2,863.2,863.493,NA,NA,NA,NA,NA,NA,NA,TRUE,2,0.115,860.18,863.2,NA,NA,NA,NA,NA,180,54,0,69,69,101,1,2,70,"binary"
"4FE4DC6A565546AFB07A0159DCA5FCA7",1,"01990aa6-0d22-70ef-854d-25b999ac2f9e","01990a83-7673-7c0c-a792-bbd8fbbaf673","2025-09-02_07h12.25.368",NA,NA,866.481,866.481,866.481,866.871,NA,NA,NA,NA,NA,NA,NA,TRUE,2,0.308,863.495,866.481,NA,NA,NA,NA,NA,21,30,0,70,70,27,1,2,71,"binary"
"4FE4DC6A565546AFB07A0159DCA5FCA7",1,"01990aa6-0d22-70ef-854d-25b999ac2f9e","01990a83-7673-7c0c-a792-bbd8fbbaf673","2025-09-02_07h12.25.368",NA,NA,869.843,869.843,869.843,870.241,NA,NA,NA,NA,NA,NA,NA,TRUE,2,0.004,866.879,869.843,NA,NA,NA,NA,NA,45,26,0,71,71,54,1,2,72,"binary"
"4FE4DC6A565546AFB07A0159DCA5FCA7",1,"01990aa6-0d22-70ef-854d-25b999ac2f9e","01990a83-7673-7c0c-a792-bbd8fbbaf673","2025-09-02_07h12.25.368",NA,NA,873.187,873.187,873.188,873.605,NA,NA,NA,NA,NA,NA,NA,TRUE,2,0.004,870.243,873.187,NA,NA,NA,NA,NA,200,47,0,72,72,106,1,2,73,"binary"
"4FE4DC6A565546AFB07A0159DCA5FCA7",1,"01990aa6-0d22-70ef-854d-25b999ac2f9e","01990a83-7673-7c0c-a792-bbd8fbbaf673","2025-09-02_07h12.25.368",NA,NA,876.61,876.61,876.61,876.946,NA,NA,NA,NA,NA,NA,NA,TRUE,2,1.821,873.613,876.61,NA,NA,NA,NA,NA,21,29,0,73,73,26,1,2,74,"binary"
"4FE4DC6A565546AFB07A0159DCA5FCA7",1,"01990aa6-0d22-70ef-854d-25b999ac2f9e","01990a83-7673-7c0c-a792-bbd8fbbaf673","2025-09-02_07h12.25.368",NA,NA,879.29,880.123,880.123,880.225,NA,NA,NA,NA,NA,NA,NA,FALSE,NA,NA,876.948,879.289,NA,NA,NA,NA,NA,180,27,0,74,74,96,1,2,75,"binary"
"4FE4DC6A565546AFB07A0159DCA5FCA7",1,"01990aa6-0d22-70ef-854d-25b999ac2f9e","01990a83-7673-7c0c-a792-bbd8fbbaf673","2025-09-02_07h12.25.368",NA,NA,883.32,883.32,883.32,883.625,NA,NA,NA,NA,NA,NA,NA,TRUE,2,0.526,880.234,883.32,NA,NA,NA,NA,NA,90,54,0,75,75,77,1,2,76,"binary"
"4FE4DC6A565546AFB07A0159DCA5FCA7",1,"01990aa6-0d22-70ef-854d-25b999ac2f9e","01990a83-7673-7c0c-a792-bbd8fbbaf673","2025-09-02_07h12.25.368",NA,NA,886.576,886.576,886.576,886.987,NA,NA,NA,NA,NA,NA,NA,TRUE,2,0.004,883.632,886.576,NA,NA,NA,NA,NA,50,40,0,76,76,63,1,2,77,"binary"
"4FE4DC6A565546AFB07A0159DCA5FCA7",1,"01990aa6-0d22-70ef-854d-25b999ac2f9e","01990a83-7673-7c0c-a792-bbd8fbbaf673","2025-09-02_07h12.25.368",NA,NA,889.93,889.93,889.93,890.335,NA,NA,NA,NA,NA,NA,NA,TRUE,2,1.282,886.989,889.93,NA,NA,NA,NA,NA,25,31,0,77,77,32,1,2,78,"binary"
"4FE4DC6A565546AFB07A0159DCA5FCA7",1,"01990aa6-0d22-70ef-854d-25b999ac2f9e","01990a83-7673-7c0c-a792-bbd8fbbaf673","2025-09-02_07h12.25.368",NA,NA,893.37,893.582,893.582,893.686,NA,NA,NA,NA,NA,NA,NA,FALSE,NA,NA,890.342,893.37,NA,NA,NA,NA,NA,100,31,0,78,78,85,1,2,79,"binary"
"4FE4DC6A565546AFB07A0159DCA5FCA7",1,"01990aa6-0d22-70ef-854d-25b999ac2f9e","01990a83-7673-7c0c-a792-bbd8fbbaf673","2025-09-02_07h12.25.368",NA,NA,896.644,896.644,896.644,896.966,NA,NA,NA,NA,NA,NA,NA,TRUE,2,2.153,893.687,896.644,NA,NA,NA,NA,NA,45,40,0,79,79,58,1,2,80,"binary"
"4FE4DC6A565546AFB07A0159DCA5FCA7",1,"01990aa6-0d22-70ef-854d-25b999ac2f9e","01990a83-7673-7c0c-a792-bbd8fbbaf673","2025-09-02_07h12.25.368",NA,NA,900.02,900.02,900.02,900.323,NA,NA,NA,NA,NA,NA,NA,TRUE,2,0.004,896.974,900.02,NA,NA,NA,NA,NA,12,31,0,80,80,15,1,2,81,"binary"
"4FE4DC6A565546AFB07A0159DCA5FCA7",1,"01990aa6-0d22-70ef-854d-25b999ac2f9e","01990a83-7673-7c0c-a792-bbd8fbbaf673","2025-09-02_07h12.25.368",NA,NA,903.327,903.327,903.327,903.728,NA,NA,NA,NA,NA,NA,NA,TRUE,2,0.005,900.325,903.326,NA,NA,NA,NA,NA,95,40,0,81,81,81,1,2,82,"binary"
"4FE4DC6A565546AFB07A0159DCA5FCA7",1,"01990aa6-0d22-70ef-854d-25b999ac2f9e","01990a83-7673-7c0c-a792-bbd8fbbaf673","2025-09-02_07h12.25.368",NA,NA,906.776,906.776,906.776,907.079,NA,NA,NA,NA,NA,NA,NA,TRUE,2,2.789,903.736,906.775,NA,NA,NA,NA,NA,25,33,0,82,82,33,1,2,83,"binary"
"4FE4DC6A565546AFB07A0159DCA5FCA7",1,"01990aa6-0d22-70ef-854d-25b999ac2f9e","01990a83-7673-7c0c-a792-bbd8fbbaf673","2025-09-02_07h12.25.368",NA,NA,910.109,910.109,910.109,910.402,NA,NA,NA,NA,NA,NA,NA,TRUE,2,2.84,907.081,910.108,NA,NA,NA,NA,NA,7,30,0,83,83,3,1,2,84,"binary"
"4FE4DC6A565546AFB07A0159DCA5FCA7",1,"01990aa6-0d22-70ef-854d-25b999ac2f9e","01990a83-7673-7c0c-a792-bbd8fbbaf673","2025-09-02_07h12.25.368",NA,NA,913.392,913.392,913.392,913.785,NA,NA,NA,NA,NA,NA,NA,TRUE,2,2.828,910.411,913.391,NA,NA,NA,NA,NA,40,33,0,84,84,49,1,2,85,"binary"
"4FE4DC6A565546AFB07A0159DCA5FCA7",1,"01990aa6-0d22-70ef-854d-25b999ac2f9e","01990a83-7673-7c0c-a792-bbd8fbbaf673","2025-09-02_07h12.25.368",NA,NA,916.755,916.755,916.755,917.147,NA,NA,NA,NA,NA,NA,NA,TRUE,2,0.006,913.786,916.755,NA,NA,NA,NA,NA,95,35,0,85,85,80,1,2,86,"binary"
"4FE4DC6A565546AFB07A0159DCA5FCA7",1,"01990aa6-0d22-70ef-854d-25b999ac2f9e","01990a83-7673-7c0c-a792-bbd8fbbaf673","2025-09-02_07h12.25.368",NA,NA,920.076,920.076,920.076,920.464,NA,NA,NA,NA,NA,NA,NA,TRUE,2,0.005,917.155,920.076,NA,NA,NA,NA,NA,25,27,0,86,86,30,1,2,87,"binary"
"4FE4DC6A565546AFB07A0159DCA5FCA7",1,"01990aa6-0d22-70ef-854d-25b999ac2f9e","01990a83-7673-7c0c-a792-bbd8fbbaf673","2025-09-02_07h12.25.368",NA,NA,923.508,923.508,923.508,923.826,NA,NA,NA,NA,NA,NA,NA,TRUE,2,0.419,920.466,923.507,NA,NA,NA,NA,NA,12,33,0,87,87,16,1,2,88,"binary"
"4FE4DC6A565546AFB07A0159DCA5FCA7",1,"01990aa6-0d22-70ef-854d-25b999ac2f9e","01990a83-7673-7c0c-a792-bbd8fbbaf673","2025-09-02_07h12.25.368",NA,NA,926.864,926.864,926.864,927.166,NA,NA,NA,NA,NA,NA,NA,TRUE,2,0.205,923.833,926.863,NA,NA,NA,NA,NA,40,27,0,88,88,48,1,2,89,"binary"
"4FE4DC6A565546AFB07A0159DCA5FCA7",1,"01990aa6-0d22-70ef-854d-25b999ac2f9e","01990a83-7673-7c0c-a792-bbd8fbbaf673","2025-09-02_07h12.25.368",NA,NA,NA,NA,NA,NA,NA,NA,NA,NA,NA,NA,NA,NA,NA,NA,927.176,NA,NA,NA,NA,NA,NA,14,26,0,89,89,19,1,2,90,"binary"
