"participant","session","assignmentId","projectId","date","practiceTrial.started","practiceTrial.stopped","tooLate.started","tooLate.stopped","blank.started","blank.stopped","trials_pract.thisRepN","trials_pract.thisTrialN","trials_pract.thisN","trials_pract.thisIndex","trials_pract.ran","delay_pract","amount_pract","responseMade","key","rt","trial.started","trial.stopped","trials.thisRepN","trials.thisTrialN","trials.thisN","trials.thisIndex","trials.ran","delay","amount","trials_2.thisRepN","trials_2.thisTrialN","trials_2.thisN","trials_2.thisIndex","trials_2.ran","block","trial","taskType"
"A6CFEF7F0113442BBCFAEEF1003DD55B",1,"0198f781-6d82-7e0d-b8f2-dc6e3afddbc8","0198f767-55c9-7875-8d21-563b3c0b86ed","2025-08-29_16h25.34.701",35.2931,38.2502,38.2514,38.4988,38.4989,38.5989,0,0,0,4,1,30,40,FALSE,NA,NA,NA,NA,NA,NA,NA,NA,NA,NA,NA,NA,NA,NA,NA,NA,0,1,"binary"
"A6CFEF7F0113442BBCFAEEF1003DD55B",1,"0198f781-6d82-7e0d-b8f2-dc6e3afddbc8","0198f767-55c9-7875-8d21-563b3c0b86ed","2025-08-29_16h25.34.701",38.6039,41.6062,41.6065,41.6066,41.6066,41.955,0,1,1,3,1,3,27,TRUE,1,1.4134,NA,NA,NA,NA,NA,NA,NA,NA,NA,NA,NA,NA,NA,NA,0,2,"binary"
"A6CFEF7F0113442BBCFAEEF1003DD55B",1,"0198f781-6d82-7e0d-b8f2-dc6e3afddbc8","0198f767-55c9-7875-8d21-563b3c0b86ed","2025-08-29_16h25.34.701",41.9578,44.9613,44.9613,44.9614,44.9614,45.311,0,2,2,0,1,7,30,TRUE,1,2.0471,NA,NA,NA,NA,NA,NA,NA,NA,NA,NA,NA,NA,NA,NA,0,3,"binary"
"A6CFEF7F0113442BBCFAEEF1003DD55B",1,"0198f781-6d82-7e0d-b8f2-dc6e3afddbc8","0198f767-55c9-7875-8d21-563b3c0b86ed","2025-08-29_16h25.34.701",45.3141,48.3009,48.301,48.301,48.301,48.6506,0,3,3,2,1,14,45,TRUE,1,1.9549,NA,NA,NA,NA,NA,NA,NA,NA,NA,NA,NA,NA,NA,NA,0,4,"binary"
"A6CFEF7F0113442BBCFAEEF1003DD55B",1,"0198f781-6d82-7e0d-b8f2-dc6e3afddbc8","0198f767-55c9-7875-8d21-563b3c0b86ed","2025-08-29_16h25.34.701",48.6537,51.6575,51.6577,51.6578,51.6578,52.0062,0,4,4,1,1,100,50,TRUE,1,1.9444,NA,NA,NA,NA,NA,NA,NA,NA,NA,NA,NA,NA,NA,NA,0,5,"binary"
"A6CFEF7F0113442BBCFAEEF1003DD55B",1,"0198f781-6d82-7e0d-b8f2-dc6e3afddbc8","0198f767-55c9-7875-8d21-563b3c0b86ed","2025-08-29_16h25.34.701",NA,NA,83.7231,83.7233,83.7233,84.0718,NA,NA,NA,NA,NA,NA,NA,TRUE,1,2.3689,80.7444,83.7226,0,0,0,60,1,50,27,NA,NA,NA,NA,NA,1,1,"binary"
"A6CFEF7F0113442BBCFAEEF1003DD55B",1,"0198f781-6d82-7e0d-b8f2-dc6e3afddbc8","0198f767-55c9-7875-8d21-563b3c0b86ed","2025-08-29_16h25.34.701",NA,NA,87.0792,87.0793,87.0793,87.4275,NA,NA,NA,NA,NA,NA,NA,TRUE,1,2.1943,84.0757,87.079,0,1,1,84,1,100,26,NA,NA,NA,NA,NA,1,2,"binary"
"A6CFEF7F0113442BBCFAEEF1003DD55B",1,"0198f781-6d82-7e0d-b8f2-dc6e3afddbc8","0198f767-55c9-7875-8d21-563b3c0b86ed","2025-08-29_16h25.34.701",NA,NA,90.435,90.4351,90.4351,90.7836,NA,NA,NA,NA,NA,NA,NA,TRUE,1,1.0383,87.43,90.4348,0,2,2,28,1,21,32,NA,NA,NA,NA,NA,1,3,"binary"
"A6CFEF7F0113442BBCFAEEF1003DD55B",1,"0198f781-6d82-7e0d-b8f2-dc6e3afddbc8","0198f767-55c9-7875-8d21-563b3c0b86ed","2025-08-29_16h25.34.701",NA,NA,93.7744,93.7745,93.7745,94.1224,NA,NA,NA,NA,NA,NA,NA,TRUE,1,1.073,90.7876,93.7742,0,3,3,98,1,180,35,NA,NA,NA,NA,NA,1,4,"binary"
"A6CFEF7F0113442BBCFAEEF1003DD55B",1,"0198f781-6d82-7e0d-b8f2-dc6e3afddbc8","0198f767-55c9-7875-8d21-563b3c0b86ed","2025-08-29_16h25.34.701",NA,NA,97.1305,97.1306,97.1306,97.4787,NA,NA,NA,NA,NA,NA,NA,TRUE,1,1.0002,94.1234,97.1303,0,4,4,37,1,28,28,NA,NA,NA,NA,NA,1,5,"binary"
"A6CFEF7F0113442BBCFAEEF1003DD55B",1,"0198f781-6d82-7e0d-b8f2-dc6e3afddbc8","0198f767-55c9-7875-8d21-563b3c0b86ed","2025-08-29_16h25.34.701",NA,NA,100.4701,100.4702,100.4702,100.8355,NA,NA,NA,NA,NA,NA,NA,TRUE,1,0.6691,97.4815,100.4699,0,5,5,72,1,90,26,NA,NA,NA,NA,NA,1,6,"binary"
"A6CFEF7F0113442BBCFAEEF1003DD55B",1,"0198f781-6d82-7e0d-b8f2-dc6e3afddbc8","0198f767-55c9-7875-8d21-563b3c0b86ed","2025-08-29_16h25.34.701",NA,NA,103.8256,103.8257,103.8257,104.1748,NA,NA,NA,NA,NA,NA,NA,TRUE,1,0.4751,100.838,103.8254,0,6,6,17,1,12,35,NA,NA,NA,NA,NA,1,7,"binary"
"A6CFEF7F0113442BBCFAEEF1003DD55B",1,"0198f781-6d82-7e0d-b8f2-dc6e3afddbc8","0198f767-55c9-7875-8d21-563b3c0b86ed","2025-08-29_16h25.34.701",NA,NA,107.1819,107.182,107.1821,107.5305,NA,NA,NA,NA,NA,NA,NA,TRUE,1,0.7814,104.1776,107.1818,0,7,7,65,1,50,54,NA,NA,NA,NA,NA,1,8,"binary"
"A6CFEF7F0113442BBCFAEEF1003DD55B",1,"0198f781-6d82-7e0d-b8f2-dc6e3afddbc8","0198f767-55c9-7875-8d21-563b3c0b86ed","2025-08-29_16h25.34.701",NA,NA,110.5217,110.5218,110.5218,110.8695,NA,NA,NA,NA,NA,NA,NA,TRUE,1,1.0817,107.5329,110.5215,0,8,8,104,1,200,35,NA,NA,NA,NA,NA,1,9,"binary"
"A6CFEF7F0113442BBCFAEEF1003DD55B",1,"0198f781-6d82-7e0d-b8f2-dc6e3afddbc8","0198f767-55c9-7875-8d21-563b3c0b86ed","2025-08-29_16h25.34.701",NA,NA,113.8767,113.8768,113.8768,114.2261,NA,NA,NA,NA,NA,NA,NA,TRUE,1,1.3977,110.8705,113.8766,0,9,9,25,1,21,27,NA,NA,NA,NA,NA,1,10,"binary"
"A6CFEF7F0113442BBCFAEEF1003DD55B",1,"0198f781-6d82-7e0d-b8f2-dc6e3afddbc8","0198f767-55c9-7875-8d21-563b3c0b86ed","2025-08-29_16h25.34.701",NA,NA,117.2335,117.2335,117.2336,117.5824,NA,NA,NA,NA,NA,NA,NA,TRUE,1,0.5156,114.2289,117.2334,0,10,10,80,1,95,35,NA,NA,NA,NA,NA,1,11,"binary"
"A6CFEF7F0113442BBCFAEEF1003DD55B",1,"0198f781-6d82-7e0d-b8f2-dc6e3afddbc8","0198f767-55c9-7875-8d21-563b3c0b86ed","2025-08-29_16h25.34.701",NA,NA,120.5727,120.5727,120.5728,120.9216,NA,NA,NA,NA,NA,NA,NA,TRUE,1,0.5748,117.585,120.5726,0,11,11,79,1,95,33,NA,NA,NA,NA,NA,1,12,"binary"
"A6CFEF7F0113442BBCFAEEF1003DD55B",1,"0198f781-6d82-7e0d-b8f2-dc6e3afddbc8","0198f767-55c9-7875-8d21-563b3c0b86ed","2025-08-29_16h25.34.701",NA,NA,123.9291,123.9292,123.9292,124.277,NA,NA,NA,NA,NA,NA,NA,TRUE,1,0.4329,120.9244,123.9289,0,12,12,89,1,100,54,NA,NA,NA,NA,NA,1,13,"binary"
"A6CFEF7F0113442BBCFAEEF1003DD55B",1,"0198f781-6d82-7e0d-b8f2-dc6e3afddbc8","0198f767-55c9-7875-8d21-563b3c0b86ed","2025-08-29_16h25.34.701",NA,NA,127.2852,127.2852,127.2852,127.6339,NA,NA,NA,NA,NA,NA,NA,TRUE,1,0.492,124.278,127.2849,0,13,13,11,1,10,32,NA,NA,NA,NA,NA,1,14,"binary"
"A6CFEF7F0113442BBCFAEEF1003DD55B",1,"0198f781-6d82-7e0d-b8f2-dc6e3afddbc8","0198f767-55c9-7875-8d21-563b3c0b86ed","2025-08-29_16h25.34.701",NA,NA,130.6243,130.6244,130.6244,130.973,NA,NA,NA,NA,NA,NA,NA,TRUE,1,0.8476,127.6363,130.6242,0,14,14,29,1,21,38,NA,NA,NA,NA,NA,1,15,"binary"
"A6CFEF7F0113442BBCFAEEF1003DD55B",1,"0198f781-6d82-7e0d-b8f2-dc6e3afddbc8","0198f767-55c9-7875-8d21-563b3c0b86ed","2025-08-29_16h25.34.701",NA,NA,133.9805,133.9805,133.9806,134.3294,NA,NA,NA,NA,NA,NA,NA,TRUE,1,0.7402,130.9754,133.9803,0,15,15,35,1,25,46,NA,NA,NA,NA,NA,1,16,"binary"
"A6CFEF7F0113442BBCFAEEF1003DD55B",1,"0198f781-6d82-7e0d-b8f2-dc6e3afddbc8","0198f767-55c9-7875-8d21-563b3c0b86ed","2025-08-29_16h25.34.701",NA,NA,137.3195,137.3196,137.3196,137.6853,NA,NA,NA,NA,NA,NA,NA,TRUE,1,0.778,134.3324,137.3193,0,16,16,85,1,100,31,NA,NA,NA,NA,NA,1,17,"binary"
"A6CFEF7F0113442BBCFAEEF1003DD55B",1,"0198f781-6d82-7e0d-b8f2-dc6e3afddbc8","0198f767-55c9-7875-8d21-563b3c0b86ed","2025-08-29_16h25.34.701",NA,NA,140.6762,140.6762,140.6762,141.0245,NA,NA,NA,NA,NA,NA,NA,TRUE,1,1.0782,137.6883,140.676,0,17,17,91,1,150,33,NA,NA,NA,NA,NA,1,18,"binary"
"A6CFEF7F0113442BBCFAEEF1003DD55B",1,"0198f781-6d82-7e0d-b8f2-dc6e3afddbc8","0198f767-55c9-7875-8d21-563b3c0b86ed","2025-08-29_16h25.34.701",NA,NA,144.0321,144.0322,144.0322,144.3808,NA,NA,NA,NA,NA,NA,NA,TRUE,1,0.4875,141.0269,144.0318,0,18,18,101,1,180,54,NA,NA,NA,NA,NA,1,19,"binary"
"A6CFEF7F0113442BBCFAEEF1003DD55B",1,"0198f781-6d82-7e0d-b8f2-dc6e3afddbc8","0198f767-55c9-7875-8d21-563b3c0b86ed","2025-08-29_16h25.34.701",NA,NA,147.3717,147.3717,147.3718,147.7203,NA,NA,NA,NA,NA,NA,NA,TRUE,1,0.3404,144.3834,147.3715,0,19,19,24,1,21,26,NA,NA,NA,NA,NA,1,20,"binary"
"A6CFEF7F0113442BBCFAEEF1003DD55B",1,"0198f781-6d82-7e0d-b8f2-dc6e3afddbc8","0198f767-55c9-7875-8d21-563b3c0b86ed","2025-08-29_16h25.34.701",NA,NA,150.7274,150.7274,150.7275,151.0759,NA,NA,NA,NA,NA,NA,NA,TRUE,1,0.8889,147.7229,150.7273,0,20,20,49,1,40,33,NA,NA,NA,NA,NA,1,21,"binary"
"A6CFEF7F0113442BBCFAEEF1003DD55B",1,"0198f781-6d82-7e0d-b8f2-dc6e3afddbc8","0198f767-55c9-7875-8d21-563b3c0b86ed","2025-08-29_16h25.34.701",NA,NA,154.0835,154.0837,154.0837,154.4321,NA,NA,NA,NA,NA,NA,NA,TRUE,1,1.2527,151.0769,154.0833,0,21,21,19,1,14,26,NA,NA,NA,NA,NA,1,22,"binary"
"A6CFEF7F0113442BBCFAEEF1003DD55B",1,"0198f781-6d82-7e0d-b8f2-dc6e3afddbc8","0198f767-55c9-7875-8d21-563b3c0b86ed","2025-08-29_16h25.34.701",NA,NA,157.4228,157.4229,157.4229,157.7718,NA,NA,NA,NA,NA,NA,NA,TRUE,1,0.4981,154.435,157.4226,0,22,22,38,1,28,32,NA,NA,NA,NA,NA,1,23,"binary"
"A6CFEF7F0113442BBCFAEEF1003DD55B",1,"0198f781-6d82-7e0d-b8f2-dc6e3afddbc8","0198f767-55c9-7875-8d21-563b3c0b86ed","2025-08-29_16h25.34.701",NA,NA,160.7792,160.7792,160.7793,161.1279,NA,NA,NA,NA,NA,NA,NA,TRUE,1,0.5669,157.7747,160.779,0,23,23,74,1,90,33,NA,NA,NA,NA,NA,1,24,"binary"
"A6CFEF7F0113442BBCFAEEF1003DD55B",1,"0198f781-6d82-7e0d-b8f2-dc6e3afddbc8","0198f767-55c9-7875-8d21-563b3c0b86ed","2025-08-29_16h25.34.701",NA,NA,164.1351,164.1353,164.1353,164.4838,NA,NA,NA,NA,NA,NA,NA,TRUE,1,0.4237,161.1304,164.135,0,24,24,96,1,180,27,NA,NA,NA,NA,NA,1,25,"binary"
"A6CFEF7F0113442BBCFAEEF1003DD55B",1,"0198f781-6d82-7e0d-b8f2-dc6e3afddbc8","0198f767-55c9-7875-8d21-563b3c0b86ed","2025-08-29_16h25.34.701",NA,NA,167.4748,167.4748,167.4748,167.8227,NA,NA,NA,NA,NA,NA,NA,TRUE,1,0.3282,164.4861,167.4744,0,25,25,36,1,28,26,NA,NA,NA,NA,NA,1,26,"binary"
"A6CFEF7F0113442BBCFAEEF1003DD55B",1,"0198f781-6d82-7e0d-b8f2-dc6e3afddbc8","0198f767-55c9-7875-8d21-563b3c0b86ed","2025-08-29_16h25.34.701",NA,NA,170.8305,170.8307,170.8307,171.1792,NA,NA,NA,NA,NA,NA,NA,TRUE,1,0.3081,167.8239,170.8304,0,26,26,64,1,50,46,NA,NA,NA,NA,NA,1,27,"binary"
"A6CFEF7F0113442BBCFAEEF1003DD55B",1,"0198f781-6d82-7e0d-b8f2-dc6e3afddbc8","0198f767-55c9-7875-8d21-563b3c0b86ed","2025-08-29_16h25.34.701",NA,NA,174.1701,174.1701,174.1701,174.5354,NA,NA,NA,NA,NA,NA,NA,TRUE,1,0.2648,171.1815,174.1699,0,27,27,8,1,10,27,NA,NA,NA,NA,NA,1,28,"binary"
"A6CFEF7F0113442BBCFAEEF1003DD55B",1,"0198f781-6d82-7e0d-b8f2-dc6e3afddbc8","0198f767-55c9-7875-8d21-563b3c0b86ed","2025-08-29_16h25.34.701",NA,NA,177.526,177.526,177.526,177.8747,NA,NA,NA,NA,NA,NA,NA,TRUE,1,0.7451,174.538,177.5257,0,28,28,9,1,10,29,NA,NA,NA,NA,NA,1,29,"binary"
"A6CFEF7F0113442BBCFAEEF1003DD55B",1,"0198f781-6d82-7e0d-b8f2-dc6e3afddbc8","0198f767-55c9-7875-8d21-563b3c0b86ed","2025-08-29_16h25.34.701",NA,NA,180.8822,180.8823,180.8823,181.231,NA,NA,NA,NA,NA,NA,NA,TRUE,1,0.316,177.8773,180.882,0,29,29,77,1,90,54,NA,NA,NA,NA,NA,1,30,"binary"
"A6CFEF7F0113442BBCFAEEF1003DD55B",1,"0198f781-6d82-7e0d-b8f2-dc6e3afddbc8","0198f767-55c9-7875-8d21-563b3c0b86ed","2025-08-29_16h25.34.701",NA,NA,184.2214,184.2214,184.2214,184.5702,NA,NA,NA,NA,NA,NA,NA,TRUE,1,0.6228,181.2335,184.2213,0,30,30,88,1,100,46,NA,NA,NA,NA,NA,1,31,"binary"
"A6CFEF7F0113442BBCFAEEF1003DD55B",1,"0198f781-6d82-7e0d-b8f2-dc6e3afddbc8","0198f767-55c9-7875-8d21-563b3c0b86ed","2025-08-29_16h25.34.701",NA,NA,187.5777,187.5777,187.5778,187.9261,NA,NA,NA,NA,NA,NA,NA,TRUE,1,0.4662,184.5727,187.5774,0,31,31,81,1,95,40,NA,NA,NA,NA,NA,1,32,"binary"
"A6CFEF7F0113442BBCFAEEF1003DD55B",1,"0198f781-6d82-7e0d-b8f2-dc6e3afddbc8","0198f767-55c9-7875-8d21-563b3c0b86ed","2025-08-29_16h25.34.701",NA,NA,190.9334,190.9334,190.9335,191.2823,NA,NA,NA,NA,NA,NA,NA,TRUE,1,0.2835,187.9285,190.9332,0,32,32,21,1,14,32,NA,NA,NA,NA,NA,1,33,"binary"
"A6CFEF7F0113442BBCFAEEF1003DD55B",1,"0198f781-6d82-7e0d-b8f2-dc6e3afddbc8","0198f767-55c9-7875-8d21-563b3c0b86ed","2025-08-29_16h25.34.701",NA,NA,194.2721,194.2721,194.2721,194.6216,NA,NA,NA,NA,NA,NA,NA,TRUE,1,0.2806,191.2851,194.2721,0,33,33,43,1,30,27,NA,NA,NA,NA,NA,1,34,"binary"
"A6CFEF7F0113442BBCFAEEF1003DD55B",1,"0198f781-6d82-7e0d-b8f2-dc6e3afddbc8","0198f767-55c9-7875-8d21-563b3c0b86ed","2025-08-29_16h25.34.701",NA,NA,197.6293,197.6293,197.6293,197.9776,NA,NA,NA,NA,NA,NA,NA,TRUE,1,0.0506,194.6243,197.629,0,34,34,61,1,50,30,NA,NA,NA,NA,NA,1,35,"binary"
"A6CFEF7F0113442BBCFAEEF1003DD55B",1,"0198f781-6d82-7e0d-b8f2-dc6e3afddbc8","0198f767-55c9-7875-8d21-563b3c0b86ed","2025-08-29_16h25.34.701",NA,NA,200.9849,200.985,200.9851,201.3337,NA,NA,NA,NA,NA,NA,NA,TRUE,1,0.791,197.9795,200.9848,0,35,35,15,1,12,31,NA,NA,NA,NA,NA,1,36,"binary"
"A6CFEF7F0113442BBCFAEEF1003DD55B",1,"0198f781-6d82-7e0d-b8f2-dc6e3afddbc8","0198f767-55c9-7875-8d21-563b3c0b86ed","2025-08-29_16h25.34.701",NA,NA,204.3245,204.3245,204.3246,204.673,NA,NA,NA,NA,NA,NA,NA,TRUE,1,0.7909,201.3363,204.3244,0,36,36,67,1,60,33,NA,NA,NA,NA,NA,1,37,"binary"
"A6CFEF7F0113442BBCFAEEF1003DD55B",1,"0198f781-6d82-7e0d-b8f2-dc6e3afddbc8","0198f767-55c9-7875-8d21-563b3c0b86ed","2025-08-29_16h25.34.701",NA,NA,207.6798,207.6798,207.6798,208.0291,NA,NA,NA,NA,NA,NA,NA,TRUE,1,0.3697,204.6749,207.6797,0,37,37,68,1,60,35,NA,NA,NA,NA,NA,1,38,"binary"
"A6CFEF7F0113442BBCFAEEF1003DD55B",1,"0198f781-6d82-7e0d-b8f2-dc6e3afddbc8","0198f767-55c9-7875-8d21-563b3c0b86ed","2025-08-29_16h25.34.701",NA,NA,211.0202,211.0202,211.0202,211.3689,NA,NA,NA,NA,NA,NA,NA,TRUE,1,0.5584,208.0317,211.0199,0,38,38,90,1,150,31,NA,NA,NA,NA,NA,1,39,"binary"
"A6CFEF7F0113442BBCFAEEF1003DD55B",1,"0198f781-6d82-7e0d-b8f2-dc6e3afddbc8","0198f767-55c9-7875-8d21-563b3c0b86ed","2025-08-29_16h25.34.701",NA,NA,214.3761,214.3762,214.3762,214.7249,NA,NA,NA,NA,NA,NA,NA,TRUE,1,0.4012,211.3715,214.3759,0,39,39,47,1,30,38,NA,NA,NA,NA,NA,1,40,"binary"
"A6CFEF7F0113442BBCFAEEF1003DD55B",1,"0198f781-6d82-7e0d-b8f2-dc6e3afddbc8","0198f767-55c9-7875-8d21-563b3c0b86ed","2025-08-29_16h25.34.701",NA,NA,217.7321,217.7322,217.7322,218.081,NA,NA,NA,NA,NA,NA,NA,TRUE,1,0.3702,214.7276,217.7319,0,40,40,7,1,10,26,NA,NA,NA,NA,NA,1,41,"binary"
"A6CFEF7F0113442BBCFAEEF1003DD55B",1,"0198f781-6d82-7e0d-b8f2-dc6e3afddbc8","0198f767-55c9-7875-8d21-563b3c0b86ed","2025-08-29_16h25.34.701",NA,NA,221.0716,221.0716,221.0717,221.4203,NA,NA,NA,NA,NA,NA,NA,TRUE,1,0.3918,218.0837,221.0714,0,41,41,57,1,45,35,NA,NA,NA,NA,NA,1,42,"binary"
"A6CFEF7F0113442BBCFAEEF1003DD55B",1,"0198f781-6d82-7e0d-b8f2-dc6e3afddbc8","0198f767-55c9-7875-8d21-563b3c0b86ed","2025-08-29_16h25.34.701",NA,NA,224.4275,224.4276,224.4276,224.7761,NA,NA,NA,NA,NA,NA,NA,TRUE,1,0.3171,221.4226,224.4273,0,42,42,0,1,7,25,NA,NA,NA,NA,NA,1,43,"binary"
"A6CFEF7F0113442BBCFAEEF1003DD55B",1,"0198f781-6d82-7e0d-b8f2-dc6e3afddbc8","0198f767-55c9-7875-8d21-563b3c0b86ed","2025-08-29_16h25.34.701",NA,NA,227.7837,227.7838,227.7838,228.1325,NA,NA,NA,NA,NA,NA,NA,TRUE,1,0.7055,224.7785,227.7835,0,43,43,45,1,30,30,NA,NA,NA,NA,NA,1,44,"binary"
"A6CFEF7F0113442BBCFAEEF1003DD55B",1,"0198f781-6d82-7e0d-b8f2-dc6e3afddbc8","0198f767-55c9-7875-8d21-563b3c0b86ed","2025-08-29_16h25.34.701",NA,NA,231.123,231.123,231.123,231.4719,NA,NA,NA,NA,NA,NA,NA,TRUE,1,0.9402,228.1352,231.1228,0,44,44,55,1,45,29,NA,NA,NA,NA,NA,1,45,"binary"
"A6CFEF7F0113442BBCFAEEF1003DD55B",1,"0198f781-6d82-7e0d-b8f2-dc6e3afddbc8","0198f767-55c9-7875-8d21-563b3c0b86ed","2025-08-29_16h25.34.701",NA,NA,234.4802,234.4803,234.4804,234.8279,NA,NA,NA,NA,NA,NA,NA,TRUE,1,0.4071,231.4745,234.4801,0,45,45,94,1,150,47,NA,NA,NA,NA,NA,1,46,"binary"
"A6CFEF7F0113442BBCFAEEF1003DD55B",1,"0198f781-6d82-7e0d-b8f2-dc6e3afddbc8","0198f767-55c9-7875-8d21-563b3c0b86ed","2025-08-29_16h25.34.701",NA,NA,237.8344,237.8345,237.8345,238.1838,NA,NA,NA,NA,NA,NA,NA,TRUE,1,0.5026,234.8307,237.8343,0,46,46,59,1,45,46,NA,NA,NA,NA,NA,1,47,"binary"
"A6CFEF7F0113442BBCFAEEF1003DD55B",1,"0198f781-6d82-7e0d-b8f2-dc6e3afddbc8","0198f767-55c9-7875-8d21-563b3c0b86ed","2025-08-29_16h25.34.701",NA,NA,241.1747,241.1748,241.1748,241.5231,NA,NA,NA,NA,NA,NA,NA,TRUE,1,0.6263,238.186,241.1746,0,47,47,93,1,150,40,NA,NA,NA,NA,NA,1,48,"binary"
"A6CFEF7F0113442BBCFAEEF1003DD55B",1,"0198f781-6d82-7e0d-b8f2-dc6e3afddbc8","0198f767-55c9-7875-8d21-563b3c0b86ed","2025-08-29_16h25.34.701",NA,NA,244.5307,244.5307,244.5307,244.8794,NA,NA,NA,NA,NA,NA,NA,TRUE,1,0.3177,241.5256,244.5305,0,48,48,44,1,30,29,NA,NA,NA,NA,NA,1,49,"binary"
"A6CFEF7F0113442BBCFAEEF1003DD55B",1,"0198f781-6d82-7e0d-b8f2-dc6e3afddbc8","0198f767-55c9-7875-8d21-563b3c0b86ed","2025-08-29_16h25.34.701",NA,NA,247.8703,247.8703,247.8703,248.2189,NA,NA,NA,NA,NA,NA,NA,TRUE,1,0.3778,244.8818,247.8701,0,49,49,83,1,95,54,NA,NA,NA,NA,NA,1,50,"binary"
"A6CFEF7F0113442BBCFAEEF1003DD55B",1,"0198f781-6d82-7e0d-b8f2-dc6e3afddbc8","0198f767-55c9-7875-8d21-563b3c0b86ed","2025-08-29_16h25.34.701",NA,NA,251.2263,251.2263,251.2263,251.5748,NA,NA,NA,NA,NA,NA,NA,TRUE,1,0.2562,248.2215,251.2261,0,50,50,22,1,14,35,NA,NA,NA,NA,NA,1,51,"binary"
"A6CFEF7F0113442BBCFAEEF1003DD55B",1,"0198f781-6d82-7e0d-b8f2-dc6e3afddbc8","0198f767-55c9-7875-8d21-563b3c0b86ed","2025-08-29_16h25.34.701",NA,NA,254.582,254.5821,254.5822,254.9309,NA,NA,NA,NA,NA,NA,NA,TRUE,1,0.234,251.5774,254.5819,0,51,51,50,1,40,35,NA,NA,NA,NA,NA,1,52,"binary"
"A6CFEF7F0113442BBCFAEEF1003DD55B",1,"0198f781-6d82-7e0d-b8f2-dc6e3afddbc8","0198f767-55c9-7875-8d21-563b3c0b86ed","2025-08-29_16h25.34.701",NA,NA,257.9217,257.9218,257.9218,258.2705,NA,NA,NA,NA,NA,NA,NA,TRUE,1,0.2316,254.9333,257.9215,0,52,52,39,1,28,35,NA,NA,NA,NA,NA,1,53,"binary"
"A6CFEF7F0113442BBCFAEEF1003DD55B",1,"0198f781-6d82-7e0d-b8f2-dc6e3afddbc8","0198f767-55c9-7875-8d21-563b3c0b86ed","2025-08-29_16h25.34.701",NA,NA,261.2778,261.2779,261.2779,261.6264,NA,NA,NA,NA,NA,NA,NA,TRUE,1,0.5321,258.2729,261.2776,0,53,53,10,1,10,30,NA,NA,NA,NA,NA,1,54,"binary"
"A6CFEF7F0113442BBCFAEEF1003DD55B",1,"0198f781-6d82-7e0d-b8f2-dc6e3afddbc8","0198f767-55c9-7875-8d21-563b3c0b86ed","2025-08-29_16h25.34.701",NA,NA,264.6336,264.6337,264.6337,264.9822,NA,NA,NA,NA,NA,NA,NA,TRUE,1,0.389,261.629,264.6335,0,54,54,42,1,30,26,NA,NA,NA,NA,NA,1,55,"binary"
"A6CFEF7F0113442BBCFAEEF1003DD55B",1,"0198f781-6d82-7e0d-b8f2-dc6e3afddbc8","0198f767-55c9-7875-8d21-563b3c0b86ed","2025-08-29_16h25.34.701",NA,NA,267.9731,267.9732,267.9732,268.3219,NA,NA,NA,NA,NA,NA,NA,TRUE,1,0.3471,264.9847,267.973,0,55,55,41,1,28,46,NA,NA,NA,NA,NA,1,56,"binary"
"A6CFEF7F0113442BBCFAEEF1003DD55B",1,"0198f781-6d82-7e0d-b8f2-dc6e3afddbc8","0198f767-55c9-7875-8d21-563b3c0b86ed","2025-08-29_16h25.34.701",NA,NA,271.3292,271.3292,271.3292,271.6779,NA,NA,NA,NA,NA,NA,NA,TRUE,1,0.2504,268.3245,271.329,0,56,56,75,1,90,40,NA,NA,NA,NA,NA,1,57,"binary"
"A6CFEF7F0113442BBCFAEEF1003DD55B",1,"0198f781-6d82-7e0d-b8f2-dc6e3afddbc8","0198f767-55c9-7875-8d21-563b3c0b86ed","2025-08-29_16h25.34.701",NA,NA,274.6854,274.6855,274.6855,275.034,NA,NA,NA,NA,NA,NA,NA,TRUE,1,0.2596,271.6803,274.6852,0,57,57,73,1,90,30,NA,NA,NA,NA,NA,1,58,"binary"
"A6CFEF7F0113442BBCFAEEF1003DD55B",1,"0198f781-6d82-7e0d-b8f2-dc6e3afddbc8","0198f767-55c9-7875-8d21-563b3c0b86ed","2025-08-29_16h25.34.701",NA,NA,278.0247,278.0247,278.0248,278.3733,NA,NA,NA,NA,NA,NA,NA,TRUE,1,0.4737,275.0371,278.0246,0,58,58,76,1,90,46,NA,NA,NA,NA,NA,1,59,"binary"
"A6CFEF7F0113442BBCFAEEF1003DD55B",1,"0198f781-6d82-7e0d-b8f2-dc6e3afddbc8","0198f767-55c9-7875-8d21-563b3c0b86ed","2025-08-29_16h25.34.701",NA,NA,281.3803,281.3804,281.3804,281.7296,NA,NA,NA,NA,NA,NA,NA,TRUE,1,0.3494,278.3758,281.3802,0,59,59,53,1,40,54,NA,NA,NA,NA,NA,1,60,"binary"
"A6CFEF7F0113442BBCFAEEF1003DD55B",1,"0198f781-6d82-7e0d-b8f2-dc6e3afddbc8","0198f767-55c9-7875-8d21-563b3c0b86ed","2025-08-29_16h25.34.701",NA,NA,284.7202,284.7203,284.7203,285.069,NA,NA,NA,NA,NA,NA,NA,TRUE,1,0.5086,281.7321,284.7201,0,60,60,97,1,180,31,NA,NA,NA,NA,NA,1,61,"binary"
"A6CFEF7F0113442BBCFAEEF1003DD55B",1,"0198f781-6d82-7e0d-b8f2-dc6e3afddbc8","0198f767-55c9-7875-8d21-563b3c0b86ed","2025-08-29_16h25.34.701",NA,NA,288.0765,288.0765,288.0765,288.4249,NA,NA,NA,NA,NA,NA,NA,TRUE,1,0.7155,285.0715,288.0761,0,61,61,54,1,45,26,NA,NA,NA,NA,NA,1,62,"binary"
"A6CFEF7F0113442BBCFAEEF1003DD55B",1,"0198f781-6d82-7e0d-b8f2-dc6e3afddbc8","0198f767-55c9-7875-8d21-563b3c0b86ed","2025-08-29_16h25.34.701",NA,NA,291.4322,291.4323,291.4323,291.7809,NA,NA,NA,NA,NA,NA,NA,TRUE,1,0.3923,288.4274,291.432,0,62,62,30,1,25,27,NA,NA,NA,NA,NA,1,63,"binary"
"A6CFEF7F0113442BBCFAEEF1003DD55B",1,"0198f781-6d82-7e0d-b8f2-dc6e3afddbc8","0198f767-55c9-7875-8d21-563b3c0b86ed","2025-08-29_16h25.34.701",NA,NA,294.7716,294.7717,294.7717,295.1204,NA,NA,NA,NA,NA,NA,NA,TRUE,1,0.6421,291.7833,294.7714,0,63,63,102,1,200,26,NA,NA,NA,NA,NA,1,64,"binary"
"A6CFEF7F0113442BBCFAEEF1003DD55B",1,"0198f781-6d82-7e0d-b8f2-dc6e3afddbc8","0198f767-55c9-7875-8d21-563b3c0b86ed","2025-08-29_16h25.34.701",NA,NA,298.1277,298.1278,298.1278,298.4764,NA,NA,NA,NA,NA,NA,NA,TRUE,1,0.2503,295.1229,298.1275,0,64,64,32,1,25,31,NA,NA,NA,NA,NA,1,65,"binary"
"A6CFEF7F0113442BBCFAEEF1003DD55B",1,"0198f781-6d82-7e0d-b8f2-dc6e3afddbc8","0198f767-55c9-7875-8d21-563b3c0b86ed","2025-08-29_16h25.34.701",NA,NA,301.4837,301.4838,301.4838,301.8322,NA,NA,NA,NA,NA,NA,NA,TRUE,1,0.3552,298.479,301.4835,0,65,65,105,1,200,39,NA,NA,NA,NA,NA,1,66,"binary"
"A6CFEF7F0113442BBCFAEEF1003DD55B",1,"0198f781-6d82-7e0d-b8f2-dc6e3afddbc8","0198f767-55c9-7875-8d21-563b3c0b86ed","2025-08-29_16h25.34.701",NA,NA,304.8226,304.8226,304.8227,305.1712,NA,NA,NA,NA,NA,NA,NA,TRUE,1,1.6064,301.8346,304.8226,0,66,66,107,1,200,54,NA,NA,NA,NA,NA,1,67,"binary"
"A6CFEF7F0113442BBCFAEEF1003DD55B",1,"0198f781-6d82-7e0d-b8f2-dc6e3afddbc8","0198f767-55c9-7875-8d21-563b3c0b86ed","2025-08-29_16h25.34.701",NA,NA,308.1795,308.1795,308.1795,308.5278,NA,NA,NA,NA,NA,NA,NA,TRUE,1,0.4509,305.1721,308.1793,0,67,67,13,1,12,26,NA,NA,NA,NA,NA,1,68,"binary"
"A6CFEF7F0113442BBCFAEEF1003DD55B",1,"0198f781-6d82-7e0d-b8f2-dc6e3afddbc8","0198f767-55c9-7875-8d21-563b3c0b86ed","2025-08-29_16h25.34.701",NA,NA,311.5354,311.5355,311.5355,311.884,NA,NA,NA,NA,NA,NA,NA,TRUE,1,0.3496,308.5301,311.5352,0,68,68,63,1,50,40,NA,NA,NA,NA,NA,1,69,"binary"
"A6CFEF7F0113442BBCFAEEF1003DD55B",1,"0198f781-6d82-7e0d-b8f2-dc6e3afddbc8","0198f767-55c9-7875-8d21-563b3c0b86ed","2025-08-29_16h25.34.701",NA,NA,314.8747,314.8747,314.8747,315.2236,NA,NA,NA,NA,NA,NA,NA,TRUE,1,0.2301,311.8868,314.8745,0,69,69,16,1,12,33,NA,NA,NA,NA,NA,1,70,"binary"
"A6CFEF7F0113442BBCFAEEF1003DD55B",1,"0198f781-6d82-7e0d-b8f2-dc6e3afddbc8","0198f767-55c9-7875-8d21-563b3c0b86ed","2025-08-29_16h25.34.701",NA,NA,318.2308,318.2309,318.2309,318.5795,NA,NA,NA,NA,NA,NA,NA,TRUE,1,0.2747,315.2261,318.2307,0,70,70,14,1,12,28,NA,NA,NA,NA,NA,1,71,"binary"
"A6CFEF7F0113442BBCFAEEF1003DD55B",1,"0198f781-6d82-7e0d-b8f2-dc6e3afddbc8","0198f767-55c9-7875-8d21-563b3c0b86ed","2025-08-29_16h25.34.701",NA,NA,321.5702,321.5702,321.5703,321.9355,NA,NA,NA,NA,NA,NA,NA,TRUE,1,0.3355,318.5821,321.57,0,71,71,82,1,95,47,NA,NA,NA,NA,NA,1,72,"binary"
"A6CFEF7F0113442BBCFAEEF1003DD55B",1,"0198f781-6d82-7e0d-b8f2-dc6e3afddbc8","0198f767-55c9-7875-8d21-563b3c0b86ed","2025-08-29_16h25.34.701",NA,NA,324.9261,324.9261,324.9262,325.2745,NA,NA,NA,NA,NA,NA,NA,TRUE,1,0.275,321.9383,324.9259,0,72,72,87,1,100,39,NA,NA,NA,NA,NA,1,73,"binary"
"A6CFEF7F0113442BBCFAEEF1003DD55B",1,"0198f781-6d82-7e0d-b8f2-dc6e3afddbc8","0198f767-55c9-7875-8d21-563b3c0b86ed","2025-08-29_16h25.34.701",NA,NA,328.2822,328.2823,328.2823,328.6305,NA,NA,NA,NA,NA,NA,NA,TRUE,1,0.2185,325.2756,328.2821,0,73,73,5,1,7,35,NA,NA,NA,NA,NA,1,74,"binary"
"A6CFEF7F0113442BBCFAEEF1003DD55B",1,"0198f781-6d82-7e0d-b8f2-dc6e3afddbc8","0198f767-55c9-7875-8d21-563b3c0b86ed","2025-08-29_16h25.34.701",NA,NA,331.6214,331.6215,331.6215,331.9695,NA,NA,NA,NA,NA,NA,NA,TRUE,1,0.2798,328.6319,331.6214,0,74,74,18,1,14,25,NA,NA,NA,NA,NA,1,75,"binary"
"A6CFEF7F0113442BBCFAEEF1003DD55B",1,"0198f781-6d82-7e0d-b8f2-dc6e3afddbc8","0198f767-55c9-7875-8d21-563b3c0b86ed","2025-08-29_16h25.34.701",NA,NA,334.9777,334.9777,334.9778,335.3259,NA,NA,NA,NA,NA,NA,NA,TRUE,1,0.7376,331.9704,334.9775,0,75,75,92,1,150,35,NA,NA,NA,NA,NA,1,76,"binary"
"A6CFEF7F0113442BBCFAEEF1003DD55B",1,"0198f781-6d82-7e0d-b8f2-dc6e3afddbc8","0198f767-55c9-7875-8d21-563b3c0b86ed","2025-08-29_16h25.34.701",NA,NA,338.3331,338.3331,338.3331,338.6825,NA,NA,NA,NA,NA,NA,NA,TRUE,1,0.2677,335.327,338.333,0,76,76,100,1,180,46,NA,NA,NA,NA,NA,1,77,"binary"
"A6CFEF7F0113442BBCFAEEF1003DD55B",1,"0198f781-6d82-7e0d-b8f2-dc6e3afddbc8","0198f767-55c9-7875-8d21-563b3c0b86ed","2025-08-29_16h25.34.701",NA,NA,341.673,341.6731,341.6731,342.0218,NA,NA,NA,NA,NA,NA,NA,TRUE,1,1.0317,338.685,341.6729,0,77,77,95,1,150,54,NA,NA,NA,NA,NA,1,78,"binary"
"A6CFEF7F0113442BBCFAEEF1003DD55B",1,"0198f781-6d82-7e0d-b8f2-dc6e3afddbc8","0198f767-55c9-7875-8d21-563b3c0b86ed","2025-08-29_16h25.34.701",NA,NA,345.0295,345.0295,345.0296,345.3774,NA,NA,NA,NA,NA,NA,NA,TRUE,1,0.3541,342.0241,345.0293,0,78,78,46,1,30,32,NA,NA,NA,NA,NA,1,79,"binary"
"A6CFEF7F0113442BBCFAEEF1003DD55B",1,"0198f781-6d82-7e0d-b8f2-dc6e3afddbc8","0198f767-55c9-7875-8d21-563b3c0b86ed","2025-08-29_16h25.34.701",NA,NA,348.3844,348.3844,348.3844,348.7341,NA,NA,NA,NA,NA,NA,NA,TRUE,1,0.3377,345.3785,348.3843,0,79,79,71,1,60,54,NA,NA,NA,NA,NA,1,80,"binary"
"A6CFEF7F0113442BBCFAEEF1003DD55B",1,"0198f781-6d82-7e0d-b8f2-dc6e3afddbc8","0198f767-55c9-7875-8d21-563b3c0b86ed","2025-08-29_16h25.34.701",NA,NA,351.7248,351.7249,351.7249,352.0733,NA,NA,NA,NA,NA,NA,NA,TRUE,1,0.4247,348.7368,351.7246,0,80,80,34,1,25,35,NA,NA,NA,NA,NA,1,81,"binary"
"A6CFEF7F0113442BBCFAEEF1003DD55B",1,"0198f781-6d82-7e0d-b8f2-dc6e3afddbc8","0198f767-55c9-7875-8d21-563b3c0b86ed","2025-08-29_16h25.34.701",NA,NA,355.0808,355.0808,355.0808,355.4292,NA,NA,NA,NA,NA,NA,NA,TRUE,1,0.3011,352.0762,355.0806,0,81,81,103,1,200,28,NA,NA,NA,NA,NA,1,82,"binary"
"A6CFEF7F0113442BBCFAEEF1003DD55B",1,"0198f781-6d82-7e0d-b8f2-dc6e3afddbc8","0198f767-55c9-7875-8d21-563b3c0b86ed","2025-08-29_16h25.34.701",NA,NA,358.4196,358.4196,358.4196,358.7691,NA,NA,NA,NA,NA,NA,NA,TRUE,1,0.333,355.4304,358.4195,0,82,82,69,1,60,40,NA,NA,NA,NA,NA,1,83,"binary"
"A6CFEF7F0113442BBCFAEEF1003DD55B",1,"0198f781-6d82-7e0d-b8f2-dc6e3afddbc8","0198f767-55c9-7875-8d21-563b3c0b86ed","2025-08-29_16h25.34.701",NA,NA,361.7766,361.7766,361.7766,362.1253,NA,NA,NA,NA,NA,NA,NA,TRUE,1,0.2722,358.7717,361.7763,0,83,83,31,1,25,29,NA,NA,NA,NA,NA,1,84,"binary"
"A6CFEF7F0113442BBCFAEEF1003DD55B",1,"0198f781-6d82-7e0d-b8f2-dc6e3afddbc8","0198f767-55c9-7875-8d21-563b3c0b86ed","2025-08-29_16h25.34.701",NA,NA,365.1324,365.1324,365.1325,365.4808,NA,NA,NA,NA,NA,NA,NA,TRUE,1,0.2837,362.1278,365.1322,0,84,84,99,1,180,39,NA,NA,NA,NA,NA,1,85,"binary"
"A6CFEF7F0113442BBCFAEEF1003DD55B",1,"0198f781-6d82-7e0d-b8f2-dc6e3afddbc8","0198f767-55c9-7875-8d21-563b3c0b86ed","2025-08-29_16h25.34.701",NA,NA,368.4718,368.4719,368.4719,368.8201,NA,NA,NA,NA,NA,NA,NA,TRUE,1,0.253,365.4826,368.4717,0,85,85,23,1,14,39,NA,NA,NA,NA,NA,1,86,"binary"
"A6CFEF7F0113442BBCFAEEF1003DD55B",1,"0198f781-6d82-7e0d-b8f2-dc6e3afddbc8","0198f767-55c9-7875-8d21-563b3c0b86ed","2025-08-29_16h25.34.701",NA,NA,371.8278,371.8279,371.8279,372.1764,NA,NA,NA,NA,NA,NA,NA,TRUE,1,0.2015,368.8213,371.8277,0,86,86,20,1,14,28,NA,NA,NA,NA,NA,1,87,"binary"
"A6CFEF7F0113442BBCFAEEF1003DD55B",1,"0198f781-6d82-7e0d-b8f2-dc6e3afddbc8","0198f767-55c9-7875-8d21-563b3c0b86ed","2025-08-29_16h25.34.701",NA,NA,375.1832,375.4325,375.4326,375.532,NA,NA,NA,NA,NA,NA,NA,FALSE,NA,NA,372.178,375.183,0,87,87,106,1,200,47,NA,NA,NA,NA,NA,1,88,"binary"
"A6CFEF7F0113442BBCFAEEF1003DD55B",1,"0198f781-6d82-7e0d-b8f2-dc6e3afddbc8","0198f767-55c9-7875-8d21-563b3c0b86ed","2025-08-29_16h25.34.701",NA,NA,378.5231,378.5231,378.5232,378.8716,NA,NA,NA,NA,NA,NA,NA,TRUE,1,0.9724,375.5332,378.5228,0,88,88,70,1,60,47,NA,NA,NA,NA,NA,1,89,"binary"
"A6CFEF7F0113442BBCFAEEF1003DD55B",1,"0198f781-6d82-7e0d-b8f2-dc6e3afddbc8","0198f767-55c9-7875-8d21-563b3c0b86ed","2025-08-29_16h25.34.701",NA,NA,381.8794,381.8796,381.8796,382.2282,NA,NA,NA,NA,NA,NA,NA,TRUE,1,0.2458,378.8738,381.8793,0,89,89,62,1,50,35,NA,NA,NA,NA,NA,1,90,"binary"
"A6CFEF7F0113442BBCFAEEF1003DD55B",1,"0198f781-6d82-7e0d-b8f2-dc6e3afddbc8","0198f767-55c9-7875-8d21-563b3c0b86ed","2025-08-29_16h25.34.701",NA,NA,385.2352,385.2353,385.2353,385.5833,NA,NA,NA,NA,NA,NA,NA,TRUE,1,0.2688,382.2312,385.2349,0,90,90,27,1,21,30,NA,NA,NA,NA,NA,1,91,"binary"
"A6CFEF7F0113442BBCFAEEF1003DD55B",1,"0198f781-6d82-7e0d-b8f2-dc6e3afddbc8","0198f767-55c9-7875-8d21-563b3c0b86ed","2025-08-29_16h25.34.701",NA,NA,388.5747,388.5748,388.5748,388.9234,NA,NA,NA,NA,NA,NA,NA,TRUE,1,0.3219,385.5855,388.5745,0,91,91,12,1,12,25,NA,NA,NA,NA,NA,1,92,"binary"
"A6CFEF7F0113442BBCFAEEF1003DD55B",1,"0198f781-6d82-7e0d-b8f2-dc6e3afddbc8","0198f767-55c9-7875-8d21-563b3c0b86ed","2025-08-29_16h25.34.701",NA,NA,391.931,391.931,391.931,392.2796,NA,NA,NA,NA,NA,NA,NA,TRUE,1,0.5671,388.9262,391.9308,0,92,92,40,1,28,39,NA,NA,NA,NA,NA,1,93,"binary"
"A6CFEF7F0113442BBCFAEEF1003DD55B",1,"0198f781-6d82-7e0d-b8f2-dc6e3afddbc8","0198f767-55c9-7875-8d21-563b3c0b86ed","2025-08-29_16h25.34.701",NA,NA,395.2694,395.2694,395.2694,395.6191,NA,NA,NA,NA,NA,NA,NA,TRUE,1,0.3696,392.283,395.2693,0,93,93,86,1,100,38,NA,NA,NA,NA,NA,1,94,"binary"
"A6CFEF7F0113442BBCFAEEF1003DD55B",1,"0198f781-6d82-7e0d-b8f2-dc6e3afddbc8","0198f767-55c9-7875-8d21-563b3c0b86ed","2025-08-29_16h25.34.701",NA,NA,398.6308,398.6309,398.6309,398.9803,NA,NA,NA,NA,NA,NA,NA,TRUE,1,0.4154,395.6225,398.6308,0,94,94,3,1,7,30,NA,NA,NA,NA,NA,1,95,"binary"
"A6CFEF7F0113442BBCFAEEF1003DD55B",1,"0198f781-6d82-7e0d-b8f2-dc6e3afddbc8","0198f767-55c9-7875-8d21-563b3c0b86ed","2025-08-29_16h25.34.701",NA,NA,424.8122,424.8124,424.8124,424.8124,NA,NA,NA,NA,NA,NA,NA,FALSE,NA,NA,398.9845,424.8121,0,95,95,52,1,40,47,NA,NA,NA,NA,NA,1,96,"binary"
"A6CFEF7F0113442BBCFAEEF1003DD55B",1,"0198f781-6d82-7e0d-b8f2-dc6e3afddbc8","0198f767-55c9-7875-8d21-563b3c0b86ed","2025-08-29_16h25.34.701",NA,NA,424.8144,424.8145,424.8145,424.8145,NA,NA,NA,NA,NA,NA,NA,FALSE,NA,NA,424.8143,424.8143,0,96,96,2,1,7,28,NA,NA,NA,NA,NA,1,97,"binary"
"A6CFEF7F0113442BBCFAEEF1003DD55B",1,"0198f781-6d82-7e0d-b8f2-dc6e3afddbc8","0198f767-55c9-7875-8d21-563b3c0b86ed","2025-08-29_16h25.34.701",NA,NA,424.8156,424.8156,424.8156,424.8156,NA,NA,NA,NA,NA,NA,NA,FALSE,NA,NA,424.8155,424.8156,0,97,97,4,1,7,32,NA,NA,NA,NA,NA,1,98,"binary"
"A6CFEF7F0113442BBCFAEEF1003DD55B",1,"0198f781-6d82-7e0d-b8f2-dc6e3afddbc8","0198f767-55c9-7875-8d21-563b3c0b86ed","2025-08-29_16h25.34.701",NA,NA,424.8167,424.8167,424.8167,424.8168,NA,NA,NA,NA,NA,NA,NA,FALSE,NA,NA,424.8166,424.8166,0,98,98,1,1,7,26,NA,NA,NA,NA,NA,1,99,"binary"
"A6CFEF7F0113442BBCFAEEF1003DD55B",1,"0198f781-6d82-7e0d-b8f2-dc6e3afddbc8","0198f767-55c9-7875-8d21-563b3c0b86ed","2025-08-29_16h25.34.701",NA,NA,424.8176,424.8176,424.8176,424.8176,NA,NA,NA,NA,NA,NA,NA,FALSE,NA,NA,424.8175,424.8175,0,99,99,33,1,25,33,NA,NA,NA,NA,NA,1,100,"binary"
"A6CFEF7F0113442BBCFAEEF1003DD55B",1,"0198f781-6d82-7e0d-b8f2-dc6e3afddbc8","0198f767-55c9-7875-8d21-563b3c0b86ed","2025-08-29_16h25.34.701",NA,NA,424.8183,424.8183,424.8183,424.8183,NA,NA,NA,NA,NA,NA,NA,FALSE,NA,NA,424.8182,424.8182,0,100,100,51,1,40,40,NA,NA,NA,NA,NA,1,101,"binary"
"A6CFEF7F0113442BBCFAEEF1003DD55B",1,"0198f781-6d82-7e0d-b8f2-dc6e3afddbc8","0198f767-55c9-7875-8d21-563b3c0b86ed","2025-08-29_16h25.34.701",NA,NA,424.8193,424.8193,424.8193,424.8193,NA,NA,NA,NA,NA,NA,NA,FALSE,NA,NA,424.8192,424.8192,0,101,101,78,1,95,31,NA,NA,NA,NA,NA,1,102,"binary"
"A6CFEF7F0113442BBCFAEEF1003DD55B",1,"0198f781-6d82-7e0d-b8f2-dc6e3afddbc8","0198f767-55c9-7875-8d21-563b3c0b86ed","2025-08-29_16h25.34.701",NA,NA,424.8281,425.6738,425.6738,425.7729,NA,NA,NA,NA,NA,NA,NA,FALSE,NA,NA,424.8198,424.828,0,102,102,26,1,21,29,NA,NA,NA,NA,NA,1,103,"binary"
"A6CFEF7F0113442BBCFAEEF1003DD55B",1,"0198f781-6d82-7e0d-b8f2-dc6e3afddbc8","0198f767-55c9-7875-8d21-563b3c0b86ed","2025-08-29_16h25.34.701",NA,NA,439.0508,439.0508,439.0508,439.0508,NA,NA,NA,NA,NA,NA,NA,TRUE,1,0.491,425.7743,439.0507,0,103,103,6,1,10,25,NA,NA,NA,NA,NA,1,104,"binary"
"A6CFEF7F0113442BBCFAEEF1003DD55B",1,"0198f781-6d82-7e0d-b8f2-dc6e3afddbc8","0198f767-55c9-7875-8d21-563b3c0b86ed","2025-08-29_16h25.34.701",NA,NA,439.0518,439.0518,439.0518,439.0518,NA,NA,NA,NA,NA,NA,NA,FALSE,NA,NA,439.0517,439.0518,0,104,104,56,1,45,31,NA,NA,NA,NA,NA,1,105,"binary"
"A6CFEF7F0113442BBCFAEEF1003DD55B",1,"0198f781-6d82-7e0d-b8f2-dc6e3afddbc8","0198f767-55c9-7875-8d21-563b3c0b86ed","2025-08-29_16h25.34.701",NA,NA,439.0524,439.0524,439.0524,439.0524,NA,NA,NA,NA,NA,NA,NA,FALSE,NA,NA,439.0522,439.0522,0,105,105,48,1,40,27,NA,NA,NA,NA,NA,1,106,"binary"
"A6CFEF7F0113442BBCFAEEF1003DD55B",1,"0198f781-6d82-7e0d-b8f2-dc6e3afddbc8","0198f767-55c9-7875-8d21-563b3c0b86ed","2025-08-29_16h25.34.701",NA,NA,439.0528,439.0644,439.0644,439.1807,NA,NA,NA,NA,NA,NA,NA,FALSE,NA,NA,439.0528,439.0528,0,106,106,58,1,45,40,NA,NA,NA,NA,NA,1,107,"binary"
"A6CFEF7F0113442BBCFAEEF1003DD55B",1,"0198f781-6d82-7e0d-b8f2-dc6e3afddbc8","0198f767-55c9-7875-8d21-563b3c0b86ed","2025-08-29_16h25.34.701",NA,NA,442.172,442.172,442.1721,442.5206,NA,NA,NA,NA,NA,NA,NA,TRUE,1,0.6042,439.1816,442.1719,0,107,107,66,1,60,29,NA,NA,NA,NA,NA,1,108,"binary"
"A6CFEF7F0113442BBCFAEEF1003DD55B",1,"0198f781-6d82-7e0d-b8f2-dc6e3afddbc8","0198f767-55c9-7875-8d21-563b3c0b86ed","2025-08-29_16h25.34.701",NA,NA,448.7009,448.7009,448.7009,449.0501,NA,NA,NA,NA,NA,NA,NA,TRUE,1,0.6246,445.7341,448.7007,NA,NA,NA,NA,NA,100,54,0,0,0,89,1,2,1,"binary"
"A6CFEF7F0113442BBCFAEEF1003DD55B",1,"0198f781-6d82-7e0d-b8f2-dc6e3afddbc8","0198f767-55c9-7875-8d21-563b3c0b86ed","2025-08-29_16h25.34.701",NA,NA,453.2063,453.2063,453.2064,453.2064,NA,NA,NA,NA,NA,NA,NA,TRUE,1,0.5476,449.0525,453.2062,NA,NA,NA,NA,NA,90,26,0,1,1,72,1,2,2,"binary"
"A6CFEF7F0113442BBCFAEEF1003DD55B",1,"0198f781-6d82-7e0d-b8f2-dc6e3afddbc8","0198f767-55c9-7875-8d21-563b3c0b86ed","2025-08-29_16h25.34.701",NA,NA,455.4132,455.4132,455.4132,455.7623,NA,NA,NA,NA,NA,NA,NA,TRUE,1,0.4605,453.208,455.4129,NA,NA,NA,NA,NA,25,27,0,2,2,30,1,2,3,"binary"
"A6CFEF7F0113442BBCFAEEF1003DD55B",1,"0198f781-6d82-7e0d-b8f2-dc6e3afddbc8","0198f767-55c9-7875-8d21-563b3c0b86ed","2025-08-29_16h25.34.701",NA,NA,458.7524,458.7524,458.7524,459.101,NA,NA,NA,NA,NA,NA,NA,TRUE,1,0.3926,455.7648,458.7522,NA,NA,NA,NA,NA,45,29,0,3,3,55,1,2,4,"binary"
"A6CFEF7F0113442BBCFAEEF1003DD55B",1,"0198f781-6d82-7e0d-b8f2-dc6e3afddbc8","0198f767-55c9-7875-8d21-563b3c0b86ed","2025-08-29_16h25.34.701",NA,NA,462.1082,462.1083,462.1083,462.4571,NA,NA,NA,NA,NA,NA,NA,TRUE,1,2.7916,459.1029,462.1079,NA,NA,NA,NA,NA,45,40,0,4,4,58,1,2,5,"binary"
"A6CFEF7F0113442BBCFAEEF1003DD55B",1,"0198f781-6d82-7e0d-b8f2-dc6e3afddbc8","0198f767-55c9-7875-8d21-563b3c0b86ed","2025-08-29_16h25.34.701",NA,NA,465.4647,465.4648,465.4648,465.8127,NA,NA,NA,NA,NA,NA,NA,TRUE,1,0.4817,462.4591,465.4645,NA,NA,NA,NA,NA,40,35,0,5,5,50,1,2,6,"binary"
"A6CFEF7F0113442BBCFAEEF1003DD55B",1,"0198f781-6d82-7e0d-b8f2-dc6e3afddbc8","0198f767-55c9-7875-8d21-563b3c0b86ed","2025-08-29_16h25.34.701",NA,NA,468.804,468.804,468.8041,469.1527,NA,NA,NA,NA,NA,NA,NA,TRUE,1,0.0748,465.8144,468.8038,NA,NA,NA,NA,NA,7,28,0,6,6,2,1,2,7,"binary"
"A6CFEF7F0113442BBCFAEEF1003DD55B",1,"0198f781-6d82-7e0d-b8f2-dc6e3afddbc8","0198f767-55c9-7875-8d21-563b3c0b86ed","2025-08-29_16h25.34.701",NA,NA,472.1604,472.1604,472.1605,472.5088,NA,NA,NA,NA,NA,NA,NA,TRUE,1,0.182,469.1553,472.1602,NA,NA,NA,NA,NA,14,26,0,7,7,19,1,2,8,"binary"
"A6CFEF7F0113442BBCFAEEF1003DD55B",1,"0198f781-6d82-7e0d-b8f2-dc6e3afddbc8","0198f767-55c9-7875-8d21-563b3c0b86ed","2025-08-29_16h25.34.701",NA,NA,475.4997,475.4997,475.4998,475.8646,NA,NA,NA,NA,NA,NA,NA,TRUE,1,0.1004,472.5113,475.4995,NA,NA,NA,NA,NA,25,31,0,8,8,32,1,2,9,"binary"
"A6CFEF7F0113442BBCFAEEF1003DD55B",1,"0198f781-6d82-7e0d-b8f2-dc6e3afddbc8","0198f767-55c9-7875-8d21-563b3c0b86ed","2025-08-29_16h25.34.701",NA,NA,478.8551,478.8551,478.8551,479.2038,NA,NA,NA,NA,NA,NA,NA,TRUE,1,0.1143,475.8665,478.855,NA,NA,NA,NA,NA,25,46,0,9,9,35,1,2,10,"binary"
"A6CFEF7F0113442BBCFAEEF1003DD55B",1,"0198f781-6d82-7e0d-b8f2-dc6e3afddbc8","0198f767-55c9-7875-8d21-563b3c0b86ed","2025-08-29_16h25.34.701",NA,NA,482.4582,482.4582,482.4582,482.4637,NA,NA,NA,NA,NA,NA,NA,TRUE,1,0.2606,479.2057,482.458,NA,NA,NA,NA,NA,45,46,0,10,10,59,1,2,11,"binary"
"A6CFEF7F0113442BBCFAEEF1003DD55B",1,"0198f781-6d82-7e0d-b8f2-dc6e3afddbc8","0198f767-55c9-7875-8d21-563b3c0b86ed","2025-08-29_16h25.34.701",NA,NA,485.5514,485.5515,485.5515,485.8992,NA,NA,NA,NA,NA,NA,NA,TRUE,1,0.8937,482.4648,485.5512,NA,NA,NA,NA,NA,21,32,0,11,11,28,1,2,12,"binary"
"A6CFEF7F0113442BBCFAEEF1003DD55B",1,"0198f781-6d82-7e0d-b8f2-dc6e3afddbc8","0198f767-55c9-7875-8d21-563b3c0b86ed","2025-08-29_16h25.34.701",NA,NA,488.9066,488.9067,488.9067,489.2555,NA,NA,NA,NA,NA,NA,NA,TRUE,1,0.117,485.9011,488.9065,NA,NA,NA,NA,NA,200,54,0,12,12,107,1,2,13,"binary"
"A6CFEF7F0113442BBCFAEEF1003DD55B",1,"0198f781-6d82-7e0d-b8f2-dc6e3afddbc8","0198f767-55c9-7875-8d21-563b3c0b86ed","2025-08-29_16h25.34.701",NA,NA,493.3416,493.3417,493.3417,493.3417,NA,NA,NA,NA,NA,NA,NA,TRUE,1,0.1618,489.2576,493.3416,NA,NA,NA,NA,NA,50,27,0,13,13,60,1,2,14,"binary"
"A6CFEF7F0113442BBCFAEEF1003DD55B",1,"0198f781-6d82-7e0d-b8f2-dc6e3afddbc8","0198f767-55c9-7875-8d21-563b3c0b86ed","2025-08-29_16h25.34.701",NA,NA,493.3495,495.852,495.852,495.9516,NA,NA,NA,NA,NA,NA,NA,FALSE,NA,NA,493.343,493.3495,NA,NA,NA,NA,NA,200,39,0,14,14,105,1,2,15,"binary"
"A6CFEF7F0113442BBCFAEEF1003DD55B",1,"0198f781-6d82-7e0d-b8f2-dc6e3afddbc8","0198f767-55c9-7875-8d21-563b3c0b86ed","2025-08-29_16h25.34.701",NA,NA,498.9585,498.9586,498.9586,499.3071,NA,NA,NA,NA,NA,NA,NA,TRUE,1,0.0054,495.9539,498.9584,NA,NA,NA,NA,NA,10,30,0,15,15,10,1,2,16,"binary"
"A6CFEF7F0113442BBCFAEEF1003DD55B",1,"0198f781-6d82-7e0d-b8f2-dc6e3afddbc8","0198f767-55c9-7875-8d21-563b3c0b86ed","2025-08-29_16h25.34.701",NA,NA,504.3041,504.3042,504.3042,504.3042,NA,NA,NA,NA,NA,NA,NA,TRUE,1,0.1152,499.3091,504.304,NA,NA,NA,NA,NA,180,27,0,16,16,96,1,2,17,"binary"
"A6CFEF7F0113442BBCFAEEF1003DD55B",1,"0198f781-6d82-7e0d-b8f2-dc6e3afddbc8","0198f767-55c9-7875-8d21-563b3c0b86ed","2025-08-29_16h25.34.701",NA,NA,504.3181,505.9085,505.9085,506.0077,NA,NA,NA,NA,NA,NA,NA,FALSE,NA,NA,504.3063,504.318,NA,NA,NA,NA,NA,21,29,0,17,17,26,1,2,18,"binary"
"A6CFEF7F0113442BBCFAEEF1003DD55B",1,"0198f781-6d82-7e0d-b8f2-dc6e3afddbc8","0198f767-55c9-7875-8d21-563b3c0b86ed","2025-08-29_16h25.34.701",NA,NA,509.0154,509.0155,509.0155,509.3642,NA,NA,NA,NA,NA,NA,NA,TRUE,1,0.3833,506.0096,509.0153,NA,NA,NA,NA,NA,180,35,0,18,18,98,1,2,19,"binary"
"A6CFEF7F0113442BBCFAEEF1003DD55B",1,"0198f781-6d82-7e0d-b8f2-dc6e3afddbc8","0198f767-55c9-7875-8d21-563b3c0b86ed","2025-08-29_16h25.34.701",NA,NA,512.3549,512.3549,512.355,512.7035,NA,NA,NA,NA,NA,NA,NA,TRUE,1,0.1007,509.3664,512.3547,NA,NA,NA,NA,NA,40,47,0,19,19,52,1,2,20,"binary"
"A6CFEF7F0113442BBCFAEEF1003DD55B",1,"0198f781-6d82-7e0d-b8f2-dc6e3afddbc8","0198f767-55c9-7875-8d21-563b3c0b86ed","2025-08-29_16h25.34.701",NA,NA,515.7114,515.7114,515.7114,516.0598,NA,NA,NA,NA,NA,NA,NA,TRUE,1,0.1502,512.7061,515.7112,NA,NA,NA,NA,NA,60,54,0,20,20,71,1,2,21,"binary"
"A6CFEF7F0113442BBCFAEEF1003DD55B",1,"0198f781-6d82-7e0d-b8f2-dc6e3afddbc8","0198f767-55c9-7875-8d21-563b3c0b86ed","2025-08-29_16h25.34.701",NA,NA,519.0504,519.0504,519.0504,519.3988,NA,NA,NA,NA,NA,NA,NA,TRUE,1,0.249,516.0618,519.0501,NA,NA,NA,NA,NA,21,27,0,21,21,25,1,2,22,"binary"
"A6CFEF7F0113442BBCFAEEF1003DD55B",1,"0198f781-6d82-7e0d-b8f2-dc6e3afddbc8","0198f767-55c9-7875-8d21-563b3c0b86ed","2025-08-29_16h25.34.701",NA,NA,524.9188,524.919,524.919,524.9192,NA,NA,NA,NA,NA,NA,NA,TRUE,1,8e-04,519.4012,524.9188,NA,NA,NA,NA,NA,12,33,0,22,22,16,1,2,23,"binary"
"A6CFEF7F0113442BBCFAEEF1003DD55B",1,"0198f781-6d82-7e0d-b8f2-dc6e3afddbc8","0198f767-55c9-7875-8d21-563b3c0b86ed","2025-08-29_16h25.34.701",NA,NA,524.9342,526.0059,526.0059,526.1061,NA,NA,NA,NA,NA,NA,NA,FALSE,NA,NA,524.9203,524.9342,NA,NA,NA,NA,NA,200,28,0,23,23,103,1,2,24,"binary"
"A6CFEF7F0113442BBCFAEEF1003DD55B",1,"0198f781-6d82-7e0d-b8f2-dc6e3afddbc8","0198f767-55c9-7875-8d21-563b3c0b86ed","2025-08-29_16h25.34.701",NA,NA,529.1133,529.1133,529.1133,529.4623,NA,NA,NA,NA,NA,NA,NA,TRUE,1,0.2375,526.1099,529.113,NA,NA,NA,NA,NA,45,31,0,24,24,56,1,2,25,"binary"
"A6CFEF7F0113442BBCFAEEF1003DD55B",1,"0198f781-6d82-7e0d-b8f2-dc6e3afddbc8","0198f767-55c9-7875-8d21-563b3c0b86ed","2025-08-29_16h25.34.701",NA,NA,532.4527,532.4527,532.4528,532.8009,NA,NA,NA,NA,NA,NA,NA,TRUE,1,0.1441,529.4653,532.4526,NA,NA,NA,NA,NA,90,33,0,25,25,74,1,2,26,"binary"
"A6CFEF7F0113442BBCFAEEF1003DD55B",1,"0198f781-6d82-7e0d-b8f2-dc6e3afddbc8","0198f767-55c9-7875-8d21-563b3c0b86ed","2025-08-29_16h25.34.701",NA,NA,535.809,535.8091,535.8091,536.1576,NA,NA,NA,NA,NA,NA,NA,TRUE,1,0.0509,532.8032,535.8088,NA,NA,NA,NA,NA,25,35,0,26,26,34,1,2,27,"binary"
"A6CFEF7F0113442BBCFAEEF1003DD55B",1,"0198f781-6d82-7e0d-b8f2-dc6e3afddbc8","0198f767-55c9-7875-8d21-563b3c0b86ed","2025-08-29_16h25.34.701",NA,NA,539.165,539.165,539.165,539.5138,NA,NA,NA,NA,NA,NA,NA,TRUE,1,0.6811,536.1598,539.1648,NA,NA,NA,NA,NA,95,47,0,27,27,82,1,2,28,"binary"
"A6CFEF7F0113442BBCFAEEF1003DD55B",1,"0198f781-6d82-7e0d-b8f2-dc6e3afddbc8","0198f767-55c9-7875-8d21-563b3c0b86ed","2025-08-29_16h25.34.701",NA,NA,542.5042,542.5042,542.5042,542.8524,NA,NA,NA,NA,NA,NA,NA,TRUE,1,0.0116,539.5166,542.5039,NA,NA,NA,NA,NA,90,46,0,28,28,76,1,2,29,"binary"
"A6CFEF7F0113442BBCFAEEF1003DD55B",1,"0198f781-6d82-7e0d-b8f2-dc6e3afddbc8","0198f767-55c9-7875-8d21-563b3c0b86ed","2025-08-29_16h25.34.701",NA,NA,545.8606,545.8606,545.8607,546.2091,NA,NA,NA,NA,NA,NA,NA,TRUE,1,0.155,542.8538,545.8604,NA,NA,NA,NA,NA,150,47,0,29,29,94,1,2,30,"binary"
"A6CFEF7F0113442BBCFAEEF1003DD55B",1,"0198f781-6d82-7e0d-b8f2-dc6e3afddbc8","0198f767-55c9-7875-8d21-563b3c0b86ed","2025-08-29_16h25.34.701",NA,NA,549.1999,549.1999,549.1999,549.5652,NA,NA,NA,NA,NA,NA,NA,TRUE,1,2.9796,546.213,549.1997,NA,NA,NA,NA,NA,14,35,0,30,30,22,1,2,31,"binary"
"A6CFEF7F0113442BBCFAEEF1003DD55B",1,"0198f781-6d82-7e0d-b8f2-dc6e3afddbc8","0198f767-55c9-7875-8d21-563b3c0b86ed","2025-08-29_16h25.34.701",NA,NA,552.5561,552.5562,552.5562,552.9048,NA,NA,NA,NA,NA,NA,NA,TRUE,1,0.2916,549.5676,552.5559,NA,NA,NA,NA,NA,10,29,0,31,31,9,1,2,32,"binary"
"A6CFEF7F0113442BBCFAEEF1003DD55B",1,"0198f781-6d82-7e0d-b8f2-dc6e3afddbc8","0198f767-55c9-7875-8d21-563b3c0b86ed","2025-08-29_16h25.34.701",NA,NA,555.9115,556.161,556.161,556.2604,NA,NA,NA,NA,NA,NA,NA,FALSE,NA,NA,552.9073,555.9114,NA,NA,NA,NA,NA,100,26,0,32,32,84,1,2,33,"binary"
"A6CFEF7F0113442BBCFAEEF1003DD55B",1,"0198f781-6d82-7e0d-b8f2-dc6e3afddbc8","0198f767-55c9-7875-8d21-563b3c0b86ed","2025-08-29_16h25.34.701",NA,NA,559.2511,559.2512,559.2512,559.6002,NA,NA,NA,NA,NA,NA,NA,TRUE,1,1.8976,556.2614,559.251,NA,NA,NA,NA,NA,30,26,0,33,33,42,1,2,34,"binary"
"A6CFEF7F0113442BBCFAEEF1003DD55B",1,"0198f781-6d82-7e0d-b8f2-dc6e3afddbc8","0198f767-55c9-7875-8d21-563b3c0b86ed","2025-08-29_16h25.34.701",NA,NA,562.6076,562.6076,562.6076,562.9562,NA,NA,NA,NA,NA,NA,NA,TRUE,1,0.0187,559.6031,562.6075,NA,NA,NA,NA,NA,28,28,0,34,34,37,1,2,35,"binary"
"A6CFEF7F0113442BBCFAEEF1003DD55B",1,"0198f781-6d82-7e0d-b8f2-dc6e3afddbc8","0198f767-55c9-7875-8d21-563b3c0b86ed","2025-08-29_16h25.34.701",NA,NA,565.9636,565.9636,565.9636,566.3121,NA,NA,NA,NA,NA,NA,NA,TRUE,1,0.1494,562.9595,565.9633,NA,NA,NA,NA,NA,7,26,0,35,35,1,1,2,36,"binary"
"A6CFEF7F0113442BBCFAEEF1003DD55B",1,"0198f781-6d82-7e0d-b8f2-dc6e3afddbc8","0198f767-55c9-7875-8d21-563b3c0b86ed","2025-08-29_16h25.34.701",NA,NA,569.3023,569.3023,569.3023,569.6515,NA,NA,NA,NA,NA,NA,NA,TRUE,1,0.1852,566.3146,569.3022,NA,NA,NA,NA,NA,200,35,0,36,36,104,1,2,37,"binary"
"A6CFEF7F0113442BBCFAEEF1003DD55B",1,"0198f781-6d82-7e0d-b8f2-dc6e3afddbc8","0198f767-55c9-7875-8d21-563b3c0b86ed","2025-08-29_16h25.34.701",NA,NA,572.8745,572.8746,572.8746,573.007,NA,NA,NA,NA,NA,NA,NA,TRUE,1,0.2162,569.6548,572.8745,NA,NA,NA,NA,NA,150,35,0,37,37,92,1,2,38,"binary"
"A6CFEF7F0113442BBCFAEEF1003DD55B",1,"0198f781-6d82-7e0d-b8f2-dc6e3afddbc8","0198f767-55c9-7875-8d21-563b3c0b86ed","2025-08-29_16h25.34.701",NA,NA,NA,NA,NA,NA,NA,NA,NA,NA,NA,NA,NA,NA,NA,NA,573.0081,NA,NA,NA,NA,NA,NA,50,46,0,38,38,64,1,2,39,"binary"
