"participant","session","assignmentId","projectId","date","practiceTrial.started","practiceTrial.stopped","tooLate.started","tooLate.stopped","blank.started","blank.stopped","trials_pract.thisRepN","trials_pract.thisTrialN","trials_pract.thisN","trials_pract.thisIndex","trials_pract.ran","delay_pract","amount_pract","responseMade","key","rt","trial.started","trial.stopped","trials.thisRepN","trials.thisTrialN","trials.thisN","trials.thisIndex","trials.ran","delay","amount","trials_2.thisRepN","trials_2.thisTrialN","trials_2.thisN","trials_2.thisIndex","trials_2.ran","block","trial","taskType"
"21184C77E3954136BCA4B212D0E4319E",1,"01990a98-5f08-7b48-8e5e-0c12f4b367a7","01990a84-c4ee-73c2-a87b-ff46a7d3dde5","2025-09-02_08h53.49.793",31.4237,34.402,34.4039,34.4057,34.4058,34.7532,0,0,0,2,1,14,45,TRUE,1,2.5214,NA,NA,NA,NA,NA,NA,NA,NA,NA,NA,NA,NA,NA,NA,0,1,"likert"
"21184C77E3954136BCA4B212D0E4319E",1,"01990a98-5f08-7b48-8e5e-0c12f4b367a7","01990a84-c4ee-73c2-a87b-ff46a7d3dde5","2025-09-02_08h53.49.793",34.7563,37.7532,37.7534,38.0025,38.0026,38.0965,0,1,1,0,1,7,30,FALSE,NA,NA,NA,NA,NA,NA,NA,NA,NA,NA,NA,NA,NA,NA,NA,NA,0,2,"likert"
"21184C77E3954136BCA4B212D0E4319E",1,"01990a98-5f08-7b48-8e5e-0c12f4b367a7","01990a84-c4ee-73c2-a87b-ff46a7d3dde5","2025-09-02_08h53.49.793",38.098,41.1017,41.1023,41.1024,41.1025,41.4513,0,2,2,1,1,100,50,TRUE,3,0.6227,NA,NA,NA,NA,NA,NA,NA,NA,NA,NA,NA,NA,NA,NA,0,3,"likert"
"21184C77E3954136BCA4B212D0E4319E",1,"01990a98-5f08-7b48-8e5e-0c12f4b367a7","01990a84-c4ee-73c2-a87b-ff46a7d3dde5","2025-09-02_08h53.49.793",41.4525,44.4515,44.4518,44.452,44.452,44.8014,0,3,3,3,1,3,27,TRUE,3,0.8244,NA,NA,NA,NA,NA,NA,NA,NA,NA,NA,NA,NA,NA,NA,0,4,"likert"
"21184C77E3954136BCA4B212D0E4319E",1,"01990a98-5f08-7b48-8e5e-0c12f4b367a7","01990a84-c4ee-73c2-a87b-ff46a7d3dde5","2025-09-02_08h53.49.793",44.8035,47.803,47.8037,47.8038,47.8039,48.1517,0,4,4,4,1,30,40,TRUE,2,0.543,NA,NA,NA,NA,NA,NA,NA,NA,NA,NA,NA,NA,NA,NA,0,5,"likert"
"21184C77E3954136BCA4B212D0E4319E",1,"01990a98-5f08-7b48-8e5e-0c12f4b367a7","01990a84-c4ee-73c2-a87b-ff46a7d3dde5","2025-09-02_08h53.49.793",NA,NA,82.3774,82.6269,82.6269,82.7293,NA,NA,NA,NA,NA,NA,NA,FALSE,NA,NA,79.4187,82.3768,0,0,0,5,1,7,35,NA,NA,NA,NA,NA,1,1,"likert"
"21184C77E3954136BCA4B212D0E4319E",1,"01990a98-5f08-7b48-8e5e-0c12f4b367a7","01990a84-c4ee-73c2-a87b-ff46a7d3dde5","2025-09-02_08h53.49.793",NA,NA,85.7281,85.7283,85.7283,86.0761,NA,NA,NA,NA,NA,NA,NA,TRUE,3,0.655,82.7315,85.7276,0,1,1,89,1,100,54,NA,NA,NA,NA,NA,1,2,"likert"
"21184C77E3954136BCA4B212D0E4319E",1,"01990a98-5f08-7b48-8e5e-0c12f4b367a7","01990a84-c4ee-73c2-a87b-ff46a7d3dde5","2025-09-02_08h53.49.793",NA,NA,89.0772,89.0775,89.0776,89.426,NA,NA,NA,NA,NA,NA,NA,TRUE,1,1.5559,86.0792,89.0771,0,2,2,66,1,60,29,NA,NA,NA,NA,NA,1,3,"likert"
"21184C77E3954136BCA4B212D0E4319E",1,"01990a98-5f08-7b48-8e5e-0c12f4b367a7","01990a84-c4ee-73c2-a87b-ff46a7d3dde5","2025-09-02_08h53.49.793",NA,NA,92.4265,92.4266,92.4266,92.776,NA,NA,NA,NA,NA,NA,NA,TRUE,3,1.5099,89.4279,92.426,0,3,3,30,1,25,27,NA,NA,NA,NA,NA,1,4,"likert"
"21184C77E3954136BCA4B212D0E4319E",1,"01990a98-5f08-7b48-8e5e-0c12f4b367a7","01990a84-c4ee-73c2-a87b-ff46a7d3dde5","2025-09-02_08h53.49.793",NA,NA,95.7772,95.7772,95.7772,96.1259,NA,NA,NA,NA,NA,NA,NA,TRUE,4,0.3499,92.778,95.7765,0,4,4,64,1,50,46,NA,NA,NA,NA,NA,1,5,"likert"
"21184C77E3954136BCA4B212D0E4319E",1,"01990a98-5f08-7b48-8e5e-0c12f4b367a7","01990a84-c4ee-73c2-a87b-ff46a7d3dde5","2025-09-02_08h53.49.793",NA,NA,99.1266,99.1266,99.1267,99.4759,NA,NA,NA,NA,NA,NA,NA,TRUE,4,0.3688,96.1277,99.1259,0,5,5,85,1,100,31,NA,NA,NA,NA,NA,1,6,"likert"
"21184C77E3954136BCA4B212D0E4319E",1,"01990a98-5f08-7b48-8e5e-0c12f4b367a7","01990a84-c4ee-73c2-a87b-ff46a7d3dde5","2025-09-02_08h53.49.793",NA,NA,102.4767,102.4768,102.4768,102.8259,NA,NA,NA,NA,NA,NA,NA,TRUE,3,1.791,99.4788,102.476,0,6,6,97,1,180,31,NA,NA,NA,NA,NA,1,7,"likert"
"21184C77E3954136BCA4B212D0E4319E",1,"01990a98-5f08-7b48-8e5e-0c12f4b367a7","01990a84-c4ee-73c2-a87b-ff46a7d3dde5","2025-09-02_08h53.49.793",NA,NA,105.8274,105.8275,105.8276,106.1759,NA,NA,NA,NA,NA,NA,NA,TRUE,4,0.8623,102.8279,105.8271,0,7,7,100,1,180,46,NA,NA,NA,NA,NA,1,8,"likert"
"21184C77E3954136BCA4B212D0E4319E",1,"01990a98-5f08-7b48-8e5e-0c12f4b367a7","01990a84-c4ee-73c2-a87b-ff46a7d3dde5","2025-09-02_08h53.49.793",NA,NA,109.1772,109.1775,109.1775,109.5269,NA,NA,NA,NA,NA,NA,NA,TRUE,3,0.4645,106.178,109.177,0,8,8,26,1,21,29,NA,NA,NA,NA,NA,1,9,"likert"
"21184C77E3954136BCA4B212D0E4319E",1,"01990a98-5f08-7b48-8e5e-0c12f4b367a7","01990a84-c4ee-73c2-a87b-ff46a7d3dde5","2025-09-02_08h53.49.793",NA,NA,112.527,112.5273,112.5273,112.877,NA,NA,NA,NA,NA,NA,NA,TRUE,1,0.9257,109.5283,112.5269,0,9,9,20,1,14,28,NA,NA,NA,NA,NA,1,10,"likert"
"21184C77E3954136BCA4B212D0E4319E",1,"01990a98-5f08-7b48-8e5e-0c12f4b367a7","01990a84-c4ee-73c2-a87b-ff46a7d3dde5","2025-09-02_08h53.49.793",NA,NA,115.8771,115.8774,115.8774,116.2268,NA,NA,NA,NA,NA,NA,NA,TRUE,4,0.2337,112.8787,115.8769,0,10,10,69,1,60,40,NA,NA,NA,NA,NA,1,11,"likert"
"21184C77E3954136BCA4B212D0E4319E",1,"01990a98-5f08-7b48-8e5e-0c12f4b367a7","01990a84-c4ee-73c2-a87b-ff46a7d3dde5","2025-09-02_08h53.49.793",NA,NA,119.2255,119.2255,119.2256,119.576,NA,NA,NA,NA,NA,NA,NA,TRUE,4,1.7336,116.2285,119.2254,0,11,11,106,1,200,47,NA,NA,NA,NA,NA,1,12,"likert"
"21184C77E3954136BCA4B212D0E4319E",1,"01990a98-5f08-7b48-8e5e-0c12f4b367a7","01990a84-c4ee-73c2-a87b-ff46a7d3dde5","2025-09-02_08h53.49.793",NA,NA,122.5763,122.8256,122.8257,122.9256,NA,NA,NA,NA,NA,NA,NA,FALSE,NA,NA,119.5769,122.5757,0,12,12,71,1,60,54,NA,NA,NA,NA,NA,1,13,"likert"
"21184C77E3954136BCA4B212D0E4319E",1,"01990a98-5f08-7b48-8e5e-0c12f4b367a7","01990a84-c4ee-73c2-a87b-ff46a7d3dde5","2025-09-02_08h53.49.793",NA,NA,125.9265,125.9266,125.9266,126.2755,NA,NA,NA,NA,NA,NA,NA,TRUE,4,2.888,122.9276,125.9257,0,13,13,75,1,90,40,NA,NA,NA,NA,NA,1,14,"likert"
"21184C77E3954136BCA4B212D0E4319E",1,"01990a98-5f08-7b48-8e5e-0c12f4b367a7","01990a84-c4ee-73c2-a87b-ff46a7d3dde5","2025-09-02_08h53.49.793",NA,NA,129.2765,129.2765,129.2766,129.6265,NA,NA,NA,NA,NA,NA,NA,TRUE,4,1.783,126.2777,129.2758,0,14,14,82,1,95,47,NA,NA,NA,NA,NA,1,15,"likert"
"21184C77E3954136BCA4B212D0E4319E",1,"01990a98-5f08-7b48-8e5e-0c12f4b367a7","01990a84-c4ee-73c2-a87b-ff46a7d3dde5","2025-09-02_08h53.49.793",NA,NA,132.6261,132.6262,132.6262,132.9756,NA,NA,NA,NA,NA,NA,NA,TRUE,5,0.724,129.6279,132.6256,0,15,15,50,1,40,35,NA,NA,NA,NA,NA,1,16,"likert"
"21184C77E3954136BCA4B212D0E4319E",1,"01990a98-5f08-7b48-8e5e-0c12f4b367a7","01990a84-c4ee-73c2-a87b-ff46a7d3dde5","2025-09-02_08h53.49.793",NA,NA,135.9775,135.9775,135.9776,136.3254,NA,NA,NA,NA,NA,NA,NA,TRUE,4,0.3578,132.9775,135.9773,0,16,16,57,1,45,35,NA,NA,NA,NA,NA,1,17,"likert"
"21184C77E3954136BCA4B212D0E4319E",1,"01990a98-5f08-7b48-8e5e-0c12f4b367a7","01990a84-c4ee-73c2-a87b-ff46a7d3dde5","2025-09-02_08h53.49.793",NA,NA,139.3266,139.3267,139.3267,139.6754,NA,NA,NA,NA,NA,NA,NA,TRUE,5,0.3767,136.3259,139.3265,0,17,17,12,1,12,25,NA,NA,NA,NA,NA,1,18,"likert"
"21184C77E3954136BCA4B212D0E4319E",1,"01990a98-5f08-7b48-8e5e-0c12f4b367a7","01990a84-c4ee-73c2-a87b-ff46a7d3dde5","2025-09-02_08h53.49.793",NA,NA,142.6772,142.6773,142.6773,143.0273,NA,NA,NA,NA,NA,NA,NA,TRUE,5,0.8278,139.6769,142.6769,0,18,18,14,1,12,28,NA,NA,NA,NA,NA,1,19,"likert"
"21184C77E3954136BCA4B212D0E4319E",1,"01990a98-5f08-7b48-8e5e-0c12f4b367a7","01990a84-c4ee-73c2-a87b-ff46a7d3dde5","2025-09-02_08h53.49.793",NA,NA,146.0266,146.0266,146.0269,146.3754,NA,NA,NA,NA,NA,NA,NA,TRUE,5,0.5408,143.0291,146.0264,0,19,19,1,1,7,26,NA,NA,NA,NA,NA,1,20,"likert"
"21184C77E3954136BCA4B212D0E4319E",1,"01990a98-5f08-7b48-8e5e-0c12f4b367a7","01990a84-c4ee-73c2-a87b-ff46a7d3dde5","2025-09-02_08h53.49.793",NA,NA,149.3763,149.3764,149.3764,149.7253,NA,NA,NA,NA,NA,NA,NA,TRUE,5,0.4954,146.3773,149.3756,0,20,20,80,1,95,35,NA,NA,NA,NA,NA,1,21,"likert"
"21184C77E3954136BCA4B212D0E4319E",1,"01990a98-5f08-7b48-8e5e-0c12f4b367a7","01990a84-c4ee-73c2-a87b-ff46a7d3dde5","2025-09-02_08h53.49.793",NA,NA,152.7268,152.7268,152.7269,153.0766,NA,NA,NA,NA,NA,NA,NA,TRUE,5,2.7646,149.7274,152.7262,0,21,21,81,1,95,40,NA,NA,NA,NA,NA,1,22,"likert"
"21184C77E3954136BCA4B212D0E4319E",1,"01990a98-5f08-7b48-8e5e-0c12f4b367a7","01990a84-c4ee-73c2-a87b-ff46a7d3dde5","2025-09-02_08h53.49.793",NA,NA,156.0767,156.0771,156.0771,156.426,NA,NA,NA,NA,NA,NA,NA,TRUE,5,0.8723,153.0782,156.0765,0,22,22,0,1,7,25,NA,NA,NA,NA,NA,1,23,"likert"
"21184C77E3954136BCA4B212D0E4319E",1,"01990a98-5f08-7b48-8e5e-0c12f4b367a7","01990a84-c4ee-73c2-a87b-ff46a7d3dde5","2025-09-02_08h53.49.793",NA,NA,159.4254,159.4254,159.4254,159.7766,NA,NA,NA,NA,NA,NA,NA,TRUE,5,0.5112,156.4278,159.4252,0,23,23,63,1,50,40,NA,NA,NA,NA,NA,1,24,"likert"
"21184C77E3954136BCA4B212D0E4319E",1,"01990a98-5f08-7b48-8e5e-0c12f4b367a7","01990a84-c4ee-73c2-a87b-ff46a7d3dde5","2025-09-02_08h53.49.793",NA,NA,162.776,162.776,162.776,163.1254,NA,NA,NA,NA,NA,NA,NA,TRUE,4,0.3671,159.7784,162.7753,0,24,24,83,1,95,54,NA,NA,NA,NA,NA,1,25,"likert"
"21184C77E3954136BCA4B212D0E4319E",1,"01990a98-5f08-7b48-8e5e-0c12f4b367a7","01990a84-c4ee-73c2-a87b-ff46a7d3dde5","2025-09-02_08h53.49.793",NA,NA,166.126,166.1261,166.1261,166.4751,NA,NA,NA,NA,NA,NA,NA,TRUE,5,0.2113,163.1273,166.1252,0,25,25,90,1,150,31,NA,NA,NA,NA,NA,1,26,"likert"
"21184C77E3954136BCA4B212D0E4319E",1,"01990a98-5f08-7b48-8e5e-0c12f4b367a7","01990a84-c4ee-73c2-a87b-ff46a7d3dde5","2025-09-02_08h53.49.793",NA,NA,169.4757,169.4757,169.4757,169.8264,NA,NA,NA,NA,NA,NA,NA,TRUE,5,0.3939,166.4771,169.4755,0,26,26,107,1,200,54,NA,NA,NA,NA,NA,1,27,"likert"
"21184C77E3954136BCA4B212D0E4319E",1,"01990a98-5f08-7b48-8e5e-0c12f4b367a7","01990a84-c4ee-73c2-a87b-ff46a7d3dde5","2025-09-02_08h53.49.793",NA,NA,172.8264,172.8264,172.8265,173.1763,NA,NA,NA,NA,NA,NA,NA,TRUE,3,0.3203,169.828,172.8262,0,27,27,27,1,21,30,NA,NA,NA,NA,NA,1,28,"likert"
"21184C77E3954136BCA4B212D0E4319E",1,"01990a98-5f08-7b48-8e5e-0c12f4b367a7","01990a84-c4ee-73c2-a87b-ff46a7d3dde5","2025-09-02_08h53.49.793",NA,NA,176.1763,176.1764,176.1765,176.5262,NA,NA,NA,NA,NA,NA,NA,TRUE,4,0.7467,173.178,176.1761,0,28,28,60,1,50,27,NA,NA,NA,NA,NA,1,29,"likert"
"21184C77E3954136BCA4B212D0E4319E",1,"01990a98-5f08-7b48-8e5e-0c12f4b367a7","01990a84-c4ee-73c2-a87b-ff46a7d3dde5","2025-09-02_08h53.49.793",NA,NA,179.5256,179.5256,179.5257,179.8759,NA,NA,NA,NA,NA,NA,NA,TRUE,3,0.4279,176.5278,179.5251,0,29,29,7,1,10,26,NA,NA,NA,NA,NA,1,30,"likert"
"21184C77E3954136BCA4B212D0E4319E",1,"01990a98-5f08-7b48-8e5e-0c12f4b367a7","01990a84-c4ee-73c2-a87b-ff46a7d3dde5","2025-09-02_08h53.49.793",NA,NA,182.875,182.8751,182.8751,183.2252,NA,NA,NA,NA,NA,NA,NA,TRUE,3,0.2232,179.8774,182.8748,0,30,30,59,1,45,46,NA,NA,NA,NA,NA,1,31,"likert"
"21184C77E3954136BCA4B212D0E4319E",1,"01990a98-5f08-7b48-8e5e-0c12f4b367a7","01990a84-c4ee-73c2-a87b-ff46a7d3dde5","2025-09-02_08h53.49.793",NA,NA,186.2254,186.2254,186.2254,186.5765,NA,NA,NA,NA,NA,NA,NA,TRUE,3,0.326,183.2262,186.2249,0,31,31,9,1,10,29,NA,NA,NA,NA,NA,1,32,"likert"
"21184C77E3954136BCA4B212D0E4319E",1,"01990a98-5f08-7b48-8e5e-0c12f4b367a7","01990a84-c4ee-73c2-a87b-ff46a7d3dde5","2025-09-02_08h53.49.793",NA,NA,189.5767,189.5768,189.5768,189.9258,NA,NA,NA,NA,NA,NA,NA,TRUE,3,0.4554,186.5782,189.5762,0,32,32,104,1,200,35,NA,NA,NA,NA,NA,1,33,"likert"
"21184C77E3954136BCA4B212D0E4319E",1,"01990a98-5f08-7b48-8e5e-0c12f4b367a7","01990a84-c4ee-73c2-a87b-ff46a7d3dde5","2025-09-02_08h53.49.793",NA,NA,192.9265,192.9266,192.9266,193.2762,NA,NA,NA,NA,NA,NA,NA,TRUE,3,0.2358,189.927,192.926,0,33,33,61,1,50,30,NA,NA,NA,NA,NA,1,34,"likert"
"21184C77E3954136BCA4B212D0E4319E",1,"01990a98-5f08-7b48-8e5e-0c12f4b367a7","01990a84-c4ee-73c2-a87b-ff46a7d3dde5","2025-09-02_08h53.49.793",NA,NA,196.2755,196.2755,196.2756,196.6251,NA,NA,NA,NA,NA,NA,NA,TRUE,3,0.3802,193.2778,196.2754,0,34,34,21,1,14,32,NA,NA,NA,NA,NA,1,35,"likert"
"21184C77E3954136BCA4B212D0E4319E",1,"01990a98-5f08-7b48-8e5e-0c12f4b367a7","01990a84-c4ee-73c2-a87b-ff46a7d3dde5","2025-09-02_08h53.49.793",NA,NA,199.6256,199.6256,199.6257,199.975,NA,NA,NA,NA,NA,NA,NA,TRUE,4,0.2957,196.627,199.6252,0,35,35,91,1,150,33,NA,NA,NA,NA,NA,1,36,"likert"
"21184C77E3954136BCA4B212D0E4319E",1,"01990a98-5f08-7b48-8e5e-0c12f4b367a7","01990a84-c4ee-73c2-a87b-ff46a7d3dde5","2025-09-02_08h53.49.793",NA,NA,202.9758,202.9758,202.9759,203.326,NA,NA,NA,NA,NA,NA,NA,TRUE,2,0.1292,199.9767,202.9751,0,36,36,70,1,60,47,NA,NA,NA,NA,NA,1,37,"likert"
"21184C77E3954136BCA4B212D0E4319E",1,"01990a98-5f08-7b48-8e5e-0c12f4b367a7","01990a84-c4ee-73c2-a87b-ff46a7d3dde5","2025-09-02_08h53.49.793",NA,NA,206.3263,206.3264,206.3264,206.6751,NA,NA,NA,NA,NA,NA,NA,TRUE,3,0.3236,203.3276,206.3262,0,37,37,86,1,100,38,NA,NA,NA,NA,NA,1,38,"likert"
"21184C77E3954136BCA4B212D0E4319E",1,"01990a98-5f08-7b48-8e5e-0c12f4b367a7","01990a84-c4ee-73c2-a87b-ff46a7d3dde5","2025-09-02_08h53.49.793",NA,NA,209.6756,209.6757,209.6757,210.0258,NA,NA,NA,NA,NA,NA,NA,TRUE,3,0.4469,206.6766,209.675,0,38,38,47,1,30,38,NA,NA,NA,NA,NA,1,39,"likert"
"21184C77E3954136BCA4B212D0E4319E",1,"01990a98-5f08-7b48-8e5e-0c12f4b367a7","01990a84-c4ee-73c2-a87b-ff46a7d3dde5","2025-09-02_08h53.49.793",NA,NA,213.0262,213.0262,213.0263,213.3762,NA,NA,NA,NA,NA,NA,NA,TRUE,3,0.3299,210.0276,213.0258,0,39,39,51,1,40,40,NA,NA,NA,NA,NA,1,40,"likert"
"21184C77E3954136BCA4B212D0E4319E",1,"01990a98-5f08-7b48-8e5e-0c12f4b367a7","01990a84-c4ee-73c2-a87b-ff46a7d3dde5","2025-09-02_08h53.49.793",NA,NA,216.3747,216.3747,216.3747,216.7243,NA,NA,NA,NA,NA,NA,NA,TRUE,3,0.3697,213.3778,216.3744,0,40,40,16,1,12,33,NA,NA,NA,NA,NA,1,41,"likert"
"21184C77E3954136BCA4B212D0E4319E",1,"01990a98-5f08-7b48-8e5e-0c12f4b367a7","01990a84-c4ee-73c2-a87b-ff46a7d3dde5","2025-09-02_08h53.49.793",NA,NA,219.7246,219.7246,219.7246,220.0758,NA,NA,NA,NA,NA,NA,NA,TRUE,4,0.3706,216.725,219.7245,0,41,41,4,1,7,32,NA,NA,NA,NA,NA,1,42,"likert"
"21184C77E3954136BCA4B212D0E4319E",1,"01990a98-5f08-7b48-8e5e-0c12f4b367a7","01990a84-c4ee-73c2-a87b-ff46a7d3dde5","2025-09-02_08h53.49.793",NA,NA,223.0754,223.0754,223.0754,223.4248,NA,NA,NA,NA,NA,NA,NA,TRUE,3,0.4208,220.0774,223.0748,0,42,42,102,1,200,26,NA,NA,NA,NA,NA,1,43,"likert"
"21184C77E3954136BCA4B212D0E4319E",1,"01990a98-5f08-7b48-8e5e-0c12f4b367a7","01990a84-c4ee-73c2-a87b-ff46a7d3dde5","2025-09-02_08h53.49.793",NA,NA,226.426,226.4261,226.4261,226.775,NA,NA,NA,NA,NA,NA,NA,TRUE,3,0.3815,223.4266,226.4259,0,43,43,19,1,14,26,NA,NA,NA,NA,NA,1,44,"likert"
"21184C77E3954136BCA4B212D0E4319E",1,"01990a98-5f08-7b48-8e5e-0c12f4b367a7","01990a84-c4ee-73c2-a87b-ff46a7d3dde5","2025-09-02_08h53.49.793",NA,NA,229.7754,229.7754,229.7755,230.1257,NA,NA,NA,NA,NA,NA,NA,TRUE,3,0.2089,226.777,229.7747,0,44,44,99,1,180,39,NA,NA,NA,NA,NA,1,45,"likert"
"21184C77E3954136BCA4B212D0E4319E",1,"01990a98-5f08-7b48-8e5e-0c12f4b367a7","01990a84-c4ee-73c2-a87b-ff46a7d3dde5","2025-09-02_08h53.49.793",NA,NA,233.1253,233.1254,233.1254,233.4756,NA,NA,NA,NA,NA,NA,NA,TRUE,3,0.3127,230.1275,233.1248,0,45,45,6,1,10,25,NA,NA,NA,NA,NA,1,46,"likert"
"21184C77E3954136BCA4B212D0E4319E",1,"01990a98-5f08-7b48-8e5e-0c12f4b367a7","01990a84-c4ee-73c2-a87b-ff46a7d3dde5","2025-09-02_08h53.49.793",NA,NA,236.4757,236.7257,236.7259,236.8255,NA,NA,NA,NA,NA,NA,NA,FALSE,NA,NA,233.4772,236.4754,0,46,46,65,1,50,54,NA,NA,NA,NA,NA,1,47,"likert"
"21184C77E3954136BCA4B212D0E4319E",1,"01990a98-5f08-7b48-8e5e-0c12f4b367a7","01990a84-c4ee-73c2-a87b-ff46a7d3dde5","2025-09-02_08h53.49.793",NA,NA,239.8253,239.8253,239.8253,240.1766,NA,NA,NA,NA,NA,NA,NA,TRUE,3,0.299,236.8273,239.8246,0,47,47,76,1,90,46,NA,NA,NA,NA,NA,1,48,"likert"
"21184C77E3954136BCA4B212D0E4319E",1,"01990a98-5f08-7b48-8e5e-0c12f4b367a7","01990a84-c4ee-73c2-a87b-ff46a7d3dde5","2025-09-02_08h53.49.793",NA,NA,243.1753,243.1753,243.1753,243.5255,NA,NA,NA,NA,NA,NA,NA,TRUE,4,0.3538,240.1782,243.1746,0,48,48,45,1,30,30,NA,NA,NA,NA,NA,1,49,"likert"
"21184C77E3954136BCA4B212D0E4319E",1,"01990a98-5f08-7b48-8e5e-0c12f4b367a7","01990a84-c4ee-73c2-a87b-ff46a7d3dde5","2025-09-02_08h53.49.793",NA,NA,246.5247,246.5247,246.5248,246.8742,NA,NA,NA,NA,NA,NA,NA,TRUE,4,0.37,243.5272,246.5247,0,49,49,2,1,7,28,NA,NA,NA,NA,NA,1,50,"likert"
"21184C77E3954136BCA4B212D0E4319E",1,"01990a98-5f08-7b48-8e5e-0c12f4b367a7","01990a84-c4ee-73c2-a87b-ff46a7d3dde5","2025-09-02_08h53.49.793",NA,NA,249.8748,249.875,249.875,250.2246,NA,NA,NA,NA,NA,NA,NA,TRUE,4,0.4867,246.8749,249.8744,0,50,50,98,1,180,35,NA,NA,NA,NA,NA,1,51,"likert"
"21184C77E3954136BCA4B212D0E4319E",1,"01990a98-5f08-7b48-8e5e-0c12f4b367a7","01990a84-c4ee-73c2-a87b-ff46a7d3dde5","2025-09-02_08h53.49.793",NA,NA,253.2255,253.2256,253.2256,253.5745,NA,NA,NA,NA,NA,NA,NA,TRUE,4,0.3283,250.2267,253.2254,0,51,51,77,1,90,54,NA,NA,NA,NA,NA,1,52,"likert"
"21184C77E3954136BCA4B212D0E4319E",1,"01990a98-5f08-7b48-8e5e-0c12f4b367a7","01990a84-c4ee-73c2-a87b-ff46a7d3dde5","2025-09-02_08h53.49.793",NA,NA,256.576,256.5761,256.5761,256.924,NA,NA,NA,NA,NA,NA,NA,TRUE,4,0.3453,253.5762,256.5758,0,52,52,38,1,28,32,NA,NA,NA,NA,NA,1,53,"likert"
"21184C77E3954136BCA4B212D0E4319E",1,"01990a98-5f08-7b48-8e5e-0c12f4b367a7","01990a84-c4ee-73c2-a87b-ff46a7d3dde5","2025-09-02_08h53.49.793",NA,NA,259.9255,259.9256,259.9256,260.2757,NA,NA,NA,NA,NA,NA,NA,TRUE,3,0.478,256.9248,259.9253,0,53,53,96,1,180,27,NA,NA,NA,NA,NA,1,54,"likert"
"21184C77E3954136BCA4B212D0E4319E",1,"01990a98-5f08-7b48-8e5e-0c12f4b367a7","01990a84-c4ee-73c2-a87b-ff46a7d3dde5","2025-09-02_08h53.49.793",NA,NA,263.2758,263.2758,263.2759,263.625,NA,NA,NA,NA,NA,NA,NA,TRUE,4,1.0213,260.2773,263.2756,0,54,54,22,1,14,35,NA,NA,NA,NA,NA,1,55,"likert"
"21184C77E3954136BCA4B212D0E4319E",1,"01990a98-5f08-7b48-8e5e-0c12f4b367a7","01990a84-c4ee-73c2-a87b-ff46a7d3dde5","2025-09-02_08h53.49.793",NA,NA,266.6247,266.6247,266.6248,266.9744,NA,NA,NA,NA,NA,NA,NA,TRUE,4,0.3674,263.6264,266.6243,0,55,55,35,1,25,46,NA,NA,NA,NA,NA,1,56,"likert"
"21184C77E3954136BCA4B212D0E4319E",1,"01990a98-5f08-7b48-8e5e-0c12f4b367a7","01990a84-c4ee-73c2-a87b-ff46a7d3dde5","2025-09-02_08h53.49.793",NA,NA,269.9749,269.9749,269.9749,270.3247,NA,NA,NA,NA,NA,NA,NA,TRUE,3,0.1569,266.9761,269.9746,0,56,56,78,1,95,31,NA,NA,NA,NA,NA,1,57,"likert"
"21184C77E3954136BCA4B212D0E4319E",1,"01990a98-5f08-7b48-8e5e-0c12f4b367a7","01990a84-c4ee-73c2-a87b-ff46a7d3dde5","2025-09-02_08h53.49.793",NA,NA,273.3255,273.3257,273.3258,273.6742,NA,NA,NA,NA,NA,NA,NA,TRUE,3,0.1998,270.3262,273.3254,0,57,57,3,1,7,30,NA,NA,NA,NA,NA,1,58,"likert"
"21184C77E3954136BCA4B212D0E4319E",1,"01990a98-5f08-7b48-8e5e-0c12f4b367a7","01990a84-c4ee-73c2-a87b-ff46a7d3dde5","2025-09-02_08h53.49.793",NA,NA,276.6756,276.6756,276.6756,277.025,NA,NA,NA,NA,NA,NA,NA,TRUE,5,0.1536,273.676,276.6752,0,58,58,73,1,90,30,NA,NA,NA,NA,NA,1,59,"likert"
"21184C77E3954136BCA4B212D0E4319E",1,"01990a98-5f08-7b48-8e5e-0c12f4b367a7","01990a84-c4ee-73c2-a87b-ff46a7d3dde5","2025-09-02_08h53.49.793",NA,NA,280.0247,280.0249,280.0249,280.3742,NA,NA,NA,NA,NA,NA,NA,TRUE,4,0.3176,277.0265,280.0242,0,59,59,84,1,100,26,NA,NA,NA,NA,NA,1,60,"likert"
"21184C77E3954136BCA4B212D0E4319E",1,"01990a98-5f08-7b48-8e5e-0c12f4b367a7","01990a84-c4ee-73c2-a87b-ff46a7d3dde5","2025-09-02_08h53.49.793",NA,NA,283.3744,283.3744,283.3747,283.7239,NA,NA,NA,NA,NA,NA,NA,TRUE,4,0.3081,280.376,283.374,0,60,60,13,1,12,26,NA,NA,NA,NA,NA,1,61,"likert"
"21184C77E3954136BCA4B212D0E4319E",1,"01990a98-5f08-7b48-8e5e-0c12f4b367a7","01990a84-c4ee-73c2-a87b-ff46a7d3dde5","2025-09-02_08h53.49.793",NA,NA,286.7246,286.7246,286.7249,287.0738,NA,NA,NA,NA,NA,NA,NA,TRUE,4,0.246,283.7263,286.7241,0,61,61,18,1,14,25,NA,NA,NA,NA,NA,1,62,"likert"
"21184C77E3954136BCA4B212D0E4319E",1,"01990a98-5f08-7b48-8e5e-0c12f4b367a7","01990a84-c4ee-73c2-a87b-ff46a7d3dde5","2025-09-02_08h53.49.793",NA,NA,290.0754,290.0754,290.0755,290.425,NA,NA,NA,NA,NA,NA,NA,TRUE,4,0.3122,287.0758,290.0746,0,62,62,48,1,40,27,NA,NA,NA,NA,NA,1,63,"likert"
"21184C77E3954136BCA4B212D0E4319E",1,"01990a98-5f08-7b48-8e5e-0c12f4b367a7","01990a84-c4ee-73c2-a87b-ff46a7d3dde5","2025-09-02_08h53.49.793",NA,NA,293.4252,293.4253,293.4255,293.7741,NA,NA,NA,NA,NA,NA,NA,TRUE,4,0.356,290.4266,293.425,0,63,63,42,1,30,26,NA,NA,NA,NA,NA,1,64,"likert"
"21184C77E3954136BCA4B212D0E4319E",1,"01990a98-5f08-7b48-8e5e-0c12f4b367a7","01990a84-c4ee-73c2-a87b-ff46a7d3dde5","2025-09-02_08h53.49.793",NA,NA,296.774,296.7741,296.7741,297.1239,NA,NA,NA,NA,NA,NA,NA,TRUE,4,0.2782,293.7763,296.7739,0,64,64,62,1,50,35,NA,NA,NA,NA,NA,1,65,"likert"
"21184C77E3954136BCA4B212D0E4319E",1,"01990a98-5f08-7b48-8e5e-0c12f4b367a7","01990a84-c4ee-73c2-a87b-ff46a7d3dde5","2025-09-02_08h53.49.793",NA,NA,300.1247,300.1248,300.1248,300.4738,NA,NA,NA,NA,NA,NA,NA,TRUE,5,0.2791,297.1248,300.1239,0,65,65,15,1,12,31,NA,NA,NA,NA,NA,1,66,"likert"
"21184C77E3954136BCA4B212D0E4319E",1,"01990a98-5f08-7b48-8e5e-0c12f4b367a7","01990a84-c4ee-73c2-a87b-ff46a7d3dde5","2025-09-02_08h53.49.793",NA,NA,303.4747,303.4748,303.4748,303.8248,NA,NA,NA,NA,NA,NA,NA,TRUE,4,1.9129,300.4761,303.4739,0,66,66,105,1,200,39,NA,NA,NA,NA,NA,1,67,"likert"
"21184C77E3954136BCA4B212D0E4319E",1,"01990a98-5f08-7b48-8e5e-0c12f4b367a7","01990a84-c4ee-73c2-a87b-ff46a7d3dde5","2025-09-02_08h53.49.793",NA,NA,306.8251,307.0748,307.0748,307.1737,NA,NA,NA,NA,NA,NA,NA,FALSE,NA,NA,303.8264,306.825,0,67,67,23,1,14,39,NA,NA,NA,NA,NA,1,68,"likert"
"21184C77E3954136BCA4B212D0E4319E",1,"01990a98-5f08-7b48-8e5e-0c12f4b367a7","01990a84-c4ee-73c2-a87b-ff46a7d3dde5","2025-09-02_08h53.49.793",NA,NA,310.1737,310.1737,310.1738,310.5235,NA,NA,NA,NA,NA,NA,NA,TRUE,4,0.6135,307.1757,310.1736,0,68,68,8,1,10,27,NA,NA,NA,NA,NA,1,69,"likert"
"21184C77E3954136BCA4B212D0E4319E",1,"01990a98-5f08-7b48-8e5e-0c12f4b367a7","01990a84-c4ee-73c2-a87b-ff46a7d3dde5","2025-09-02_08h53.49.793",NA,NA,313.5242,313.5242,313.5242,313.8752,NA,NA,NA,NA,NA,NA,NA,TRUE,4,2.8162,310.5244,313.5237,0,69,69,25,1,21,27,NA,NA,NA,NA,NA,1,70,"likert"
"21184C77E3954136BCA4B212D0E4319E",1,"01990a98-5f08-7b48-8e5e-0c12f4b367a7","01990a84-c4ee-73c2-a87b-ff46a7d3dde5","2025-09-02_08h53.49.793",NA,NA,316.8758,317.1235,317.1237,317.2244,NA,NA,NA,NA,NA,NA,NA,FALSE,NA,NA,313.8767,316.8757,0,70,70,28,1,21,32,NA,NA,NA,NA,NA,1,71,"likert"
"21184C77E3954136BCA4B212D0E4319E",1,"01990a98-5f08-7b48-8e5e-0c12f4b367a7","01990a84-c4ee-73c2-a87b-ff46a7d3dde5","2025-09-02_08h53.49.793",NA,NA,320.2246,320.225,320.225,320.5744,NA,NA,NA,NA,NA,NA,NA,TRUE,5,1.4399,317.2262,320.224,0,71,71,10,1,10,30,NA,NA,NA,NA,NA,1,72,"likert"
"21184C77E3954136BCA4B212D0E4319E",1,"01990a98-5f08-7b48-8e5e-0c12f4b367a7","01990a84-c4ee-73c2-a87b-ff46a7d3dde5","2025-09-02_08h53.49.793",NA,NA,323.5751,323.5752,323.5752,323.9241,NA,NA,NA,NA,NA,NA,NA,TRUE,5,1.7763,320.5762,323.5745,0,72,72,87,1,100,39,NA,NA,NA,NA,NA,1,73,"likert"
"21184C77E3954136BCA4B212D0E4319E",1,"01990a98-5f08-7b48-8e5e-0c12f4b367a7","01990a84-c4ee-73c2-a87b-ff46a7d3dde5","2025-09-02_08h53.49.793",NA,NA,326.9247,326.9248,326.9248,327.2736,NA,NA,NA,NA,NA,NA,NA,TRUE,5,1.9188,323.9259,326.9245,0,73,73,93,1,150,40,NA,NA,NA,NA,NA,1,74,"likert"
"21184C77E3954136BCA4B212D0E4319E",1,"01990a98-5f08-7b48-8e5e-0c12f4b367a7","01990a84-c4ee-73c2-a87b-ff46a7d3dde5","2025-09-02_08h53.49.793",NA,NA,330.275,330.275,330.275,330.6237,NA,NA,NA,NA,NA,NA,NA,TRUE,5,2.7449,327.2756,330.2742,0,74,74,41,1,28,46,NA,NA,NA,NA,NA,1,75,"likert"
"21184C77E3954136BCA4B212D0E4319E",1,"01990a98-5f08-7b48-8e5e-0c12f4b367a7","01990a84-c4ee-73c2-a87b-ff46a7d3dde5","2025-09-02_08h53.49.793",NA,NA,333.6239,333.8754,333.8755,333.9734,NA,NA,NA,NA,NA,NA,NA,FALSE,NA,NA,330.6257,333.6234,0,75,75,43,1,30,27,NA,NA,NA,NA,NA,1,76,"likert"
"21184C77E3954136BCA4B212D0E4319E",1,"01990a98-5f08-7b48-8e5e-0c12f4b367a7","01990a84-c4ee-73c2-a87b-ff46a7d3dde5","2025-09-02_08h53.49.793",NA,NA,336.9744,336.9745,336.9745,337.3234,NA,NA,NA,NA,NA,NA,NA,TRUE,5,0.8633,333.9753,336.9739,0,76,76,52,1,40,47,NA,NA,NA,NA,NA,1,77,"likert"
"21184C77E3954136BCA4B212D0E4319E",1,"01990a98-5f08-7b48-8e5e-0c12f4b367a7","01990a84-c4ee-73c2-a87b-ff46a7d3dde5","2025-09-02_08h53.49.793",NA,NA,340.3239,340.5741,340.5741,340.6745,NA,NA,NA,NA,NA,NA,NA,FALSE,NA,NA,337.3255,340.3234,0,77,77,40,1,28,39,NA,NA,NA,NA,NA,1,78,"likert"
"21184C77E3954136BCA4B212D0E4319E",1,"01990a98-5f08-7b48-8e5e-0c12f4b367a7","01990a84-c4ee-73c2-a87b-ff46a7d3dde5","2025-09-02_08h53.49.793",NA,NA,343.6748,343.6749,343.6749,344.0234,NA,NA,NA,NA,NA,NA,NA,TRUE,5,1.5979,340.6764,343.6745,0,78,78,58,1,45,40,NA,NA,NA,NA,NA,1,79,"likert"
"21184C77E3954136BCA4B212D0E4319E",1,"01990a98-5f08-7b48-8e5e-0c12f4b367a7","01990a84-c4ee-73c2-a87b-ff46a7d3dde5","2025-09-02_08h53.49.793",NA,NA,347.0249,347.025,347.025,347.3733,NA,NA,NA,NA,NA,NA,NA,TRUE,4,0.5894,344.0254,347.0246,0,79,79,54,1,45,26,NA,NA,NA,NA,NA,1,80,"likert"
"21184C77E3954136BCA4B212D0E4319E",1,"01990a98-5f08-7b48-8e5e-0c12f4b367a7","01990a84-c4ee-73c2-a87b-ff46a7d3dde5","2025-09-02_08h53.49.793",NA,NA,350.3734,350.3735,350.3737,350.7245,NA,NA,NA,NA,NA,NA,NA,TRUE,5,0.9827,347.3756,350.3732,0,80,80,88,1,100,46,NA,NA,NA,NA,NA,1,81,"likert"
"21184C77E3954136BCA4B212D0E4319E",1,"01990a98-5f08-7b48-8e5e-0c12f4b367a7","01990a84-c4ee-73c2-a87b-ff46a7d3dde5","2025-09-02_08h53.49.793",NA,NA,353.724,353.7241,353.7241,354.0732,NA,NA,NA,NA,NA,NA,NA,TRUE,5,1.4379,350.7261,353.7233,0,81,81,101,1,180,54,NA,NA,NA,NA,NA,1,82,"likert"
"21184C77E3954136BCA4B212D0E4319E",1,"01990a98-5f08-7b48-8e5e-0c12f4b367a7","01990a84-c4ee-73c2-a87b-ff46a7d3dde5","2025-09-02_08h53.49.793",NA,NA,357.0747,357.0749,357.075,357.4247,NA,NA,NA,NA,NA,NA,NA,TRUE,5,0.1777,354.0753,357.0745,0,82,82,68,1,60,35,NA,NA,NA,NA,NA,1,83,"likert"
"21184C77E3954136BCA4B212D0E4319E",1,"01990a98-5f08-7b48-8e5e-0c12f4b367a7","01990a84-c4ee-73c2-a87b-ff46a7d3dde5","2025-09-02_08h53.49.793",NA,NA,360.4241,360.4243,360.4243,360.7731,NA,NA,NA,NA,NA,NA,NA,TRUE,5,0.2761,357.4265,360.4237,0,83,83,46,1,30,32,NA,NA,NA,NA,NA,1,84,"likert"
"21184C77E3954136BCA4B212D0E4319E",1,"01990a98-5f08-7b48-8e5e-0c12f4b367a7","01990a84-c4ee-73c2-a87b-ff46a7d3dde5","2025-09-02_08h53.49.793",NA,NA,363.7747,363.7749,363.7749,364.1243,NA,NA,NA,NA,NA,NA,NA,TRUE,5,0.7995,360.7742,363.7745,0,84,84,67,1,60,33,NA,NA,NA,NA,NA,1,85,"likert"
"21184C77E3954136BCA4B212D0E4319E",1,"01990a98-5f08-7b48-8e5e-0c12f4b367a7","01990a84-c4ee-73c2-a87b-ff46a7d3dde5","2025-09-02_08h53.49.793",NA,NA,367.124,367.124,367.124,367.474,NA,NA,NA,NA,NA,NA,NA,TRUE,5,0.8386,364.1261,367.1231,0,85,85,24,1,21,26,NA,NA,NA,NA,NA,1,86,"likert"
"21184C77E3954136BCA4B212D0E4319E",1,"01990a98-5f08-7b48-8e5e-0c12f4b367a7","01990a84-c4ee-73c2-a87b-ff46a7d3dde5","2025-09-02_08h53.49.793",NA,NA,370.4736,370.4737,370.4737,370.8229,NA,NA,NA,NA,NA,NA,NA,TRUE,5,0.3386,367.4755,370.4732,0,86,86,53,1,40,54,NA,NA,NA,NA,NA,1,87,"likert"
"21184C77E3954136BCA4B212D0E4319E",1,"01990a98-5f08-7b48-8e5e-0c12f4b367a7","01990a84-c4ee-73c2-a87b-ff46a7d3dde5","2025-09-02_08h53.49.793",NA,NA,373.8236,374.0736,374.0737,374.1729,NA,NA,NA,NA,NA,NA,NA,FALSE,NA,NA,370.8242,373.8231,0,87,87,32,1,25,31,NA,NA,NA,NA,NA,1,88,"likert"
"21184C77E3954136BCA4B212D0E4319E",1,"01990a98-5f08-7b48-8e5e-0c12f4b367a7","01990a84-c4ee-73c2-a87b-ff46a7d3dde5","2025-09-02_08h53.49.793",NA,NA,377.1731,377.1731,377.1731,377.5231,NA,NA,NA,NA,NA,NA,NA,TRUE,5,0.0213,374.1742,377.1729,0,88,88,17,1,12,35,NA,NA,NA,NA,NA,1,89,"likert"
"21184C77E3954136BCA4B212D0E4319E",1,"01990a98-5f08-7b48-8e5e-0c12f4b367a7","01990a84-c4ee-73c2-a87b-ff46a7d3dde5","2025-09-02_08h53.49.793",NA,NA,380.5244,380.5245,380.5246,380.873,NA,NA,NA,NA,NA,NA,NA,TRUE,5,1.419,377.5248,380.5243,0,89,89,29,1,21,38,NA,NA,NA,NA,NA,1,90,"likert"
"21184C77E3954136BCA4B212D0E4319E",1,"01990a98-5f08-7b48-8e5e-0c12f4b367a7","01990a84-c4ee-73c2-a87b-ff46a7d3dde5","2025-09-02_08h53.49.793",NA,NA,383.8737,383.8741,383.8741,384.2228,NA,NA,NA,NA,NA,NA,NA,TRUE,5,0.7109,380.8739,383.873,0,90,90,11,1,10,32,NA,NA,NA,NA,NA,1,91,"likert"
"21184C77E3954136BCA4B212D0E4319E",1,"01990a98-5f08-7b48-8e5e-0c12f4b367a7","01990a84-c4ee-73c2-a87b-ff46a7d3dde5","2025-09-02_08h53.49.793",NA,NA,387.2243,387.2246,387.2247,387.5742,NA,NA,NA,NA,NA,NA,NA,TRUE,4,0.4088,384.2249,387.2241,0,91,91,34,1,25,35,NA,NA,NA,NA,NA,1,92,"likert"
"21184C77E3954136BCA4B212D0E4319E",1,"01990a98-5f08-7b48-8e5e-0c12f4b367a7","01990a84-c4ee-73c2-a87b-ff46a7d3dde5","2025-09-02_08h53.49.793",NA,NA,390.573,390.573,390.573,390.9226,NA,NA,NA,NA,NA,NA,NA,TRUE,5,2.1591,387.5756,390.5728,0,92,92,92,1,150,35,NA,NA,NA,NA,NA,1,93,"likert"
"21184C77E3954136BCA4B212D0E4319E",1,"01990a98-5f08-7b48-8e5e-0c12f4b367a7","01990a84-c4ee-73c2-a87b-ff46a7d3dde5","2025-09-02_08h53.49.793",NA,NA,393.9242,393.9242,393.9242,394.2744,NA,NA,NA,NA,NA,NA,NA,TRUE,5,1.3535,390.9239,393.924,0,93,93,79,1,95,33,NA,NA,NA,NA,NA,1,94,"likert"
"21184C77E3954136BCA4B212D0E4319E",1,"01990a98-5f08-7b48-8e5e-0c12f4b367a7","01990a84-c4ee-73c2-a87b-ff46a7d3dde5","2025-09-02_08h53.49.793",NA,NA,397.2737,397.2737,397.2738,397.6233,NA,NA,NA,NA,NA,NA,NA,TRUE,5,1.1619,394.2763,397.2731,0,94,94,94,1,150,47,NA,NA,NA,NA,NA,1,95,"likert"
"21184C77E3954136BCA4B212D0E4319E",1,"01990a98-5f08-7b48-8e5e-0c12f4b367a7","01990a84-c4ee-73c2-a87b-ff46a7d3dde5","2025-09-02_08h53.49.793",NA,NA,400.6235,400.6236,400.6236,400.9729,NA,NA,NA,NA,NA,NA,NA,TRUE,5,0.4677,397.6244,400.623,0,95,95,37,1,28,28,NA,NA,NA,NA,NA,1,96,"likert"
"21184C77E3954136BCA4B212D0E4319E",1,"01990a98-5f08-7b48-8e5e-0c12f4b367a7","01990a84-c4ee-73c2-a87b-ff46a7d3dde5","2025-09-02_08h53.49.793",NA,NA,403.9731,403.9731,403.9731,404.3234,NA,NA,NA,NA,NA,NA,NA,TRUE,5,0.525,400.9737,403.9728,0,96,96,39,1,28,35,NA,NA,NA,NA,NA,1,97,"likert"
"21184C77E3954136BCA4B212D0E4319E",1,"01990a98-5f08-7b48-8e5e-0c12f4b367a7","01990a84-c4ee-73c2-a87b-ff46a7d3dde5","2025-09-02_08h53.49.793",NA,NA,407.3235,407.3236,407.3236,407.6727,NA,NA,NA,NA,NA,NA,NA,TRUE,5,0.5107,404.3252,407.323,0,97,97,95,1,150,54,NA,NA,NA,NA,NA,1,98,"likert"
"21184C77E3954136BCA4B212D0E4319E",1,"01990a98-5f08-7b48-8e5e-0c12f4b367a7","01990a84-c4ee-73c2-a87b-ff46a7d3dde5","2025-09-02_08h53.49.793",NA,NA,410.6736,410.6736,410.6737,411.0227,NA,NA,NA,NA,NA,NA,NA,TRUE,5,1.5459,407.6742,410.673,0,98,98,36,1,28,26,NA,NA,NA,NA,NA,1,99,"likert"
"21184C77E3954136BCA4B212D0E4319E",1,"01990a98-5f08-7b48-8e5e-0c12f4b367a7","01990a84-c4ee-73c2-a87b-ff46a7d3dde5","2025-09-02_08h53.49.793",NA,NA,414.025,414.025,414.025,414.3737,NA,NA,NA,NA,NA,NA,NA,TRUE,5,2.8721,411.0239,414.0247,0,99,99,49,1,40,33,NA,NA,NA,NA,NA,1,100,"likert"
"21184C77E3954136BCA4B212D0E4319E",1,"01990a98-5f08-7b48-8e5e-0c12f4b367a7","01990a84-c4ee-73c2-a87b-ff46a7d3dde5","2025-09-02_08h53.49.793",NA,NA,417.3735,417.3735,417.3735,417.7238,NA,NA,NA,NA,NA,NA,NA,TRUE,5,2.0191,414.3761,417.3728,0,100,100,56,1,45,31,NA,NA,NA,NA,NA,1,101,"likert"
"21184C77E3954136BCA4B212D0E4319E",1,"01990a98-5f08-7b48-8e5e-0c12f4b367a7","01990a84-c4ee-73c2-a87b-ff46a7d3dde5","2025-09-02_08h53.49.793",NA,NA,420.7239,420.7239,420.7239,421.0739,NA,NA,NA,NA,NA,NA,NA,TRUE,5,0.5394,417.7257,420.7236,0,101,101,44,1,30,29,NA,NA,NA,NA,NA,1,102,"likert"
"21184C77E3954136BCA4B212D0E4319E",1,"01990a98-5f08-7b48-8e5e-0c12f4b367a7","01990a84-c4ee-73c2-a87b-ff46a7d3dde5","2025-09-02_08h53.49.793",NA,NA,424.0733,424.0734,424.0734,424.4236,NA,NA,NA,NA,NA,NA,NA,TRUE,5,1.9506,421.0754,424.0728,0,102,102,103,1,200,28,NA,NA,NA,NA,NA,1,103,"likert"
"21184C77E3954136BCA4B212D0E4319E",1,"01990a98-5f08-7b48-8e5e-0c12f4b367a7","01990a84-c4ee-73c2-a87b-ff46a7d3dde5","2025-09-02_08h53.49.793",NA,NA,427.4239,427.424,427.4241,427.7736,NA,NA,NA,NA,NA,NA,NA,TRUE,5,0.9081,424.4257,427.4237,0,103,103,55,1,45,29,NA,NA,NA,NA,NA,1,104,"likert"
"21184C77E3954136BCA4B212D0E4319E",1,"01990a98-5f08-7b48-8e5e-0c12f4b367a7","01990a84-c4ee-73c2-a87b-ff46a7d3dde5","2025-09-02_08h53.49.793",NA,NA,430.7737,430.7737,430.7737,431.1235,NA,NA,NA,NA,NA,NA,NA,TRUE,5,0.6042,427.7754,430.7734,0,104,104,74,1,90,33,NA,NA,NA,NA,NA,1,105,"likert"
"21184C77E3954136BCA4B212D0E4319E",1,"01990a98-5f08-7b48-8e5e-0c12f4b367a7","01990a84-c4ee-73c2-a87b-ff46a7d3dde5","2025-09-02_08h53.49.793",NA,NA,434.1237,434.1238,434.1238,434.4729,NA,NA,NA,NA,NA,NA,NA,TRUE,4,0.2793,431.1253,434.1235,0,105,105,31,1,25,29,NA,NA,NA,NA,NA,1,106,"likert"
"21184C77E3954136BCA4B212D0E4319E",1,"01990a98-5f08-7b48-8e5e-0c12f4b367a7","01990a84-c4ee-73c2-a87b-ff46a7d3dde5","2025-09-02_08h53.49.793",NA,NA,437.4735,437.4735,437.4735,437.8227,NA,NA,NA,NA,NA,NA,NA,TRUE,5,0.2476,434.4744,437.4733,0,106,106,72,1,90,26,NA,NA,NA,NA,NA,1,107,"likert"
"21184C77E3954136BCA4B212D0E4319E",1,"01990a98-5f08-7b48-8e5e-0c12f4b367a7","01990a84-c4ee-73c2-a87b-ff46a7d3dde5","2025-09-02_08h53.49.793",NA,NA,440.8239,440.8239,440.8242,441.1733,NA,NA,NA,NA,NA,NA,NA,TRUE,5,0.2742,437.8245,440.8237,0,107,107,33,1,25,33,NA,NA,NA,NA,NA,1,108,"likert"
