"participant","session","assignmentId","projectId","date","practiceTrial.started","practiceTrial.stopped","tooLate.started","tooLate.stopped","blank.started","blank.stopped","trials_pract.thisRepN","trials_pract.thisTrialN","trials_pract.thisN","trials_pract.thisIndex","trials_pract.ran","delay_pract","amount_pract","responseMade","key","rt","trial.started","trial.stopped","trials.thisRepN","trials.thisTrialN","trials.thisN","trials.thisIndex","trials.ran","delay","amount","trials_2.thisRepN","trials_2.thisTrialN","trials_2.thisN","trials_2.thisIndex","trials_2.ran","block","trial","taskType"
"056F472A049441DA8289C03C8EC68EC7",1,"01990aa4-08f0-7c16-9bea-7aae3c448d4e","01990a83-7673-7c0c-a792-bbd8fbbaf673","2025-09-02_08h36.15.140",30.4082,33.3777,33.3786,33.379,33.3791,33.7274,0,0,0,1,1,100,50,TRUE,2,2.6651,NA,NA,NA,NA,NA,NA,NA,NA,NA,NA,NA,NA,NA,NA,0,1,"binary"
"056F472A049441DA8289C03C8EC68EC7",1,"01990aa4-08f0-7c16-9bea-7aae3c448d4e","01990a83-7673-7c0c-a792-bbd8fbbaf673","2025-09-02_08h36.15.140",33.7316,36.7271,36.7277,36.7285,36.7285,37.0764,0,1,1,2,1,14,45,TRUE,2,2.0111,NA,NA,NA,NA,NA,NA,NA,NA,NA,NA,NA,NA,NA,NA,0,2,"binary"
"056F472A049441DA8289C03C8EC68EC7",1,"01990aa4-08f0-7c16-9bea-7aae3c448d4e","01990a83-7673-7c0c-a792-bbd8fbbaf673","2025-09-02_08h36.15.140",37.0807,40.0747,40.0753,40.0754,40.0756,40.4246,0,2,2,3,1,3,27,TRUE,1,1.0676,NA,NA,NA,NA,NA,NA,NA,NA,NA,NA,NA,NA,NA,NA,0,3,"binary"
"056F472A049441DA8289C03C8EC68EC7",1,"01990aa4-08f0-7c16-9bea-7aae3c448d4e","01990a83-7673-7c0c-a792-bbd8fbbaf673","2025-09-02_08h36.15.140",40.428,43.4236,43.4241,43.4241,43.4241,43.7736,0,3,3,0,1,7,30,TRUE,2,1.6042,NA,NA,NA,NA,NA,NA,NA,NA,NA,NA,NA,NA,NA,NA,0,4,"binary"
"056F472A049441DA8289C03C8EC68EC7",1,"01990aa4-08f0-7c16-9bea-7aae3c448d4e","01990a83-7673-7c0c-a792-bbd8fbbaf673","2025-09-02_08h36.15.140",43.7768,46.7726,46.7736,46.7737,46.7738,47.1216,0,4,4,4,1,30,40,TRUE,2,1.218,NA,NA,NA,NA,NA,NA,NA,NA,NA,NA,NA,NA,NA,NA,0,5,"binary"
"056F472A049441DA8289C03C8EC68EC7",1,"01990aa4-08f0-7c16-9bea-7aae3c448d4e","01990a83-7673-7c0c-a792-bbd8fbbaf673","2025-09-02_08h36.15.140",NA,NA,70.6786,70.6902,70.6903,71.0282,NA,NA,NA,NA,NA,NA,NA,TRUE,2,1.7604,67.7049,70.6781,0,0,0,64,1,50,46,NA,NA,NA,NA,NA,1,1,"binary"
"056F472A049441DA8289C03C8EC68EC7",1,"01990aa4-08f0-7c16-9bea-7aae3c448d4e","01990a83-7673-7c0c-a792-bbd8fbbaf673","2025-09-02_08h36.15.140",NA,NA,74.0273,74.0273,74.0273,74.3759,NA,NA,NA,NA,NA,NA,NA,TRUE,1,0.8127,71.0308,74.0271,0,1,1,30,1,25,27,NA,NA,NA,NA,NA,1,2,"binary"
"056F472A049441DA8289C03C8EC68EC7",1,"01990aa4-08f0-7c16-9bea-7aae3c448d4e","01990a83-7673-7c0c-a792-bbd8fbbaf673","2025-09-02_08h36.15.140",NA,NA,77.375,77.375,77.375,77.7239,NA,NA,NA,NA,NA,NA,NA,TRUE,1,0.9266,74.3796,77.3742,0,2,2,42,1,30,26,NA,NA,NA,NA,NA,1,3,"binary"
"056F472A049441DA8289C03C8EC68EC7",1,"01990aa4-08f0-7c16-9bea-7aae3c448d4e","01990a83-7673-7c0c-a792-bbd8fbbaf673","2025-09-02_08h36.15.140",NA,NA,80.7236,80.7236,80.7236,81.0719,NA,NA,NA,NA,NA,NA,NA,TRUE,2,0.8083,77.7272,80.7233,0,3,3,50,1,40,35,NA,NA,NA,NA,NA,1,4,"binary"
"056F472A049441DA8289C03C8EC68EC7",1,"01990aa4-08f0-7c16-9bea-7aae3c448d4e","01990a83-7673-7c0c-a792-bbd8fbbaf673","2025-09-02_08h36.15.140",NA,NA,84.0722,84.0722,84.0722,84.4211,NA,NA,NA,NA,NA,NA,NA,TRUE,2,1.2073,81.0752,84.072,0,4,4,81,1,95,40,NA,NA,NA,NA,NA,1,5,"binary"
"056F472A049441DA8289C03C8EC68EC7",1,"01990aa4-08f0-7c16-9bea-7aae3c448d4e","01990a83-7673-7c0c-a792-bbd8fbbaf673","2025-09-02_08h36.15.140",NA,NA,87.4194,87.4195,87.4195,87.7691,NA,NA,NA,NA,NA,NA,NA,TRUE,1,2.5745,84.4244,87.4191,0,5,5,45,1,30,30,NA,NA,NA,NA,NA,1,6,"binary"
"056F472A049441DA8289C03C8EC68EC7",1,"01990aa4-08f0-7c16-9bea-7aae3c448d4e","01990a83-7673-7c0c-a792-bbd8fbbaf673","2025-09-02_08h36.15.140",NA,NA,90.7684,90.7684,90.7685,91.1171,NA,NA,NA,NA,NA,NA,NA,TRUE,2,1.3327,87.7727,90.7682,0,6,6,23,1,14,39,NA,NA,NA,NA,NA,1,7,"binary"
"056F472A049441DA8289C03C8EC68EC7",1,"01990aa4-08f0-7c16-9bea-7aae3c448d4e","01990a83-7673-7c0c-a792-bbd8fbbaf673","2025-09-02_08h36.15.140",NA,NA,94.1215,94.1217,94.1217,94.4693,NA,NA,NA,NA,NA,NA,NA,TRUE,1,2.0618,91.1194,94.1213,0,7,7,94,1,150,47,NA,NA,NA,NA,NA,1,8,"binary"
"056F472A049441DA8289C03C8EC68EC7",1,"01990aa4-08f0-7c16-9bea-7aae3c448d4e","01990a83-7673-7c0c-a792-bbd8fbbaf673","2025-09-02_08h36.15.140",NA,NA,97.482,97.4822,97.4826,97.8313,NA,NA,NA,NA,NA,NA,NA,TRUE,1,1.8823,94.4721,97.4817,0,8,8,26,1,21,29,NA,NA,NA,NA,NA,1,9,"binary"
"056F472A049441DA8289C03C8EC68EC7",1,"01990aa4-08f0-7c16-9bea-7aae3c448d4e","01990a83-7673-7c0c-a792-bbd8fbbaf673","2025-09-02_08h36.15.140",NA,NA,100.8304,100.8306,100.8306,101.1795,NA,NA,NA,NA,NA,NA,NA,TRUE,2,1.5728,97.8342,100.8299,0,9,9,59,1,45,46,NA,NA,NA,NA,NA,1,10,"binary"
"056F472A049441DA8289C03C8EC68EC7",1,"01990aa4-08f0-7c16-9bea-7aae3c448d4e","01990a83-7673-7c0c-a792-bbd8fbbaf673","2025-09-02_08h36.15.140",NA,NA,104.1786,104.1787,104.1787,104.5331,NA,NA,NA,NA,NA,NA,NA,TRUE,2,1.9102,101.1829,104.1784,0,10,10,9,1,10,29,NA,NA,NA,NA,NA,1,11,"binary"
"056F472A049441DA8289C03C8EC68EC7",1,"01990aa4-08f0-7c16-9bea-7aae3c448d4e","01990a83-7673-7c0c-a792-bbd8fbbaf673","2025-09-02_08h36.15.140",NA,NA,107.5276,107.5277,107.5277,107.8765,NA,NA,NA,NA,NA,NA,NA,TRUE,1,0.9018,104.5361,107.5269,0,11,11,60,1,50,27,NA,NA,NA,NA,NA,1,12,"binary"
"056F472A049441DA8289C03C8EC68EC7",1,"01990aa4-08f0-7c16-9bea-7aae3c448d4e","01990a83-7673-7c0c-a792-bbd8fbbaf673","2025-09-02_08h36.15.140",NA,NA,110.8756,110.8757,110.8758,111.2259,NA,NA,NA,NA,NA,NA,NA,TRUE,2,1.7153,107.8795,110.8752,0,12,12,15,1,12,31,NA,NA,NA,NA,NA,1,13,"binary"
"056F472A049441DA8289C03C8EC68EC7",1,"01990aa4-08f0-7c16-9bea-7aae3c448d4e","01990a83-7673-7c0c-a792-bbd8fbbaf673","2025-09-02_08h36.15.140",NA,NA,114.2245,114.225,114.225,114.5784,NA,NA,NA,NA,NA,NA,NA,TRUE,1,1.266,111.2289,114.224,0,13,13,107,1,200,54,NA,NA,NA,NA,NA,1,14,"binary"
"056F472A049441DA8289C03C8EC68EC7",1,"01990aa4-08f0-7c16-9bea-7aae3c448d4e","01990a83-7673-7c0c-a792-bbd8fbbaf673","2025-09-02_08h36.15.140",NA,NA,117.5722,117.5726,117.5726,117.9211,NA,NA,NA,NA,NA,NA,NA,TRUE,2,0.9839,114.5802,117.5719,0,14,14,22,1,14,35,NA,NA,NA,NA,NA,1,15,"binary"
"056F472A049441DA8289C03C8EC68EC7",1,"01990aa4-08f0-7c16-9bea-7aae3c448d4e","01990a83-7673-7c0c-a792-bbd8fbbaf673","2025-09-02_08h36.15.140",NA,NA,120.9204,120.9205,120.9205,121.2737,NA,NA,NA,NA,NA,NA,NA,TRUE,1,1.6673,117.9232,120.92,0,15,15,91,1,150,33,NA,NA,NA,NA,NA,1,16,"binary"
"056F472A049441DA8289C03C8EC68EC7",1,"01990aa4-08f0-7c16-9bea-7aae3c448d4e","01990a83-7673-7c0c-a792-bbd8fbbaf673","2025-09-02_08h36.15.140",NA,NA,124.2686,124.2688,124.2689,124.6221,NA,NA,NA,NA,NA,NA,NA,TRUE,1,0.8171,121.2774,124.2683,0,16,16,98,1,180,35,NA,NA,NA,NA,NA,1,17,"binary"
"056F472A049441DA8289C03C8EC68EC7",1,"01990aa4-08f0-7c16-9bea-7aae3c448d4e","01990a83-7673-7c0c-a792-bbd8fbbaf673","2025-09-02_08h36.15.140",NA,NA,127.6225,127.6226,127.6226,127.9671,NA,NA,NA,NA,NA,NA,NA,TRUE,2,0.901,124.6249,127.6219,0,17,17,29,1,21,38,NA,NA,NA,NA,NA,1,18,"binary"
"056F472A049441DA8289C03C8EC68EC7",1,"01990aa4-08f0-7c16-9bea-7aae3c448d4e","01990a83-7673-7c0c-a792-bbd8fbbaf673","2025-09-02_08h36.15.140",NA,NA,130.9876,130.9879,130.9879,131.3204,NA,NA,NA,NA,NA,NA,NA,TRUE,1,1.4523,127.9701,130.9873,0,18,18,18,1,14,25,NA,NA,NA,NA,NA,1,19,"binary"
"056F472A049441DA8289C03C8EC68EC7",1,"01990aa4-08f0-7c16-9bea-7aae3c448d4e","01990a83-7673-7c0c-a792-bbd8fbbaf673","2025-09-02_08h36.15.140",NA,NA,134.3353,134.3354,134.3355,134.6806,NA,NA,NA,NA,NA,NA,NA,TRUE,2,1.7284,131.3234,134.335,0,19,19,76,1,90,46,NA,NA,NA,NA,NA,1,20,"binary"
"056F472A049441DA8289C03C8EC68EC7",1,"01990aa4-08f0-7c16-9bea-7aae3c448d4e","01990a83-7673-7c0c-a792-bbd8fbbaf673","2025-09-02_08h36.15.140",NA,NA,137.6678,137.6678,137.6678,138.0162,NA,NA,NA,NA,NA,NA,NA,TRUE,1,1.2487,134.6835,137.6668,0,20,20,72,1,90,26,NA,NA,NA,NA,NA,1,21,"binary"
"056F472A049441DA8289C03C8EC68EC7",1,"01990aa4-08f0-7c16-9bea-7aae3c448d4e","01990a83-7673-7c0c-a792-bbd8fbbaf673","2025-09-02_08h36.15.140",NA,NA,141.0277,141.028,141.0281,141.3809,NA,NA,NA,NA,NA,NA,NA,TRUE,1,0.744,138.0191,141.0274,0,21,21,1,1,7,26,NA,NA,NA,NA,NA,1,22,"binary"
"056F472A049441DA8289C03C8EC68EC7",1,"01990aa4-08f0-7c16-9bea-7aae3c448d4e","01990a83-7673-7c0c-a792-bbd8fbbaf673","2025-09-02_08h36.15.140",NA,NA,144.3805,144.3806,144.3806,144.7259,NA,NA,NA,NA,NA,NA,NA,TRUE,2,1.286,141.3833,144.3801,0,22,22,35,1,25,46,NA,NA,NA,NA,NA,1,23,"binary"
"056F472A049441DA8289C03C8EC68EC7",1,"01990aa4-08f0-7c16-9bea-7aae3c448d4e","01990a83-7673-7c0c-a792-bbd8fbbaf673","2025-09-02_08h36.15.140",NA,NA,147.7288,147.7289,147.7289,148.0744,NA,NA,NA,NA,NA,NA,NA,TRUE,1,1.4844,144.7285,147.7286,0,23,23,2,1,7,28,NA,NA,NA,NA,NA,1,24,"binary"
"056F472A049441DA8289C03C8EC68EC7",1,"01990aa4-08f0-7c16-9bea-7aae3c448d4e","01990a83-7673-7c0c-a792-bbd8fbbaf673","2025-09-02_08h36.15.140",NA,NA,151.0779,151.3233,151.3234,151.4257,NA,NA,NA,NA,NA,NA,NA,FALSE,NA,NA,148.0781,151.0768,0,24,24,100,1,180,46,NA,NA,NA,NA,NA,1,25,"binary"
"056F472A049441DA8289C03C8EC68EC7",1,"01990aa4-08f0-7c16-9bea-7aae3c448d4e","01990a83-7673-7c0c-a792-bbd8fbbaf673","2025-09-02_08h36.15.140",NA,NA,154.4218,154.4218,154.422,154.7753,NA,NA,NA,NA,NA,NA,NA,TRUE,1,1.623,151.4284,154.4215,0,25,25,105,1,200,39,NA,NA,NA,NA,NA,1,26,"binary"
"056F472A049441DA8289C03C8EC68EC7",1,"01990aa4-08f0-7c16-9bea-7aae3c448d4e","01990a83-7673-7c0c-a792-bbd8fbbaf673","2025-09-02_08h36.15.140",NA,NA,157.7701,157.7702,157.7703,158.1195,NA,NA,NA,NA,NA,NA,NA,TRUE,2,1.5607,154.778,157.7696,0,26,26,33,1,25,33,NA,NA,NA,NA,NA,1,27,"binary"
"056F472A049441DA8289C03C8EC68EC7",1,"01990aa4-08f0-7c16-9bea-7aae3c448d4e","01990a83-7673-7c0c-a792-bbd8fbbaf673","2025-09-02_08h36.15.140",NA,NA,161.1184,161.1188,161.1188,161.4679,NA,NA,NA,NA,NA,NA,NA,TRUE,1,0.8369,158.1229,161.1179,0,27,27,106,1,200,47,NA,NA,NA,NA,NA,1,28,"binary"
"056F472A049441DA8289C03C8EC68EC7",1,"01990aa4-08f0-7c16-9bea-7aae3c448d4e","01990a83-7673-7c0c-a792-bbd8fbbaf673","2025-09-02_08h36.15.140",NA,NA,164.47,164.47,164.4701,164.8162,NA,NA,NA,NA,NA,NA,NA,TRUE,1,1.0609,161.4707,164.4694,0,28,28,6,1,10,25,NA,NA,NA,NA,NA,1,29,"binary"
"056F472A049441DA8289C03C8EC68EC7",1,"01990aa4-08f0-7c16-9bea-7aae3c448d4e","01990a83-7673-7c0c-a792-bbd8fbbaf673","2025-09-02_08h36.15.140",NA,NA,167.8201,167.8201,167.8201,168.1864,NA,NA,NA,NA,NA,NA,NA,TRUE,1,1.0338,164.8193,167.8198,0,29,29,66,1,60,29,NA,NA,NA,NA,NA,1,30,"binary"
"056F472A049441DA8289C03C8EC68EC7",1,"01990aa4-08f0-7c16-9bea-7aae3c448d4e","01990a83-7673-7c0c-a792-bbd8fbbaf673","2025-09-02_08h36.15.140",NA,NA,171.1806,171.1808,171.1809,171.5297,NA,NA,NA,NA,NA,NA,NA,TRUE,2,1.6997,168.1887,171.1802,0,30,30,87,1,100,39,NA,NA,NA,NA,NA,1,31,"binary"
"056F472A049441DA8289C03C8EC68EC7",1,"01990aa4-08f0-7c16-9bea-7aae3c448d4e","01990a83-7673-7c0c-a792-bbd8fbbaf673","2025-09-02_08h36.15.140",NA,NA,174.5282,174.5282,174.5282,174.8783,NA,NA,NA,NA,NA,NA,NA,TRUE,1,1.0041,171.5329,174.5279,0,31,31,8,1,10,27,NA,NA,NA,NA,NA,1,32,"binary"
"056F472A049441DA8289C03C8EC68EC7",1,"01990aa4-08f0-7c16-9bea-7aae3c448d4e","01990a83-7673-7c0c-a792-bbd8fbbaf673","2025-09-02_08h36.15.140",NA,NA,177.8825,177.8826,177.8826,178.2267,NA,NA,NA,NA,NA,NA,NA,TRUE,2,0.8653,174.8815,177.8817,0,32,32,71,1,60,54,NA,NA,NA,NA,NA,1,33,"binary"
"056F472A049441DA8289C03C8EC68EC7",1,"01990aa4-08f0-7c16-9bea-7aae3c448d4e","01990a83-7673-7c0c-a792-bbd8fbbaf673","2025-09-02_08h36.15.140",NA,NA,181.23,181.2301,181.2305,181.5758,NA,NA,NA,NA,NA,NA,NA,TRUE,2,0.9695,178.2305,181.2297,0,33,33,51,1,40,40,NA,NA,NA,NA,NA,1,34,"binary"
"056F472A049441DA8289C03C8EC68EC7",1,"01990aa4-08f0-7c16-9bea-7aae3c448d4e","01990a83-7673-7c0c-a792-bbd8fbbaf673","2025-09-02_08h36.15.140",NA,NA,184.579,184.5791,184.5791,184.9228,NA,NA,NA,NA,NA,NA,NA,TRUE,2,1.4001,181.5788,184.5787,0,34,34,46,1,30,32,NA,NA,NA,NA,NA,1,35,"binary"
"056F472A049441DA8289C03C8EC68EC7",1,"01990aa4-08f0-7c16-9bea-7aae3c448d4e","01990a83-7673-7c0c-a792-bbd8fbbaf673","2025-09-02_08h36.15.140",NA,NA,187.9268,187.9268,187.9269,188.2754,NA,NA,NA,NA,NA,NA,NA,TRUE,2,1.4502,184.9254,187.9266,0,35,35,40,1,28,39,NA,NA,NA,NA,NA,1,36,"binary"
"056F472A049441DA8289C03C8EC68EC7",1,"01990aa4-08f0-7c16-9bea-7aae3c448d4e","01990a83-7673-7c0c-a792-bbd8fbbaf673","2025-09-02_08h36.15.140",NA,NA,191.274,191.2741,191.2741,191.62,NA,NA,NA,NA,NA,NA,NA,TRUE,2,0.754,188.2783,191.2738,0,36,36,53,1,40,54,NA,NA,NA,NA,NA,1,37,"binary"
"056F472A049441DA8289C03C8EC68EC7",1,"01990aa4-08f0-7c16-9bea-7aae3c448d4e","01990a83-7673-7c0c-a792-bbd8fbbaf673","2025-09-02_08h36.15.140",NA,NA,194.6194,194.6195,194.6195,194.9689,NA,NA,NA,NA,NA,NA,NA,TRUE,1,1.9495,191.6232,194.6193,0,37,37,31,1,25,29,NA,NA,NA,NA,NA,1,38,"binary"
"056F472A049441DA8289C03C8EC68EC7",1,"01990aa4-08f0-7c16-9bea-7aae3c448d4e","01990a83-7673-7c0c-a792-bbd8fbbaf673","2025-09-02_08h36.15.140",NA,NA,197.967,197.967,197.967,198.3171,NA,NA,NA,NA,NA,NA,NA,TRUE,2,0.8838,194.972,197.9667,0,38,38,67,1,60,33,NA,NA,NA,NA,NA,1,39,"binary"
"056F472A049441DA8289C03C8EC68EC7",1,"01990aa4-08f0-7c16-9bea-7aae3c448d4e","01990a83-7673-7c0c-a792-bbd8fbbaf673","2025-09-02_08h36.15.140",NA,NA,201.3206,201.3206,201.3206,201.6659,NA,NA,NA,NA,NA,NA,NA,TRUE,2,1.3147,198.3206,201.3203,0,39,39,44,1,30,29,NA,NA,NA,NA,NA,1,40,"binary"
"056F472A049441DA8289C03C8EC68EC7",1,"01990aa4-08f0-7c16-9bea-7aae3c448d4e","01990a83-7673-7c0c-a792-bbd8fbbaf673","2025-09-02_08h36.15.140",NA,NA,204.6693,204.6693,204.6694,205.0348,NA,NA,NA,NA,NA,NA,NA,TRUE,1,1.7678,201.6685,204.6691,0,40,40,93,1,150,40,NA,NA,NA,NA,NA,1,41,"binary"
"056F472A049441DA8289C03C8EC68EC7",1,"01990aa4-08f0-7c16-9bea-7aae3c448d4e","01990a83-7673-7c0c-a792-bbd8fbbaf673","2025-09-02_08h36.15.140",NA,NA,208.0298,208.0299,208.0299,208.383,NA,NA,NA,NA,NA,NA,NA,TRUE,2,1.2495,205.0376,208.0293,0,41,41,89,1,100,54,NA,NA,NA,NA,NA,1,42,"binary"
"056F472A049441DA8289C03C8EC68EC7",1,"01990aa4-08f0-7c16-9bea-7aae3c448d4e","01990a83-7673-7c0c-a792-bbd8fbbaf673","2025-09-02_08h36.15.140",NA,NA,211.3812,211.3813,211.3814,211.7272,NA,NA,NA,NA,NA,NA,NA,TRUE,1,1.0905,208.3857,211.3811,0,42,42,37,1,28,28,NA,NA,NA,NA,NA,1,43,"binary"
"056F472A049441DA8289C03C8EC68EC7",1,"01990aa4-08f0-7c16-9bea-7aae3c448d4e","01990a83-7673-7c0c-a792-bbd8fbbaf673","2025-09-02_08h36.15.140",NA,NA,214.7309,214.731,214.731,215.0764,NA,NA,NA,NA,NA,NA,NA,TRUE,2,1.4617,211.7299,214.7307,0,43,43,47,1,30,38,NA,NA,NA,NA,NA,1,44,"binary"
"056F472A049441DA8289C03C8EC68EC7",1,"01990aa4-08f0-7c16-9bea-7aae3c448d4e","01990a83-7673-7c0c-a792-bbd8fbbaf673","2025-09-02_08h36.15.140",NA,NA,218.0757,218.0757,218.0757,218.4241,NA,NA,NA,NA,NA,NA,NA,TRUE,2,0.9994,215.0792,218.0752,0,44,44,88,1,100,46,NA,NA,NA,NA,NA,1,45,"binary"
"056F472A049441DA8289C03C8EC68EC7",1,"01990aa4-08f0-7c16-9bea-7aae3c448d4e","01990a83-7673-7c0c-a792-bbd8fbbaf673","2025-09-02_08h36.15.140",NA,NA,221.4275,221.4275,221.4275,221.7782,NA,NA,NA,NA,NA,NA,NA,TRUE,1,0.8997,218.4268,221.4274,0,45,45,99,1,180,39,NA,NA,NA,NA,NA,1,46,"binary"
"056F472A049441DA8289C03C8EC68EC7",1,"01990aa4-08f0-7c16-9bea-7aae3c448d4e","01990a83-7673-7c0c-a792-bbd8fbbaf673","2025-09-02_08h36.15.140",NA,NA,224.771,224.7711,224.7712,225.1214,NA,NA,NA,NA,NA,NA,NA,TRUE,1,0.9801,221.7815,224.7709,0,46,46,96,1,180,27,NA,NA,NA,NA,NA,1,47,"binary"
"056F472A049441DA8289C03C8EC68EC7",1,"01990aa4-08f0-7c16-9bea-7aae3c448d4e","01990a83-7673-7c0c-a792-bbd8fbbaf673","2025-09-02_08h36.15.140",NA,NA,228.1206,228.1207,228.1207,228.4688,NA,NA,NA,NA,NA,NA,NA,TRUE,1,0.8379,225.1244,228.1201,0,47,47,36,1,28,26,NA,NA,NA,NA,NA,1,48,"binary"
"056F472A049441DA8289C03C8EC68EC7",1,"01990aa4-08f0-7c16-9bea-7aae3c448d4e","01990a83-7673-7c0c-a792-bbd8fbbaf673","2025-09-02_08h36.15.140",NA,NA,231.4699,231.4705,231.4705,231.8229,NA,NA,NA,NA,NA,NA,NA,TRUE,1,1.3947,228.4719,231.4692,0,48,48,56,1,45,31,NA,NA,NA,NA,NA,1,49,"binary"
"056F472A049441DA8289C03C8EC68EC7",1,"01990aa4-08f0-7c16-9bea-7aae3c448d4e","01990a83-7673-7c0c-a792-bbd8fbbaf673","2025-09-02_08h36.15.140",NA,NA,234.817,234.817,234.8171,235.1834,NA,NA,NA,NA,NA,NA,NA,TRUE,1,1.659,231.8256,234.8165,0,49,49,79,1,95,33,NA,NA,NA,NA,NA,1,50,"binary"
"056F472A049441DA8289C03C8EC68EC7",1,"01990aa4-08f0-7c16-9bea-7aae3c448d4e","01990a83-7673-7c0c-a792-bbd8fbbaf673","2025-09-02_08h36.15.140",NA,NA,238.1664,238.1665,238.1665,238.5177,NA,NA,NA,NA,NA,NA,NA,TRUE,1,1.6652,235.1863,238.1663,0,50,50,86,1,100,38,NA,NA,NA,NA,NA,1,51,"binary"
"056F472A049441DA8289C03C8EC68EC7",1,"01990aa4-08f0-7c16-9bea-7aae3c448d4e","01990a83-7673-7c0c-a792-bbd8fbbaf673","2025-09-02_08h36.15.140",NA,NA,241.5307,241.5309,241.5309,241.881,NA,NA,NA,NA,NA,NA,NA,TRUE,1,1.4446,238.5203,241.5305,0,51,51,14,1,12,28,NA,NA,NA,NA,NA,1,52,"binary"
"056F472A049441DA8289C03C8EC68EC7",1,"01990aa4-08f0-7c16-9bea-7aae3c448d4e","01990a83-7673-7c0c-a792-bbd8fbbaf673","2025-09-02_08h36.15.140",NA,NA,244.8795,244.8796,244.8797,245.2281,NA,NA,NA,NA,NA,NA,NA,TRUE,2,1.0981,241.8837,244.8791,0,52,52,10,1,10,30,NA,NA,NA,NA,NA,1,53,"binary"
"056F472A049441DA8289C03C8EC68EC7",1,"01990aa4-08f0-7c16-9bea-7aae3c448d4e","01990a83-7673-7c0c-a792-bbd8fbbaf673","2025-09-02_08h36.15.140",NA,NA,248.2278,248.2279,248.2279,248.5766,NA,NA,NA,NA,NA,NA,NA,TRUE,1,1.9103,245.2313,248.2276,0,53,53,74,1,90,33,NA,NA,NA,NA,NA,1,54,"binary"
"056F472A049441DA8289C03C8EC68EC7",1,"01990aa4-08f0-7c16-9bea-7aae3c448d4e","01990a83-7673-7c0c-a792-bbd8fbbaf673","2025-09-02_08h36.15.140",NA,NA,251.5766,251.5766,251.5767,251.9248,NA,NA,NA,NA,NA,NA,NA,TRUE,1,1.3942,248.5793,251.5763,0,54,54,61,1,50,30,NA,NA,NA,NA,NA,1,55,"binary"
"056F472A049441DA8289C03C8EC68EC7",1,"01990aa4-08f0-7c16-9bea-7aae3c448d4e","01990a83-7673-7c0c-a792-bbd8fbbaf673","2025-09-02_08h36.15.140",NA,NA,254.9239,254.9243,254.9243,255.2741,NA,NA,NA,NA,NA,NA,NA,TRUE,2,0.7383,251.9274,254.9237,0,55,55,58,1,45,40,NA,NA,NA,NA,NA,1,56,"binary"
"056F472A049441DA8289C03C8EC68EC7",1,"01990aa4-08f0-7c16-9bea-7aae3c448d4e","01990a83-7673-7c0c-a792-bbd8fbbaf673","2025-09-02_08h36.15.140",NA,NA,258.2733,258.2733,258.2733,258.623,NA,NA,NA,NA,NA,NA,NA,TRUE,2,0.9395,255.2769,258.273,0,56,56,57,1,45,35,NA,NA,NA,NA,NA,1,57,"binary"
"056F472A049441DA8289C03C8EC68EC7",1,"01990aa4-08f0-7c16-9bea-7aae3c448d4e","01990a83-7673-7c0c-a792-bbd8fbbaf673","2025-09-02_08h36.15.140",NA,NA,261.6215,261.6216,261.6217,261.971,NA,NA,NA,NA,NA,NA,NA,TRUE,1,0.8014,258.6262,261.6213,0,57,57,104,1,200,35,NA,NA,NA,NA,NA,1,58,"binary"
"056F472A049441DA8289C03C8EC68EC7",1,"01990aa4-08f0-7c16-9bea-7aae3c448d4e","01990a83-7673-7c0c-a792-bbd8fbbaf673","2025-09-02_08h36.15.140",NA,NA,264.9698,264.9699,264.9699,265.3202,NA,NA,NA,NA,NA,NA,NA,TRUE,2,1.3979,261.9733,264.9696,0,58,58,21,1,14,32,NA,NA,NA,NA,NA,1,59,"binary"
"056F472A049441DA8289C03C8EC68EC7",1,"01990aa4-08f0-7c16-9bea-7aae3c448d4e","01990a83-7673-7c0c-a792-bbd8fbbaf673","2025-09-02_08h36.15.140",NA,NA,268.318,268.318,268.318,268.6685,NA,NA,NA,NA,NA,NA,NA,TRUE,2,1.1173,265.3226,268.3177,0,59,59,4,1,7,32,NA,NA,NA,NA,NA,1,60,"binary"
"056F472A049441DA8289C03C8EC68EC7",1,"01990aa4-08f0-7c16-9bea-7aae3c448d4e","01990a83-7673-7c0c-a792-bbd8fbbaf673","2025-09-02_08h36.15.140",NA,NA,271.6672,271.6672,271.6673,272.0327,NA,NA,NA,NA,NA,NA,NA,TRUE,1,0.8527,268.671,271.6669,0,60,60,0,1,7,25,NA,NA,NA,NA,NA,1,61,"binary"
"056F472A049441DA8289C03C8EC68EC7",1,"01990aa4-08f0-7c16-9bea-7aae3c448d4e","01990a83-7673-7c0c-a792-bbd8fbbaf673","2025-09-02_08h36.15.140",NA,NA,275.0324,275.0325,275.0326,275.382,NA,NA,NA,NA,NA,NA,NA,TRUE,2,0.9494,272.0358,275.0321,0,61,61,16,1,12,33,NA,NA,NA,NA,NA,1,62,"binary"
"056F472A049441DA8289C03C8EC68EC7",1,"01990aa4-08f0-7c16-9bea-7aae3c448d4e","01990a83-7673-7c0c-a792-bbd8fbbaf673","2025-09-02_08h36.15.140",NA,NA,278.3801,278.3802,278.3803,278.7305,NA,NA,NA,NA,NA,NA,NA,TRUE,2,1.1499,275.3847,278.3799,0,62,62,17,1,12,35,NA,NA,NA,NA,NA,1,63,"binary"
"056F472A049441DA8289C03C8EC68EC7",1,"01990aa4-08f0-7c16-9bea-7aae3c448d4e","01990a83-7673-7c0c-a792-bbd8fbbaf673","2025-09-02_08h36.15.140",NA,NA,281.7284,281.7285,281.7285,282.0786,NA,NA,NA,NA,NA,NA,NA,TRUE,2,1.3935,278.7329,281.7282,0,63,63,39,1,28,35,NA,NA,NA,NA,NA,1,64,"binary"
"056F472A049441DA8289C03C8EC68EC7",1,"01990aa4-08f0-7c16-9bea-7aae3c448d4e","01990a83-7673-7c0c-a792-bbd8fbbaf673","2025-09-02_08h36.15.140",NA,NA,285.0777,285.0778,285.0778,285.4273,NA,NA,NA,NA,NA,NA,NA,TRUE,1,0.7453,282.081,285.0774,0,64,64,13,1,12,26,NA,NA,NA,NA,NA,1,65,"binary"
"056F472A049441DA8289C03C8EC68EC7",1,"01990aa4-08f0-7c16-9bea-7aae3c448d4e","01990a83-7673-7c0c-a792-bbd8fbbaf673","2025-09-02_08h36.15.140",NA,NA,288.4261,288.4262,288.4262,288.775,NA,NA,NA,NA,NA,NA,NA,TRUE,2,0.9346,285.4298,288.4258,0,65,65,69,1,60,40,NA,NA,NA,NA,NA,1,66,"binary"
"056F472A049441DA8289C03C8EC68EC7",1,"01990aa4-08f0-7c16-9bea-7aae3c448d4e","01990a83-7673-7c0c-a792-bbd8fbbaf673","2025-09-02_08h36.15.140",NA,NA,291.7737,291.7741,291.7741,292.1236,NA,NA,NA,NA,NA,NA,NA,TRUE,1,0.9373,288.7775,291.7736,0,66,66,7,1,10,26,NA,NA,NA,NA,NA,1,67,"binary"
"056F472A049441DA8289C03C8EC68EC7",1,"01990aa4-08f0-7c16-9bea-7aae3c448d4e","01990a83-7673-7c0c-a792-bbd8fbbaf673","2025-09-02_08h36.15.140",NA,NA,295.1231,295.1231,295.1231,295.4722,NA,NA,NA,NA,NA,NA,NA,TRUE,1,0.9558,292.1262,295.1228,0,67,67,103,1,200,28,NA,NA,NA,NA,NA,1,68,"binary"
"056F472A049441DA8289C03C8EC68EC7",1,"01990aa4-08f0-7c16-9bea-7aae3c448d4e","01990a83-7673-7c0c-a792-bbd8fbbaf673","2025-09-02_08h36.15.140",NA,NA,298.4706,298.4706,298.4706,298.821,NA,NA,NA,NA,NA,NA,NA,TRUE,2,0.8594,295.474,298.4704,0,68,68,48,1,40,27,NA,NA,NA,NA,NA,1,69,"binary"
"056F472A049441DA8289C03C8EC68EC7",1,"01990aa4-08f0-7c16-9bea-7aae3c448d4e","01990a83-7673-7c0c-a792-bbd8fbbaf673","2025-09-02_08h36.15.140",NA,NA,301.8198,301.8198,301.8198,302.1687,NA,NA,NA,NA,NA,NA,NA,TRUE,2,1.8985,298.8236,301.8195,0,69,69,73,1,90,30,NA,NA,NA,NA,NA,1,70,"binary"
"056F472A049441DA8289C03C8EC68EC7",1,"01990aa4-08f0-7c16-9bea-7aae3c448d4e","01990a83-7673-7c0c-a792-bbd8fbbaf673","2025-09-02_08h36.15.140",NA,NA,305.1677,305.1678,305.1678,305.5171,NA,NA,NA,NA,NA,NA,NA,TRUE,2,1.3418,302.1715,305.1673,0,70,70,52,1,40,47,NA,NA,NA,NA,NA,1,71,"binary"
"056F472A049441DA8289C03C8EC68EC7",1,"01990aa4-08f0-7c16-9bea-7aae3c448d4e","01990a83-7673-7c0c-a792-bbd8fbbaf673","2025-09-02_08h36.15.140",NA,NA,308.5167,308.5167,308.5168,308.8827,NA,NA,NA,NA,NA,NA,NA,TRUE,1,0.8049,305.5197,308.5164,0,71,71,43,1,30,27,NA,NA,NA,NA,NA,1,72,"binary"
"056F472A049441DA8289C03C8EC68EC7",1,"01990aa4-08f0-7c16-9bea-7aae3c448d4e","01990a83-7673-7c0c-a792-bbd8fbbaf673","2025-09-02_08h36.15.140",NA,NA,311.8811,311.8815,311.8815,312.2313,NA,NA,NA,NA,NA,NA,NA,TRUE,2,1.5428,308.8855,311.881,0,72,72,68,1,60,35,NA,NA,NA,NA,NA,1,73,"binary"
"056F472A049441DA8289C03C8EC68EC7",1,"01990aa4-08f0-7c16-9bea-7aae3c448d4e","01990a83-7673-7c0c-a792-bbd8fbbaf673","2025-09-02_08h36.15.140",NA,NA,315.2285,315.2285,315.2285,315.578,NA,NA,NA,NA,NA,NA,NA,TRUE,2,1.796,312.2338,315.2283,0,73,73,62,1,50,35,NA,NA,NA,NA,NA,1,74,"binary"
"056F472A049441DA8289C03C8EC68EC7",1,"01990aa4-08f0-7c16-9bea-7aae3c448d4e","01990a83-7673-7c0c-a792-bbd8fbbaf673","2025-09-02_08h36.15.140",NA,NA,318.5785,318.5787,318.5788,318.9267,NA,NA,NA,NA,NA,NA,NA,TRUE,2,1.447,315.5798,318.5784,0,74,74,82,1,95,47,NA,NA,NA,NA,NA,1,75,"binary"
"056F472A049441DA8289C03C8EC68EC7",1,"01990aa4-08f0-7c16-9bea-7aae3c448d4e","01990a83-7673-7c0c-a792-bbd8fbbaf673","2025-09-02_08h36.15.140",NA,NA,321.9255,321.9255,321.9255,322.2766,NA,NA,NA,NA,NA,NA,NA,TRUE,1,1.2606,318.9291,321.9253,0,75,75,20,1,14,28,NA,NA,NA,NA,NA,1,76,"binary"
"056F472A049441DA8289C03C8EC68EC7",1,"01990aa4-08f0-7c16-9bea-7aae3c448d4e","01990a83-7673-7c0c-a792-bbd8fbbaf673","2025-09-02_08h36.15.140",NA,NA,325.2754,325.2755,325.2755,325.625,NA,NA,NA,NA,NA,NA,NA,TRUE,1,1.2992,322.2792,325.2751,0,76,76,19,1,14,26,NA,NA,NA,NA,NA,1,77,"binary"
"056F472A049441DA8289C03C8EC68EC7",1,"01990aa4-08f0-7c16-9bea-7aae3c448d4e","01990a83-7673-7c0c-a792-bbd8fbbaf673","2025-09-02_08h36.15.140",NA,NA,328.6238,328.6238,328.6245,328.9734,NA,NA,NA,NA,NA,NA,NA,TRUE,2,0.898,325.6279,328.6235,0,77,77,70,1,60,47,NA,NA,NA,NA,NA,1,78,"binary"
"056F472A049441DA8289C03C8EC68EC7",1,"01990aa4-08f0-7c16-9bea-7aae3c448d4e","01990a83-7673-7c0c-a792-bbd8fbbaf673","2025-09-02_08h36.15.140",NA,NA,331.9728,331.9729,331.9729,332.3216,NA,NA,NA,NA,NA,NA,NA,TRUE,1,1.1012,328.9757,331.9726,0,78,78,95,1,150,54,NA,NA,NA,NA,NA,1,79,"binary"
"056F472A049441DA8289C03C8EC68EC7",1,"01990aa4-08f0-7c16-9bea-7aae3c448d4e","01990a83-7673-7c0c-a792-bbd8fbbaf673","2025-09-02_08h36.15.140",NA,NA,335.3206,335.3207,335.3207,335.6702,NA,NA,NA,NA,NA,NA,NA,TRUE,2,1.0436,332.3246,335.3204,0,79,79,75,1,90,40,NA,NA,NA,NA,NA,1,80,"binary"
"056F472A049441DA8289C03C8EC68EC7",1,"01990aa4-08f0-7c16-9bea-7aae3c448d4e","01990a83-7673-7c0c-a792-bbd8fbbaf673","2025-09-02_08h36.15.140",NA,NA,338.6691,338.6693,338.6694,339.0178,NA,NA,NA,NA,NA,NA,NA,TRUE,1,0.8046,335.6728,338.6688,0,80,80,12,1,12,25,NA,NA,NA,NA,NA,1,81,"binary"
"056F472A049441DA8289C03C8EC68EC7",1,"01990aa4-08f0-7c16-9bea-7aae3c448d4e","01990a83-7673-7c0c-a792-bbd8fbbaf673","2025-09-02_08h36.15.140",NA,NA,342.0175,342.0175,342.0176,342.3664,NA,NA,NA,NA,NA,NA,NA,TRUE,2,0.8432,339.0204,342.0173,0,81,81,41,1,28,46,NA,NA,NA,NA,NA,1,82,"binary"
"056F472A049441DA8289C03C8EC68EC7",1,"01990aa4-08f0-7c16-9bea-7aae3c448d4e","01990a83-7673-7c0c-a792-bbd8fbbaf673","2025-09-02_08h36.15.140",NA,NA,345.3817,345.3818,345.3818,345.7312,NA,NA,NA,NA,NA,NA,NA,TRUE,1,1.06,342.3684,345.3816,0,82,82,92,1,150,35,NA,NA,NA,NA,NA,1,83,"binary"
"056F472A049441DA8289C03C8EC68EC7",1,"01990aa4-08f0-7c16-9bea-7aae3c448d4e","01990a83-7673-7c0c-a792-bbd8fbbaf673","2025-09-02_08h36.15.140",NA,NA,348.7311,348.7312,348.7312,349.0805,NA,NA,NA,NA,NA,NA,NA,TRUE,2,1.4274,345.7343,348.7309,0,83,83,3,1,7,30,NA,NA,NA,NA,NA,1,84,"binary"
"056F472A049441DA8289C03C8EC68EC7",1,"01990aa4-08f0-7c16-9bea-7aae3c448d4e","01990a83-7673-7c0c-a792-bbd8fbbaf673","2025-09-02_08h36.15.140",NA,NA,352.0784,352.0784,352.0785,352.4294,NA,NA,NA,NA,NA,NA,NA,TRUE,2,1.0464,349.0835,352.0782,0,84,84,63,1,50,40,NA,NA,NA,NA,NA,1,85,"binary"
"056F472A049441DA8289C03C8EC68EC7",1,"01990aa4-08f0-7c16-9bea-7aae3c448d4e","01990a83-7673-7c0c-a792-bbd8fbbaf673","2025-09-02_08h36.15.140",NA,NA,355.4281,355.4282,355.4283,355.7775,NA,NA,NA,NA,NA,NA,NA,TRUE,1,1.774,352.432,355.4278,0,85,85,38,1,28,32,NA,NA,NA,NA,NA,1,86,"binary"
"056F472A049441DA8289C03C8EC68EC7",1,"01990aa4-08f0-7c16-9bea-7aae3c448d4e","01990a83-7673-7c0c-a792-bbd8fbbaf673","2025-09-02_08h36.15.140",NA,NA,358.7766,358.7767,358.7767,359.1252,NA,NA,NA,NA,NA,NA,NA,TRUE,1,1.2082,355.7798,358.7764,0,86,86,101,1,180,54,NA,NA,NA,NA,NA,1,87,"binary"
"056F472A049441DA8289C03C8EC68EC7",1,"01990aa4-08f0-7c16-9bea-7aae3c448d4e","01990a83-7673-7c0c-a792-bbd8fbbaf673","2025-09-02_08h36.15.140",NA,NA,362.1244,362.1245,362.1245,362.4743,NA,NA,NA,NA,NA,NA,NA,TRUE,1,0.8579,359.1268,362.1242,0,87,87,25,1,21,27,NA,NA,NA,NA,NA,1,88,"binary"
"056F472A049441DA8289C03C8EC68EC7",1,"01990aa4-08f0-7c16-9bea-7aae3c448d4e","01990a83-7673-7c0c-a792-bbd8fbbaf673","2025-09-02_08h36.15.140",NA,NA,365.4735,365.4736,365.4736,365.8227,NA,NA,NA,NA,NA,NA,NA,TRUE,1,1.1872,362.477,365.4733,0,88,88,80,1,95,35,NA,NA,NA,NA,NA,1,89,"binary"
"056F472A049441DA8289C03C8EC68EC7",1,"01990aa4-08f0-7c16-9bea-7aae3c448d4e","01990a83-7673-7c0c-a792-bbd8fbbaf673","2025-09-02_08h36.15.140",NA,NA,368.8214,368.8216,368.8216,369.1713,NA,NA,NA,NA,NA,NA,NA,TRUE,2,0.9413,365.8251,368.8212,0,89,89,77,1,90,54,NA,NA,NA,NA,NA,1,90,"binary"
"056F472A049441DA8289C03C8EC68EC7",1,"01990aa4-08f0-7c16-9bea-7aae3c448d4e","01990a83-7673-7c0c-a792-bbd8fbbaf673","2025-09-02_08h36.15.140",NA,NA,372.1699,372.1699,372.1699,372.5195,NA,NA,NA,NA,NA,NA,NA,TRUE,1,1.8174,369.1742,372.1697,0,90,90,54,1,45,26,NA,NA,NA,NA,NA,1,91,"binary"
"056F472A049441DA8289C03C8EC68EC7",1,"01990aa4-08f0-7c16-9bea-7aae3c448d4e","01990a83-7673-7c0c-a792-bbd8fbbaf673","2025-09-02_08h36.15.140",NA,NA,375.5185,375.5185,375.5185,375.868,NA,NA,NA,NA,NA,NA,NA,TRUE,1,1.2364,372.522,375.5183,0,91,91,78,1,95,31,NA,NA,NA,NA,NA,1,92,"binary"
"056F472A049441DA8289C03C8EC68EC7",1,"01990aa4-08f0-7c16-9bea-7aae3c448d4e","01990a83-7673-7c0c-a792-bbd8fbbaf673","2025-09-02_08h36.15.140",NA,NA,378.8826,378.8831,378.8833,379.2322,NA,NA,NA,NA,NA,NA,NA,TRUE,1,0.8427,375.8704,378.8824,0,92,92,32,1,25,31,NA,NA,NA,NA,NA,1,93,"binary"
"056F472A049441DA8289C03C8EC68EC7",1,"01990aa4-08f0-7c16-9bea-7aae3c448d4e","01990a83-7673-7c0c-a792-bbd8fbbaf673","2025-09-02_08h36.15.140",NA,NA,382.2321,382.2323,382.2323,382.5816,NA,NA,NA,NA,NA,NA,NA,TRUE,1,0.8599,379.2349,382.2318,0,93,93,85,1,100,31,NA,NA,NA,NA,NA,1,94,"binary"
"056F472A049441DA8289C03C8EC68EC7",1,"01990aa4-08f0-7c16-9bea-7aae3c448d4e","01990a83-7673-7c0c-a792-bbd8fbbaf673","2025-09-02_08h36.15.140",NA,NA,385.5796,385.5802,385.5802,385.9283,NA,NA,NA,NA,NA,NA,NA,TRUE,1,0.6929,382.5842,385.5795,0,94,94,102,1,200,26,NA,NA,NA,NA,NA,1,95,"binary"
"056F472A049441DA8289C03C8EC68EC7",1,"01990aa4-08f0-7c16-9bea-7aae3c448d4e","01990a83-7673-7c0c-a792-bbd8fbbaf673","2025-09-02_08h36.15.140",NA,NA,388.9288,388.929,388.9291,389.2784,NA,NA,NA,NA,NA,NA,NA,TRUE,1,0.7401,385.9311,388.9286,0,95,95,24,1,21,26,NA,NA,NA,NA,NA,1,96,"binary"
"056F472A049441DA8289C03C8EC68EC7",1,"01990aa4-08f0-7c16-9bea-7aae3c448d4e","01990a83-7673-7c0c-a792-bbd8fbbaf673","2025-09-02_08h36.15.140",NA,NA,392.2774,392.2774,392.2775,392.6273,NA,NA,NA,NA,NA,NA,NA,TRUE,2,0.6794,389.2809,392.2772,0,96,96,34,1,25,35,NA,NA,NA,NA,NA,1,97,"binary"
"056F472A049441DA8289C03C8EC68EC7",1,"01990aa4-08f0-7c16-9bea-7aae3c448d4e","01990a83-7673-7c0c-a792-bbd8fbbaf673","2025-09-02_08h36.15.140",NA,NA,395.6258,395.626,395.626,395.9742,NA,NA,NA,NA,NA,NA,NA,TRUE,1,1.1769,392.6296,395.6256,0,97,97,28,1,21,32,NA,NA,NA,NA,NA,1,98,"binary"
"056F472A049441DA8289C03C8EC68EC7",1,"01990aa4-08f0-7c16-9bea-7aae3c448d4e","01990a83-7673-7c0c-a792-bbd8fbbaf673","2025-09-02_08h36.15.140",NA,NA,398.9741,398.9741,398.9742,399.3236,NA,NA,NA,NA,NA,NA,NA,TRUE,2,2.2394,395.9768,398.9739,0,98,98,49,1,40,33,NA,NA,NA,NA,NA,1,99,"binary"
"056F472A049441DA8289C03C8EC68EC7",1,"01990aa4-08f0-7c16-9bea-7aae3c448d4e","01990a83-7673-7c0c-a792-bbd8fbbaf673","2025-09-02_08h36.15.140",NA,NA,402.3226,402.3226,402.3226,402.6721,NA,NA,NA,NA,NA,NA,NA,TRUE,1,1.2336,399.3264,402.3223,0,99,99,90,1,150,31,NA,NA,NA,NA,NA,1,100,"binary"
"056F472A049441DA8289C03C8EC68EC7",1,"01990aa4-08f0-7c16-9bea-7aae3c448d4e","01990a83-7673-7c0c-a792-bbd8fbbaf673","2025-09-02_08h36.15.140",NA,NA,405.671,405.671,405.671,406.0201,NA,NA,NA,NA,NA,NA,NA,TRUE,1,0.982,402.6746,405.6707,0,100,100,97,1,180,31,NA,NA,NA,NA,NA,1,101,"binary"
"056F472A049441DA8289C03C8EC68EC7",1,"01990aa4-08f0-7c16-9bea-7aae3c448d4e","01990a83-7673-7c0c-a792-bbd8fbbaf673","2025-09-02_08h36.15.140",NA,NA,409.0193,409.0194,409.0194,409.3686,NA,NA,NA,NA,NA,NA,NA,TRUE,1,1.0374,406.0227,409.0191,0,101,101,84,1,100,26,NA,NA,NA,NA,NA,1,102,"binary"
"056F472A049441DA8289C03C8EC68EC7",1,"01990aa4-08f0-7c16-9bea-7aae3c448d4e","01990a83-7673-7c0c-a792-bbd8fbbaf673","2025-09-02_08h36.15.140",NA,NA,412.367,412.367,412.367,412.7165,NA,NA,NA,NA,NA,NA,NA,TRUE,2,0.895,409.371,412.3667,0,102,102,83,1,95,54,NA,NA,NA,NA,NA,1,103,"binary"
"056F472A049441DA8289C03C8EC68EC7",1,"01990aa4-08f0-7c16-9bea-7aae3c448d4e","01990a83-7673-7c0c-a792-bbd8fbbaf673","2025-09-02_08h36.15.140",NA,NA,415.732,415.7322,415.7323,416.0826,NA,NA,NA,NA,NA,NA,NA,TRUE,2,0.8522,412.7192,415.7314,0,103,103,65,1,50,54,NA,NA,NA,NA,NA,1,104,"binary"
"056F472A049441DA8289C03C8EC68EC7",1,"01990aa4-08f0-7c16-9bea-7aae3c448d4e","01990a83-7673-7c0c-a792-bbd8fbbaf673","2025-09-02_08h36.15.140",NA,NA,419.0815,419.0816,419.0816,419.4303,NA,NA,NA,NA,NA,NA,NA,TRUE,1,2.4263,416.0852,419.0811,0,104,104,27,1,21,30,NA,NA,NA,NA,NA,1,105,"binary"
"056F472A049441DA8289C03C8EC68EC7",1,"01990aa4-08f0-7c16-9bea-7aae3c448d4e","01990a83-7673-7c0c-a792-bbd8fbbaf673","2025-09-02_08h36.15.140",NA,NA,422.4298,422.4299,422.4299,422.779,NA,NA,NA,NA,NA,NA,NA,TRUE,2,1.0693,419.4324,422.4296,0,105,105,11,1,10,32,NA,NA,NA,NA,NA,1,106,"binary"
"056F472A049441DA8289C03C8EC68EC7",1,"01990aa4-08f0-7c16-9bea-7aae3c448d4e","01990a83-7673-7c0c-a792-bbd8fbbaf673","2025-09-02_08h36.15.140",NA,NA,425.7779,425.778,425.778,426.1268,NA,NA,NA,NA,NA,NA,NA,TRUE,2,2.1929,422.7824,425.7778,0,106,106,55,1,45,29,NA,NA,NA,NA,NA,1,107,"binary"
"056F472A049441DA8289C03C8EC68EC7",1,"01990aa4-08f0-7c16-9bea-7aae3c448d4e","01990a83-7673-7c0c-a792-bbd8fbbaf673","2025-09-02_08h36.15.140",NA,NA,429.1267,429.1267,429.1269,429.477,NA,NA,NA,NA,NA,NA,NA,TRUE,2,0.9652,426.1295,429.1264,0,107,107,5,1,7,35,NA,NA,NA,NA,NA,1,108,"binary"
"056F472A049441DA8289C03C8EC68EC7",1,"01990aa4-08f0-7c16-9bea-7aae3c448d4e","01990a83-7673-7c0c-a792-bbd8fbbaf673","2025-09-02_08h36.15.140",NA,NA,437.7391,437.7393,437.7394,438.0888,NA,NA,NA,NA,NA,NA,NA,TRUE,2,1.6274,434.7578,437.739,NA,NA,NA,NA,NA,50,54,0,0,0,65,1,2,1,"binary"
"056F472A049441DA8289C03C8EC68EC7",1,"01990aa4-08f0-7c16-9bea-7aae3c448d4e","01990a83-7673-7c0c-a792-bbd8fbbaf673","2025-09-02_08h36.15.140",NA,NA,441.087,441.087,441.087,441.4372,NA,NA,NA,NA,NA,NA,NA,TRUE,1,1.2109,438.0917,441.0867,NA,NA,NA,NA,NA,7,25,0,1,1,0,1,2,2,"binary"
"056F472A049441DA8289C03C8EC68EC7",1,"01990aa4-08f0-7c16-9bea-7aae3c448d4e","01990a83-7673-7c0c-a792-bbd8fbbaf673","2025-09-02_08h36.15.140",NA,NA,444.4354,444.4354,444.4354,444.7854,NA,NA,NA,NA,NA,NA,NA,TRUE,2,1.0918,441.4395,444.4352,NA,NA,NA,NA,NA,14,32,0,2,2,21,1,2,3,"binary"
"056F472A049441DA8289C03C8EC68EC7",1,"01990aa4-08f0-7c16-9bea-7aae3c448d4e","01990a83-7673-7c0c-a792-bbd8fbbaf673","2025-09-02_08h36.15.140",NA,NA,447.7837,447.7838,447.784,448.1338,NA,NA,NA,NA,NA,NA,NA,TRUE,1,1.1702,444.7878,447.7835,NA,NA,NA,NA,NA,180,46,0,3,3,100,1,2,4,"binary"
"056F472A049441DA8289C03C8EC68EC7",1,"01990aa4-08f0-7c16-9bea-7aae3c448d4e","01990a83-7673-7c0c-a792-bbd8fbbaf673","2025-09-02_08h36.15.140",NA,NA,451.1325,451.1327,451.1327,451.4825,NA,NA,NA,NA,NA,NA,NA,TRUE,1,1.616,448.1358,451.1324,NA,NA,NA,NA,NA,21,29,0,4,4,26,1,2,5,"binary"
"056F472A049441DA8289C03C8EC68EC7",1,"01990aa4-08f0-7c16-9bea-7aae3c448d4e","01990a83-7673-7c0c-a792-bbd8fbbaf673","2025-09-02_08h36.15.140",NA,NA,454.4805,454.4805,454.4809,454.8302,NA,NA,NA,NA,NA,NA,NA,TRUE,1,1.8047,451.4849,454.4804,NA,NA,NA,NA,NA,90,33,0,5,5,74,1,2,6,"binary"
"056F472A049441DA8289C03C8EC68EC7",1,"01990aa4-08f0-7c16-9bea-7aae3c448d4e","01990a83-7673-7c0c-a792-bbd8fbbaf673","2025-09-02_08h36.15.140",NA,NA,457.8295,457.8297,457.8297,458.1791,NA,NA,NA,NA,NA,NA,NA,TRUE,2,1.4582,454.8322,457.8293,NA,NA,NA,NA,NA,30,32,0,6,6,46,1,2,7,"binary"
"056F472A049441DA8289C03C8EC68EC7",1,"01990aa4-08f0-7c16-9bea-7aae3c448d4e","01990a83-7673-7c0c-a792-bbd8fbbaf673","2025-09-02_08h36.15.140",NA,NA,461.1944,461.1945,461.1946,461.5445,NA,NA,NA,NA,NA,NA,NA,TRUE,2,0.9364,458.1817,461.1942,NA,NA,NA,NA,NA,12,33,0,7,7,16,1,2,8,"binary"
"056F472A049441DA8289C03C8EC68EC7",1,"01990aa4-08f0-7c16-9bea-7aae3c448d4e","01990a83-7673-7c0c-a792-bbd8fbbaf673","2025-09-02_08h36.15.140",NA,NA,464.5422,464.5423,464.5423,464.8931,NA,NA,NA,NA,NA,NA,NA,TRUE,2,0.6131,461.5472,464.5421,NA,NA,NA,NA,NA,40,35,0,8,8,50,1,2,9,"binary"
"056F472A049441DA8289C03C8EC68EC7",1,"01990aa4-08f0-7c16-9bea-7aae3c448d4e","01990a83-7673-7c0c-a792-bbd8fbbaf673","2025-09-02_08h36.15.140",NA,NA,467.8906,467.8907,467.8907,468.2408,NA,NA,NA,NA,NA,NA,NA,TRUE,1,1.3929,464.8957,467.8904,NA,NA,NA,NA,NA,95,33,0,9,9,79,1,2,10,"binary"
"056F472A049441DA8289C03C8EC68EC7",1,"01990aa4-08f0-7c16-9bea-7aae3c448d4e","01990a83-7673-7c0c-a792-bbd8fbbaf673","2025-09-02_08h36.15.140",NA,NA,471.2401,471.2401,471.2401,471.5887,NA,NA,NA,NA,NA,NA,NA,TRUE,2,1.15,468.2434,471.2399,NA,NA,NA,NA,NA,12,31,0,10,10,15,1,2,11,"binary"
"056F472A049441DA8289C03C8EC68EC7",1,"01990aa4-08f0-7c16-9bea-7aae3c448d4e","01990a83-7673-7c0c-a792-bbd8fbbaf673","2025-09-02_08h36.15.140",NA,NA,474.5879,474.588,474.588,474.9373,NA,NA,NA,NA,NA,NA,NA,TRUE,2,1.4561,471.5911,474.5877,NA,NA,NA,NA,NA,50,35,0,11,11,62,1,2,12,"binary"
"056F472A049441DA8289C03C8EC68EC7",1,"01990aa4-08f0-7c16-9bea-7aae3c448d4e","01990a83-7673-7c0c-a792-bbd8fbbaf673","2025-09-02_08h36.15.140",NA,NA,477.9366,477.9367,477.9367,478.2852,NA,NA,NA,NA,NA,NA,NA,TRUE,1,0.8529,474.94,477.936,NA,NA,NA,NA,NA,30,26,0,12,12,42,1,2,13,"binary"
"056F472A049441DA8289C03C8EC68EC7",1,"01990aa4-08f0-7c16-9bea-7aae3c448d4e","01990a83-7673-7c0c-a792-bbd8fbbaf673","2025-09-02_08h36.15.140",NA,NA,481.2847,481.2847,481.2847,481.6341,NA,NA,NA,NA,NA,NA,NA,TRUE,2,1.8167,478.2879,481.2845,NA,NA,NA,NA,NA,90,30,0,13,13,73,1,2,14,"binary"
"056F472A049441DA8289C03C8EC68EC7",1,"01990aa4-08f0-7c16-9bea-7aae3c448d4e","01990a83-7673-7c0c-a792-bbd8fbbaf673","2025-09-02_08h36.15.140",NA,NA,484.6338,484.634,484.634,484.9826,NA,NA,NA,NA,NA,NA,NA,TRUE,1,1.3907,481.6369,484.6336,NA,NA,NA,NA,NA,200,35,0,14,14,104,1,2,15,"binary"
"056F472A049441DA8289C03C8EC68EC7",1,"01990aa4-08f0-7c16-9bea-7aae3c448d4e","01990a83-7673-7c0c-a792-bbd8fbbaf673","2025-09-02_08h36.15.140",NA,NA,487.9813,487.9813,487.9814,488.3312,NA,NA,NA,NA,NA,NA,NA,TRUE,1,1.1878,484.9848,487.981,NA,NA,NA,NA,NA,45,26,0,15,15,54,1,2,16,"binary"
"056F472A049441DA8289C03C8EC68EC7",1,"01990aa4-08f0-7c16-9bea-7aae3c448d4e","01990a83-7673-7c0c-a792-bbd8fbbaf673","2025-09-02_08h36.15.140",NA,NA,491.3306,491.3307,491.3307,491.6802,NA,NA,NA,NA,NA,NA,NA,TRUE,1,1.1885,488.3337,491.3304,NA,NA,NA,NA,NA,10,27,0,16,16,8,1,2,17,"binary"
"056F472A049441DA8289C03C8EC68EC7",1,"01990aa4-08f0-7c16-9bea-7aae3c448d4e","01990a83-7673-7c0c-a792-bbd8fbbaf673","2025-09-02_08h36.15.140",NA,NA,494.6792,494.6795,494.6795,495.0287,NA,NA,NA,NA,NA,NA,NA,TRUE,1,1.0225,491.6831,494.6789,NA,NA,NA,NA,NA,200,47,0,17,17,106,1,2,18,"binary"
"056F472A049441DA8289C03C8EC68EC7",1,"01990aa4-08f0-7c16-9bea-7aae3c448d4e","01990a83-7673-7c0c-a792-bbd8fbbaf673","2025-09-02_08h36.15.140",NA,NA,498.0445,498.0446,498.0446,498.3938,NA,NA,NA,NA,NA,NA,NA,TRUE,2,1.1938,495.0311,498.0443,NA,NA,NA,NA,NA,40,40,0,18,18,51,1,2,19,"binary"
"056F472A049441DA8289C03C8EC68EC7",1,"01990aa4-08f0-7c16-9bea-7aae3c448d4e","01990a83-7673-7c0c-a792-bbd8fbbaf673","2025-09-02_08h36.15.140",NA,NA,501.3926,501.3928,501.3929,501.7423,NA,NA,NA,NA,NA,NA,NA,TRUE,2,0.898,498.3961,501.3924,NA,NA,NA,NA,NA,25,35,0,19,19,34,1,2,20,"binary"
"056F472A049441DA8289C03C8EC68EC7",1,"01990aa4-08f0-7c16-9bea-7aae3c448d4e","01990a83-7673-7c0c-a792-bbd8fbbaf673","2025-09-02_08h36.15.140",NA,NA,504.741,504.7412,504.7413,505.0904,NA,NA,NA,NA,NA,NA,NA,TRUE,2,0.8447,501.7448,504.7408,NA,NA,NA,NA,NA,60,40,0,20,20,69,1,2,21,"binary"
"056F472A049441DA8289C03C8EC68EC7",1,"01990aa4-08f0-7c16-9bea-7aae3c448d4e","01990a83-7673-7c0c-a792-bbd8fbbaf673","2025-09-02_08h36.15.140",NA,NA,508.0895,508.0896,508.0896,508.4391,NA,NA,NA,NA,NA,NA,NA,TRUE,1,2.0464,505.0931,508.0892,NA,NA,NA,NA,NA,180,39,0,21,21,99,1,2,22,"binary"
"056F472A049441DA8289C03C8EC68EC7",1,"01990aa4-08f0-7c16-9bea-7aae3c448d4e","01990a83-7673-7c0c-a792-bbd8fbbaf673","2025-09-02_08h36.15.140",NA,NA,511.4378,511.4378,511.4378,511.7872,NA,NA,NA,NA,NA,NA,NA,TRUE,2,1.2961,508.4415,511.4375,NA,NA,NA,NA,NA,28,35,0,22,22,39,1,2,23,"binary"
"056F472A049441DA8289C03C8EC68EC7",1,"01990aa4-08f0-7c16-9bea-7aae3c448d4e","01990a83-7673-7c0c-a792-bbd8fbbaf673","2025-09-02_08h36.15.140",NA,NA,514.7861,514.7862,514.7862,515.135,NA,NA,NA,NA,NA,NA,NA,TRUE,1,0.9417,511.7894,514.7857,NA,NA,NA,NA,NA,50,27,0,23,23,60,1,2,24,"binary"
"056F472A049441DA8289C03C8EC68EC7",1,"01990aa4-08f0-7c16-9bea-7aae3c448d4e","01990a83-7673-7c0c-a792-bbd8fbbaf673","2025-09-02_08h36.15.140",NA,NA,518.1336,518.1341,518.1341,518.4842,NA,NA,NA,NA,NA,NA,NA,TRUE,1,1.0685,515.1381,518.1335,NA,NA,NA,NA,NA,90,26,0,24,24,72,1,2,25,"binary"
"056F472A049441DA8289C03C8EC68EC7",1,"01990aa4-08f0-7c16-9bea-7aae3c448d4e","01990a83-7673-7c0c-a792-bbd8fbbaf673","2025-09-02_08h36.15.140",NA,NA,521.4832,521.4832,521.4833,521.8327,NA,NA,NA,NA,NA,NA,NA,TRUE,2,1.4006,518.4866,521.4829,NA,NA,NA,NA,NA,95,47,0,25,25,82,1,2,26,"binary"
"056F472A049441DA8289C03C8EC68EC7",1,"01990aa4-08f0-7c16-9bea-7aae3c448d4e","01990a83-7673-7c0c-a792-bbd8fbbaf673","2025-09-02_08h36.15.140",NA,NA,524.8304,524.8309,524.8309,525.1804,NA,NA,NA,NA,NA,NA,NA,TRUE,1,1.1198,521.8361,524.8302,NA,NA,NA,NA,NA,60,29,0,26,26,66,1,2,27,"binary"
"056F472A049441DA8289C03C8EC68EC7",1,"01990aa4-08f0-7c16-9bea-7aae3c448d4e","01990a83-7673-7c0c-a792-bbd8fbbaf673","2025-09-02_08h36.15.140",NA,NA,528.1801,528.1802,528.1803,528.5296,NA,NA,NA,NA,NA,NA,NA,TRUE,1,0.706,525.1827,528.1798,NA,NA,NA,NA,NA,28,28,0,27,27,37,1,2,28,"binary"
"056F472A049441DA8289C03C8EC68EC7",1,"01990aa4-08f0-7c16-9bea-7aae3c448d4e","01990a83-7673-7c0c-a792-bbd8fbbaf673","2025-09-02_08h36.15.140",NA,NA,531.5442,531.5442,531.5442,531.8944,NA,NA,NA,NA,NA,NA,NA,TRUE,2,1.1684,528.5321,531.544,NA,NA,NA,NA,NA,40,33,0,28,28,49,1,2,29,"binary"
"056F472A049441DA8289C03C8EC68EC7",1,"01990aa4-08f0-7c16-9bea-7aae3c448d4e","01990a83-7673-7c0c-a792-bbd8fbbaf673","2025-09-02_08h36.15.140",NA,NA,534.8918,534.8919,534.8919,535.2429,NA,NA,NA,NA,NA,NA,NA,TRUE,1,1.1152,531.8972,534.8916,NA,NA,NA,NA,NA,95,31,0,29,29,78,1,2,30,"binary"
"056F472A049441DA8289C03C8EC68EC7",1,"01990aa4-08f0-7c16-9bea-7aae3c448d4e","01990a83-7673-7c0c-a792-bbd8fbbaf673","2025-09-02_08h36.15.140",NA,NA,538.2411,538.2412,538.2412,538.5914,NA,NA,NA,NA,NA,NA,NA,TRUE,2,1.1102,535.2459,538.2409,NA,NA,NA,NA,NA,28,39,0,30,30,40,1,2,31,"binary"
"056F472A049441DA8289C03C8EC68EC7",1,"01990aa4-08f0-7c16-9bea-7aae3c448d4e","01990a83-7673-7c0c-a792-bbd8fbbaf673","2025-09-02_08h36.15.140",NA,NA,541.5905,541.5905,541.5905,541.939,NA,NA,NA,NA,NA,NA,NA,TRUE,2,1.381,538.594,541.5903,NA,NA,NA,NA,NA,25,33,0,31,31,33,1,2,32,"binary"
"056F472A049441DA8289C03C8EC68EC7",1,"01990aa4-08f0-7c16-9bea-7aae3c448d4e","01990a83-7673-7c0c-a792-bbd8fbbaf673","2025-09-02_08h36.15.140",NA,NA,544.9382,544.9383,544.9383,545.2876,NA,NA,NA,NA,NA,NA,NA,TRUE,1,1.777,541.942,544.938,NA,NA,NA,NA,NA,100,46,0,32,32,88,1,2,33,"binary"
"056F472A049441DA8289C03C8EC68EC7",1,"01990aa4-08f0-7c16-9bea-7aae3c448d4e","01990a83-7673-7c0c-a792-bbd8fbbaf673","2025-09-02_08h36.15.140",NA,NA,548.2863,548.2863,548.2864,548.6366,NA,NA,NA,NA,NA,NA,NA,TRUE,2,1.0684,545.2898,548.2861,NA,NA,NA,NA,NA,10,32,0,33,33,11,1,2,34,"binary"
"056F472A049441DA8289C03C8EC68EC7",1,"01990aa4-08f0-7c16-9bea-7aae3c448d4e","01990a83-7673-7c0c-a792-bbd8fbbaf673","2025-09-02_08h36.15.140",NA,NA,551.6346,551.6346,551.6346,551.9839,NA,NA,NA,NA,NA,NA,NA,TRUE,2,1.3079,548.639,551.6345,NA,NA,NA,NA,NA,100,39,0,34,34,87,1,2,35,"binary"
"056F472A049441DA8289C03C8EC68EC7",1,"01990aa4-08f0-7c16-9bea-7aae3c448d4e","01990a83-7673-7c0c-a792-bbd8fbbaf673","2025-09-02_08h36.15.140",NA,NA,554.9827,554.9828,554.9828,555.3333,NA,NA,NA,NA,NA,NA,NA,TRUE,2,1.103,551.9866,554.9825,NA,NA,NA,NA,NA,7,35,0,35,35,5,1,2,36,"binary"
"056F472A049441DA8289C03C8EC68EC7",1,"01990aa4-08f0-7c16-9bea-7aae3c448d4e","01990a83-7673-7c0c-a792-bbd8fbbaf673","2025-09-02_08h36.15.140",NA,NA,558.3337,558.3337,558.3337,558.6807,NA,NA,NA,NA,NA,NA,NA,TRUE,1,1.5717,555.3357,558.333,NA,NA,NA,NA,NA,25,31,0,36,36,32,1,2,37,"binary"
"056F472A049441DA8289C03C8EC68EC7",1,"01990aa4-08f0-7c16-9bea-7aae3c448d4e","01990a83-7673-7c0c-a792-bbd8fbbaf673","2025-09-02_08h36.15.140",NA,NA,561.6804,561.6805,561.6805,562.0306,NA,NA,NA,NA,NA,NA,NA,TRUE,2,1.4941,558.6826,561.6803,NA,NA,NA,NA,NA,90,46,0,37,37,76,1,2,38,"binary"
"056F472A049441DA8289C03C8EC68EC7",1,"01990aa4-08f0-7c16-9bea-7aae3c448d4e","01990a83-7673-7c0c-a792-bbd8fbbaf673","2025-09-02_08h36.15.140",NA,NA,565.0286,565.0286,565.0286,565.3785,NA,NA,NA,NA,NA,NA,NA,TRUE,2,0.9043,562.0332,565.0285,NA,NA,NA,NA,NA,100,54,0,38,38,89,1,2,39,"binary"
"056F472A049441DA8289C03C8EC68EC7",1,"01990aa4-08f0-7c16-9bea-7aae3c448d4e","01990a83-7673-7c0c-a792-bbd8fbbaf673","2025-09-02_08h36.15.140",NA,NA,568.395,568.3952,568.3952,568.7439,NA,NA,NA,NA,NA,NA,NA,TRUE,2,1.2885,565.3812,568.3946,NA,NA,NA,NA,NA,45,46,0,39,39,59,1,2,40,"binary"
"056F472A049441DA8289C03C8EC68EC7",1,"01990aa4-08f0-7c16-9bea-7aae3c448d4e","01990a83-7673-7c0c-a792-bbd8fbbaf673","2025-09-02_08h36.15.140",NA,NA,571.7422,571.7422,571.7422,572.0917,NA,NA,NA,NA,NA,NA,NA,TRUE,1,0.7456,568.7463,571.742,NA,NA,NA,NA,NA,14,25,0,40,40,18,1,2,41,"binary"
"056F472A049441DA8289C03C8EC68EC7",1,"01990aa4-08f0-7c16-9bea-7aae3c448d4e","01990a83-7673-7c0c-a792-bbd8fbbaf673","2025-09-02_08h36.15.140",NA,NA,574.7983,574.7983,574.7983,575.439,NA,NA,NA,NA,NA,NA,NA,TRUE,1,0.7265,572.0947,574.7981,NA,NA,NA,NA,NA,28,26,0,41,41,36,1,2,42,"binary"
"056F472A049441DA8289C03C8EC68EC7",1,"01990aa4-08f0-7c16-9bea-7aae3c448d4e","01990a83-7673-7c0c-a792-bbd8fbbaf673","2025-09-02_08h36.15.140",NA,NA,578.4424,578.4425,578.4426,578.7934,NA,NA,NA,NA,NA,NA,NA,TRUE,1,1.965,575.4406,578.4423,NA,NA,NA,NA,NA,28,32,0,42,42,38,1,2,43,"binary"
"056F472A049441DA8289C03C8EC68EC7",1,"01990aa4-08f0-7c16-9bea-7aae3c448d4e","01990a83-7673-7c0c-a792-bbd8fbbaf673","2025-09-02_08h36.15.140",NA,NA,581.7917,581.7918,581.7918,582.1419,NA,NA,NA,NA,NA,NA,NA,TRUE,2,1.2145,578.7949,581.7913,NA,NA,NA,NA,NA,60,54,0,43,43,71,1,2,44,"binary"
"056F472A049441DA8289C03C8EC68EC7",1,"01990aa4-08f0-7c16-9bea-7aae3c448d4e","01990a83-7673-7c0c-a792-bbd8fbbaf673","2025-09-02_08h36.15.140",NA,NA,585.1408,585.1408,585.1408,585.4897,NA,NA,NA,NA,NA,NA,NA,TRUE,2,1.065,582.1438,585.1407,NA,NA,NA,NA,NA,95,54,0,44,44,83,1,2,45,"binary"
"056F472A049441DA8289C03C8EC68EC7",1,"01990aa4-08f0-7c16-9bea-7aae3c448d4e","01990a83-7673-7c0c-a792-bbd8fbbaf673","2025-09-02_08h36.15.140",NA,NA,588.4888,588.4889,588.4889,588.8368,NA,NA,NA,NA,NA,NA,NA,TRUE,2,0.9989,585.4914,588.4886,NA,NA,NA,NA,NA,7,30,0,45,45,3,1,2,46,"binary"
"056F472A049441DA8289C03C8EC68EC7",1,"01990aa4-08f0-7c16-9bea-7aae3c448d4e","01990a83-7673-7c0c-a792-bbd8fbbaf673","2025-09-02_08h36.15.140",NA,NA,591.8367,591.8367,591.8367,592.1854,NA,NA,NA,NA,NA,NA,NA,TRUE,1,1.1322,588.8385,591.8365,NA,NA,NA,NA,NA,21,27,0,46,46,25,1,2,47,"binary"
"056F472A049441DA8289C03C8EC68EC7",1,"01990aa4-08f0-7c16-9bea-7aae3c448d4e","01990a83-7673-7c0c-a792-bbd8fbbaf673","2025-09-02_08h36.15.140",NA,NA,595.1849,595.1849,595.1849,595.5357,NA,NA,NA,NA,NA,NA,NA,TRUE,1,0.7657,592.1874,595.1846,NA,NA,NA,NA,NA,30,27,0,47,47,43,1,2,48,"binary"
"056F472A049441DA8289C03C8EC68EC7",1,"01990aa4-08f0-7c16-9bea-7aae3c448d4e","01990a83-7673-7c0c-a792-bbd8fbbaf673","2025-09-02_08h36.15.140",NA,NA,598.533,598.5331,598.5331,598.8834,NA,NA,NA,NA,NA,NA,NA,TRUE,1,1.0166,595.5378,598.5326,NA,NA,NA,NA,NA,7,28,0,48,48,2,1,2,49,"binary"
"056F472A049441DA8289C03C8EC68EC7",1,"01990aa4-08f0-7c16-9bea-7aae3c448d4e","01990a83-7673-7c0c-a792-bbd8fbbaf673","2025-09-02_08h36.15.140",NA,NA,601.8819,601.8819,601.8819,602.232,NA,NA,NA,NA,NA,NA,NA,TRUE,2,0.9831,598.8855,601.8816,NA,NA,NA,NA,NA,45,40,0,49,49,58,1,2,50,"binary"
"056F472A049441DA8289C03C8EC68EC7",1,"01990aa4-08f0-7c16-9bea-7aae3c448d4e","01990a83-7673-7c0c-a792-bbd8fbbaf673","2025-09-02_08h36.15.140",NA,NA,605.2313,605.2313,605.2313,605.5801,NA,NA,NA,NA,NA,NA,NA,TRUE,1,0.7835,602.2341,605.231,NA,NA,NA,NA,NA,21,26,0,50,50,24,1,2,51,"binary"
"056F472A049441DA8289C03C8EC68EC7",1,"01990aa4-08f0-7c16-9bea-7aae3c448d4e","01990a83-7673-7c0c-a792-bbd8fbbaf673","2025-09-02_08h36.15.140",NA,NA,608.5799,608.5799,608.5799,608.9453,NA,NA,NA,NA,NA,NA,NA,TRUE,1,1.2506,605.5826,608.5798,NA,NA,NA,NA,NA,180,54,0,51,51,101,1,2,52,"binary"
"056F472A049441DA8289C03C8EC68EC7",1,"01990aa4-08f0-7c16-9bea-7aae3c448d4e","01990a83-7673-7c0c-a792-bbd8fbbaf673","2025-09-02_08h36.15.140",NA,NA,611.944,611.9441,611.9441,612.289,NA,NA,NA,NA,NA,NA,NA,TRUE,2,1.0493,608.9477,611.9438,NA,NA,NA,NA,NA,21,32,0,52,52,28,1,2,53,"binary"
"056F472A049441DA8289C03C8EC68EC7",1,"01990aa4-08f0-7c16-9bea-7aae3c448d4e","01990a83-7673-7c0c-a792-bbd8fbbaf673","2025-09-02_08h36.15.140",NA,NA,615.29,615.29,615.29,615.6406,NA,NA,NA,NA,NA,NA,NA,TRUE,1,1.7985,612.2929,615.2898,NA,NA,NA,NA,NA,45,31,0,53,53,56,1,2,54,"binary"
"056F472A049441DA8289C03C8EC68EC7",1,"01990aa4-08f0-7c16-9bea-7aae3c448d4e","01990a83-7673-7c0c-a792-bbd8fbbaf673","2025-09-02_08h36.15.140",NA,NA,618.6391,618.6391,618.6391,618.9849,NA,NA,NA,NA,NA,NA,NA,TRUE,2,0.9484,615.6428,618.6389,NA,NA,NA,NA,NA,90,54,0,54,54,77,1,2,55,"binary"
"056F472A049441DA8289C03C8EC68EC7",1,"01990aa4-08f0-7c16-9bea-7aae3c448d4e","01990a83-7673-7c0c-a792-bbd8fbbaf673","2025-09-02_08h36.15.140",NA,NA,621.9879,621.9879,621.9879,622.3367,NA,NA,NA,NA,NA,NA,NA,TRUE,1,0.7612,618.9872,621.9874,NA,NA,NA,NA,NA,150,47,0,55,55,94,1,2,56,"binary"
"056F472A049441DA8289C03C8EC68EC7",1,"01990aa4-08f0-7c16-9bea-7aae3c448d4e","01990a83-7673-7c0c-a792-bbd8fbbaf673","2025-09-02_08h36.15.140",NA,NA,625.3358,625.3358,625.3358,625.6858,NA,NA,NA,NA,NA,NA,NA,TRUE,1,1.1873,622.338,625.3355,NA,NA,NA,NA,NA,200,28,0,56,56,103,1,2,57,"binary"
"056F472A049441DA8289C03C8EC68EC7",1,"01990aa4-08f0-7c16-9bea-7aae3c448d4e","01990a83-7673-7c0c-a792-bbd8fbbaf673","2025-09-02_08h36.15.140",NA,NA,628.6845,628.6845,628.6846,629.0346,NA,NA,NA,NA,NA,NA,NA,TRUE,1,1.8834,625.6876,628.6843,NA,NA,NA,NA,NA,100,38,0,57,57,86,1,2,58,"binary"
"056F472A049441DA8289C03C8EC68EC7",1,"01990aa4-08f0-7c16-9bea-7aae3c448d4e","01990a83-7673-7c0c-a792-bbd8fbbaf673","2025-09-02_08h36.15.140",NA,NA,632.0343,632.0344,632.0344,632.3845,NA,NA,NA,NA,NA,NA,NA,TRUE,1,1.4191,629.0364,632.0339,NA,NA,NA,NA,NA,95,35,0,58,58,80,1,2,59,"binary"
"056F472A049441DA8289C03C8EC68EC7",1,"01990aa4-08f0-7c16-9bea-7aae3c448d4e","01990a83-7673-7c0c-a792-bbd8fbbaf673","2025-09-02_08h36.15.140",NA,NA,635.3837,635.3838,635.3838,635.733,NA,NA,NA,NA,NA,NA,NA,TRUE,1,1.6668,632.3861,635.3835,NA,NA,NA,NA,NA,45,29,0,59,59,55,1,2,60,"binary"
"056F472A049441DA8289C03C8EC68EC7",1,"01990aa4-08f0-7c16-9bea-7aae3c448d4e","01990a83-7673-7c0c-a792-bbd8fbbaf673","2025-09-02_08h36.15.140",NA,NA,638.7311,638.7311,638.7311,639.0798,NA,NA,NA,NA,NA,NA,NA,TRUE,2,1.4318,635.7352,638.7309,NA,NA,NA,NA,NA,10,30,0,60,60,10,1,2,61,"binary"
"056F472A049441DA8289C03C8EC68EC7",1,"01990aa4-08f0-7c16-9bea-7aae3c448d4e","01990a83-7673-7c0c-a792-bbd8fbbaf673","2025-09-02_08h36.15.140",NA,NA,642.0801,642.0801,642.0802,642.4291,NA,NA,NA,NA,NA,NA,NA,TRUE,2,1.0844,639.0817,642.0799,NA,NA,NA,NA,NA,50,40,0,61,61,63,1,2,62,"binary"
"056F472A049441DA8289C03C8EC68EC7",1,"01990aa4-08f0-7c16-9bea-7aae3c448d4e","01990a83-7673-7c0c-a792-bbd8fbbaf673","2025-09-02_08h36.15.140",NA,NA,645.4451,645.4453,645.4453,645.7944,NA,NA,NA,NA,NA,NA,NA,TRUE,1,1.1185,642.4317,645.4446,NA,NA,NA,NA,NA,10,26,0,62,62,7,1,2,63,"binary"
"056F472A049441DA8289C03C8EC68EC7",1,"01990aa4-08f0-7c16-9bea-7aae3c448d4e","01990a83-7673-7c0c-a792-bbd8fbbaf673","2025-09-02_08h36.15.140",NA,NA,648.7932,648.7933,648.7933,649.1426,NA,NA,NA,NA,NA,NA,NA,TRUE,1,0.9993,645.7964,648.7929,NA,NA,NA,NA,NA,150,54,0,63,63,95,1,2,64,"binary"
"056F472A049441DA8289C03C8EC68EC7",1,"01990aa4-08f0-7c16-9bea-7aae3c448d4e","01990a83-7673-7c0c-a792-bbd8fbbaf673","2025-09-02_08h36.15.140",NA,NA,652.1408,652.1409,652.1409,652.4906,NA,NA,NA,NA,NA,NA,NA,TRUE,1,0.6665,649.1451,652.1407,NA,NA,NA,NA,NA,200,54,0,64,64,107,1,2,65,"binary"
"056F472A049441DA8289C03C8EC68EC7",1,"01990aa4-08f0-7c16-9bea-7aae3c448d4e","01990a83-7673-7c0c-a792-bbd8fbbaf673","2025-09-02_08h36.15.140",NA,NA,655.4901,655.4902,655.4902,655.8396,NA,NA,NA,NA,NA,NA,NA,TRUE,2,1.2326,652.4929,655.49,NA,NA,NA,NA,NA,7,32,0,65,65,4,1,2,66,"binary"
"056F472A049441DA8289C03C8EC68EC7",1,"01990aa4-08f0-7c16-9bea-7aae3c448d4e","01990a83-7673-7c0c-a792-bbd8fbbaf673","2025-09-02_08h36.15.140",NA,NA,658.8387,658.8389,658.8389,659.1877,NA,NA,NA,NA,NA,NA,NA,TRUE,1,1.3829,655.842,658.8382,NA,NA,NA,NA,NA,10,25,0,66,66,6,1,2,67,"binary"
"056F472A049441DA8289C03C8EC68EC7",1,"01990aa4-08f0-7c16-9bea-7aae3c448d4e","01990a83-7673-7c0c-a792-bbd8fbbaf673","2025-09-02_08h36.15.140",NA,NA,662.1873,662.1874,662.1874,662.5371,NA,NA,NA,NA,NA,NA,NA,TRUE,2,1.1335,659.1899,662.1871,NA,NA,NA,NA,NA,25,46,0,67,67,35,1,2,68,"binary"
"056F472A049441DA8289C03C8EC68EC7",1,"01990aa4-08f0-7c16-9bea-7aae3c448d4e","01990a83-7673-7c0c-a792-bbd8fbbaf673","2025-09-02_08h36.15.140",NA,NA,665.5356,665.5356,665.5356,665.8849,NA,NA,NA,NA,NA,NA,NA,TRUE,1,0.9335,662.5388,665.5355,NA,NA,NA,NA,NA,40,27,0,68,68,48,1,2,69,"binary"
"056F472A049441DA8289C03C8EC68EC7",1,"01990aa4-08f0-7c16-9bea-7aae3c448d4e","01990a83-7673-7c0c-a792-bbd8fbbaf673","2025-09-02_08h36.15.140",NA,NA,668.8835,668.8839,668.8839,669.2339,NA,NA,NA,NA,NA,NA,NA,TRUE,2,0.9504,665.8871,668.8834,NA,NA,NA,NA,NA,30,38,0,69,69,47,1,2,70,"binary"
"056F472A049441DA8289C03C8EC68EC7",1,"01990aa4-08f0-7c16-9bea-7aae3c448d4e","01990a83-7673-7c0c-a792-bbd8fbbaf673","2025-09-02_08h36.15.140",NA,NA,672.2329,672.2331,672.2331,672.5818,NA,NA,NA,NA,NA,NA,NA,TRUE,2,1.0167,669.236,672.2328,NA,NA,NA,NA,NA,14,39,0,70,70,23,1,2,71,"binary"
"056F472A049441DA8289C03C8EC68EC7",1,"01990aa4-08f0-7c16-9bea-7aae3c448d4e","01990a83-7673-7c0c-a792-bbd8fbbaf673","2025-09-02_08h36.15.140",NA,NA,675.581,675.5811,675.5812,675.9292,NA,NA,NA,NA,NA,NA,NA,TRUE,1,0.8841,672.5838,675.5806,NA,NA,NA,NA,NA,200,39,0,71,71,105,1,2,72,"binary"
"056F472A049441DA8289C03C8EC68EC7",1,"01990aa4-08f0-7c16-9bea-7aae3c448d4e","01990a83-7673-7c0c-a792-bbd8fbbaf673","2025-09-02_08h36.15.140",NA,NA,678.9454,678.9454,678.9454,679.2792,NA,NA,NA,NA,NA,NA,NA,TRUE,2,1.7495,675.9313,678.9452,NA,NA,NA,NA,NA,30,29,0,72,72,44,1,2,73,"binary"
"056F472A049441DA8289C03C8EC68EC7",1,"01990aa4-08f0-7c16-9bea-7aae3c448d4e","01990a83-7673-7c0c-a792-bbd8fbbaf673","2025-09-02_08h36.15.140",NA,NA,682.2944,682.2944,682.2944,682.6285,NA,NA,NA,NA,NA,NA,NA,TRUE,1,0.8173,679.2815,682.2942,NA,NA,NA,NA,NA,12,26,0,73,73,13,1,2,74,"binary"
"056F472A049441DA8289C03C8EC68EC7",1,"01990aa4-08f0-7c16-9bea-7aae3c448d4e","01990a83-7673-7c0c-a792-bbd8fbbaf673","2025-09-02_08h36.15.140",NA,NA,685.6428,685.643,685.643,685.9923,NA,NA,NA,NA,NA,NA,NA,TRUE,2,1.0508,682.63,685.6426,NA,NA,NA,NA,NA,12,35,0,74,74,17,1,2,75,"binary"
"056F472A049441DA8289C03C8EC68EC7",1,"01990aa4-08f0-7c16-9bea-7aae3c448d4e","01990a83-7673-7c0c-a792-bbd8fbbaf673","2025-09-02_08h36.15.140",NA,NA,688.9899,688.9899,688.9899,689.3408,NA,NA,NA,NA,NA,NA,NA,TRUE,1,1.034,685.9946,688.9897,NA,NA,NA,NA,NA,7,26,0,75,75,1,1,2,76,"binary"
"056F472A049441DA8289C03C8EC68EC7",1,"01990aa4-08f0-7c16-9bea-7aae3c448d4e","01990a83-7673-7c0c-a792-bbd8fbbaf673","2025-09-02_08h36.15.140",NA,NA,692.3398,692.3399,692.3399,692.6892,NA,NA,NA,NA,NA,NA,NA,TRUE,1,0.9317,689.3433,692.3395,NA,NA,NA,NA,NA,14,26,0,76,76,19,1,2,77,"binary"
"056F472A049441DA8289C03C8EC68EC7",1,"01990aa4-08f0-7c16-9bea-7aae3c448d4e","01990a83-7673-7c0c-a792-bbd8fbbaf673","2025-09-02_08h36.15.140",NA,NA,695.6879,695.688,695.688,696.0381,NA,NA,NA,NA,NA,NA,NA,TRUE,1,0.7986,692.691,695.6877,NA,NA,NA,NA,NA,25,27,0,77,77,30,1,2,78,"binary"
"056F472A049441DA8289C03C8EC68EC7",1,"01990aa4-08f0-7c16-9bea-7aae3c448d4e","01990a83-7673-7c0c-a792-bbd8fbbaf673","2025-09-02_08h36.15.140",NA,NA,699.0362,699.0363,699.0363,699.386,NA,NA,NA,NA,NA,NA,NA,TRUE,1,0.9166,696.0401,699.036,NA,NA,NA,NA,NA,180,31,0,78,78,97,1,2,79,"binary"
"056F472A049441DA8289C03C8EC68EC7",1,"01990aa4-08f0-7c16-9bea-7aae3c448d4e","01990a83-7673-7c0c-a792-bbd8fbbaf673","2025-09-02_08h36.15.140",NA,NA,702.3846,702.3847,702.3847,702.7344,NA,NA,NA,NA,NA,NA,NA,TRUE,2,1.4668,699.3879,702.3844,NA,NA,NA,NA,NA,60,33,0,79,79,67,1,2,80,"binary"
"056F472A049441DA8289C03C8EC68EC7",1,"01990aa4-08f0-7c16-9bea-7aae3c448d4e","01990a83-7673-7c0c-a792-bbd8fbbaf673","2025-09-02_08h36.15.140",NA,NA,705.7335,705.7336,705.7336,706.0833,NA,NA,NA,NA,NA,NA,NA,TRUE,1,2.2157,702.736,705.7332,NA,NA,NA,NA,NA,50,30,0,80,80,61,1,2,81,"binary"
"056F472A049441DA8289C03C8EC68EC7",1,"01990aa4-08f0-7c16-9bea-7aae3c448d4e","01990a83-7673-7c0c-a792-bbd8fbbaf673","2025-09-02_08h36.15.140",NA,NA,709.0812,709.0814,709.0815,709.431,NA,NA,NA,NA,NA,NA,NA,TRUE,2,1.7009,706.0854,709.081,NA,NA,NA,NA,NA,90,40,0,81,81,75,1,2,82,"binary"
"056F472A049441DA8289C03C8EC68EC7",1,"01990aa4-08f0-7c16-9bea-7aae3c448d4e","01990a83-7673-7c0c-a792-bbd8fbbaf673","2025-09-02_08h36.15.140",NA,NA,712.4306,712.4307,712.4307,712.7795,NA,NA,NA,NA,NA,NA,NA,TRUE,1,0.9514,709.4331,712.4303,NA,NA,NA,NA,NA,150,40,0,82,82,93,1,2,83,"binary"
"056F472A049441DA8289C03C8EC68EC7",1,"01990aa4-08f0-7c16-9bea-7aae3c448d4e","01990a83-7673-7c0c-a792-bbd8fbbaf673","2025-09-02_08h36.15.140",NA,NA,715.7951,715.7951,715.7951,716.1436,NA,NA,NA,NA,NA,NA,NA,TRUE,1,0.8993,712.7815,715.7949,NA,NA,NA,NA,NA,180,27,0,83,83,96,1,2,84,"binary"
"056F472A049441DA8289C03C8EC68EC7",1,"01990aa4-08f0-7c16-9bea-7aae3c448d4e","01990a83-7673-7c0c-a792-bbd8fbbaf673","2025-09-02_08h36.15.140",NA,NA,719.1441,719.1442,719.1442,719.4928,NA,NA,NA,NA,NA,NA,NA,TRUE,1,0.6648,716.1462,719.1438,NA,NA,NA,NA,NA,200,26,0,84,84,102,1,2,85,"binary"
"056F472A049441DA8289C03C8EC68EC7",1,"01990aa4-08f0-7c16-9bea-7aae3c448d4e","01990a83-7673-7c0c-a792-bbd8fbbaf673","2025-09-02_08h36.15.140",NA,NA,722.4919,722.4921,722.4922,722.842,NA,NA,NA,NA,NA,NA,NA,TRUE,1,1.2659,719.4944,722.4914,NA,NA,NA,NA,NA,14,28,0,85,85,20,1,2,86,"binary"
"056F472A049441DA8289C03C8EC68EC7",1,"01990aa4-08f0-7c16-9bea-7aae3c448d4e","01990a83-7673-7c0c-a792-bbd8fbbaf673","2025-09-02_08h36.15.140",NA,NA,725.8401,725.8402,725.8402,726.1904,NA,NA,NA,NA,NA,NA,NA,TRUE,2,1.2501,722.8441,725.8399,NA,NA,NA,NA,NA,28,46,0,86,86,41,1,2,87,"binary"
"056F472A049441DA8289C03C8EC68EC7",1,"01990aa4-08f0-7c16-9bea-7aae3c448d4e","01990a83-7673-7c0c-a792-bbd8fbbaf673","2025-09-02_08h36.15.140",NA,NA,729.1894,729.1894,729.1894,729.5385,NA,NA,NA,NA,NA,NA,NA,TRUE,2,1.9155,726.192,729.1892,NA,NA,NA,NA,NA,10,29,0,87,87,9,1,2,88,"binary"
"056F472A049441DA8289C03C8EC68EC7",1,"01990aa4-08f0-7c16-9bea-7aae3c448d4e","01990a83-7673-7c0c-a792-bbd8fbbaf673","2025-09-02_08h36.15.140",NA,NA,732.5378,732.5378,732.5378,732.8872,NA,NA,NA,NA,NA,NA,NA,TRUE,2,1.3167,729.5403,732.5373,NA,NA,NA,NA,NA,95,40,0,88,88,81,1,2,89,"binary"
"056F472A049441DA8289C03C8EC68EC7",1,"01990aa4-08f0-7c16-9bea-7aae3c448d4e","01990a83-7673-7c0c-a792-bbd8fbbaf673","2025-09-02_08h36.15.140",NA,NA,735.8854,735.8854,735.8855,736.2351,NA,NA,NA,NA,NA,NA,NA,TRUE,2,1.2509,732.8893,735.8852,NA,NA,NA,NA,NA,30,30,0,89,89,45,1,2,90,"binary"
"056F472A049441DA8289C03C8EC68EC7",1,"01990aa4-08f0-7c16-9bea-7aae3c448d4e","01990a83-7673-7c0c-a792-bbd8fbbaf673","2025-09-02_08h36.15.140",NA,NA,739.2344,739.2344,739.2344,739.5843,NA,NA,NA,NA,NA,NA,NA,TRUE,2,2.9156,736.2372,739.2342,NA,NA,NA,NA,NA,21,30,0,90,90,27,1,2,91,"binary"
"056F472A049441DA8289C03C8EC68EC7",1,"01990aa4-08f0-7c16-9bea-7aae3c448d4e","01990a83-7673-7c0c-a792-bbd8fbbaf673","2025-09-02_08h36.15.140",NA,NA,742.5837,742.5837,742.5837,742.9324,NA,NA,NA,NA,NA,NA,NA,TRUE,2,1.8005,739.5866,742.5834,NA,NA,NA,NA,NA,45,35,0,91,91,57,1,2,92,"binary"
"056F472A049441DA8289C03C8EC68EC7",1,"01990aa4-08f0-7c16-9bea-7aae3c448d4e","01990a83-7673-7c0c-a792-bbd8fbbaf673","2025-09-02_08h36.15.140",NA,NA,745.9331,745.9331,745.9331,746.2805,NA,NA,NA,NA,NA,NA,NA,TRUE,1,1.0512,742.9341,745.9328,NA,NA,NA,NA,NA,60,35,0,92,92,68,1,2,93,"binary"
"056F472A049441DA8289C03C8EC68EC7",1,"01990aa4-08f0-7c16-9bea-7aae3c448d4e","01990a83-7673-7c0c-a792-bbd8fbbaf673","2025-09-02_08h36.15.140",NA,NA,749.2794,749.2795,749.2795,749.6289,NA,NA,NA,NA,NA,NA,NA,TRUE,2,1.3197,746.2828,749.2792,NA,NA,NA,NA,NA,25,29,0,93,93,31,1,2,94,"binary"
"056F472A049441DA8289C03C8EC68EC7",1,"01990aa4-08f0-7c16-9bea-7aae3c448d4e","01990a83-7673-7c0c-a792-bbd8fbbaf673","2025-09-02_08h36.15.140",NA,NA,752.6445,752.6446,752.6446,752.9941,NA,NA,NA,NA,NA,NA,NA,TRUE,2,1.1015,749.6315,752.6443,NA,NA,NA,NA,NA,21,38,0,94,94,29,1,2,95,"binary"
"056F472A049441DA8289C03C8EC68EC7",1,"01990aa4-08f0-7c16-9bea-7aae3c448d4e","01990a83-7673-7c0c-a792-bbd8fbbaf673","2025-09-02_08h36.15.140",NA,NA,755.9931,755.9932,755.9932,756.3429,NA,NA,NA,NA,NA,NA,NA,TRUE,1,1.4984,752.9957,755.9928,NA,NA,NA,NA,NA,150,35,0,95,95,92,1,2,96,"binary"
"056F472A049441DA8289C03C8EC68EC7",1,"01990aa4-08f0-7c16-9bea-7aae3c448d4e","01990a83-7673-7c0c-a792-bbd8fbbaf673","2025-09-02_08h36.15.140",NA,NA,759.3417,759.3418,759.3418,759.6919,NA,NA,NA,NA,NA,NA,NA,TRUE,2,1.0645,756.3451,759.3411,NA,NA,NA,NA,NA,40,54,0,96,96,53,1,2,97,"binary"
"056F472A049441DA8289C03C8EC68EC7",1,"01990aa4-08f0-7c16-9bea-7aae3c448d4e","01990a83-7673-7c0c-a792-bbd8fbbaf673","2025-09-02_08h36.15.140",NA,NA,762.6899,762.6899,762.6899,763.0398,NA,NA,NA,NA,NA,NA,NA,TRUE,2,1.1496,759.6937,762.6896,NA,NA,NA,NA,NA,50,46,0,97,97,64,1,2,98,"binary"
"056F472A049441DA8289C03C8EC68EC7",1,"01990aa4-08f0-7c16-9bea-7aae3c448d4e","01990a83-7673-7c0c-a792-bbd8fbbaf673","2025-09-02_08h36.15.140",NA,NA,766.0377,766.0377,766.0377,766.3876,NA,NA,NA,NA,NA,NA,NA,TRUE,1,1.1496,763.0415,766.0374,NA,NA,NA,NA,NA,100,26,0,98,98,84,1,2,99,"binary"
"056F472A049441DA8289C03C8EC68EC7",1,"01990aa4-08f0-7c16-9bea-7aae3c448d4e","01990a83-7673-7c0c-a792-bbd8fbbaf673","2025-09-02_08h36.15.140",NA,NA,769.3873,769.3873,769.3874,769.7355,NA,NA,NA,NA,NA,NA,NA,TRUE,2,1.5003,766.3896,769.3871,NA,NA,NA,NA,NA,60,47,0,99,99,70,1,2,100,"binary"
"056F472A049441DA8289C03C8EC68EC7",1,"01990aa4-08f0-7c16-9bea-7aae3c448d4e","01990a83-7673-7c0c-a792-bbd8fbbaf673","2025-09-02_08h36.15.140",NA,NA,772.7349,772.7349,772.7349,773.0848,NA,NA,NA,NA,NA,NA,NA,TRUE,1,0.7351,769.7375,772.7347,NA,NA,NA,NA,NA,12,25,0,100,100,12,1,2,101,"binary"
"056F472A049441DA8289C03C8EC68EC7",1,"01990aa4-08f0-7c16-9bea-7aae3c448d4e","01990a83-7673-7c0c-a792-bbd8fbbaf673","2025-09-02_08h36.15.140",NA,NA,776.0832,776.0834,776.0837,776.4332,NA,NA,NA,NA,NA,NA,NA,TRUE,1,0.8499,773.0867,776.0832,NA,NA,NA,NA,NA,180,35,0,101,101,98,1,2,102,"binary"
"056F472A049441DA8289C03C8EC68EC7",1,"01990aa4-08f0-7c16-9bea-7aae3c448d4e","01990a83-7673-7c0c-a792-bbd8fbbaf673","2025-09-02_08h36.15.140",NA,NA,779.4319,779.4323,779.4324,779.7814,NA,NA,NA,NA,NA,NA,NA,TRUE,1,1.217,776.4353,779.4318,NA,NA,NA,NA,NA,150,31,0,102,102,90,1,2,103,"binary"
"056F472A049441DA8289C03C8EC68EC7",1,"01990aa4-08f0-7c16-9bea-7aae3c448d4e","01990a83-7673-7c0c-a792-bbd8fbbaf673","2025-09-02_08h36.15.140",NA,NA,782.7804,782.7808,782.7808,783.1301,NA,NA,NA,NA,NA,NA,NA,TRUE,1,1.2338,779.7836,782.7802,NA,NA,NA,NA,NA,150,33,0,103,103,91,1,2,104,"binary"
"056F472A049441DA8289C03C8EC68EC7",1,"01990aa4-08f0-7c16-9bea-7aae3c448d4e","01990a83-7673-7c0c-a792-bbd8fbbaf673","2025-09-02_08h36.15.140",NA,NA,786.1288,786.1289,786.1289,786.4956,NA,NA,NA,NA,NA,NA,NA,TRUE,2,0.9337,783.1324,786.1284,NA,NA,NA,NA,NA,12,28,0,104,104,14,1,2,105,"binary"
"056F472A049441DA8289C03C8EC68EC7",1,"01990aa4-08f0-7c16-9bea-7aae3c448d4e","01990a83-7673-7c0c-a792-bbd8fbbaf673","2025-09-02_08h36.15.140",NA,NA,789.4943,789.4946,789.4946,789.8419,NA,NA,NA,NA,NA,NA,NA,TRUE,2,1.0484,786.4971,789.494,NA,NA,NA,NA,NA,40,47,0,105,105,52,1,2,106,"binary"
"056F472A049441DA8289C03C8EC68EC7",1,"01990aa4-08f0-7c16-9bea-7aae3c448d4e","01990a83-7673-7c0c-a792-bbd8fbbaf673","2025-09-02_08h36.15.140",NA,NA,792.8425,792.8425,792.8425,793.1921,NA,NA,NA,NA,NA,NA,NA,TRUE,1,0.9999,789.8442,792.8422,NA,NA,NA,NA,NA,100,31,0,106,106,85,1,2,107,"binary"
"056F472A049441DA8289C03C8EC68EC7",1,"01990aa4-08f0-7c16-9bea-7aae3c448d4e","01990a83-7673-7c0c-a792-bbd8fbbaf673","2025-09-02_08h36.15.140",NA,NA,796.1907,796.1908,796.1908,796.541,NA,NA,NA,NA,NA,NA,NA,TRUE,2,1.0319,793.1943,796.1906,NA,NA,NA,NA,NA,14,35,0,107,107,22,1,2,108,"binary"
