"participant","session","assignmentId","projectId","date","practiceTrial.started","practiceTrial.stopped","tooLate.started","tooLate.stopped","blank.started","blank.stopped","trials_pract.thisRepN","trials_pract.thisTrialN","trials_pract.thisN","trials_pract.thisIndex","trials_pract.ran","delay_pract","amount_pract","responseMade","key","rt","trial.started","trial.stopped","trials.thisRepN","trials.thisTrialN","trials.thisN","trials.thisIndex","trials.ran","delay","amount","trials_2.thisRepN","trials_2.thisTrialN","trials_2.thisN","trials_2.thisIndex","trials_2.ran","block","trial","taskType"
"0870B39E7CB348DBB74699311458D574",1,"01990a97-c6b5-72f3-bf18-9e2d0b619bfb","01990a83-7673-7c0c-a792-bbd8fbbaf673","2025-09-02_09h24.45.233",192.0559,195.0273,195.0285,195.0383,195.0384,195.3772,0,0,0,4,1,30,40,TRUE,1,2.4725,NA,NA,NA,NA,NA,NA,NA,NA,NA,NA,NA,NA,NA,NA,0,1,"binary"
"0870B39E7CB348DBB74699311458D574",1,"01990a97-c6b5-72f3-bf18-9e2d0b619bfb","01990a83-7673-7c0c-a792-bbd8fbbaf673","2025-09-02_09h24.45.233",195.3806,198.3787,198.379,198.6277,198.6279,198.7285,0,1,1,2,1,14,45,FALSE,NA,NA,NA,NA,NA,NA,NA,NA,NA,NA,NA,NA,NA,NA,NA,NA,0,2,"binary"
"0870B39E7CB348DBB74699311458D574",1,"01990a97-c6b5-72f3-bf18-9e2d0b619bfb","01990a83-7673-7c0c-a792-bbd8fbbaf673","2025-09-02_09h24.45.233",198.731,201.7283,201.7287,201.7288,201.7289,202.078,0,2,2,1,1,100,50,TRUE,1,1.4521,NA,NA,NA,NA,NA,NA,NA,NA,NA,NA,NA,NA,NA,NA,0,3,"binary"
"0870B39E7CB348DBB74699311458D574",1,"01990a97-c6b5-72f3-bf18-9e2d0b619bfb","01990a83-7673-7c0c-a792-bbd8fbbaf673","2025-09-02_09h24.45.233",202.0804,205.0786,205.0787,205.0788,205.079,205.4273,0,3,3,0,1,7,30,TRUE,1,1.2186,NA,NA,NA,NA,NA,NA,NA,NA,NA,NA,NA,NA,NA,NA,0,4,"binary"
"0870B39E7CB348DBB74699311458D574",1,"01990a97-c6b5-72f3-bf18-9e2d0b619bfb","01990a83-7673-7c0c-a792-bbd8fbbaf673","2025-09-02_09h24.45.233",205.4301,208.4276,208.4282,208.4284,208.4284,208.7773,0,4,4,3,1,3,27,TRUE,1,2.2539,NA,NA,NA,NA,NA,NA,NA,NA,NA,NA,NA,NA,NA,NA,0,5,"binary"
"0870B39E7CB348DBB74699311458D574",1,"01990a97-c6b5-72f3-bf18-9e2d0b619bfb","01990a83-7673-7c0c-a792-bbd8fbbaf673","2025-09-02_09h24.45.233",NA,NA,246.0255,246.0257,246.0258,246.3748,NA,NA,NA,NA,NA,NA,NA,TRUE,1,0.9239,243.0646,246.025,0,0,0,25,1,21,27,NA,NA,NA,NA,NA,1,1,"binary"
"0870B39E7CB348DBB74699311458D574",1,"01990a97-c6b5-72f3-bf18-9e2d0b619bfb","01990a83-7673-7c0c-a792-bbd8fbbaf673","2025-09-02_09h24.45.233",NA,NA,249.3749,249.375,249.375,249.7245,NA,NA,NA,NA,NA,NA,NA,TRUE,1,0.9283,246.3782,249.3747,0,1,1,28,1,21,32,NA,NA,NA,NA,NA,1,2,"binary"
"0870B39E7CB348DBB74699311458D574",1,"01990a97-c6b5-72f3-bf18-9e2d0b619bfb","01990a83-7673-7c0c-a792-bbd8fbbaf673","2025-09-02_09h24.45.233",NA,NA,252.7246,252.7247,252.7247,253.0744,NA,NA,NA,NA,NA,NA,NA,TRUE,1,1.264,249.7283,252.7244,0,2,2,36,1,28,26,NA,NA,NA,NA,NA,1,3,"binary"
"0870B39E7CB348DBB74699311458D574",1,"01990a97-c6b5-72f3-bf18-9e2d0b619bfb","01990a83-7673-7c0c-a792-bbd8fbbaf673","2025-09-02_09h24.45.233",NA,NA,256.0744,256.0745,256.0745,256.4243,NA,NA,NA,NA,NA,NA,NA,TRUE,1,1.0477,253.0776,256.0743,0,3,3,18,1,14,25,NA,NA,NA,NA,NA,1,4,"binary"
"0870B39E7CB348DBB74699311458D574",1,"01990a97-c6b5-72f3-bf18-9e2d0b619bfb","01990a83-7673-7c0c-a792-bbd8fbbaf673","2025-09-02_09h24.45.233",NA,NA,259.4243,259.4244,259.4244,259.7741,NA,NA,NA,NA,NA,NA,NA,TRUE,1,0.949,256.4277,259.4241,0,4,4,81,1,95,40,NA,NA,NA,NA,NA,1,5,"binary"
"0870B39E7CB348DBB74699311458D574",1,"01990a97-c6b5-72f3-bf18-9e2d0b619bfb","01990a83-7673-7c0c-a792-bbd8fbbaf673","2025-09-02_09h24.45.233",NA,NA,262.7741,262.7742,262.7743,263.1238,NA,NA,NA,NA,NA,NA,NA,TRUE,1,1.0638,259.7773,262.774,0,5,5,94,1,150,47,NA,NA,NA,NA,NA,1,6,"binary"
"0870B39E7CB348DBB74699311458D574",1,"01990a97-c6b5-72f3-bf18-9e2d0b619bfb","01990a83-7673-7c0c-a792-bbd8fbbaf673","2025-09-02_09h24.45.233",NA,NA,266.1241,266.1241,266.1241,266.4738,NA,NA,NA,NA,NA,NA,NA,TRUE,1,0.8804,263.1271,266.1239,0,6,6,15,1,12,31,NA,NA,NA,NA,NA,1,7,"binary"
"0870B39E7CB348DBB74699311458D574",1,"01990a97-c6b5-72f3-bf18-9e2d0b619bfb","01990a83-7673-7c0c-a792-bbd8fbbaf673","2025-09-02_09h24.45.233",NA,NA,269.4738,269.4739,269.474,269.8237,NA,NA,NA,NA,NA,NA,NA,TRUE,1,0.8161,266.4771,269.4737,0,7,7,64,1,50,46,NA,NA,NA,NA,NA,1,8,"binary"
"0870B39E7CB348DBB74699311458D574",1,"01990a97-c6b5-72f3-bf18-9e2d0b619bfb","01990a83-7673-7c0c-a792-bbd8fbbaf673","2025-09-02_09h24.45.233",NA,NA,272.8237,272.8237,272.8238,273.1736,NA,NA,NA,NA,NA,NA,NA,TRUE,1,0.9393,269.8269,272.8235,0,8,8,38,1,28,32,NA,NA,NA,NA,NA,1,9,"binary"
"0870B39E7CB348DBB74699311458D574",1,"01990a97-c6b5-72f3-bf18-9e2d0b619bfb","01990a83-7673-7c0c-a792-bbd8fbbaf673","2025-09-02_09h24.45.233",NA,NA,276.1735,276.1735,276.1737,276.5233,NA,NA,NA,NA,NA,NA,NA,TRUE,1,0.8368,273.1767,276.1734,0,9,9,16,1,12,33,NA,NA,NA,NA,NA,1,10,"binary"
"0870B39E7CB348DBB74699311458D574",1,"01990a97-c6b5-72f3-bf18-9e2d0b619bfb","01990a83-7673-7c0c-a792-bbd8fbbaf673","2025-09-02_09h24.45.233",NA,NA,279.5234,279.5234,279.5235,279.8732,NA,NA,NA,NA,NA,NA,NA,TRUE,1,0.7914,276.5266,279.5232,0,10,10,103,1,200,28,NA,NA,NA,NA,NA,1,11,"binary"
"0870B39E7CB348DBB74699311458D574",1,"01990a97-c6b5-72f3-bf18-9e2d0b619bfb","01990a83-7673-7c0c-a792-bbd8fbbaf673","2025-09-02_09h24.45.233",NA,NA,282.8732,282.8732,282.8732,283.223,NA,NA,NA,NA,NA,NA,NA,TRUE,1,0.7693,279.8765,282.873,0,11,11,88,1,100,46,NA,NA,NA,NA,NA,1,12,"binary"
"0870B39E7CB348DBB74699311458D574",1,"01990a97-c6b5-72f3-bf18-9e2d0b619bfb","01990a83-7673-7c0c-a792-bbd8fbbaf673","2025-09-02_09h24.45.233",NA,NA,286.2231,286.2231,286.2232,286.5729,NA,NA,NA,NA,NA,NA,NA,TRUE,1,1.0596,283.2262,286.223,0,12,12,98,1,180,35,NA,NA,NA,NA,NA,1,13,"binary"
"0870B39E7CB348DBB74699311458D574",1,"01990a97-c6b5-72f3-bf18-9e2d0b619bfb","01990a83-7673-7c0c-a792-bbd8fbbaf673","2025-09-02_09h24.45.233",NA,NA,289.5729,289.573,289.573,289.9228,NA,NA,NA,NA,NA,NA,NA,TRUE,1,0.8858,286.5762,289.5728,0,13,13,9,1,10,29,NA,NA,NA,NA,NA,1,14,"binary"
"0870B39E7CB348DBB74699311458D574",1,"01990a97-c6b5-72f3-bf18-9e2d0b619bfb","01990a83-7673-7c0c-a792-bbd8fbbaf673","2025-09-02_09h24.45.233",NA,NA,292.9228,292.9229,292.9229,293.2727,NA,NA,NA,NA,NA,NA,NA,TRUE,1,0.8414,289.9261,292.9226,0,14,14,43,1,30,27,NA,NA,NA,NA,NA,1,15,"binary"
"0870B39E7CB348DBB74699311458D574",1,"01990a97-c6b5-72f3-bf18-9e2d0b619bfb","01990a83-7673-7c0c-a792-bbd8fbbaf673","2025-09-02_09h24.45.233",NA,NA,296.2727,296.2727,296.2727,296.6225,NA,NA,NA,NA,NA,NA,NA,TRUE,1,0.6959,293.2759,296.2725,0,15,15,46,1,30,32,NA,NA,NA,NA,NA,1,16,"binary"
"0870B39E7CB348DBB74699311458D574",1,"01990a97-c6b5-72f3-bf18-9e2d0b619bfb","01990a83-7673-7c0c-a792-bbd8fbbaf673","2025-09-02_09h24.45.233",NA,NA,299.6225,299.6225,299.6226,299.9723,NA,NA,NA,NA,NA,NA,NA,TRUE,1,0.9934,296.6257,299.6223,0,16,16,23,1,14,39,NA,NA,NA,NA,NA,1,17,"binary"
"0870B39E7CB348DBB74699311458D574",1,"01990a97-c6b5-72f3-bf18-9e2d0b619bfb","01990a83-7673-7c0c-a792-bbd8fbbaf673","2025-09-02_09h24.45.233",NA,NA,302.9723,302.9724,302.9724,303.322,NA,NA,NA,NA,NA,NA,NA,TRUE,1,0.7596,299.9758,302.9722,0,17,17,73,1,90,30,NA,NA,NA,NA,NA,1,18,"binary"
"0870B39E7CB348DBB74699311458D574",1,"01990a97-c6b5-72f3-bf18-9e2d0b619bfb","01990a83-7673-7c0c-a792-bbd8fbbaf673","2025-09-02_09h24.45.233",NA,NA,306.3222,306.3222,306.3223,306.6719,NA,NA,NA,NA,NA,NA,NA,TRUE,1,1.1026,303.3253,306.322,0,18,18,84,1,100,26,NA,NA,NA,NA,NA,1,19,"binary"
"0870B39E7CB348DBB74699311458D574",1,"01990a97-c6b5-72f3-bf18-9e2d0b619bfb","01990a83-7673-7c0c-a792-bbd8fbbaf673","2025-09-02_09h24.45.233",NA,NA,309.672,309.672,309.672,310.0219,NA,NA,NA,NA,NA,NA,NA,TRUE,1,0.8346,306.6751,309.6718,0,19,19,44,1,30,29,NA,NA,NA,NA,NA,1,20,"binary"
"0870B39E7CB348DBB74699311458D574",1,"01990a97-c6b5-72f3-bf18-9e2d0b619bfb","01990a83-7673-7c0c-a792-bbd8fbbaf673","2025-09-02_09h24.45.233",NA,NA,313.0219,313.0219,313.0219,313.3716,NA,NA,NA,NA,NA,NA,NA,TRUE,1,0.7524,310.025,313.0217,0,20,20,102,1,200,26,NA,NA,NA,NA,NA,1,21,"binary"
"0870B39E7CB348DBB74699311458D574",1,"01990a97-c6b5-72f3-bf18-9e2d0b619bfb","01990a83-7673-7c0c-a792-bbd8fbbaf673","2025-09-02_09h24.45.233",NA,NA,316.3718,316.3718,316.3718,316.7215,NA,NA,NA,NA,NA,NA,NA,TRUE,1,0.6353,313.3749,316.3716,0,21,21,33,1,25,33,NA,NA,NA,NA,NA,1,22,"binary"
"0870B39E7CB348DBB74699311458D574",1,"01990a97-c6b5-72f3-bf18-9e2d0b619bfb","01990a83-7673-7c0c-a792-bbd8fbbaf673","2025-09-02_09h24.45.233",NA,NA,319.7216,319.7216,319.7216,320.0714,NA,NA,NA,NA,NA,NA,NA,TRUE,1,0.8056,316.7248,319.7214,0,22,22,62,1,50,35,NA,NA,NA,NA,NA,1,23,"binary"
"0870B39E7CB348DBB74699311458D574",1,"01990a97-c6b5-72f3-bf18-9e2d0b619bfb","01990a83-7673-7c0c-a792-bbd8fbbaf673","2025-09-02_09h24.45.233",NA,NA,323.0715,323.0715,323.0715,323.4212,NA,NA,NA,NA,NA,NA,NA,TRUE,1,0.8025,320.0747,323.0714,0,23,23,80,1,95,35,NA,NA,NA,NA,NA,1,24,"binary"
"0870B39E7CB348DBB74699311458D574",1,"01990a97-c6b5-72f3-bf18-9e2d0b619bfb","01990a83-7673-7c0c-a792-bbd8fbbaf673","2025-09-02_09h24.45.233",NA,NA,326.4213,326.4214,326.4214,326.7711,NA,NA,NA,NA,NA,NA,NA,TRUE,1,0.6694,323.4253,326.4212,0,24,24,57,1,45,35,NA,NA,NA,NA,NA,1,25,"binary"
"0870B39E7CB348DBB74699311458D574",1,"01990a97-c6b5-72f3-bf18-9e2d0b619bfb","01990a83-7673-7c0c-a792-bbd8fbbaf673","2025-09-02_09h24.45.233",NA,NA,329.771,329.7711,329.7711,330.1209,NA,NA,NA,NA,NA,NA,NA,TRUE,1,0.6127,326.7742,329.7709,0,25,25,22,1,14,35,NA,NA,NA,NA,NA,1,26,"binary"
"0870B39E7CB348DBB74699311458D574",1,"01990a97-c6b5-72f3-bf18-9e2d0b619bfb","01990a83-7673-7c0c-a792-bbd8fbbaf673","2025-09-02_09h24.45.233",NA,NA,333.121,333.121,333.121,333.4708,NA,NA,NA,NA,NA,NA,NA,TRUE,1,0.9445,330.1245,333.1208,0,26,26,29,1,21,38,NA,NA,NA,NA,NA,1,27,"binary"
"0870B39E7CB348DBB74699311458D574",1,"01990a97-c6b5-72f3-bf18-9e2d0b619bfb","01990a83-7673-7c0c-a792-bbd8fbbaf673","2025-09-02_09h24.45.233",NA,NA,336.4708,336.4709,336.4709,336.8207,NA,NA,NA,NA,NA,NA,NA,TRUE,1,0.9532,333.474,336.4707,0,27,27,89,1,100,54,NA,NA,NA,NA,NA,1,28,"binary"
"0870B39E7CB348DBB74699311458D574",1,"01990a97-c6b5-72f3-bf18-9e2d0b619bfb","01990a83-7673-7c0c-a792-bbd8fbbaf673","2025-09-02_09h24.45.233",NA,NA,339.8207,339.8207,339.8207,340.1705,NA,NA,NA,NA,NA,NA,NA,TRUE,1,0.604,336.8239,339.8205,0,28,28,48,1,40,27,NA,NA,NA,NA,NA,1,29,"binary"
"0870B39E7CB348DBB74699311458D574",1,"01990a97-c6b5-72f3-bf18-9e2d0b619bfb","01990a83-7673-7c0c-a792-bbd8fbbaf673","2025-09-02_09h24.45.233",NA,NA,343.1705,343.1706,343.1706,343.5203,NA,NA,NA,NA,NA,NA,NA,TRUE,1,0.6904,340.1737,343.1704,0,29,29,95,1,150,54,NA,NA,NA,NA,NA,1,30,"binary"
"0870B39E7CB348DBB74699311458D574",1,"01990a97-c6b5-72f3-bf18-9e2d0b619bfb","01990a83-7673-7c0c-a792-bbd8fbbaf673","2025-09-02_09h24.45.233",NA,NA,346.5205,346.5205,346.5205,346.8702,NA,NA,NA,NA,NA,NA,NA,TRUE,1,1.138,343.5237,346.5202,0,30,30,5,1,7,35,NA,NA,NA,NA,NA,1,31,"binary"
"0870B39E7CB348DBB74699311458D574",1,"01990a97-c6b5-72f3-bf18-9e2d0b619bfb","01990a83-7673-7c0c-a792-bbd8fbbaf673","2025-09-02_09h24.45.233",NA,NA,349.8703,349.8703,349.8703,350.22,NA,NA,NA,NA,NA,NA,NA,TRUE,1,0.9526,346.8735,349.8701,0,31,31,107,1,200,54,NA,NA,NA,NA,NA,1,32,"binary"
"0870B39E7CB348DBB74699311458D574",1,"01990a97-c6b5-72f3-bf18-9e2d0b619bfb","01990a83-7673-7c0c-a792-bbd8fbbaf673","2025-09-02_09h24.45.233",NA,NA,353.2202,353.2202,353.2203,353.5699,NA,NA,NA,NA,NA,NA,NA,TRUE,1,0.995,350.2231,353.22,0,32,32,49,1,40,33,NA,NA,NA,NA,NA,1,33,"binary"
"0870B39E7CB348DBB74699311458D574",1,"01990a97-c6b5-72f3-bf18-9e2d0b619bfb","01990a83-7673-7c0c-a792-bbd8fbbaf673","2025-09-02_09h24.45.233",NA,NA,356.57,356.57,356.5701,356.9198,NA,NA,NA,NA,NA,NA,NA,TRUE,1,1.1852,353.5731,356.5698,0,33,33,8,1,10,27,NA,NA,NA,NA,NA,1,34,"binary"
"0870B39E7CB348DBB74699311458D574",1,"01990a97-c6b5-72f3-bf18-9e2d0b619bfb","01990a83-7673-7c0c-a792-bbd8fbbaf673","2025-09-02_09h24.45.233",NA,NA,359.9198,359.9199,359.9199,360.2696,NA,NA,NA,NA,NA,NA,NA,TRUE,1,1.2222,356.9233,359.9196,0,34,34,72,1,90,26,NA,NA,NA,NA,NA,1,35,"binary"
"0870B39E7CB348DBB74699311458D574",1,"01990a97-c6b5-72f3-bf18-9e2d0b619bfb","01990a83-7673-7c0c-a792-bbd8fbbaf673","2025-09-02_09h24.45.233",NA,NA,363.2696,363.2697,363.2697,363.6193,NA,NA,NA,NA,NA,NA,NA,TRUE,1,0.8572,360.2728,363.2695,0,35,35,69,1,60,40,NA,NA,NA,NA,NA,1,36,"binary"
"0870B39E7CB348DBB74699311458D574",1,"01990a97-c6b5-72f3-bf18-9e2d0b619bfb","01990a83-7673-7c0c-a792-bbd8fbbaf673","2025-09-02_09h24.45.233",NA,NA,366.6194,366.6196,366.6196,366.9694,NA,NA,NA,NA,NA,NA,NA,TRUE,1,1.1618,363.6228,366.6193,0,36,36,56,1,45,31,NA,NA,NA,NA,NA,1,37,"binary"
"0870B39E7CB348DBB74699311458D574",1,"01990a97-c6b5-72f3-bf18-9e2d0b619bfb","01990a83-7673-7c0c-a792-bbd8fbbaf673","2025-09-02_09h24.45.233",NA,NA,369.9694,369.9694,369.9695,370.3191,NA,NA,NA,NA,NA,NA,NA,TRUE,1,1.0306,366.9727,369.9692,0,37,37,14,1,12,28,NA,NA,NA,NA,NA,1,38,"binary"
"0870B39E7CB348DBB74699311458D574",1,"01990a97-c6b5-72f3-bf18-9e2d0b619bfb","01990a83-7673-7c0c-a792-bbd8fbbaf673","2025-09-02_09h24.45.233",NA,NA,373.3191,373.3192,373.3192,373.669,NA,NA,NA,NA,NA,NA,NA,TRUE,1,0.953,370.3224,373.319,0,38,38,54,1,45,26,NA,NA,NA,NA,NA,1,39,"binary"
"0870B39E7CB348DBB74699311458D574",1,"01990a97-c6b5-72f3-bf18-9e2d0b619bfb","01990a83-7673-7c0c-a792-bbd8fbbaf673","2025-09-02_09h24.45.233",NA,NA,376.669,376.6691,376.6691,377.0188,NA,NA,NA,NA,NA,NA,NA,TRUE,1,0.836,373.6723,376.6689,0,39,39,30,1,25,27,NA,NA,NA,NA,NA,1,40,"binary"
"0870B39E7CB348DBB74699311458D574",1,"01990a97-c6b5-72f3-bf18-9e2d0b619bfb","01990a83-7673-7c0c-a792-bbd8fbbaf673","2025-09-02_09h24.45.233",NA,NA,380.0189,380.0189,380.019,380.3687,NA,NA,NA,NA,NA,NA,NA,TRUE,1,1.2176,377.0224,380.0188,0,40,40,24,1,21,26,NA,NA,NA,NA,NA,1,41,"binary"
"0870B39E7CB348DBB74699311458D574",1,"01990a97-c6b5-72f3-bf18-9e2d0b619bfb","01990a83-7673-7c0c-a792-bbd8fbbaf673","2025-09-02_09h24.45.233",NA,NA,383.3687,383.3687,383.3687,383.7185,NA,NA,NA,NA,NA,NA,NA,TRUE,1,0.7905,380.3719,383.3686,0,41,41,68,1,60,35,NA,NA,NA,NA,NA,1,42,"binary"
"0870B39E7CB348DBB74699311458D574",1,"01990a97-c6b5-72f3-bf18-9e2d0b619bfb","01990a83-7673-7c0c-a792-bbd8fbbaf673","2025-09-02_09h24.45.233",NA,NA,386.7185,386.7187,386.7187,387.0684,NA,NA,NA,NA,NA,NA,NA,TRUE,1,0.8946,383.7219,386.7184,0,42,42,34,1,25,35,NA,NA,NA,NA,NA,1,43,"binary"
"0870B39E7CB348DBB74699311458D574",1,"01990a97-c6b5-72f3-bf18-9e2d0b619bfb","01990a83-7673-7c0c-a792-bbd8fbbaf673","2025-09-02_09h24.45.233",NA,NA,390.0685,390.0685,390.0686,390.4182,NA,NA,NA,NA,NA,NA,NA,TRUE,1,0.9283,387.0717,390.0684,0,43,43,76,1,90,46,NA,NA,NA,NA,NA,1,44,"binary"
"0870B39E7CB348DBB74699311458D574",1,"01990a97-c6b5-72f3-bf18-9e2d0b619bfb","01990a83-7673-7c0c-a792-bbd8fbbaf673","2025-09-02_09h24.45.233",NA,NA,393.4186,393.4187,393.4187,393.768,NA,NA,NA,NA,NA,NA,NA,TRUE,1,0.8951,390.4214,393.4181,0,44,44,71,1,60,54,NA,NA,NA,NA,NA,1,45,"binary"
"0870B39E7CB348DBB74699311458D574",1,"01990a97-c6b5-72f3-bf18-9e2d0b619bfb","01990a83-7673-7c0c-a792-bbd8fbbaf673","2025-09-02_09h24.45.233",NA,NA,396.7683,396.7683,396.7683,397.118,NA,NA,NA,NA,NA,NA,NA,TRUE,1,0.9328,393.7717,396.7681,0,45,45,7,1,10,26,NA,NA,NA,NA,NA,1,46,"binary"
"0870B39E7CB348DBB74699311458D574",1,"01990a97-c6b5-72f3-bf18-9e2d0b619bfb","01990a83-7673-7c0c-a792-bbd8fbbaf673","2025-09-02_09h24.45.233",NA,NA,400.118,400.1181,400.1181,400.4678,NA,NA,NA,NA,NA,NA,NA,TRUE,1,0.5803,397.1212,400.1179,0,46,46,61,1,50,30,NA,NA,NA,NA,NA,1,47,"binary"
"0870B39E7CB348DBB74699311458D574",1,"01990a97-c6b5-72f3-bf18-9e2d0b619bfb","01990a83-7673-7c0c-a792-bbd8fbbaf673","2025-09-02_09h24.45.233",NA,NA,403.4679,403.4679,403.468,403.8177,NA,NA,NA,NA,NA,NA,NA,TRUE,1,0.7713,400.471,403.4678,0,47,47,17,1,12,35,NA,NA,NA,NA,NA,1,48,"binary"
"0870B39E7CB348DBB74699311458D574",1,"01990a97-c6b5-72f3-bf18-9e2d0b619bfb","01990a83-7673-7c0c-a792-bbd8fbbaf673","2025-09-02_09h24.45.233",NA,NA,406.8178,406.8178,406.8178,407.1676,NA,NA,NA,NA,NA,NA,NA,TRUE,1,0.729,403.8209,406.8176,0,48,48,13,1,12,26,NA,NA,NA,NA,NA,1,49,"binary"
"0870B39E7CB348DBB74699311458D574",1,"01990a97-c6b5-72f3-bf18-9e2d0b619bfb","01990a83-7673-7c0c-a792-bbd8fbbaf673","2025-09-02_09h24.45.233",NA,NA,410.1675,410.1676,410.1676,410.5173,NA,NA,NA,NA,NA,NA,NA,TRUE,1,0.9693,407.1709,410.1673,0,49,49,10,1,10,30,NA,NA,NA,NA,NA,1,50,"binary"
"0870B39E7CB348DBB74699311458D574",1,"01990a97-c6b5-72f3-bf18-9e2d0b619bfb","01990a83-7673-7c0c-a792-bbd8fbbaf673","2025-09-02_09h24.45.233",NA,NA,413.5173,413.5174,413.5174,413.8672,NA,NA,NA,NA,NA,NA,NA,TRUE,1,0.7694,410.5208,413.5172,0,50,50,85,1,100,31,NA,NA,NA,NA,NA,1,51,"binary"
"0870B39E7CB348DBB74699311458D574",1,"01990a97-c6b5-72f3-bf18-9e2d0b619bfb","01990a83-7673-7c0c-a792-bbd8fbbaf673","2025-09-02_09h24.45.233",NA,NA,416.8673,416.8673,416.8674,417.217,NA,NA,NA,NA,NA,NA,NA,TRUE,1,0.8243,413.8705,416.8671,0,51,51,65,1,50,54,NA,NA,NA,NA,NA,1,52,"binary"
"0870B39E7CB348DBB74699311458D574",1,"01990a97-c6b5-72f3-bf18-9e2d0b619bfb","01990a83-7673-7c0c-a792-bbd8fbbaf673","2025-09-02_09h24.45.233",NA,NA,420.2172,420.2173,420.2173,420.5669,NA,NA,NA,NA,NA,NA,NA,TRUE,1,0.6237,417.2202,420.217,0,52,52,100,1,180,46,NA,NA,NA,NA,NA,1,53,"binary"
"0870B39E7CB348DBB74699311458D574",1,"01990a97-c6b5-72f3-bf18-9e2d0b619bfb","01990a83-7673-7c0c-a792-bbd8fbbaf673","2025-09-02_09h24.45.233",NA,NA,423.5669,423.5669,423.567,423.9168,NA,NA,NA,NA,NA,NA,NA,TRUE,1,0.8939,420.5705,423.5668,0,53,53,58,1,45,40,NA,NA,NA,NA,NA,1,54,"binary"
"0870B39E7CB348DBB74699311458D574",1,"01990a97-c6b5-72f3-bf18-9e2d0b619bfb","01990a83-7673-7c0c-a792-bbd8fbbaf673","2025-09-02_09h24.45.233",NA,NA,426.9167,426.9167,426.9168,427.2666,NA,NA,NA,NA,NA,NA,NA,TRUE,1,0.9929,423.9201,426.9165,0,54,54,35,1,25,46,NA,NA,NA,NA,NA,1,55,"binary"
"0870B39E7CB348DBB74699311458D574",1,"01990a97-c6b5-72f3-bf18-9e2d0b619bfb","01990a83-7673-7c0c-a792-bbd8fbbaf673","2025-09-02_09h24.45.233",NA,NA,430.2665,430.2666,430.2666,430.6164,NA,NA,NA,NA,NA,NA,NA,TRUE,1,0.6771,427.2698,430.2663,0,55,55,79,1,95,33,NA,NA,NA,NA,NA,1,56,"binary"
"0870B39E7CB348DBB74699311458D574",1,"01990a97-c6b5-72f3-bf18-9e2d0b619bfb","01990a83-7673-7c0c-a792-bbd8fbbaf673","2025-09-02_09h24.45.233",NA,NA,433.6165,433.6165,433.6165,433.9664,NA,NA,NA,NA,NA,NA,NA,TRUE,1,0.5856,430.62,433.6163,0,56,56,41,1,28,46,NA,NA,NA,NA,NA,1,57,"binary"
"0870B39E7CB348DBB74699311458D574",1,"01990a97-c6b5-72f3-bf18-9e2d0b619bfb","01990a83-7673-7c0c-a792-bbd8fbbaf673","2025-09-02_09h24.45.233",NA,NA,436.9664,436.9664,436.9664,437.316,NA,NA,NA,NA,NA,NA,NA,TRUE,1,0.9043,433.9695,436.9662,0,57,57,93,1,150,40,NA,NA,NA,NA,NA,1,58,"binary"
"0870B39E7CB348DBB74699311458D574",1,"01990a97-c6b5-72f3-bf18-9e2d0b619bfb","01990a83-7673-7c0c-a792-bbd8fbbaf673","2025-09-02_09h24.45.233",NA,NA,440.3161,440.3161,440.3161,440.6659,NA,NA,NA,NA,NA,NA,NA,TRUE,1,1.0084,437.3196,440.316,0,58,58,101,1,180,54,NA,NA,NA,NA,NA,1,59,"binary"
"0870B39E7CB348DBB74699311458D574",1,"01990a97-c6b5-72f3-bf18-9e2d0b619bfb","01990a83-7673-7c0c-a792-bbd8fbbaf673","2025-09-02_09h24.45.233",NA,NA,443.6661,443.6661,443.6662,444.0158,NA,NA,NA,NA,NA,NA,NA,TRUE,1,0.8771,440.6693,443.666,0,59,59,47,1,30,38,NA,NA,NA,NA,NA,1,60,"binary"
"0870B39E7CB348DBB74699311458D574",1,"01990a97-c6b5-72f3-bf18-9e2d0b619bfb","01990a83-7673-7c0c-a792-bbd8fbbaf673","2025-09-02_09h24.45.233",NA,NA,447.0158,447.0158,447.0158,447.3657,NA,NA,NA,NA,NA,NA,NA,TRUE,1,0.9587,444.0192,447.0157,0,60,60,99,1,180,39,NA,NA,NA,NA,NA,1,61,"binary"
"0870B39E7CB348DBB74699311458D574",1,"01990a97-c6b5-72f3-bf18-9e2d0b619bfb","01990a83-7673-7c0c-a792-bbd8fbbaf673","2025-09-02_09h24.45.233",NA,NA,450.3657,450.3658,450.3658,450.7155,NA,NA,NA,NA,NA,NA,NA,TRUE,1,0.7097,447.3691,450.3655,0,61,61,66,1,60,29,NA,NA,NA,NA,NA,1,62,"binary"
"0870B39E7CB348DBB74699311458D574",1,"01990a97-c6b5-72f3-bf18-9e2d0b619bfb","01990a83-7673-7c0c-a792-bbd8fbbaf673","2025-09-02_09h24.45.233",NA,NA,453.7155,453.7156,453.7156,454.0654,NA,NA,NA,NA,NA,NA,NA,TRUE,1,1.3359,450.7187,453.7154,0,62,62,4,1,7,32,NA,NA,NA,NA,NA,1,63,"binary"
"0870B39E7CB348DBB74699311458D574",1,"01990a97-c6b5-72f3-bf18-9e2d0b619bfb","01990a83-7673-7c0c-a792-bbd8fbbaf673","2025-09-02_09h24.45.233",NA,NA,457.0655,457.0655,457.0655,457.4153,NA,NA,NA,NA,NA,NA,NA,TRUE,1,0.8018,454.0686,457.0653,0,63,63,77,1,90,54,NA,NA,NA,NA,NA,1,64,"binary"
"0870B39E7CB348DBB74699311458D574",1,"01990a97-c6b5-72f3-bf18-9e2d0b619bfb","01990a83-7673-7c0c-a792-bbd8fbbaf673","2025-09-02_09h24.45.233",NA,NA,460.4153,460.4153,460.4153,460.7651,NA,NA,NA,NA,NA,NA,NA,TRUE,1,0.8617,457.4187,460.4151,0,64,64,42,1,30,26,NA,NA,NA,NA,NA,1,65,"binary"
"0870B39E7CB348DBB74699311458D574",1,"01990a97-c6b5-72f3-bf18-9e2d0b619bfb","01990a83-7673-7c0c-a792-bbd8fbbaf673","2025-09-02_09h24.45.233",NA,NA,463.7651,463.7651,463.7652,464.1149,NA,NA,NA,NA,NA,NA,NA,TRUE,1,1.0286,460.7684,463.765,0,65,65,0,1,7,25,NA,NA,NA,NA,NA,1,66,"binary"
"0870B39E7CB348DBB74699311458D574",1,"01990a97-c6b5-72f3-bf18-9e2d0b619bfb","01990a83-7673-7c0c-a792-bbd8fbbaf673","2025-09-02_09h24.45.233",NA,NA,467.115,467.115,467.1152,467.4648,NA,NA,NA,NA,NA,NA,NA,TRUE,1,0.9602,464.1181,467.1149,0,66,66,96,1,180,27,NA,NA,NA,NA,NA,1,67,"binary"
"0870B39E7CB348DBB74699311458D574",1,"01990a97-c6b5-72f3-bf18-9e2d0b619bfb","01990a83-7673-7c0c-a792-bbd8fbbaf673","2025-09-02_09h24.45.233",NA,NA,470.4649,470.4649,470.4649,470.8147,NA,NA,NA,NA,NA,NA,NA,TRUE,1,0.7367,467.4682,470.4647,0,67,67,90,1,150,31,NA,NA,NA,NA,NA,1,68,"binary"
"0870B39E7CB348DBB74699311458D574",1,"01990a97-c6b5-72f3-bf18-9e2d0b619bfb","01990a83-7673-7c0c-a792-bbd8fbbaf673","2025-09-02_09h24.45.233",NA,NA,473.8146,473.8147,473.8147,474.1811,NA,NA,NA,NA,NA,NA,NA,TRUE,1,1.0689,470.818,473.8146,0,68,68,37,1,28,28,NA,NA,NA,NA,NA,1,69,"binary"
"0870B39E7CB348DBB74699311458D574",1,"01990a97-c6b5-72f3-bf18-9e2d0b619bfb","01990a83-7673-7c0c-a792-bbd8fbbaf673","2025-09-02_09h24.45.233",NA,NA,477.1813,477.1814,477.1815,477.531,NA,NA,NA,NA,NA,NA,NA,TRUE,1,0.816,474.1841,477.1812,0,69,69,21,1,14,32,NA,NA,NA,NA,NA,1,70,"binary"
"0870B39E7CB348DBB74699311458D574",1,"01990a97-c6b5-72f3-bf18-9e2d0b619bfb","01990a83-7673-7c0c-a792-bbd8fbbaf673","2025-09-02_09h24.45.233",NA,NA,480.5311,480.5311,480.5312,480.8809,NA,NA,NA,NA,NA,NA,NA,TRUE,1,1.4556,477.5346,480.5309,0,70,70,11,1,10,32,NA,NA,NA,NA,NA,1,71,"binary"
"0870B39E7CB348DBB74699311458D574",1,"01990a97-c6b5-72f3-bf18-9e2d0b619bfb","01990a83-7673-7c0c-a792-bbd8fbbaf673","2025-09-02_09h24.45.233",NA,NA,483.8809,483.8811,483.8811,484.2307,NA,NA,NA,NA,NA,NA,NA,TRUE,1,0.7043,480.8842,483.8808,0,71,71,53,1,40,54,NA,NA,NA,NA,NA,1,72,"binary"
"0870B39E7CB348DBB74699311458D574",1,"01990a97-c6b5-72f3-bf18-9e2d0b619bfb","01990a83-7673-7c0c-a792-bbd8fbbaf673","2025-09-02_09h24.45.233",NA,NA,487.2308,487.2308,487.2309,487.5806,NA,NA,NA,NA,NA,NA,NA,TRUE,1,0.6352,484.2339,487.2307,0,72,72,70,1,60,47,NA,NA,NA,NA,NA,1,73,"binary"
"0870B39E7CB348DBB74699311458D574",1,"01990a97-c6b5-72f3-bf18-9e2d0b619bfb","01990a83-7673-7c0c-a792-bbd8fbbaf673","2025-09-02_09h24.45.233",NA,NA,490.5809,490.5809,490.581,490.9304,NA,NA,NA,NA,NA,NA,NA,TRUE,1,0.7798,487.584,490.5807,0,73,73,20,1,14,28,NA,NA,NA,NA,NA,1,74,"binary"
"0870B39E7CB348DBB74699311458D574",1,"01990a97-c6b5-72f3-bf18-9e2d0b619bfb","01990a83-7673-7c0c-a792-bbd8fbbaf673","2025-09-02_09h24.45.233",NA,NA,493.9305,493.9306,493.9306,494.2803,NA,NA,NA,NA,NA,NA,NA,TRUE,1,1.3392,490.9336,493.9303,0,74,74,6,1,10,25,NA,NA,NA,NA,NA,1,75,"binary"
"0870B39E7CB348DBB74699311458D574",1,"01990a97-c6b5-72f3-bf18-9e2d0b619bfb","01990a83-7673-7c0c-a792-bbd8fbbaf673","2025-09-02_09h24.45.233",NA,NA,497.2804,497.2805,497.2805,497.6302,NA,NA,NA,NA,NA,NA,NA,TRUE,1,0.9371,494.2835,497.2802,0,75,75,39,1,28,35,NA,NA,NA,NA,NA,1,76,"binary"
"0870B39E7CB348DBB74699311458D574",1,"01990a97-c6b5-72f3-bf18-9e2d0b619bfb","01990a83-7673-7c0c-a792-bbd8fbbaf673","2025-09-02_09h24.45.233",NA,NA,500.6302,500.6303,500.6303,500.98,NA,NA,NA,NA,NA,NA,NA,TRUE,1,0.9292,497.6336,500.63,0,76,76,104,1,200,35,NA,NA,NA,NA,NA,1,77,"binary"
"0870B39E7CB348DBB74699311458D574",1,"01990a97-c6b5-72f3-bf18-9e2d0b619bfb","01990a83-7673-7c0c-a792-bbd8fbbaf673","2025-09-02_09h24.45.233",NA,NA,503.9803,503.9804,503.9805,504.3298,NA,NA,NA,NA,NA,NA,NA,TRUE,1,0.6506,500.9833,503.98,0,77,77,82,1,95,47,NA,NA,NA,NA,NA,1,78,"binary"
"0870B39E7CB348DBB74699311458D574",1,"01990a97-c6b5-72f3-bf18-9e2d0b619bfb","01990a83-7673-7c0c-a792-bbd8fbbaf673","2025-09-02_09h24.45.233",NA,NA,507.3298,507.3299,507.33,507.6798,NA,NA,NA,NA,NA,NA,NA,TRUE,1,0.7975,504.333,507.3297,0,78,78,19,1,14,26,NA,NA,NA,NA,NA,1,79,"binary"
"0870B39E7CB348DBB74699311458D574",1,"01990a97-c6b5-72f3-bf18-9e2d0b619bfb","01990a83-7673-7c0c-a792-bbd8fbbaf673","2025-09-02_09h24.45.233",NA,NA,510.6797,510.6798,510.6799,511.0297,NA,NA,NA,NA,NA,NA,NA,TRUE,1,0.7513,507.6834,510.6795,0,79,79,63,1,50,40,NA,NA,NA,NA,NA,1,80,"binary"
"0870B39E7CB348DBB74699311458D574",1,"01990a97-c6b5-72f3-bf18-9e2d0b619bfb","01990a83-7673-7c0c-a792-bbd8fbbaf673","2025-09-02_09h24.45.233",NA,NA,514.0295,514.0296,514.0297,514.3793,NA,NA,NA,NA,NA,NA,NA,TRUE,1,0.763,511.0329,514.0294,0,80,80,87,1,100,39,NA,NA,NA,NA,NA,1,81,"binary"
"0870B39E7CB348DBB74699311458D574",1,"01990a97-c6b5-72f3-bf18-9e2d0b619bfb","01990a83-7673-7c0c-a792-bbd8fbbaf673","2025-09-02_09h24.45.233",NA,NA,517.3795,517.3796,517.3797,517.7292,NA,NA,NA,NA,NA,NA,NA,TRUE,1,0.5714,514.383,517.3793,0,81,81,32,1,25,31,NA,NA,NA,NA,NA,1,82,"binary"
"0870B39E7CB348DBB74699311458D574",1,"01990a97-c6b5-72f3-bf18-9e2d0b619bfb","01990a83-7673-7c0c-a792-bbd8fbbaf673","2025-09-02_09h24.45.233",NA,NA,520.7292,520.7294,520.7295,521.079,NA,NA,NA,NA,NA,NA,NA,TRUE,1,0.5876,517.7331,520.7291,0,82,82,67,1,60,33,NA,NA,NA,NA,NA,1,83,"binary"
"0870B39E7CB348DBB74699311458D574",1,"01990a97-c6b5-72f3-bf18-9e2d0b619bfb","01990a83-7673-7c0c-a792-bbd8fbbaf673","2025-09-02_09h24.45.233",NA,NA,524.0791,524.0792,524.0793,524.4289,NA,NA,NA,NA,NA,NA,NA,TRUE,1,0.6134,521.0823,524.0789,0,83,83,27,1,21,30,NA,NA,NA,NA,NA,1,84,"binary"
"0870B39E7CB348DBB74699311458D574",1,"01990a97-c6b5-72f3-bf18-9e2d0b619bfb","01990a83-7673-7c0c-a792-bbd8fbbaf673","2025-09-02_09h24.45.233",NA,NA,527.429,527.4291,527.4291,527.7788,NA,NA,NA,NA,NA,NA,NA,TRUE,1,0.6635,524.4321,527.4289,0,84,84,75,1,90,40,NA,NA,NA,NA,NA,1,85,"binary"
"0870B39E7CB348DBB74699311458D574",1,"01990a97-c6b5-72f3-bf18-9e2d0b619bfb","01990a83-7673-7c0c-a792-bbd8fbbaf673","2025-09-02_09h24.45.233",NA,NA,530.7788,530.7789,530.779,531.1286,NA,NA,NA,NA,NA,NA,NA,TRUE,1,0.7974,527.7819,530.7787,0,85,85,12,1,12,25,NA,NA,NA,NA,NA,1,86,"binary"
"0870B39E7CB348DBB74699311458D574",1,"01990a97-c6b5-72f3-bf18-9e2d0b619bfb","01990a83-7673-7c0c-a792-bbd8fbbaf673","2025-09-02_09h24.45.233",NA,NA,534.1285,534.1285,534.1286,534.4786,NA,NA,NA,NA,NA,NA,NA,TRUE,1,0.7537,531.1318,534.1284,0,86,86,105,1,200,39,NA,NA,NA,NA,NA,1,87,"binary"
"0870B39E7CB348DBB74699311458D574",1,"01990a97-c6b5-72f3-bf18-9e2d0b619bfb","01990a83-7673-7c0c-a792-bbd8fbbaf673","2025-09-02_09h24.45.233",NA,NA,537.4786,537.4787,537.4788,537.8283,NA,NA,NA,NA,NA,NA,NA,TRUE,1,0.5755,534.4834,537.4784,0,87,87,31,1,25,29,NA,NA,NA,NA,NA,1,88,"binary"
"0870B39E7CB348DBB74699311458D574",1,"01990a97-c6b5-72f3-bf18-9e2d0b619bfb","01990a83-7673-7c0c-a792-bbd8fbbaf673","2025-09-02_09h24.45.233",NA,NA,540.8284,540.8285,540.8285,541.1782,NA,NA,NA,NA,NA,NA,NA,TRUE,1,0.6362,537.8316,540.8282,0,88,88,78,1,95,31,NA,NA,NA,NA,NA,1,89,"binary"
"0870B39E7CB348DBB74699311458D574",1,"01990a97-c6b5-72f3-bf18-9e2d0b619bfb","01990a83-7673-7c0c-a792-bbd8fbbaf673","2025-09-02_09h24.45.233",NA,NA,544.1782,544.1783,544.1783,544.5281,NA,NA,NA,NA,NA,NA,NA,TRUE,1,0.6386,541.1813,544.1781,0,89,89,92,1,150,35,NA,NA,NA,NA,NA,1,90,"binary"
"0870B39E7CB348DBB74699311458D574",1,"01990a97-c6b5-72f3-bf18-9e2d0b619bfb","01990a83-7673-7c0c-a792-bbd8fbbaf673","2025-09-02_09h24.45.233",NA,NA,547.5281,547.5282,547.5282,547.8778,NA,NA,NA,NA,NA,NA,NA,TRUE,1,0.7201,544.5315,547.5279,0,90,90,45,1,30,30,NA,NA,NA,NA,NA,1,91,"binary"
"0870B39E7CB348DBB74699311458D574",1,"01990a97-c6b5-72f3-bf18-9e2d0b619bfb","01990a83-7673-7c0c-a792-bbd8fbbaf673","2025-09-02_09h24.45.233",NA,NA,550.8779,550.878,550.878,551.2276,NA,NA,NA,NA,NA,NA,NA,TRUE,1,0.9638,547.881,550.8778,0,91,91,60,1,50,27,NA,NA,NA,NA,NA,1,92,"binary"
"0870B39E7CB348DBB74699311458D574",1,"01990a97-c6b5-72f3-bf18-9e2d0b619bfb","01990a83-7673-7c0c-a792-bbd8fbbaf673","2025-09-02_09h24.45.233",NA,NA,554.2278,554.2279,554.2279,554.5777,NA,NA,NA,NA,NA,NA,NA,TRUE,1,1.0304,551.2309,554.2276,0,92,92,51,1,40,40,NA,NA,NA,NA,NA,1,93,"binary"
"0870B39E7CB348DBB74699311458D574",1,"01990a97-c6b5-72f3-bf18-9e2d0b619bfb","01990a83-7673-7c0c-a792-bbd8fbbaf673","2025-09-02_09h24.45.233",NA,NA,557.5776,557.5777,557.5777,557.9274,NA,NA,NA,NA,NA,NA,NA,TRUE,1,0.7551,554.5813,557.5774,0,93,93,2,1,7,28,NA,NA,NA,NA,NA,1,94,"binary"
"0870B39E7CB348DBB74699311458D574",1,"01990a97-c6b5-72f3-bf18-9e2d0b619bfb","01990a83-7673-7c0c-a792-bbd8fbbaf673","2025-09-02_09h24.45.233",NA,NA,560.9275,560.9276,560.9276,561.2772,NA,NA,NA,NA,NA,NA,NA,TRUE,1,0.6795,557.9306,560.9273,0,94,94,52,1,40,47,NA,NA,NA,NA,NA,1,95,"binary"
"0870B39E7CB348DBB74699311458D574",1,"01990a97-c6b5-72f3-bf18-9e2d0b619bfb","01990a83-7673-7c0c-a792-bbd8fbbaf673","2025-09-02_09h24.45.233",NA,NA,564.2772,564.2774,564.2775,564.6271,NA,NA,NA,NA,NA,NA,NA,TRUE,1,0.6786,561.2804,564.2772,0,95,95,83,1,95,54,NA,NA,NA,NA,NA,1,96,"binary"
"0870B39E7CB348DBB74699311458D574",1,"01990a97-c6b5-72f3-bf18-9e2d0b619bfb","01990a83-7673-7c0c-a792-bbd8fbbaf673","2025-09-02_09h24.45.233",NA,NA,567.6271,567.6273,567.6273,567.9773,NA,NA,NA,NA,NA,NA,NA,TRUE,1,0.8138,564.6302,567.627,0,96,96,50,1,40,35,NA,NA,NA,NA,NA,1,97,"binary"
"0870B39E7CB348DBB74699311458D574",1,"01990a97-c6b5-72f3-bf18-9e2d0b619bfb","01990a83-7673-7c0c-a792-bbd8fbbaf673","2025-09-02_09h24.45.233",NA,NA,570.977,570.977,570.9771,571.3269,NA,NA,NA,NA,NA,NA,NA,TRUE,1,0.8714,567.9814,570.9769,0,97,97,1,1,7,26,NA,NA,NA,NA,NA,1,98,"binary"
"0870B39E7CB348DBB74699311458D574",1,"01990a97-c6b5-72f3-bf18-9e2d0b619bfb","01990a83-7673-7c0c-a792-bbd8fbbaf673","2025-09-02_09h24.45.233",NA,NA,574.3269,574.3269,574.327,574.6767,NA,NA,NA,NA,NA,NA,NA,TRUE,1,0.7307,571.3299,574.3267,0,98,98,55,1,45,29,NA,NA,NA,NA,NA,1,99,"binary"
"0870B39E7CB348DBB74699311458D574",1,"01990a97-c6b5-72f3-bf18-9e2d0b619bfb","01990a83-7673-7c0c-a792-bbd8fbbaf673","2025-09-02_09h24.45.233",NA,NA,577.6766,577.6767,577.6767,578.0264,NA,NA,NA,NA,NA,NA,NA,TRUE,1,1.1176,574.6799,577.6765,0,99,99,3,1,7,30,NA,NA,NA,NA,NA,1,100,"binary"
"0870B39E7CB348DBB74699311458D574",1,"01990a97-c6b5-72f3-bf18-9e2d0b619bfb","01990a83-7673-7c0c-a792-bbd8fbbaf673","2025-09-02_09h24.45.233",NA,NA,581.0264,581.0265,581.0266,581.3764,NA,NA,NA,NA,NA,NA,NA,TRUE,1,0.9546,578.03,581.0263,0,100,100,106,1,200,47,NA,NA,NA,NA,NA,1,101,"binary"
"0870B39E7CB348DBB74699311458D574",1,"01990a97-c6b5-72f3-bf18-9e2d0b619bfb","01990a83-7673-7c0c-a792-bbd8fbbaf673","2025-09-02_09h24.45.233",NA,NA,584.3763,584.3763,584.3763,584.7262,NA,NA,NA,NA,NA,NA,NA,TRUE,1,0.7636,581.3796,584.3761,0,101,101,97,1,180,31,NA,NA,NA,NA,NA,1,102,"binary"
"0870B39E7CB348DBB74699311458D574",1,"01990a97-c6b5-72f3-bf18-9e2d0b619bfb","01990a83-7673-7c0c-a792-bbd8fbbaf673","2025-09-02_09h24.45.233",NA,NA,587.7262,587.7262,587.7263,588.076,NA,NA,NA,NA,NA,NA,NA,TRUE,1,0.924,584.7293,587.7261,0,102,102,59,1,45,46,NA,NA,NA,NA,NA,1,103,"binary"
"0870B39E7CB348DBB74699311458D574",1,"01990a97-c6b5-72f3-bf18-9e2d0b619bfb","01990a83-7673-7c0c-a792-bbd8fbbaf673","2025-09-02_09h24.45.233",NA,NA,591.076,591.0761,591.0761,591.4258,NA,NA,NA,NA,NA,NA,NA,TRUE,1,0.7305,588.0793,591.0759,0,103,103,74,1,90,33,NA,NA,NA,NA,NA,1,104,"binary"
"0870B39E7CB348DBB74699311458D574",1,"01990a97-c6b5-72f3-bf18-9e2d0b619bfb","01990a83-7673-7c0c-a792-bbd8fbbaf673","2025-09-02_09h24.45.233",NA,NA,594.4259,594.4259,594.4259,594.7758,NA,NA,NA,NA,NA,NA,NA,TRUE,1,0.5521,591.429,594.4258,0,104,104,86,1,100,38,NA,NA,NA,NA,NA,1,105,"binary"
"0870B39E7CB348DBB74699311458D574",1,"01990a97-c6b5-72f3-bf18-9e2d0b619bfb","01990a83-7673-7c0c-a792-bbd8fbbaf673","2025-09-02_09h24.45.233",NA,NA,597.7757,597.7757,597.7758,598.1257,NA,NA,NA,NA,NA,NA,NA,TRUE,1,1.3729,594.7792,597.7756,0,105,105,40,1,28,39,NA,NA,NA,NA,NA,1,106,"binary"
"0870B39E7CB348DBB74699311458D574",1,"01990a97-c6b5-72f3-bf18-9e2d0b619bfb","01990a83-7673-7c0c-a792-bbd8fbbaf673","2025-09-02_09h24.45.233",NA,NA,601.1256,601.1257,601.1258,601.4755,NA,NA,NA,NA,NA,NA,NA,TRUE,1,0.9298,598.1291,601.1255,0,106,106,91,1,150,33,NA,NA,NA,NA,NA,1,107,"binary"
"0870B39E7CB348DBB74699311458D574",1,"01990a97-c6b5-72f3-bf18-9e2d0b619bfb","01990a83-7673-7c0c-a792-bbd8fbbaf673","2025-09-02_09h24.45.233",NA,NA,604.4755,604.4756,604.4756,604.8252,NA,NA,NA,NA,NA,NA,NA,TRUE,1,1.0464,601.4786,604.4754,0,107,107,26,1,21,29,NA,NA,NA,NA,NA,1,108,"binary"
"0870B39E7CB348DBB74699311458D574",1,"01990a97-c6b5-72f3-bf18-9e2d0b619bfb","01990a83-7673-7c0c-a792-bbd8fbbaf673","2025-09-02_09h24.45.233",NA,NA,657.1415,657.1417,657.1417,657.4911,NA,NA,NA,NA,NA,NA,NA,TRUE,1,1.0092,654.1612,657.1409,NA,NA,NA,NA,NA,45,29,0,0,0,55,1,2,1,"binary"
"0870B39E7CB348DBB74699311458D574",1,"01990a97-c6b5-72f3-bf18-9e2d0b619bfb","01990a83-7673-7c0c-a792-bbd8fbbaf673","2025-09-02_09h24.45.233",NA,NA,660.4916,660.4917,660.4917,660.8406,NA,NA,NA,NA,NA,NA,NA,TRUE,1,0.6517,657.4932,660.4915,NA,NA,NA,NA,NA,45,40,0,1,1,58,1,2,2,"binary"
"0870B39E7CB348DBB74699311458D574",1,"01990a97-c6b5-72f3-bf18-9e2d0b619bfb","01990a83-7673-7c0c-a792-bbd8fbbaf673","2025-09-02_09h24.45.233",NA,NA,663.8411,663.8415,663.8415,664.1913,NA,NA,NA,NA,NA,NA,NA,TRUE,1,0.8336,660.8429,663.8405,NA,NA,NA,NA,NA,45,31,0,2,2,56,1,2,3,"binary"
"0870B39E7CB348DBB74699311458D574",1,"01990a97-c6b5-72f3-bf18-9e2d0b619bfb","01990a83-7673-7c0c-a792-bbd8fbbaf673","2025-09-02_09h24.45.233",NA,NA,667.191,667.1913,667.1913,667.5402,NA,NA,NA,NA,NA,NA,NA,TRUE,1,1.2666,664.1931,667.1905,NA,NA,NA,NA,NA,12,35,0,3,3,17,1,2,4,"binary"
"0870B39E7CB348DBB74699311458D574",1,"01990a97-c6b5-72f3-bf18-9e2d0b619bfb","01990a83-7673-7c0c-a792-bbd8fbbaf673","2025-09-02_09h24.45.233",NA,NA,670.5413,670.5414,670.5414,670.8902,NA,NA,NA,NA,NA,NA,NA,TRUE,1,0.8271,667.5425,670.5412,NA,NA,NA,NA,NA,60,33,0,4,4,67,1,2,5,"binary"
"0870B39E7CB348DBB74699311458D574",1,"01990a97-c6b5-72f3-bf18-9e2d0b619bfb","01990a83-7673-7c0c-a792-bbd8fbbaf673","2025-09-02_09h24.45.233",NA,NA,673.8931,673.8932,673.8932,674.2402,NA,NA,NA,NA,NA,NA,NA,TRUE,1,0.7689,670.8923,673.8929,NA,NA,NA,NA,NA,28,35,0,5,5,39,1,2,6,"binary"
"0870B39E7CB348DBB74699311458D574",1,"01990a97-c6b5-72f3-bf18-9e2d0b619bfb","01990a83-7673-7c0c-a792-bbd8fbbaf673","2025-09-02_09h24.45.233",NA,NA,677.2404,677.2407,677.2408,677.5897,NA,NA,NA,NA,NA,NA,NA,TRUE,1,1.089,674.2422,677.2398,NA,NA,NA,NA,NA,14,39,0,6,6,23,1,2,7,"binary"
"0870B39E7CB348DBB74699311458D574",1,"01990a97-c6b5-72f3-bf18-9e2d0b619bfb","01990a83-7673-7c0c-a792-bbd8fbbaf673","2025-09-02_09h24.45.233",NA,NA,680.5904,680.5907,680.5907,680.9397,NA,NA,NA,NA,NA,NA,NA,TRUE,1,0.8211,677.5921,680.5899,NA,NA,NA,NA,NA,200,28,0,7,7,103,1,2,8,"binary"
"0870B39E7CB348DBB74699311458D574",1,"01990a97-c6b5-72f3-bf18-9e2d0b619bfb","01990a83-7673-7c0c-a792-bbd8fbbaf673","2025-09-02_09h24.45.233",NA,NA,683.9401,683.9405,683.9405,684.2899,NA,NA,NA,NA,NA,NA,NA,TRUE,1,1.0169,680.9419,683.9396,NA,NA,NA,NA,NA,25,35,0,8,8,34,1,2,9,"binary"
"0870B39E7CB348DBB74699311458D574",1,"01990a97-c6b5-72f3-bf18-9e2d0b619bfb","01990a83-7673-7c0c-a792-bbd8fbbaf673","2025-09-02_09h24.45.233",NA,NA,687.2901,687.2904,687.2904,687.6393,NA,NA,NA,NA,NA,NA,NA,TRUE,1,0.894,684.2918,687.2895,NA,NA,NA,NA,NA,100,26,0,9,9,84,1,2,10,"binary"
"0870B39E7CB348DBB74699311458D574",1,"01990a97-c6b5-72f3-bf18-9e2d0b619bfb","01990a83-7673-7c0c-a792-bbd8fbbaf673","2025-09-02_09h24.45.233",NA,NA,690.6395,690.64,690.6401,690.99,NA,NA,NA,NA,NA,NA,NA,TRUE,1,0.7506,687.6415,690.6389,NA,NA,NA,NA,NA,180,27,0,10,10,96,1,2,11,"binary"
"0870B39E7CB348DBB74699311458D574",1,"01990a97-c6b5-72f3-bf18-9e2d0b619bfb","01990a83-7673-7c0c-a792-bbd8fbbaf673","2025-09-02_09h24.45.233",NA,NA,693.9896,693.9898,693.99,694.339,NA,NA,NA,NA,NA,NA,NA,TRUE,1,1.0722,690.9919,693.9891,NA,NA,NA,NA,NA,12,28,0,11,11,14,1,2,12,"binary"
"0870B39E7CB348DBB74699311458D574",1,"01990a97-c6b5-72f3-bf18-9e2d0b619bfb","01990a83-7673-7c0c-a792-bbd8fbbaf673","2025-09-02_09h24.45.233",NA,NA,697.3399,697.34,697.34,697.6892,NA,NA,NA,NA,NA,NA,NA,TRUE,1,0.9046,694.3415,697.3398,NA,NA,NA,NA,NA,25,46,0,12,12,35,1,2,13,"binary"
"0870B39E7CB348DBB74699311458D574",1,"01990a97-c6b5-72f3-bf18-9e2d0b619bfb","01990a83-7673-7c0c-a792-bbd8fbbaf673","2025-09-02_09h24.45.233",NA,NA,700.6895,700.6897,700.6897,701.0393,NA,NA,NA,NA,NA,NA,NA,TRUE,1,0.774,697.6912,700.689,NA,NA,NA,NA,NA,200,47,0,13,13,106,1,2,14,"binary"
"0870B39E7CB348DBB74699311458D574",1,"01990a97-c6b5-72f3-bf18-9e2d0b619bfb","01990a83-7673-7c0c-a792-bbd8fbbaf673","2025-09-02_09h24.45.233",NA,NA,704.0396,704.0397,704.0397,704.3887,NA,NA,NA,NA,NA,NA,NA,TRUE,1,0.9001,701.0414,704.0387,NA,NA,NA,NA,NA,12,31,0,14,14,15,1,2,15,"binary"
"0870B39E7CB348DBB74699311458D574",1,"01990a97-c6b5-72f3-bf18-9e2d0b619bfb","01990a83-7673-7c0c-a792-bbd8fbbaf673","2025-09-02_09h24.45.233",NA,NA,707.3895,707.3896,707.3896,707.7388,NA,NA,NA,NA,NA,NA,NA,TRUE,1,0.7096,704.3909,707.3893,NA,NA,NA,NA,NA,40,40,0,15,15,51,1,2,16,"binary"
"0870B39E7CB348DBB74699311458D574",1,"01990a97-c6b5-72f3-bf18-9e2d0b619bfb","01990a83-7673-7c0c-a792-bbd8fbbaf673","2025-09-02_09h24.45.233",NA,NA,710.739,710.7391,710.7393,711.0909,NA,NA,NA,NA,NA,NA,NA,TRUE,1,0.902,707.7408,710.7385,NA,NA,NA,NA,NA,28,26,0,16,16,36,1,2,17,"binary"
"0870B39E7CB348DBB74699311458D574",1,"01990a97-c6b5-72f3-bf18-9e2d0b619bfb","01990a83-7673-7c0c-a792-bbd8fbbaf673","2025-09-02_09h24.45.233",NA,NA,714.0893,714.0894,714.0895,714.4388,NA,NA,NA,NA,NA,NA,NA,TRUE,1,0.6473,711.0925,714.0891,NA,NA,NA,NA,NA,100,38,0,17,17,86,1,2,18,"binary"
"0870B39E7CB348DBB74699311458D574",1,"01990a97-c6b5-72f3-bf18-9e2d0b619bfb","01990a83-7673-7c0c-a792-bbd8fbbaf673","2025-09-02_09h24.45.233",NA,NA,717.4388,717.4389,717.439,717.788,NA,NA,NA,NA,NA,NA,NA,TRUE,1,0.774,714.4407,717.438,NA,NA,NA,NA,NA,12,26,0,18,18,13,1,2,19,"binary"
"0870B39E7CB348DBB74699311458D574",1,"01990a97-c6b5-72f3-bf18-9e2d0b619bfb","01990a83-7673-7c0c-a792-bbd8fbbaf673","2025-09-02_09h24.45.233",NA,NA,720.7886,720.7887,720.7888,721.1378,NA,NA,NA,NA,NA,NA,NA,TRUE,1,0.899,717.7903,720.788,NA,NA,NA,NA,NA,28,39,0,19,19,40,1,2,20,"binary"
"0870B39E7CB348DBB74699311458D574",1,"01990a97-c6b5-72f3-bf18-9e2d0b619bfb","01990a83-7673-7c0c-a792-bbd8fbbaf673","2025-09-02_09h24.45.233",NA,NA,724.1386,724.1387,724.1387,724.4884,NA,NA,NA,NA,NA,NA,NA,TRUE,1,0.988,721.14,724.1381,NA,NA,NA,NA,NA,10,26,0,20,20,7,1,2,21,"binary"
"0870B39E7CB348DBB74699311458D574",1,"01990a97-c6b5-72f3-bf18-9e2d0b619bfb","01990a83-7673-7c0c-a792-bbd8fbbaf673","2025-09-02_09h24.45.233",NA,NA,727.4883,727.4885,727.4885,727.8374,NA,NA,NA,NA,NA,NA,NA,TRUE,1,0.6321,724.4902,727.4878,NA,NA,NA,NA,NA,150,31,0,21,21,90,1,2,22,"binary"
"0870B39E7CB348DBB74699311458D574",1,"01990a97-c6b5-72f3-bf18-9e2d0b619bfb","01990a83-7673-7c0c-a792-bbd8fbbaf673","2025-09-02_09h24.45.233",NA,NA,730.838,730.8382,730.8382,731.1877,NA,NA,NA,NA,NA,NA,NA,TRUE,1,0.8169,727.8398,730.8374,NA,NA,NA,NA,NA,21,29,0,22,22,26,1,2,23,"binary"
"0870B39E7CB348DBB74699311458D574",1,"01990a97-c6b5-72f3-bf18-9e2d0b619bfb","01990a83-7673-7c0c-a792-bbd8fbbaf673","2025-09-02_09h24.45.233",NA,NA,734.1878,734.1881,734.1881,734.5373,NA,NA,NA,NA,NA,NA,NA,TRUE,1,0.6385,731.1901,734.1872,NA,NA,NA,NA,NA,40,27,0,23,23,48,1,2,24,"binary"
"0870B39E7CB348DBB74699311458D574",1,"01990a97-c6b5-72f3-bf18-9e2d0b619bfb","01990a83-7673-7c0c-a792-bbd8fbbaf673","2025-09-02_09h24.45.233",NA,NA,737.5381,737.5381,737.5381,737.887,NA,NA,NA,NA,NA,NA,NA,TRUE,1,0.5407,734.5395,737.5377,NA,NA,NA,NA,NA,30,32,0,24,24,46,1,2,25,"binary"
"0870B39E7CB348DBB74699311458D574",1,"01990a97-c6b5-72f3-bf18-9e2d0b619bfb","01990a83-7673-7c0c-a792-bbd8fbbaf673","2025-09-02_09h24.45.233",NA,NA,740.8874,740.8878,740.8878,741.2367,NA,NA,NA,NA,NA,NA,NA,TRUE,1,0.8755,737.8892,740.8868,NA,NA,NA,NA,NA,14,35,0,25,25,22,1,2,26,"binary"
"0870B39E7CB348DBB74699311458D574",1,"01990a97-c6b5-72f3-bf18-9e2d0b619bfb","01990a83-7673-7c0c-a792-bbd8fbbaf673","2025-09-02_09h24.45.233",NA,NA,744.2372,744.2376,744.2376,744.5874,NA,NA,NA,NA,NA,NA,NA,TRUE,1,0.7386,741.2394,744.2367,NA,NA,NA,NA,NA,14,28,0,26,26,20,1,2,27,"binary"
"0870B39E7CB348DBB74699311458D574",1,"01990a97-c6b5-72f3-bf18-9e2d0b619bfb","01990a83-7673-7c0c-a792-bbd8fbbaf673","2025-09-02_09h24.45.233",NA,NA,747.5874,747.5877,747.5878,747.9372,NA,NA,NA,NA,NA,NA,NA,TRUE,1,0.5983,744.5892,747.5869,NA,NA,NA,NA,NA,40,33,0,27,27,49,1,2,28,"binary"
"0870B39E7CB348DBB74699311458D574",1,"01990a97-c6b5-72f3-bf18-9e2d0b619bfb","01990a83-7673-7c0c-a792-bbd8fbbaf673","2025-09-02_09h24.45.233",NA,NA,750.9374,750.9374,750.9375,751.2866,NA,NA,NA,NA,NA,NA,NA,TRUE,1,0.5492,747.9393,750.9372,NA,NA,NA,NA,NA,95,31,0,28,28,78,1,2,29,"binary"
"0870B39E7CB348DBB74699311458D574",1,"01990a97-c6b5-72f3-bf18-9e2d0b619bfb","01990a83-7673-7c0c-a792-bbd8fbbaf673","2025-09-02_09h24.45.233",NA,NA,754.2876,754.2876,754.2877,754.6365,NA,NA,NA,NA,NA,NA,NA,TRUE,1,0.8477,751.2887,754.2875,NA,NA,NA,NA,NA,60,40,0,29,29,69,1,2,30,"binary"
"0870B39E7CB348DBB74699311458D574",1,"01990a97-c6b5-72f3-bf18-9e2d0b619bfb","01990a83-7673-7c0c-a792-bbd8fbbaf673","2025-09-02_09h24.45.233",NA,NA,757.637,757.6371,757.6372,757.9871,NA,NA,NA,NA,NA,NA,NA,TRUE,1,0.4897,754.6387,757.6366,NA,NA,NA,NA,NA,40,54,0,30,30,53,1,2,31,"binary"
"0870B39E7CB348DBB74699311458D574",1,"01990a97-c6b5-72f3-bf18-9e2d0b619bfb","01990a83-7673-7c0c-a792-bbd8fbbaf673","2025-09-02_09h24.45.233",NA,NA,760.987,760.9871,760.9871,761.3362,NA,NA,NA,NA,NA,NA,NA,TRUE,1,0.6319,757.9889,760.9865,NA,NA,NA,NA,NA,12,33,0,31,31,16,1,2,32,"binary"
"0870B39E7CB348DBB74699311458D574",1,"01990a97-c6b5-72f3-bf18-9e2d0b619bfb","01990a83-7673-7c0c-a792-bbd8fbbaf673","2025-09-02_09h24.45.233",NA,NA,764.3375,764.3376,764.3376,764.6859,NA,NA,NA,NA,NA,NA,NA,TRUE,1,0.7139,761.3384,764.3374,NA,NA,NA,NA,NA,30,29,0,32,32,44,1,2,33,"binary"
"0870B39E7CB348DBB74699311458D574",1,"01990a97-c6b5-72f3-bf18-9e2d0b619bfb","01990a83-7673-7c0c-a792-bbd8fbbaf673","2025-09-02_09h24.45.233",NA,NA,767.6869,767.6869,767.6869,768.0358,NA,NA,NA,NA,NA,NA,NA,TRUE,1,0.9974,764.6886,767.6867,NA,NA,NA,NA,NA,7,32,0,33,33,4,1,2,34,"binary"
"0870B39E7CB348DBB74699311458D574",1,"01990a97-c6b5-72f3-bf18-9e2d0b619bfb","01990a83-7673-7c0c-a792-bbd8fbbaf673","2025-09-02_09h24.45.233",NA,NA,771.0365,771.0366,771.0366,771.3855,NA,NA,NA,NA,NA,NA,NA,TRUE,1,0.6481,768.0377,771.0359,NA,NA,NA,NA,NA,50,54,0,34,34,65,1,2,35,"binary"
"0870B39E7CB348DBB74699311458D574",1,"01990a97-c6b5-72f3-bf18-9e2d0b619bfb","01990a83-7673-7c0c-a792-bbd8fbbaf673","2025-09-02_09h24.45.233",NA,NA,774.3862,774.3864,774.3865,774.7356,NA,NA,NA,NA,NA,NA,NA,TRUE,1,0.6484,771.3879,774.3857,NA,NA,NA,NA,NA,50,46,0,35,35,64,1,2,36,"binary"
"0870B39E7CB348DBB74699311458D574",1,"01990a97-c6b5-72f3-bf18-9e2d0b619bfb","01990a83-7673-7c0c-a792-bbd8fbbaf673","2025-09-02_09h24.45.233",NA,NA,777.7364,777.7365,777.7365,778.0852,NA,NA,NA,NA,NA,NA,NA,TRUE,1,1.0483,774.7379,777.7355,NA,NA,NA,NA,NA,14,26,0,36,36,19,1,2,37,"binary"
"0870B39E7CB348DBB74699311458D574",1,"01990a97-c6b5-72f3-bf18-9e2d0b619bfb","01990a83-7673-7c0c-a792-bbd8fbbaf673","2025-09-02_09h24.45.233",NA,NA,781.0859,781.0859,781.086,781.4352,NA,NA,NA,NA,NA,NA,NA,TRUE,1,1.004,778.0873,781.0853,NA,NA,NA,NA,NA,45,46,0,37,37,59,1,2,38,"binary"
"0870B39E7CB348DBB74699311458D574",1,"01990a97-c6b5-72f3-bf18-9e2d0b619bfb","01990a83-7673-7c0c-a792-bbd8fbbaf673","2025-09-02_09h24.45.233",NA,NA,784.4358,784.4359,784.4359,784.7851,NA,NA,NA,NA,NA,NA,NA,TRUE,1,0.7489,781.4376,784.4352,NA,NA,NA,NA,NA,30,26,0,38,38,42,1,2,39,"binary"
"0870B39E7CB348DBB74699311458D574",1,"01990a97-c6b5-72f3-bf18-9e2d0b619bfb","01990a83-7673-7c0c-a792-bbd8fbbaf673","2025-09-02_09h24.45.233",NA,NA,787.7856,787.7856,787.7856,788.1347,NA,NA,NA,NA,NA,NA,NA,TRUE,1,1.0974,784.7874,787.7853,NA,NA,NA,NA,NA,95,35,0,39,39,80,1,2,40,"binary"
"0870B39E7CB348DBB74699311458D574",1,"01990a97-c6b5-72f3-bf18-9e2d0b619bfb","01990a83-7673-7c0c-a792-bbd8fbbaf673","2025-09-02_09h24.45.233",NA,NA,791.1356,791.1356,791.1358,791.4846,NA,NA,NA,NA,NA,NA,NA,TRUE,2,1.5045,788.137,791.1349,NA,NA,NA,NA,NA,7,35,0,40,40,5,1,2,41,"binary"
"0870B39E7CB348DBB74699311458D574",1,"01990a97-c6b5-72f3-bf18-9e2d0b619bfb","01990a83-7673-7c0c-a792-bbd8fbbaf673","2025-09-02_09h24.45.233",NA,NA,794.4853,794.4855,794.4855,794.8352,NA,NA,NA,NA,NA,NA,NA,TRUE,1,0.9633,791.4869,794.4847,NA,NA,NA,NA,NA,180,46,0,41,41,100,1,2,42,"binary"
"0870B39E7CB348DBB74699311458D574",1,"01990a97-c6b5-72f3-bf18-9e2d0b619bfb","01990a83-7673-7c0c-a792-bbd8fbbaf673","2025-09-02_09h24.45.233",NA,NA,797.8373,797.8374,797.8374,798.1845,NA,NA,NA,NA,NA,NA,NA,TRUE,1,1.1799,794.837,797.8372,NA,NA,NA,NA,NA,60,29,0,42,42,66,1,2,43,"binary"
"0870B39E7CB348DBB74699311458D574",1,"01990a97-c6b5-72f3-bf18-9e2d0b619bfb","01990a83-7673-7c0c-a792-bbd8fbbaf673","2025-09-02_09h24.45.233",NA,NA,801.1849,801.1852,801.1852,801.5343,NA,NA,NA,NA,NA,NA,NA,TRUE,1,1.0801,798.1866,801.1843,NA,NA,NA,NA,NA,50,35,0,43,43,62,1,2,44,"binary"
"0870B39E7CB348DBB74699311458D574",1,"01990a97-c6b5-72f3-bf18-9e2d0b619bfb","01990a83-7673-7c0c-a792-bbd8fbbaf673","2025-09-02_09h24.45.233",NA,NA,804.5347,804.535,804.5351,804.8846,NA,NA,NA,NA,NA,NA,NA,TRUE,1,1.0482,801.5365,804.5341,NA,NA,NA,NA,NA,90,33,0,44,44,74,1,2,45,"binary"
"0870B39E7CB348DBB74699311458D574",1,"01990a97-c6b5-72f3-bf18-9e2d0b619bfb","01990a83-7673-7c0c-a792-bbd8fbbaf673","2025-09-02_09h24.45.233",NA,NA,807.8873,807.8874,807.8874,808.2373,NA,NA,NA,NA,NA,NA,NA,TRUE,1,0.6669,804.8866,807.8872,NA,NA,NA,NA,NA,180,35,0,45,45,98,1,2,46,"binary"
"0870B39E7CB348DBB74699311458D574",1,"01990a97-c6b5-72f3-bf18-9e2d0b619bfb","01990a83-7673-7c0c-a792-bbd8fbbaf673","2025-09-02_09h24.45.233",NA,NA,811.2374,811.2374,811.2374,811.5869,NA,NA,NA,NA,NA,NA,NA,TRUE,1,0.8341,808.2385,811.2371,NA,NA,NA,NA,NA,60,35,0,46,46,68,1,2,47,"binary"
"0870B39E7CB348DBB74699311458D574",1,"01990a97-c6b5-72f3-bf18-9e2d0b619bfb","01990a83-7673-7c0c-a792-bbd8fbbaf673","2025-09-02_09h24.45.233",NA,NA,814.5868,814.5869,814.5869,814.9368,NA,NA,NA,NA,NA,NA,NA,TRUE,1,0.8507,811.5881,814.5866,NA,NA,NA,NA,NA,28,32,0,47,47,38,1,2,48,"binary"
"0870B39E7CB348DBB74699311458D574",1,"01990a97-c6b5-72f3-bf18-9e2d0b619bfb","01990a83-7673-7c0c-a792-bbd8fbbaf673","2025-09-02_09h24.45.233",NA,NA,817.9374,817.9374,817.9375,818.2872,NA,NA,NA,NA,NA,NA,NA,TRUE,1,0.6502,814.938,817.9372,NA,NA,NA,NA,NA,60,47,0,48,48,70,1,2,49,"binary"
"0870B39E7CB348DBB74699311458D574",1,"01990a97-c6b5-72f3-bf18-9e2d0b619bfb","01990a83-7673-7c0c-a792-bbd8fbbaf673","2025-09-02_09h24.45.233",NA,NA,821.2871,821.2872,821.2872,821.637,NA,NA,NA,NA,NA,NA,NA,TRUE,1,0.567,818.2891,821.2869,NA,NA,NA,NA,NA,50,40,0,49,49,63,1,2,50,"binary"
"0870B39E7CB348DBB74699311458D574",1,"01990a97-c6b5-72f3-bf18-9e2d0b619bfb","01990a83-7673-7c0c-a792-bbd8fbbaf673","2025-09-02_09h24.45.233",NA,NA,824.6367,824.6368,824.6368,824.9868,NA,NA,NA,NA,NA,NA,NA,TRUE,1,0.5174,821.6383,824.6366,NA,NA,NA,NA,NA,21,38,0,50,50,29,1,2,51,"binary"
"0870B39E7CB348DBB74699311458D574",1,"01990a97-c6b5-72f3-bf18-9e2d0b619bfb","01990a83-7673-7c0c-a792-bbd8fbbaf673","2025-09-02_09h24.45.233",NA,NA,827.9865,827.9866,827.9866,828.3362,NA,NA,NA,NA,NA,NA,NA,TRUE,1,0.6005,824.9895,827.9863,NA,NA,NA,NA,NA,45,26,0,51,51,54,1,2,52,"binary"
"0870B39E7CB348DBB74699311458D574",1,"01990a97-c6b5-72f3-bf18-9e2d0b619bfb","01990a83-7673-7c0c-a792-bbd8fbbaf673","2025-09-02_09h24.45.233",NA,NA,831.3369,831.3369,831.3369,831.686,NA,NA,NA,NA,NA,NA,NA,TRUE,1,0.5506,828.3375,831.3366,NA,NA,NA,NA,NA,150,40,0,52,52,93,1,2,53,"binary"
"0870B39E7CB348DBB74699311458D574",1,"01990a97-c6b5-72f3-bf18-9e2d0b619bfb","01990a83-7673-7c0c-a792-bbd8fbbaf673","2025-09-02_09h24.45.233",NA,NA,834.6861,834.6862,834.6862,835.0359,NA,NA,NA,NA,NA,NA,NA,TRUE,1,0.5173,831.6873,834.686,NA,NA,NA,NA,NA,90,54,0,53,53,77,1,2,54,"binary"
"0870B39E7CB348DBB74699311458D574",1,"01990a97-c6b5-72f3-bf18-9e2d0b619bfb","01990a83-7673-7c0c-a792-bbd8fbbaf673","2025-09-02_09h24.45.233",NA,NA,838.0361,838.0361,838.0362,838.3857,NA,NA,NA,NA,NA,NA,NA,TRUE,1,0.5505,835.0372,838.0359,NA,NA,NA,NA,NA,25,27,0,54,54,30,1,2,55,"binary"
"0870B39E7CB348DBB74699311458D574",1,"01990a97-c6b5-72f3-bf18-9e2d0b619bfb","01990a83-7673-7c0c-a792-bbd8fbbaf673","2025-09-02_09h24.45.233",NA,NA,841.3858,841.3858,841.3858,841.7356,NA,NA,NA,NA,NA,NA,NA,TRUE,1,0.5508,838.3877,841.3855,NA,NA,NA,NA,NA,200,35,0,55,55,104,1,2,56,"binary"
"0870B39E7CB348DBB74699311458D574",1,"01990a97-c6b5-72f3-bf18-9e2d0b619bfb","01990a83-7673-7c0c-a792-bbd8fbbaf673","2025-09-02_09h24.45.233",NA,NA,844.7357,844.7358,844.7358,845.0856,NA,NA,NA,NA,NA,NA,NA,TRUE,1,0.6011,841.7371,844.7355,NA,NA,NA,NA,NA,200,26,0,56,56,102,1,2,57,"binary"
"0870B39E7CB348DBB74699311458D574",1,"01990a97-c6b5-72f3-bf18-9e2d0b619bfb","01990a83-7673-7c0c-a792-bbd8fbbaf673","2025-09-02_09h24.45.233",NA,NA,848.0856,848.0857,848.0857,848.4352,NA,NA,NA,NA,NA,NA,NA,TRUE,1,0.7179,845.0873,848.0855,NA,NA,NA,NA,NA,200,54,0,57,57,107,1,2,58,"binary"
"0870B39E7CB348DBB74699311458D574",1,"01990a97-c6b5-72f3-bf18-9e2d0b619bfb","01990a83-7673-7c0c-a792-bbd8fbbaf673","2025-09-02_09h24.45.233",NA,NA,851.4353,851.4355,851.4355,851.7851,NA,NA,NA,NA,NA,NA,NA,TRUE,1,0.7674,848.4367,851.4352,NA,NA,NA,NA,NA,100,39,0,58,58,87,1,2,59,"binary"
"0870B39E7CB348DBB74699311458D574",1,"01990a97-c6b5-72f3-bf18-9e2d0b619bfb","01990a83-7673-7c0c-a792-bbd8fbbaf673","2025-09-02_09h24.45.233",NA,NA,854.7853,854.7853,854.7853,855.1351,NA,NA,NA,NA,NA,NA,NA,TRUE,1,0.6833,851.7872,854.7851,NA,NA,NA,NA,NA,60,54,0,59,59,71,1,2,60,"binary"
"0870B39E7CB348DBB74699311458D574",1,"01990a97-c6b5-72f3-bf18-9e2d0b619bfb","01990a83-7673-7c0c-a792-bbd8fbbaf673","2025-09-02_09h24.45.233",NA,NA,858.1352,858.1353,858.1353,858.4856,NA,NA,NA,NA,NA,NA,NA,TRUE,1,0.8675,855.1363,858.135,NA,NA,NA,NA,NA,28,28,0,60,60,37,1,2,61,"binary"
"0870B39E7CB348DBB74699311458D574",1,"01990a97-c6b5-72f3-bf18-9e2d0b619bfb","01990a83-7673-7c0c-a792-bbd8fbbaf673","2025-09-02_09h24.45.233",NA,NA,861.4848,861.485,861.4851,861.8346,NA,NA,NA,NA,NA,NA,NA,TRUE,1,0.867,858.4875,861.4846,NA,NA,NA,NA,NA,10,27,0,61,61,8,1,2,62,"binary"
"0870B39E7CB348DBB74699311458D574",1,"01990a97-c6b5-72f3-bf18-9e2d0b619bfb","01990a83-7673-7c0c-a792-bbd8fbbaf673","2025-09-02_09h24.45.233",NA,NA,864.8351,864.8352,864.8352,865.1845,NA,NA,NA,NA,NA,NA,NA,TRUE,1,0.8171,861.8359,864.8349,NA,NA,NA,NA,NA,40,47,0,62,62,52,1,2,63,"binary"
"0870B39E7CB348DBB74699311458D574",1,"01990a97-c6b5-72f3-bf18-9e2d0b619bfb","01990a83-7673-7c0c-a792-bbd8fbbaf673","2025-09-02_09h24.45.233",NA,NA,868.1845,868.1846,868.1846,868.5344,NA,NA,NA,NA,NA,NA,NA,TRUE,1,1.1342,865.1865,868.1844,NA,NA,NA,NA,NA,7,28,0,63,63,2,1,2,64,"binary"
"0870B39E7CB348DBB74699311458D574",1,"01990a97-c6b5-72f3-bf18-9e2d0b619bfb","01990a83-7673-7c0c-a792-bbd8fbbaf673","2025-09-02_09h24.45.233",NA,NA,871.5346,871.5346,871.5347,871.8846,NA,NA,NA,NA,NA,NA,NA,TRUE,1,0.7673,868.5357,871.5344,NA,NA,NA,NA,NA,50,30,0,64,64,61,1,2,65,"binary"
"0870B39E7CB348DBB74699311458D574",1,"01990a97-c6b5-72f3-bf18-9e2d0b619bfb","01990a83-7673-7c0c-a792-bbd8fbbaf673","2025-09-02_09h24.45.233",NA,NA,874.8844,874.8844,874.8845,875.2342,NA,NA,NA,NA,NA,NA,NA,TRUE,1,0.817,871.8859,874.8844,NA,NA,NA,NA,NA,180,31,0,65,65,97,1,2,66,"binary"
"0870B39E7CB348DBB74699311458D574",1,"01990a97-c6b5-72f3-bf18-9e2d0b619bfb","01990a83-7673-7c0c-a792-bbd8fbbaf673","2025-09-02_09h24.45.233",NA,NA,878.2341,878.2341,878.2341,878.5843,NA,NA,NA,NA,NA,NA,NA,TRUE,1,0.7341,875.2354,878.2339,NA,NA,NA,NA,NA,95,47,0,66,66,82,1,2,67,"binary"
"0870B39E7CB348DBB74699311458D574",1,"01990a97-c6b5-72f3-bf18-9e2d0b619bfb","01990a83-7673-7c0c-a792-bbd8fbbaf673","2025-09-02_09h24.45.233",NA,NA,881.5839,881.5839,881.584,881.9338,NA,NA,NA,NA,NA,NA,NA,TRUE,1,0.6172,878.5858,881.5838,NA,NA,NA,NA,NA,100,31,0,67,67,85,1,2,68,"binary"
"0870B39E7CB348DBB74699311458D574",1,"01990a97-c6b5-72f3-bf18-9e2d0b619bfb","01990a83-7673-7c0c-a792-bbd8fbbaf673","2025-09-02_09h24.45.233",NA,NA,884.934,884.934,884.934,885.2836,NA,NA,NA,NA,NA,NA,NA,TRUE,1,0.7176,881.9351,884.9338,NA,NA,NA,NA,NA,95,40,0,68,68,81,1,2,69,"binary"
"0870B39E7CB348DBB74699311458D574",1,"01990a97-c6b5-72f3-bf18-9e2d0b619bfb","01990a83-7673-7c0c-a792-bbd8fbbaf673","2025-09-02_09h24.45.233",NA,NA,888.2837,888.2838,888.2838,888.6336,NA,NA,NA,NA,NA,NA,NA,TRUE,1,0.7169,885.2848,888.2835,NA,NA,NA,NA,NA,90,26,0,69,69,72,1,2,70,"binary"
"0870B39E7CB348DBB74699311458D574",1,"01990a97-c6b5-72f3-bf18-9e2d0b619bfb","01990a83-7673-7c0c-a792-bbd8fbbaf673","2025-09-02_09h24.45.233",NA,NA,891.6335,891.6336,891.6337,891.9833,NA,NA,NA,NA,NA,NA,NA,TRUE,1,0.9168,888.6348,891.6333,NA,NA,NA,NA,NA,21,26,0,70,70,24,1,2,71,"binary"
"0870B39E7CB348DBB74699311458D574",1,"01990a97-c6b5-72f3-bf18-9e2d0b619bfb","01990a83-7673-7c0c-a792-bbd8fbbaf673","2025-09-02_09h24.45.233",NA,NA,894.9833,894.9833,894.9834,895.3333,NA,NA,NA,NA,NA,NA,NA,TRUE,1,0.7672,891.9845,894.9831,NA,NA,NA,NA,NA,150,35,0,71,71,92,1,2,72,"binary"
"0870B39E7CB348DBB74699311458D574",1,"01990a97-c6b5-72f3-bf18-9e2d0b619bfb","01990a83-7673-7c0c-a792-bbd8fbbaf673","2025-09-02_09h24.45.233",NA,NA,898.3334,898.3335,898.3335,898.6826,NA,NA,NA,NA,NA,NA,NA,TRUE,1,0.6003,895.3345,898.3332,NA,NA,NA,NA,NA,25,29,0,72,72,31,1,2,73,"binary"
"0870B39E7CB348DBB74699311458D574",1,"01990a97-c6b5-72f3-bf18-9e2d0b619bfb","01990a83-7673-7c0c-a792-bbd8fbbaf673","2025-09-02_09h24.45.233",NA,NA,901.6829,901.683,901.683,902.0331,NA,NA,NA,NA,NA,NA,NA,TRUE,1,0.6505,898.6839,901.6828,NA,NA,NA,NA,NA,14,32,0,73,73,21,1,2,74,"binary"
"0870B39E7CB348DBB74699311458D574",1,"01990a97-c6b5-72f3-bf18-9e2d0b619bfb","01990a83-7673-7c0c-a792-bbd8fbbaf673","2025-09-02_09h24.45.233",NA,NA,905.0331,905.0331,905.0338,905.3827,NA,NA,NA,NA,NA,NA,NA,TRUE,1,0.5505,902.0345,905.0329,NA,NA,NA,NA,NA,180,54,0,74,74,101,1,2,75,"binary"
"0870B39E7CB348DBB74699311458D574",1,"01990a97-c6b5-72f3-bf18-9e2d0b619bfb","01990a83-7673-7c0c-a792-bbd8fbbaf673","2025-09-02_09h24.45.233",NA,NA,908.3825,908.3827,908.3827,908.7327,NA,NA,NA,NA,NA,NA,NA,TRUE,1,0.5507,905.3841,908.3823,NA,NA,NA,NA,NA,180,39,0,75,75,99,1,2,76,"binary"
"0870B39E7CB348DBB74699311458D574",1,"01990a97-c6b5-72f3-bf18-9e2d0b619bfb","01990a83-7673-7c0c-a792-bbd8fbbaf673","2025-09-02_09h24.45.233",NA,NA,911.7326,911.7326,911.7326,912.0824,NA,NA,NA,NA,NA,NA,NA,TRUE,1,0.6509,908.7339,911.7325,NA,NA,NA,NA,NA,95,54,0,76,76,83,1,2,77,"binary"
"0870B39E7CB348DBB74699311458D574",1,"01990a97-c6b5-72f3-bf18-9e2d0b619bfb","01990a83-7673-7c0c-a792-bbd8fbbaf673","2025-09-02_09h24.45.233",NA,NA,915.0824,915.0825,915.0825,915.4327,NA,NA,NA,NA,NA,NA,NA,TRUE,1,0.5179,912.0837,915.0823,NA,NA,NA,NA,NA,30,30,0,77,77,45,1,2,78,"binary"
"0870B39E7CB348DBB74699311458D574",1,"01990a97-c6b5-72f3-bf18-9e2d0b619bfb","01990a83-7673-7c0c-a792-bbd8fbbaf673","2025-09-02_09h24.45.233",NA,NA,918.447,918.4471,918.4471,918.7788,NA,NA,NA,NA,NA,NA,NA,TRUE,1,0.5006,915.434,918.4468,NA,NA,NA,NA,NA,7,26,0,78,78,1,1,2,79,"binary"
"0870B39E7CB348DBB74699311458D574",1,"01990a97-c6b5-72f3-bf18-9e2d0b619bfb","01990a83-7673-7c0c-a792-bbd8fbbaf673","2025-09-02_09h24.45.233",NA,NA,921.7799,921.7799,921.78,922.1291,NA,NA,NA,NA,NA,NA,NA,TRUE,1,0.6053,918.7814,921.7795,NA,NA,NA,NA,NA,25,33,0,79,79,33,1,2,80,"binary"
"0870B39E7CB348DBB74699311458D574",1,"01990a97-c6b5-72f3-bf18-9e2d0b619bfb","01990a83-7673-7c0c-a792-bbd8fbbaf673","2025-09-02_09h24.45.233",NA,NA,925.1298,925.1299,925.1299,925.4787,NA,NA,NA,NA,NA,NA,NA,TRUE,1,0.4999,922.1313,925.1295,NA,NA,NA,NA,NA,150,47,0,80,80,94,1,2,81,"binary"
"0870B39E7CB348DBB74699311458D574",1,"01990a97-c6b5-72f3-bf18-9e2d0b619bfb","01990a83-7673-7c0c-a792-bbd8fbbaf673","2025-09-02_09h24.45.233",NA,NA,928.4793,928.4794,928.4794,928.8286,NA,NA,NA,NA,NA,NA,NA,TRUE,1,0.58,925.481,928.4787,NA,NA,NA,NA,NA,10,25,0,81,81,6,1,2,82,"binary"
"0870B39E7CB348DBB74699311458D574",1,"01990a97-c6b5-72f3-bf18-9e2d0b619bfb","01990a83-7673-7c0c-a792-bbd8fbbaf673","2025-09-02_09h24.45.233",NA,NA,931.8293,931.8295,931.8295,932.1785,NA,NA,NA,NA,NA,NA,NA,TRUE,1,0.7344,928.8307,931.8288,NA,NA,NA,NA,NA,95,33,0,82,82,79,1,2,83,"binary"
"0870B39E7CB348DBB74699311458D574",1,"01990a97-c6b5-72f3-bf18-9e2d0b619bfb","01990a83-7673-7c0c-a792-bbd8fbbaf673","2025-09-02_09h24.45.233",NA,NA,935.1789,935.1791,935.1791,935.5281,NA,NA,NA,NA,NA,NA,NA,TRUE,1,0.7167,932.1806,935.1783,NA,NA,NA,NA,NA,21,32,0,83,83,28,1,2,84,"binary"
"0870B39E7CB348DBB74699311458D574",1,"01990a97-c6b5-72f3-bf18-9e2d0b619bfb","01990a83-7673-7c0c-a792-bbd8fbbaf673","2025-09-02_09h24.45.233",NA,NA,938.5457,938.5459,938.5459,938.895,NA,NA,NA,NA,NA,NA,NA,TRUE,2,1.5675,935.5304,938.545,NA,NA,NA,NA,NA,7,30,0,84,84,3,1,2,85,"binary"
"0870B39E7CB348DBB74699311458D574",1,"01990a97-c6b5-72f3-bf18-9e2d0b619bfb","01990a83-7673-7c0c-a792-bbd8fbbaf673","2025-09-02_09h24.45.233",NA,NA,941.8958,941.8959,941.896,942.2446,NA,NA,NA,NA,NA,NA,NA,TRUE,1,0.8421,938.8971,941.8956,NA,NA,NA,NA,NA,150,54,0,85,85,95,1,2,86,"binary"
"0870B39E7CB348DBB74699311458D574",1,"01990a97-c6b5-72f3-bf18-9e2d0b619bfb","01990a83-7673-7c0c-a792-bbd8fbbaf673","2025-09-02_09h24.45.233",NA,NA,945.2453,945.2454,945.2455,945.5949,NA,NA,NA,NA,NA,NA,NA,TRUE,1,0.8351,942.2468,945.2446,NA,NA,NA,NA,NA,50,27,0,86,86,60,1,2,87,"binary"
"0870B39E7CB348DBB74699311458D574",1,"01990a97-c6b5-72f3-bf18-9e2d0b619bfb","01990a83-7673-7c0c-a792-bbd8fbbaf673","2025-09-02_09h24.45.233",NA,NA,948.5947,948.5951,948.5953,948.9445,NA,NA,NA,NA,NA,NA,NA,TRUE,1,0.6729,945.5969,948.5942,NA,NA,NA,NA,NA,25,31,0,87,87,32,1,2,88,"binary"
"0870B39E7CB348DBB74699311458D574",1,"01990a97-c6b5-72f3-bf18-9e2d0b619bfb","01990a83-7673-7c0c-a792-bbd8fbbaf673","2025-09-02_09h24.45.233",NA,NA,951.9453,951.9453,951.9453,952.2942,NA,NA,NA,NA,NA,NA,NA,TRUE,1,0.7929,948.9465,951.9445,NA,NA,NA,NA,NA,40,35,0,88,88,50,1,2,89,"binary"
"0870B39E7CB348DBB74699311458D574",1,"01990a97-c6b5-72f3-bf18-9e2d0b619bfb","01990a83-7673-7c0c-a792-bbd8fbbaf673","2025-09-02_09h24.45.233",NA,NA,955.2946,955.2949,955.295,955.6445,NA,NA,NA,NA,NA,NA,NA,TRUE,1,0.9835,952.2965,955.2941,NA,NA,NA,NA,NA,12,25,0,89,89,12,1,2,90,"binary"
"0870B39E7CB348DBB74699311458D574",1,"01990a97-c6b5-72f3-bf18-9e2d0b619bfb","01990a83-7673-7c0c-a792-bbd8fbbaf673","2025-09-02_09h24.45.233",NA,NA,958.6446,958.6448,958.6449,958.9941,NA,NA,NA,NA,NA,NA,NA,TRUE,1,0.6347,955.6467,958.6439,NA,NA,NA,NA,NA,10,30,0,90,90,10,1,2,91,"binary"
"0870B39E7CB348DBB74699311458D574",1,"01990a97-c6b5-72f3-bf18-9e2d0b619bfb","01990a83-7673-7c0c-a792-bbd8fbbaf673","2025-09-02_09h24.45.233",NA,NA,961.9947,961.9948,961.9949,962.3443,NA,NA,NA,NA,NA,NA,NA,TRUE,1,0.7761,958.9965,961.9945,NA,NA,NA,NA,NA,100,54,0,91,91,89,1,2,92,"binary"
"0870B39E7CB348DBB74699311458D574",1,"01990a97-c6b5-72f3-bf18-9e2d0b619bfb","01990a83-7673-7c0c-a792-bbd8fbbaf673","2025-09-02_09h24.45.233",NA,NA,965.3445,965.3446,965.3446,965.6938,NA,NA,NA,NA,NA,NA,NA,TRUE,1,1.254,962.3461,965.3442,NA,NA,NA,NA,NA,28,46,0,92,92,41,1,2,93,"binary"
"0870B39E7CB348DBB74699311458D574",1,"01990a97-c6b5-72f3-bf18-9e2d0b619bfb","01990a83-7673-7c0c-a792-bbd8fbbaf673","2025-09-02_09h24.45.233",NA,NA,968.6941,968.6945,968.6945,969.0435,NA,NA,NA,NA,NA,NA,NA,TRUE,1,0.5241,965.696,968.6935,NA,NA,NA,NA,NA,90,46,0,93,93,76,1,2,94,"binary"
"0870B39E7CB348DBB74699311458D574",1,"01990a97-c6b5-72f3-bf18-9e2d0b619bfb","01990a83-7673-7c0c-a792-bbd8fbbaf673","2025-09-02_09h24.45.233",NA,NA,972.0444,972.0445,972.0446,972.3934,NA,NA,NA,NA,NA,NA,NA,TRUE,1,0.6336,969.0457,972.0443,NA,NA,NA,NA,NA,200,39,0,94,94,105,1,2,95,"binary"
"0870B39E7CB348DBB74699311458D574",1,"01990a97-c6b5-72f3-bf18-9e2d0b619bfb","01990a83-7673-7c0c-a792-bbd8fbbaf673","2025-09-02_09h24.45.233",NA,NA,975.3936,975.3942,975.3942,975.7434,NA,NA,NA,NA,NA,NA,NA,TRUE,1,0.5504,972.3956,975.3929,NA,NA,NA,NA,NA,150,33,0,95,95,91,1,2,96,"binary"
"0870B39E7CB348DBB74699311458D574",1,"01990a97-c6b5-72f3-bf18-9e2d0b619bfb","01990a83-7673-7c0c-a792-bbd8fbbaf673","2025-09-02_09h24.45.233",NA,NA,978.7435,978.7439,978.7439,979.0927,NA,NA,NA,NA,NA,NA,NA,TRUE,1,0.5103,975.7455,978.743,NA,NA,NA,NA,NA,30,27,0,96,96,43,1,2,97,"binary"
"0870B39E7CB348DBB74699311458D574",1,"01990a97-c6b5-72f3-bf18-9e2d0b619bfb","01990a83-7673-7c0c-a792-bbd8fbbaf673","2025-09-02_09h24.45.233",NA,NA,982.0935,982.0939,982.0939,982.4429,NA,NA,NA,NA,NA,NA,NA,TRUE,1,0.6061,979.0949,982.0929,NA,NA,NA,NA,NA,10,29,0,97,97,9,1,2,98,"binary"
"0870B39E7CB348DBB74699311458D574",1,"01990a97-c6b5-72f3-bf18-9e2d0b619bfb","01990a83-7673-7c0c-a792-bbd8fbbaf673","2025-09-02_09h24.45.233",NA,NA,985.4429,985.4433,985.4433,985.7926,NA,NA,NA,NA,NA,NA,NA,TRUE,1,0.6079,982.445,985.4424,NA,NA,NA,NA,NA,30,38,0,98,98,47,1,2,99,"binary"
"0870B39E7CB348DBB74699311458D574",1,"01990a97-c6b5-72f3-bf18-9e2d0b619bfb","01990a83-7673-7c0c-a792-bbd8fbbaf673","2025-09-02_09h24.45.233",NA,NA,988.7932,988.7935,988.7935,989.1435,NA,NA,NA,NA,NA,NA,NA,TRUE,1,0.4602,985.7949,988.7927,NA,NA,NA,NA,NA,21,27,0,99,99,25,1,2,100,"binary"
"0870B39E7CB348DBB74699311458D574",1,"01990a97-c6b5-72f3-bf18-9e2d0b619bfb","01990a83-7673-7c0c-a792-bbd8fbbaf673","2025-09-02_09h24.45.233",NA,NA,992.1454,992.1455,992.1455,992.4923,NA,NA,NA,NA,NA,NA,NA,TRUE,1,0.6186,989.145,992.1453,NA,NA,NA,NA,NA,100,46,0,100,100,88,1,2,101,"binary"
"0870B39E7CB348DBB74699311458D574",1,"01990a97-c6b5-72f3-bf18-9e2d0b619bfb","01990a83-7673-7c0c-a792-bbd8fbbaf673","2025-09-02_09h24.45.233",NA,NA,995.4933,995.4934,995.4935,995.8426,NA,NA,NA,NA,NA,NA,NA,TRUE,1,0.567,992.4946,995.4932,NA,NA,NA,NA,NA,45,35,0,101,101,57,1,2,102,"binary"
"0870B39E7CB348DBB74699311458D574",1,"01990a97-c6b5-72f3-bf18-9e2d0b619bfb","01990a83-7673-7c0c-a792-bbd8fbbaf673","2025-09-02_09h24.45.233",NA,NA,998.8428,998.8431,998.8431,999.1922,NA,NA,NA,NA,NA,NA,NA,TRUE,1,0.4535,995.8447,998.8423,NA,NA,NA,NA,NA,90,40,0,102,102,75,1,2,103,"binary"
"0870B39E7CB348DBB74699311458D574",1,"01990a97-c6b5-72f3-bf18-9e2d0b619bfb","01990a83-7673-7c0c-a792-bbd8fbbaf673","2025-09-02_09h24.45.233",NA,NA,1002.1922,1002.1926,1002.1926,1002.5417,NA,NA,NA,NA,NA,NA,NA,TRUE,1,0.8918,999.1945,1002.1917,NA,NA,NA,NA,NA,14,25,0,103,103,18,1,2,104,"binary"
"0870B39E7CB348DBB74699311458D574",1,"01990a97-c6b5-72f3-bf18-9e2d0b619bfb","01990a83-7673-7c0c-a792-bbd8fbbaf673","2025-09-02_09h24.45.233",NA,NA,1005.5428,1005.5429,1005.5429,1005.8917,NA,NA,NA,NA,NA,NA,NA,TRUE,1,0.8782,1002.5441,1005.5424,NA,NA,NA,NA,NA,21,30,0,104,104,27,1,2,105,"binary"
"0870B39E7CB348DBB74699311458D574",1,"01990a97-c6b5-72f3-bf18-9e2d0b619bfb","01990a83-7673-7c0c-a792-bbd8fbbaf673","2025-09-02_09h24.45.233",NA,NA,1008.8927,1008.8928,1008.8928,1009.2418,NA,NA,NA,NA,NA,NA,NA,TRUE,1,1.059,1005.8941,1008.8918,NA,NA,NA,NA,NA,10,32,0,105,105,11,1,2,106,"binary"
"0870B39E7CB348DBB74699311458D574",1,"01990a97-c6b5-72f3-bf18-9e2d0b619bfb","01990a83-7673-7c0c-a792-bbd8fbbaf673","2025-09-02_09h24.45.233",NA,NA,1012.2422,1012.2425,1012.2426,1012.5918,NA,NA,NA,NA,NA,NA,NA,TRUE,1,0.8019,1009.244,1012.2417,NA,NA,NA,NA,NA,7,25,0,106,106,0,1,2,107,"binary"
"0870B39E7CB348DBB74699311458D574",1,"01990a97-c6b5-72f3-bf18-9e2d0b619bfb","01990a83-7673-7c0c-a792-bbd8fbbaf673","2025-09-02_09h24.45.233",NA,NA,1015.5922,1015.5924,1015.5924,1015.9414,NA,NA,NA,NA,NA,NA,NA,TRUE,1,0.7738,1012.5939,1015.5917,NA,NA,NA,NA,NA,90,30,0,107,107,73,1,2,108,"binary"
