"participant","session","assignmentId","projectId","date","practiceTrial.started","practiceTrial.stopped","tooLate.started","tooLate.stopped","blank.started","blank.stopped","trials_pract.thisRepN","trials_pract.thisTrialN","trials_pract.thisN","trials_pract.thisIndex","trials_pract.ran","delay_pract","amount_pract","responseMade","key","rt","trial.started","trial.stopped","trials.thisRepN","trials.thisTrialN","trials.thisN","trials.thisIndex","trials.ran","delay","amount","trials_2.thisRepN","trials_2.thisTrialN","trials_2.thisN","trials_2.thisIndex","trials_2.ran","block","trial","taskType"
"098CCA7B6D0444D7B195569D94FB388C",1,"0198f77e-165d-750f-9e63-200e1d10ffa4","0198f767-55c9-7875-8d21-563b3c0b86ed","2025-08-29_15h21.52.913",36.968,39.956,39.956,39.96,39.96,40.306,0,0,0,2,1,14,45,TRUE,2,2.402,NA,NA,NA,NA,NA,NA,NA,NA,NA,NA,NA,NA,NA,NA,0,1,"binary"
"098CCA7B6D0444D7B195569D94FB388C",1,"0198f77e-165d-750f-9e63-200e1d10ffa4","0198f767-55c9-7875-8d21-563b3c0b86ed","2025-08-29_15h21.52.913",40.307,43.305,43.305,43.305,43.305,43.656,0,1,1,4,1,30,40,TRUE,2,2.032,NA,NA,NA,NA,NA,NA,NA,NA,NA,NA,NA,NA,NA,NA,0,2,"binary"
"098CCA7B6D0444D7B195569D94FB388C",1,"0198f77e-165d-750f-9e63-200e1d10ffa4","0198f767-55c9-7875-8d21-563b3c0b86ed","2025-08-29_15h21.52.913",43.657,46.656,46.656,46.656,46.656,47.006,0,2,2,1,1,100,50,TRUE,1,1.539,NA,NA,NA,NA,NA,NA,NA,NA,NA,NA,NA,NA,NA,NA,0,3,"binary"
"098CCA7B6D0444D7B195569D94FB388C",1,"0198f77e-165d-750f-9e63-200e1d10ffa4","0198f767-55c9-7875-8d21-563b3c0b86ed","2025-08-29_15h21.52.913",47.01,50.006,50.006,50.006,50.006,50.356,0,3,3,0,1,7,30,TRUE,1,1.514,NA,NA,NA,NA,NA,NA,NA,NA,NA,NA,NA,NA,NA,NA,0,4,"binary"
"098CCA7B6D0444D7B195569D94FB388C",1,"0198f77e-165d-750f-9e63-200e1d10ffa4","0198f767-55c9-7875-8d21-563b3c0b86ed","2025-08-29_15h21.52.913",50.358,53.356,53.356,53.607,53.607,53.706,0,4,4,3,1,3,27,FALSE,NA,NA,NA,NA,NA,NA,NA,NA,NA,NA,NA,NA,NA,NA,NA,NA,0,5,"binary"
"098CCA7B6D0444D7B195569D94FB388C",1,"0198f77e-165d-750f-9e63-200e1d10ffa4","0198f767-55c9-7875-8d21-563b3c0b86ed","2025-08-29_15h21.52.913",NA,NA,81.908,81.908,81.908,82.258,NA,NA,NA,NA,NA,NA,NA,TRUE,1,1.177,78.921,81.908,0,0,0,101,1,180,54,NA,NA,NA,NA,NA,1,1,"binary"
"098CCA7B6D0444D7B195569D94FB388C",1,"0198f77e-165d-750f-9e63-200e1d10ffa4","0198f767-55c9-7875-8d21-563b3c0b86ed","2025-08-29_15h21.52.913",NA,NA,85.258,85.258,85.258,85.608,NA,NA,NA,NA,NA,NA,NA,TRUE,1,0.997,82.26,85.258,0,1,1,50,1,40,35,NA,NA,NA,NA,NA,1,2,"binary"
"098CCA7B6D0444D7B195569D94FB388C",1,"0198f77e-165d-750f-9e63-200e1d10ffa4","0198f767-55c9-7875-8d21-563b3c0b86ed","2025-08-29_15h21.52.913",NA,NA,88.609,88.609,88.609,88.958,NA,NA,NA,NA,NA,NA,NA,TRUE,1,0.89,85.61,88.608,0,2,2,81,1,95,40,NA,NA,NA,NA,NA,1,3,"binary"
"098CCA7B6D0444D7B195569D94FB388C",1,"0198f77e-165d-750f-9e63-200e1d10ffa4","0198f767-55c9-7875-8d21-563b3c0b86ed","2025-08-29_15h21.52.913",NA,NA,91.959,91.959,91.959,92.308,NA,NA,NA,NA,NA,NA,NA,TRUE,1,0.872,88.965,91.959,0,3,3,84,1,100,26,NA,NA,NA,NA,NA,1,4,"binary"
"098CCA7B6D0444D7B195569D94FB388C",1,"0198f77e-165d-750f-9e63-200e1d10ffa4","0198f767-55c9-7875-8d21-563b3c0b86ed","2025-08-29_15h21.52.913",NA,NA,95.309,95.31,95.31,95.659,NA,NA,NA,NA,NA,NA,NA,TRUE,1,0.949,92.311,95.308,0,4,4,73,1,90,30,NA,NA,NA,NA,NA,1,5,"binary"
"098CCA7B6D0444D7B195569D94FB388C",1,"0198f77e-165d-750f-9e63-200e1d10ffa4","0198f767-55c9-7875-8d21-563b3c0b86ed","2025-08-29_15h21.52.913",NA,NA,98.659,98.659,98.659,99.009,NA,NA,NA,NA,NA,NA,NA,TRUE,1,0.722,95.66,98.659,0,5,5,58,1,45,40,NA,NA,NA,NA,NA,1,6,"binary"
"098CCA7B6D0444D7B195569D94FB388C",1,"0198f77e-165d-750f-9e63-200e1d10ffa4","0198f767-55c9-7875-8d21-563b3c0b86ed","2025-08-29_15h21.52.913",NA,NA,102.01,102.01,102.01,102.359,NA,NA,NA,NA,NA,NA,NA,TRUE,1,0.733,99.011,102.01,0,6,6,42,1,30,26,NA,NA,NA,NA,NA,1,7,"binary"
"098CCA7B6D0444D7B195569D94FB388C",1,"0198f77e-165d-750f-9e63-200e1d10ffa4","0198f767-55c9-7875-8d21-563b3c0b86ed","2025-08-29_15h21.52.913",NA,NA,105.359,105.36,105.36,105.71,NA,NA,NA,NA,NA,NA,NA,TRUE,1,0.826,102.36,105.359,0,7,7,78,1,95,31,NA,NA,NA,NA,NA,1,8,"binary"
"098CCA7B6D0444D7B195569D94FB388C",1,"0198f77e-165d-750f-9e63-200e1d10ffa4","0198f767-55c9-7875-8d21-563b3c0b86ed","2025-08-29_15h21.52.913",NA,NA,108.71,108.71,108.71,109.06,NA,NA,NA,NA,NA,NA,NA,TRUE,1,0.73,105.71,108.71,0,8,8,57,1,45,35,NA,NA,NA,NA,NA,1,9,"binary"
"098CCA7B6D0444D7B195569D94FB388C",1,"0198f77e-165d-750f-9e63-200e1d10ffa4","0198f767-55c9-7875-8d21-563b3c0b86ed","2025-08-29_15h21.52.913",NA,NA,112.06,112.06,112.06,112.41,NA,NA,NA,NA,NA,NA,NA,TRUE,1,0.653,109.061,112.06,0,9,9,75,1,90,40,NA,NA,NA,NA,NA,1,10,"binary"
"098CCA7B6D0444D7B195569D94FB388C",1,"0198f77e-165d-750f-9e63-200e1d10ffa4","0198f767-55c9-7875-8d21-563b3c0b86ed","2025-08-29_15h21.52.913",NA,NA,115.41,115.41,115.41,115.76,NA,NA,NA,NA,NA,NA,NA,TRUE,1,0.913,112.411,115.41,0,10,10,31,1,25,29,NA,NA,NA,NA,NA,1,11,"binary"
"098CCA7B6D0444D7B195569D94FB388C",1,"0198f77e-165d-750f-9e63-200e1d10ffa4","0198f767-55c9-7875-8d21-563b3c0b86ed","2025-08-29_15h21.52.913",NA,NA,118.761,118.761,118.761,119.111,NA,NA,NA,NA,NA,NA,NA,TRUE,1,0.696,115.761,118.76,0,11,11,47,1,30,38,NA,NA,NA,NA,NA,1,12,"binary"
"098CCA7B6D0444D7B195569D94FB388C",1,"0198f77e-165d-750f-9e63-200e1d10ffa4","0198f767-55c9-7875-8d21-563b3c0b86ed","2025-08-29_15h21.52.913",NA,NA,122.11,122.11,122.11,122.461,NA,NA,NA,NA,NA,NA,NA,TRUE,1,0.627,119.116,122.11,0,12,12,64,1,50,46,NA,NA,NA,NA,NA,1,13,"binary"
"098CCA7B6D0444D7B195569D94FB388C",1,"0198f77e-165d-750f-9e63-200e1d10ffa4","0198f767-55c9-7875-8d21-563b3c0b86ed","2025-08-29_15h21.52.913",NA,NA,125.461,125.461,125.461,125.81,NA,NA,NA,NA,NA,NA,NA,TRUE,1,0.502,122.462,125.461,0,13,13,59,1,45,46,NA,NA,NA,NA,NA,1,14,"binary"
"098CCA7B6D0444D7B195569D94FB388C",1,"0198f77e-165d-750f-9e63-200e1d10ffa4","0198f767-55c9-7875-8d21-563b3c0b86ed","2025-08-29_15h21.52.913",NA,NA,128.811,128.811,128.811,129.161,NA,NA,NA,NA,NA,NA,NA,TRUE,1,1.261,125.812,128.811,0,14,14,3,1,7,30,NA,NA,NA,NA,NA,1,15,"binary"
"098CCA7B6D0444D7B195569D94FB388C",1,"0198f77e-165d-750f-9e63-200e1d10ffa4","0198f767-55c9-7875-8d21-563b3c0b86ed","2025-08-29_15h21.52.913",NA,NA,132.162,132.162,132.162,132.511,NA,NA,NA,NA,NA,NA,NA,TRUE,1,0.632,129.164,132.162,0,15,15,98,1,180,35,NA,NA,NA,NA,NA,1,16,"binary"
"098CCA7B6D0444D7B195569D94FB388C",1,"0198f77e-165d-750f-9e63-200e1d10ffa4","0198f767-55c9-7875-8d21-563b3c0b86ed","2025-08-29_15h21.52.913",NA,NA,135.511,135.512,135.512,135.861,NA,NA,NA,NA,NA,NA,NA,TRUE,1,1.453,132.512,135.511,0,16,16,18,1,14,25,NA,NA,NA,NA,NA,1,17,"binary"
"098CCA7B6D0444D7B195569D94FB388C",1,"0198f77e-165d-750f-9e63-200e1d10ffa4","0198f767-55c9-7875-8d21-563b3c0b86ed","2025-08-29_15h21.52.913",NA,NA,138.861,138.861,138.861,139.212,NA,NA,NA,NA,NA,NA,NA,TRUE,1,0.662,135.862,138.861,0,17,17,67,1,60,33,NA,NA,NA,NA,NA,1,18,"binary"
"098CCA7B6D0444D7B195569D94FB388C",1,"0198f77e-165d-750f-9e63-200e1d10ffa4","0198f767-55c9-7875-8d21-563b3c0b86ed","2025-08-29_15h21.52.913",NA,NA,142.212,142.212,142.212,142.562,NA,NA,NA,NA,NA,NA,NA,TRUE,1,0.73,139.213,142.212,0,18,18,90,1,150,31,NA,NA,NA,NA,NA,1,19,"binary"
"098CCA7B6D0444D7B195569D94FB388C",1,"0198f77e-165d-750f-9e63-200e1d10ffa4","0198f767-55c9-7875-8d21-563b3c0b86ed","2025-08-29_15h21.52.913",NA,NA,145.546,145.546,145.546,145.912,NA,NA,NA,NA,NA,NA,NA,TRUE,1,0.595,142.563,145.546,0,19,19,26,1,21,29,NA,NA,NA,NA,NA,1,20,"binary"
"098CCA7B6D0444D7B195569D94FB388C",1,"0198f77e-165d-750f-9e63-200e1d10ffa4","0198f767-55c9-7875-8d21-563b3c0b86ed","2025-08-29_15h21.52.913",NA,NA,148.896,148.896,148.896,149.246,NA,NA,NA,NA,NA,NA,NA,TRUE,1,0.48,145.913,148.896,0,20,20,52,1,40,47,NA,NA,NA,NA,NA,1,21,"binary"
"098CCA7B6D0444D7B195569D94FB388C",1,"0198f77e-165d-750f-9e63-200e1d10ffa4","0198f767-55c9-7875-8d21-563b3c0b86ed","2025-08-29_15h21.52.913",NA,NA,152.247,152.247,152.247,152.596,NA,NA,NA,NA,NA,NA,NA,TRUE,1,0.539,149.247,152.246,0,21,21,69,1,60,40,NA,NA,NA,NA,NA,1,22,"binary"
"098CCA7B6D0444D7B195569D94FB388C",1,"0198f77e-165d-750f-9e63-200e1d10ffa4","0198f767-55c9-7875-8d21-563b3c0b86ed","2025-08-29_15h21.52.913",NA,NA,155.596,155.596,155.596,155.963,NA,NA,NA,NA,NA,NA,NA,TRUE,1,0.614,152.601,155.596,0,22,22,79,1,95,33,NA,NA,NA,NA,NA,1,23,"binary"
"098CCA7B6D0444D7B195569D94FB388C",1,"0198f77e-165d-750f-9e63-200e1d10ffa4","0198f767-55c9-7875-8d21-563b3c0b86ed","2025-08-29_15h21.52.913",NA,NA,158.946,158.946,158.946,159.297,NA,NA,NA,NA,NA,NA,NA,TRUE,1,0.683,155.965,158.946,0,23,23,103,1,200,28,NA,NA,NA,NA,NA,1,24,"binary"
"098CCA7B6D0444D7B195569D94FB388C",1,"0198f77e-165d-750f-9e63-200e1d10ffa4","0198f767-55c9-7875-8d21-563b3c0b86ed","2025-08-29_15h21.52.913",NA,NA,162.296,162.296,162.296,162.646,NA,NA,NA,NA,NA,NA,NA,TRUE,1,0.569,159.298,162.296,0,24,24,49,1,40,33,NA,NA,NA,NA,NA,1,25,"binary"
"098CCA7B6D0444D7B195569D94FB388C",1,"0198f77e-165d-750f-9e63-200e1d10ffa4","0198f767-55c9-7875-8d21-563b3c0b86ed","2025-08-29_15h21.52.913",NA,NA,165.647,165.647,165.647,165.996,NA,NA,NA,NA,NA,NA,NA,TRUE,1,0.566,162.648,165.647,0,25,25,16,1,12,33,NA,NA,NA,NA,NA,1,26,"binary"
"098CCA7B6D0444D7B195569D94FB388C",1,"0198f77e-165d-750f-9e63-200e1d10ffa4","0198f767-55c9-7875-8d21-563b3c0b86ed","2025-08-29_15h21.52.913",NA,NA,168.997,168.997,168.997,169.347,NA,NA,NA,NA,NA,NA,NA,TRUE,1,0.527,165.998,168.997,0,26,26,104,1,200,35,NA,NA,NA,NA,NA,1,27,"binary"
"098CCA7B6D0444D7B195569D94FB388C",1,"0198f77e-165d-750f-9e63-200e1d10ffa4","0198f767-55c9-7875-8d21-563b3c0b86ed","2025-08-29_15h21.52.913",NA,NA,172.347,172.347,172.347,172.697,NA,NA,NA,NA,NA,NA,NA,TRUE,1,0.717,169.348,172.347,0,27,27,17,1,12,35,NA,NA,NA,NA,NA,1,28,"binary"
"098CCA7B6D0444D7B195569D94FB388C",1,"0198f77e-165d-750f-9e63-200e1d10ffa4","0198f767-55c9-7875-8d21-563b3c0b86ed","2025-08-29_15h21.52.913",NA,NA,175.697,175.697,175.697,176.047,NA,NA,NA,NA,NA,NA,NA,TRUE,1,0.493,172.698,175.697,0,28,28,88,1,100,46,NA,NA,NA,NA,NA,1,29,"binary"
"098CCA7B6D0444D7B195569D94FB388C",1,"0198f77e-165d-750f-9e63-200e1d10ffa4","0198f767-55c9-7875-8d21-563b3c0b86ed","2025-08-29_15h21.52.913",NA,NA,179.048,179.048,179.048,179.397,NA,NA,NA,NA,NA,NA,NA,TRUE,1,0.441,176.048,179.048,0,29,29,68,1,60,35,NA,NA,NA,NA,NA,1,30,"binary"
"098CCA7B6D0444D7B195569D94FB388C",1,"0198f77e-165d-750f-9e63-200e1d10ffa4","0198f767-55c9-7875-8d21-563b3c0b86ed","2025-08-29_15h21.52.913",NA,NA,182.398,182.398,182.398,182.748,NA,NA,NA,NA,NA,NA,NA,TRUE,1,0.674,179.398,182.398,0,30,30,23,1,14,39,NA,NA,NA,NA,NA,1,31,"binary"
"098CCA7B6D0444D7B195569D94FB388C",1,"0198f77e-165d-750f-9e63-200e1d10ffa4","0198f767-55c9-7875-8d21-563b3c0b86ed","2025-08-29_15h21.52.913",NA,NA,185.748,185.748,185.748,186.098,NA,NA,NA,NA,NA,NA,NA,TRUE,1,0.428,182.749,185.748,0,31,31,38,1,28,32,NA,NA,NA,NA,NA,1,32,"binary"
"098CCA7B6D0444D7B195569D94FB388C",1,"0198f77e-165d-750f-9e63-200e1d10ffa4","0198f767-55c9-7875-8d21-563b3c0b86ed","2025-08-29_15h21.52.913",NA,NA,189.099,189.099,189.099,189.448,NA,NA,NA,NA,NA,NA,NA,TRUE,1,0.471,186.099,189.099,0,32,32,85,1,100,31,NA,NA,NA,NA,NA,1,33,"binary"
"098CCA7B6D0444D7B195569D94FB388C",1,"0198f77e-165d-750f-9e63-200e1d10ffa4","0198f767-55c9-7875-8d21-563b3c0b86ed","2025-08-29_15h21.52.913",NA,NA,192.449,192.449,192.449,192.798,NA,NA,NA,NA,NA,NA,NA,TRUE,1,0.517,189.454,192.448,0,33,33,6,1,10,25,NA,NA,NA,NA,NA,1,34,"binary"
"098CCA7B6D0444D7B195569D94FB388C",1,"0198f77e-165d-750f-9e63-200e1d10ffa4","0198f767-55c9-7875-8d21-563b3c0b86ed","2025-08-29_15h21.52.913",NA,NA,195.799,195.799,195.799,196.148,NA,NA,NA,NA,NA,NA,NA,TRUE,1,0.661,192.801,195.799,0,34,34,54,1,45,26,NA,NA,NA,NA,NA,1,35,"binary"
"098CCA7B6D0444D7B195569D94FB388C",1,"0198f77e-165d-750f-9e63-200e1d10ffa4","0198f767-55c9-7875-8d21-563b3c0b86ed","2025-08-29_15h21.52.913",NA,NA,199.149,199.149,199.149,199.499,NA,NA,NA,NA,NA,NA,NA,TRUE,1,0.467,196.15,199.149,0,35,35,74,1,90,33,NA,NA,NA,NA,NA,1,36,"binary"
"098CCA7B6D0444D7B195569D94FB388C",1,"0198f77e-165d-750f-9e63-200e1d10ffa4","0198f767-55c9-7875-8d21-563b3c0b86ed","2025-08-29_15h21.52.913",NA,NA,202.499,202.499,202.499,202.849,NA,NA,NA,NA,NA,NA,NA,TRUE,1,0.735,199.501,202.499,0,36,36,8,1,10,27,NA,NA,NA,NA,NA,1,37,"binary"
"098CCA7B6D0444D7B195569D94FB388C",1,"0198f77e-165d-750f-9e63-200e1d10ffa4","0198f767-55c9-7875-8d21-563b3c0b86ed","2025-08-29_15h21.52.913",NA,NA,205.85,205.85,205.85,206.199,NA,NA,NA,NA,NA,NA,NA,TRUE,1,0.567,202.851,205.849,0,37,37,39,1,28,35,NA,NA,NA,NA,NA,1,38,"binary"
"098CCA7B6D0444D7B195569D94FB388C",1,"0198f77e-165d-750f-9e63-200e1d10ffa4","0198f767-55c9-7875-8d21-563b3c0b86ed","2025-08-29_15h21.52.913",NA,NA,209.2,209.2,209.2,209.549,NA,NA,NA,NA,NA,NA,NA,TRUE,1,1.039,206.2,209.2,0,38,38,28,1,21,32,NA,NA,NA,NA,NA,1,39,"binary"
"098CCA7B6D0444D7B195569D94FB388C",1,"0198f77e-165d-750f-9e63-200e1d10ffa4","0198f767-55c9-7875-8d21-563b3c0b86ed","2025-08-29_15h21.52.913",NA,NA,212.551,212.551,212.551,212.9,NA,NA,NA,NA,NA,NA,NA,TRUE,1,0.671,209.551,212.549,0,39,39,44,1,30,29,NA,NA,NA,NA,NA,1,40,"binary"
"098CCA7B6D0444D7B195569D94FB388C",1,"0198f77e-165d-750f-9e63-200e1d10ffa4","0198f767-55c9-7875-8d21-563b3c0b86ed","2025-08-29_15h21.52.913",NA,NA,215.899,215.899,215.899,216.249,NA,NA,NA,NA,NA,NA,NA,TRUE,1,0.485,212.901,215.899,0,40,40,94,1,150,47,NA,NA,NA,NA,NA,1,41,"binary"
"098CCA7B6D0444D7B195569D94FB388C",1,"0198f77e-165d-750f-9e63-200e1d10ffa4","0198f767-55c9-7875-8d21-563b3c0b86ed","2025-08-29_15h21.52.913",NA,NA,219.25,219.25,219.25,219.601,NA,NA,NA,NA,NA,NA,NA,TRUE,1,0.588,216.251,219.25,0,41,41,89,1,100,54,NA,NA,NA,NA,NA,1,42,"binary"
"098CCA7B6D0444D7B195569D94FB388C",1,"0198f77e-165d-750f-9e63-200e1d10ffa4","0198f767-55c9-7875-8d21-563b3c0b86ed","2025-08-29_15h21.52.913",NA,NA,222.601,222.601,222.601,222.95,NA,NA,NA,NA,NA,NA,NA,TRUE,1,0.692,219.602,222.6,0,42,42,83,1,95,54,NA,NA,NA,NA,NA,1,43,"binary"
"098CCA7B6D0444D7B195569D94FB388C",1,"0198f77e-165d-750f-9e63-200e1d10ffa4","0198f767-55c9-7875-8d21-563b3c0b86ed","2025-08-29_15h21.52.913",NA,NA,225.951,225.951,225.951,226.3,NA,NA,NA,NA,NA,NA,NA,TRUE,1,0.476,222.956,225.951,0,43,43,60,1,50,27,NA,NA,NA,NA,NA,1,44,"binary"
"098CCA7B6D0444D7B195569D94FB388C",1,"0198f77e-165d-750f-9e63-200e1d10ffa4","0198f767-55c9-7875-8d21-563b3c0b86ed","2025-08-29_15h21.52.913",NA,NA,229.301,229.301,229.301,229.651,NA,NA,NA,NA,NA,NA,NA,TRUE,1,0.969,226.302,229.301,0,44,44,32,1,25,31,NA,NA,NA,NA,NA,1,45,"binary"
"098CCA7B6D0444D7B195569D94FB388C",1,"0198f77e-165d-750f-9e63-200e1d10ffa4","0198f767-55c9-7875-8d21-563b3c0b86ed","2025-08-29_15h21.52.913",NA,NA,232.652,232.652,232.652,233.002,NA,NA,NA,NA,NA,NA,NA,TRUE,1,0.742,229.653,232.651,0,45,45,45,1,30,30,NA,NA,NA,NA,NA,1,46,"binary"
"098CCA7B6D0444D7B195569D94FB388C",1,"0198f77e-165d-750f-9e63-200e1d10ffa4","0198f767-55c9-7875-8d21-563b3c0b86ed","2025-08-29_15h21.52.913",NA,NA,236.002,236.002,236.002,236.351,NA,NA,NA,NA,NA,NA,NA,TRUE,1,0.646,233.004,236.001,0,46,46,80,1,95,35,NA,NA,NA,NA,NA,1,47,"binary"
"098CCA7B6D0444D7B195569D94FB388C",1,"0198f77e-165d-750f-9e63-200e1d10ffa4","0198f767-55c9-7875-8d21-563b3c0b86ed","2025-08-29_15h21.52.913",NA,NA,239.351,239.351,239.351,239.702,NA,NA,NA,NA,NA,NA,NA,TRUE,1,0.564,236.353,239.351,0,47,47,106,1,200,47,NA,NA,NA,NA,NA,1,48,"binary"
"098CCA7B6D0444D7B195569D94FB388C",1,"0198f77e-165d-750f-9e63-200e1d10ffa4","0198f767-55c9-7875-8d21-563b3c0b86ed","2025-08-29_15h21.52.913",NA,NA,242.701,242.701,242.701,243.052,NA,NA,NA,NA,NA,NA,NA,TRUE,1,0.573,239.703,242.701,0,48,48,56,1,45,31,NA,NA,NA,NA,NA,1,49,"binary"
"098CCA7B6D0444D7B195569D94FB388C",1,"0198f77e-165d-750f-9e63-200e1d10ffa4","0198f767-55c9-7875-8d21-563b3c0b86ed","2025-08-29_15h21.52.913",NA,NA,246.052,246.052,246.052,246.401,NA,NA,NA,NA,NA,NA,NA,TRUE,1,0.503,243.053,246.052,0,49,49,53,1,40,54,NA,NA,NA,NA,NA,1,50,"binary"
"098CCA7B6D0444D7B195569D94FB388C",1,"0198f77e-165d-750f-9e63-200e1d10ffa4","0198f767-55c9-7875-8d21-563b3c0b86ed","2025-08-29_15h21.52.913",NA,NA,249.402,249.402,249.402,249.752,NA,NA,NA,NA,NA,NA,NA,TRUE,1,0.676,246.404,249.402,0,50,50,46,1,30,32,NA,NA,NA,NA,NA,1,51,"binary"
"098CCA7B6D0444D7B195569D94FB388C",1,"0198f77e-165d-750f-9e63-200e1d10ffa4","0198f767-55c9-7875-8d21-563b3c0b86ed","2025-08-29_15h21.52.913",NA,NA,252.753,252.753,252.753,253.102,NA,NA,NA,NA,NA,NA,NA,TRUE,1,0.56,249.753,252.752,0,51,51,105,1,200,39,NA,NA,NA,NA,NA,1,52,"binary"
"098CCA7B6D0444D7B195569D94FB388C",1,"0198f77e-165d-750f-9e63-200e1d10ffa4","0198f767-55c9-7875-8d21-563b3c0b86ed","2025-08-29_15h21.52.913",NA,NA,256.102,256.102,256.102,256.453,NA,NA,NA,NA,NA,NA,NA,TRUE,1,1.394,253.103,256.102,0,52,52,4,1,7,32,NA,NA,NA,NA,NA,1,53,"binary"
"098CCA7B6D0444D7B195569D94FB388C",1,"0198f77e-165d-750f-9e63-200e1d10ffa4","0198f767-55c9-7875-8d21-563b3c0b86ed","2025-08-29_15h21.52.913",NA,NA,259.453,259.453,259.453,259.802,NA,NA,NA,NA,NA,NA,NA,TRUE,1,1.171,256.454,259.452,0,53,53,21,1,14,32,NA,NA,NA,NA,NA,1,54,"binary"
"098CCA7B6D0444D7B195569D94FB388C",1,"0198f77e-165d-750f-9e63-200e1d10ffa4","0198f767-55c9-7875-8d21-563b3c0b86ed","2025-08-29_15h21.52.913",NA,NA,262.803,262.803,262.803,263.153,NA,NA,NA,NA,NA,NA,NA,TRUE,1,0.533,259.808,262.803,0,54,54,55,1,45,29,NA,NA,NA,NA,NA,1,55,"binary"
"098CCA7B6D0444D7B195569D94FB388C",1,"0198f77e-165d-750f-9e63-200e1d10ffa4","0198f767-55c9-7875-8d21-563b3c0b86ed","2025-08-29_15h21.52.913",NA,NA,266.153,266.153,266.153,266.503,NA,NA,NA,NA,NA,NA,NA,TRUE,1,0.432,263.155,266.153,0,55,55,92,1,150,35,NA,NA,NA,NA,NA,1,56,"binary"
"098CCA7B6D0444D7B195569D94FB388C",1,"0198f77e-165d-750f-9e63-200e1d10ffa4","0198f767-55c9-7875-8d21-563b3c0b86ed","2025-08-29_15h21.52.913",NA,NA,269.503,269.503,269.503,269.853,NA,NA,NA,NA,NA,NA,NA,TRUE,1,0.809,266.505,269.503,0,56,56,25,1,21,27,NA,NA,NA,NA,NA,1,57,"binary"
"098CCA7B6D0444D7B195569D94FB388C",1,"0198f77e-165d-750f-9e63-200e1d10ffa4","0198f767-55c9-7875-8d21-563b3c0b86ed","2025-08-29_15h21.52.913",NA,NA,272.854,272.854,272.854,273.204,NA,NA,NA,NA,NA,NA,NA,TRUE,1,0.458,269.855,272.854,0,57,57,96,1,180,27,NA,NA,NA,NA,NA,1,58,"binary"
"098CCA7B6D0444D7B195569D94FB388C",1,"0198f77e-165d-750f-9e63-200e1d10ffa4","0198f767-55c9-7875-8d21-563b3c0b86ed","2025-08-29_15h21.52.913",NA,NA,276.204,276.204,276.204,276.553,NA,NA,NA,NA,NA,NA,NA,TRUE,1,0.565,273.205,276.204,0,58,58,14,1,12,28,NA,NA,NA,NA,NA,1,59,"binary"
"098CCA7B6D0444D7B195569D94FB388C",1,"0198f77e-165d-750f-9e63-200e1d10ffa4","0198f767-55c9-7875-8d21-563b3c0b86ed","2025-08-29_15h21.52.913",NA,NA,279.554,279.554,279.554,279.904,NA,NA,NA,NA,NA,NA,NA,TRUE,1,0.784,276.556,279.554,0,59,59,2,1,7,28,NA,NA,NA,NA,NA,1,60,"binary"
"098CCA7B6D0444D7B195569D94FB388C",1,"0198f77e-165d-750f-9e63-200e1d10ffa4","0198f767-55c9-7875-8d21-563b3c0b86ed","2025-08-29_15h21.52.913",NA,NA,282.904,282.904,282.904,283.254,NA,NA,NA,NA,NA,NA,NA,TRUE,1,0.635,279.905,282.904,0,60,60,71,1,60,54,NA,NA,NA,NA,NA,1,61,"binary"
"098CCA7B6D0444D7B195569D94FB388C",1,"0198f77e-165d-750f-9e63-200e1d10ffa4","0198f767-55c9-7875-8d21-563b3c0b86ed","2025-08-29_15h21.52.913",NA,NA,286.255,286.255,286.255,286.605,NA,NA,NA,NA,NA,NA,NA,TRUE,1,0.58,283.255,286.254,0,61,61,97,1,180,31,NA,NA,NA,NA,NA,1,62,"binary"
"098CCA7B6D0444D7B195569D94FB388C",1,"0198f77e-165d-750f-9e63-200e1d10ffa4","0198f767-55c9-7875-8d21-563b3c0b86ed","2025-08-29_15h21.52.913",NA,NA,289.605,289.605,289.605,289.954,NA,NA,NA,NA,NA,NA,NA,TRUE,1,0.482,286.605,289.605,0,62,62,70,1,60,47,NA,NA,NA,NA,NA,1,63,"binary"
"098CCA7B6D0444D7B195569D94FB388C",1,"0198f77e-165d-750f-9e63-200e1d10ffa4","0198f767-55c9-7875-8d21-563b3c0b86ed","2025-08-29_15h21.52.913",NA,NA,292.955,292.955,292.955,293.305,NA,NA,NA,NA,NA,NA,NA,TRUE,1,0.621,289.955,292.955,0,63,63,27,1,21,30,NA,NA,NA,NA,NA,1,64,"binary"
"098CCA7B6D0444D7B195569D94FB388C",1,"0198f77e-165d-750f-9e63-200e1d10ffa4","0198f767-55c9-7875-8d21-563b3c0b86ed","2025-08-29_15h21.52.913",NA,NA,296.305,296.305,296.305,296.655,NA,NA,NA,NA,NA,NA,NA,TRUE,1,0.503,293.309,296.305,0,64,64,93,1,150,40,NA,NA,NA,NA,NA,1,65,"binary"
"098CCA7B6D0444D7B195569D94FB388C",1,"0198f77e-165d-750f-9e63-200e1d10ffa4","0198f767-55c9-7875-8d21-563b3c0b86ed","2025-08-29_15h21.52.913",NA,NA,299.656,299.656,299.656,300.006,NA,NA,NA,NA,NA,NA,NA,TRUE,1,0.495,296.656,299.656,0,65,65,63,1,50,40,NA,NA,NA,NA,NA,1,66,"binary"
"098CCA7B6D0444D7B195569D94FB388C",1,"0198f77e-165d-750f-9e63-200e1d10ffa4","0198f767-55c9-7875-8d21-563b3c0b86ed","2025-08-29_15h21.52.913",NA,NA,303.006,303.006,303.006,303.356,NA,NA,NA,NA,NA,NA,NA,TRUE,1,0.474,300.008,303.006,0,66,66,34,1,25,35,NA,NA,NA,NA,NA,1,67,"binary"
"098CCA7B6D0444D7B195569D94FB388C",1,"0198f77e-165d-750f-9e63-200e1d10ffa4","0198f767-55c9-7875-8d21-563b3c0b86ed","2025-08-29_15h21.52.913",NA,NA,306.356,306.356,306.356,306.706,NA,NA,NA,NA,NA,NA,NA,TRUE,1,0.921,303.36,306.356,0,67,67,24,1,21,26,NA,NA,NA,NA,NA,1,68,"binary"
"098CCA7B6D0444D7B195569D94FB388C",1,"0198f77e-165d-750f-9e63-200e1d10ffa4","0198f767-55c9-7875-8d21-563b3c0b86ed","2025-08-29_15h21.52.913",NA,NA,309.706,309.706,309.706,310.056,NA,NA,NA,NA,NA,NA,NA,TRUE,1,0.671,306.708,309.706,0,68,68,102,1,200,26,NA,NA,NA,NA,NA,1,69,"binary"
"098CCA7B6D0444D7B195569D94FB388C",1,"0198f77e-165d-750f-9e63-200e1d10ffa4","0198f767-55c9-7875-8d21-563b3c0b86ed","2025-08-29_15h21.52.913",NA,NA,313.056,313.056,313.056,313.406,NA,NA,NA,NA,NA,NA,NA,TRUE,1,0.513,310.058,313.056,0,69,69,10,1,10,30,NA,NA,NA,NA,NA,1,70,"binary"
"098CCA7B6D0444D7B195569D94FB388C",1,"0198f77e-165d-750f-9e63-200e1d10ffa4","0198f767-55c9-7875-8d21-563b3c0b86ed","2025-08-29_15h21.52.913",NA,NA,316.407,316.407,316.407,316.756,NA,NA,NA,NA,NA,NA,NA,TRUE,1,0.459,313.408,316.407,0,70,70,99,1,180,39,NA,NA,NA,NA,NA,1,71,"binary"
"098CCA7B6D0444D7B195569D94FB388C",1,"0198f77e-165d-750f-9e63-200e1d10ffa4","0198f767-55c9-7875-8d21-563b3c0b86ed","2025-08-29_15h21.52.913",NA,NA,319.757,319.757,319.757,320.107,NA,NA,NA,NA,NA,NA,NA,TRUE,1,0.779,316.758,319.757,0,71,71,13,1,12,26,NA,NA,NA,NA,NA,1,72,"binary"
"098CCA7B6D0444D7B195569D94FB388C",1,"0198f77e-165d-750f-9e63-200e1d10ffa4","0198f767-55c9-7875-8d21-563b3c0b86ed","2025-08-29_15h21.52.913",NA,NA,323.107,323.107,323.107,323.457,NA,NA,NA,NA,NA,NA,NA,TRUE,1,0.524,320.108,323.107,0,72,72,29,1,21,38,NA,NA,NA,NA,NA,1,73,"binary"
"098CCA7B6D0444D7B195569D94FB388C",1,"0198f77e-165d-750f-9e63-200e1d10ffa4","0198f767-55c9-7875-8d21-563b3c0b86ed","2025-08-29_15h21.52.913",NA,NA,326.457,326.458,326.458,326.807,NA,NA,NA,NA,NA,NA,NA,TRUE,1,0.6,323.457,326.457,0,73,73,66,1,60,29,NA,NA,NA,NA,NA,1,74,"binary"
"098CCA7B6D0444D7B195569D94FB388C",1,"0198f77e-165d-750f-9e63-200e1d10ffa4","0198f767-55c9-7875-8d21-563b3c0b86ed","2025-08-29_15h21.52.913",NA,NA,329.808,329.808,329.808,330.157,NA,NA,NA,NA,NA,NA,NA,TRUE,1,0.776,326.808,329.807,0,74,74,30,1,25,27,NA,NA,NA,NA,NA,1,75,"binary"
"098CCA7B6D0444D7B195569D94FB388C",1,"0198f77e-165d-750f-9e63-200e1d10ffa4","0198f767-55c9-7875-8d21-563b3c0b86ed","2025-08-29_15h21.52.913",NA,NA,333.158,333.158,333.158,333.507,NA,NA,NA,NA,NA,NA,NA,TRUE,1,0.5,330.159,333.157,0,75,75,91,1,150,33,NA,NA,NA,NA,NA,1,76,"binary"
"098CCA7B6D0444D7B195569D94FB388C",1,"0198f77e-165d-750f-9e63-200e1d10ffa4","0198f767-55c9-7875-8d21-563b3c0b86ed","2025-08-29_15h21.52.913",NA,NA,336.508,336.508,336.508,336.858,NA,NA,NA,NA,NA,NA,NA,TRUE,1,0.517,333.509,336.508,0,76,76,86,1,100,38,NA,NA,NA,NA,NA,1,77,"binary"
"098CCA7B6D0444D7B195569D94FB388C",1,"0198f77e-165d-750f-9e63-200e1d10ffa4","0198f767-55c9-7875-8d21-563b3c0b86ed","2025-08-29_15h21.52.913",NA,NA,339.858,339.858,339.858,340.209,NA,NA,NA,NA,NA,NA,NA,TRUE,1,0.5,336.859,339.857,0,77,77,35,1,25,46,NA,NA,NA,NA,NA,1,78,"binary"
"098CCA7B6D0444D7B195569D94FB388C",1,"0198f77e-165d-750f-9e63-200e1d10ffa4","0198f767-55c9-7875-8d21-563b3c0b86ed","2025-08-29_15h21.52.913",NA,NA,343.208,343.208,343.208,343.558,NA,NA,NA,NA,NA,NA,NA,TRUE,1,0.425,340.21,343.208,0,78,78,107,1,200,54,NA,NA,NA,NA,NA,1,79,"binary"
"098CCA7B6D0444D7B195569D94FB388C",1,"0198f77e-165d-750f-9e63-200e1d10ffa4","0198f767-55c9-7875-8d21-563b3c0b86ed","2025-08-29_15h21.52.913",NA,NA,346.559,346.559,346.559,346.908,NA,NA,NA,NA,NA,NA,NA,TRUE,1,0.487,343.56,346.558,0,79,79,48,1,40,27,NA,NA,NA,NA,NA,1,80,"binary"
"098CCA7B6D0444D7B195569D94FB388C",1,"0198f77e-165d-750f-9e63-200e1d10ffa4","0198f767-55c9-7875-8d21-563b3c0b86ed","2025-08-29_15h21.52.913",NA,NA,349.908,349.908,349.908,350.258,NA,NA,NA,NA,NA,NA,NA,TRUE,1,0.466,346.909,349.908,0,80,80,87,1,100,39,NA,NA,NA,NA,NA,1,81,"binary"
"098CCA7B6D0444D7B195569D94FB388C",1,"0198f77e-165d-750f-9e63-200e1d10ffa4","0198f767-55c9-7875-8d21-563b3c0b86ed","2025-08-29_15h21.52.913",NA,NA,353.259,353.259,353.259,353.608,NA,NA,NA,NA,NA,NA,NA,TRUE,1,0.721,350.26,353.259,0,81,81,41,1,28,46,NA,NA,NA,NA,NA,1,82,"binary"
"098CCA7B6D0444D7B195569D94FB388C",1,"0198f77e-165d-750f-9e63-200e1d10ffa4","0198f767-55c9-7875-8d21-563b3c0b86ed","2025-08-29_15h21.52.913",NA,NA,356.609,356.61,356.61,356.959,NA,NA,NA,NA,NA,NA,NA,TRUE,1,0.494,353.614,356.609,0,82,82,0,1,7,25,NA,NA,NA,NA,NA,1,83,"binary"
"098CCA7B6D0444D7B195569D94FB388C",1,"0198f77e-165d-750f-9e63-200e1d10ffa4","0198f767-55c9-7875-8d21-563b3c0b86ed","2025-08-29_15h21.52.913",NA,NA,359.959,359.959,359.959,360.309,NA,NA,NA,NA,NA,NA,NA,TRUE,1,0.448,356.962,359.959,0,83,83,61,1,50,30,NA,NA,NA,NA,NA,1,84,"binary"
"098CCA7B6D0444D7B195569D94FB388C",1,"0198f77e-165d-750f-9e63-200e1d10ffa4","0198f767-55c9-7875-8d21-563b3c0b86ed","2025-08-29_15h21.52.913",NA,NA,363.309,363.309,363.309,363.659,NA,NA,NA,NA,NA,NA,NA,TRUE,1,0.426,360.311,363.309,0,84,84,33,1,25,33,NA,NA,NA,NA,NA,1,85,"binary"
"098CCA7B6D0444D7B195569D94FB388C",1,"0198f77e-165d-750f-9e63-200e1d10ffa4","0198f767-55c9-7875-8d21-563b3c0b86ed","2025-08-29_15h21.52.913",NA,NA,366.659,366.659,366.659,367.01,NA,NA,NA,NA,NA,NA,NA,TRUE,1,0.546,363.661,366.659,0,85,85,36,1,28,26,NA,NA,NA,NA,NA,1,86,"binary"
"098CCA7B6D0444D7B195569D94FB388C",1,"0198f77e-165d-750f-9e63-200e1d10ffa4","0198f767-55c9-7875-8d21-563b3c0b86ed","2025-08-29_15h21.52.913",NA,NA,370.01,370.01,370.01,370.36,NA,NA,NA,NA,NA,NA,NA,TRUE,1,0.564,367.011,370.01,0,86,86,20,1,14,28,NA,NA,NA,NA,NA,1,87,"binary"
"098CCA7B6D0444D7B195569D94FB388C",1,"0198f77e-165d-750f-9e63-200e1d10ffa4","0198f767-55c9-7875-8d21-563b3c0b86ed","2025-08-29_15h21.52.913",NA,NA,373.36,373.36,373.36,373.71,NA,NA,NA,NA,NA,NA,NA,TRUE,1,0.574,370.361,373.36,0,87,87,82,1,95,47,NA,NA,NA,NA,NA,1,88,"binary"
"098CCA7B6D0444D7B195569D94FB388C",1,"0198f77e-165d-750f-9e63-200e1d10ffa4","0198f767-55c9-7875-8d21-563b3c0b86ed","2025-08-29_15h21.52.913",NA,NA,376.71,376.71,376.71,377.06,NA,NA,NA,NA,NA,NA,NA,TRUE,1,0.658,373.711,376.71,0,88,88,43,1,30,27,NA,NA,NA,NA,NA,1,89,"binary"
"098CCA7B6D0444D7B195569D94FB388C",1,"0198f77e-165d-750f-9e63-200e1d10ffa4","0198f767-55c9-7875-8d21-563b3c0b86ed","2025-08-29_15h21.52.913",NA,NA,380.061,380.061,380.061,380.41,NA,NA,NA,NA,NA,NA,NA,TRUE,1,0.71,377.061,380.061,0,89,89,12,1,12,25,NA,NA,NA,NA,NA,1,90,"binary"
"098CCA7B6D0444D7B195569D94FB388C",1,"0198f77e-165d-750f-9e63-200e1d10ffa4","0198f767-55c9-7875-8d21-563b3c0b86ed","2025-08-29_15h21.52.913",NA,NA,383.411,383.411,383.411,383.761,NA,NA,NA,NA,NA,NA,NA,TRUE,1,0.647,380.412,383.411,0,90,90,19,1,14,26,NA,NA,NA,NA,NA,1,91,"binary"
"098CCA7B6D0444D7B195569D94FB388C",1,"0198f77e-165d-750f-9e63-200e1d10ffa4","0198f767-55c9-7875-8d21-563b3c0b86ed","2025-08-29_15h21.52.913",NA,NA,386.761,386.761,386.761,387.111,NA,NA,NA,NA,NA,NA,NA,TRUE,1,0.476,383.762,386.761,0,91,91,65,1,50,54,NA,NA,NA,NA,NA,1,92,"binary"
"098CCA7B6D0444D7B195569D94FB388C",1,"0198f77e-165d-750f-9e63-200e1d10ffa4","0198f767-55c9-7875-8d21-563b3c0b86ed","2025-08-29_15h21.52.913",NA,NA,390.111,390.111,390.111,390.461,NA,NA,NA,NA,NA,NA,NA,TRUE,1,0.353,387.113,390.111,0,92,92,72,1,90,26,NA,NA,NA,NA,NA,1,93,"binary"
"098CCA7B6D0444D7B195569D94FB388C",1,"0198f77e-165d-750f-9e63-200e1d10ffa4","0198f767-55c9-7875-8d21-563b3c0b86ed","2025-08-29_15h21.52.913",NA,NA,393.461,393.461,393.461,393.811,NA,NA,NA,NA,NA,NA,NA,TRUE,1,0.342,390.462,393.461,0,93,93,11,1,10,32,NA,NA,NA,NA,NA,1,94,"binary"
"098CCA7B6D0444D7B195569D94FB388C",1,"0198f77e-165d-750f-9e63-200e1d10ffa4","0198f767-55c9-7875-8d21-563b3c0b86ed","2025-08-29_15h21.52.913",NA,NA,396.811,396.811,396.811,397.161,NA,NA,NA,NA,NA,NA,NA,TRUE,1,0.37,393.812,396.811,0,94,94,40,1,28,39,NA,NA,NA,NA,NA,1,95,"binary"
"098CCA7B6D0444D7B195569D94FB388C",1,"0198f77e-165d-750f-9e63-200e1d10ffa4","0198f767-55c9-7875-8d21-563b3c0b86ed","2025-08-29_15h21.52.913",NA,NA,400.162,400.162,400.162,400.512,NA,NA,NA,NA,NA,NA,NA,TRUE,1,0.361,397.162,400.162,0,95,95,9,1,10,29,NA,NA,NA,NA,NA,1,96,"binary"
"098CCA7B6D0444D7B195569D94FB388C",1,"0198f77e-165d-750f-9e63-200e1d10ffa4","0198f767-55c9-7875-8d21-563b3c0b86ed","2025-08-29_15h21.52.913",NA,NA,403.496,403.496,403.496,403.862,NA,NA,NA,NA,NA,NA,NA,TRUE,1,0.468,400.513,403.496,0,96,96,37,1,28,28,NA,NA,NA,NA,NA,1,97,"binary"
"098CCA7B6D0444D7B195569D94FB388C",1,"0198f77e-165d-750f-9e63-200e1d10ffa4","0198f767-55c9-7875-8d21-563b3c0b86ed","2025-08-29_15h21.52.913",NA,NA,406.862,406.862,406.862,407.196,NA,NA,NA,NA,NA,NA,NA,TRUE,1,0.797,403.868,406.862,0,97,97,7,1,10,26,NA,NA,NA,NA,NA,1,98,"binary"
"098CCA7B6D0444D7B195569D94FB388C",1,"0198f77e-165d-750f-9e63-200e1d10ffa4","0198f767-55c9-7875-8d21-563b3c0b86ed","2025-08-29_15h21.52.913",NA,NA,410.213,410.213,410.213,410.563,NA,NA,NA,NA,NA,NA,NA,TRUE,1,0.583,407.197,410.213,0,98,98,62,1,50,35,NA,NA,NA,NA,NA,1,99,"binary"
"098CCA7B6D0444D7B195569D94FB388C",1,"0198f77e-165d-750f-9e63-200e1d10ffa4","0198f767-55c9-7875-8d21-563b3c0b86ed","2025-08-29_15h21.52.913",NA,NA,413.546,413.546,413.546,413.897,NA,NA,NA,NA,NA,NA,NA,TRUE,1,0.406,410.564,413.546,0,99,99,77,1,90,54,NA,NA,NA,NA,NA,1,100,"binary"
"098CCA7B6D0444D7B195569D94FB388C",1,"0198f77e-165d-750f-9e63-200e1d10ffa4","0198f767-55c9-7875-8d21-563b3c0b86ed","2025-08-29_15h21.52.913",NA,NA,416.896,416.896,416.896,417.246,NA,NA,NA,NA,NA,NA,NA,TRUE,1,0.438,413.9,416.896,0,100,100,22,1,14,35,NA,NA,NA,NA,NA,1,101,"binary"
"098CCA7B6D0444D7B195569D94FB388C",1,"0198f77e-165d-750f-9e63-200e1d10ffa4","0198f767-55c9-7875-8d21-563b3c0b86ed","2025-08-29_15h21.52.913",NA,NA,420.247,420.247,420.247,420.597,NA,NA,NA,NA,NA,NA,NA,TRUE,1,0.387,417.248,420.246,0,101,101,1,1,7,26,NA,NA,NA,NA,NA,1,102,"binary"
"098CCA7B6D0444D7B195569D94FB388C",1,"0198f77e-165d-750f-9e63-200e1d10ffa4","0198f767-55c9-7875-8d21-563b3c0b86ed","2025-08-29_15h21.52.913",NA,NA,423.597,423.597,423.597,423.946,NA,NA,NA,NA,NA,NA,NA,TRUE,1,0.494,420.598,423.596,0,102,102,5,1,7,35,NA,NA,NA,NA,NA,1,103,"binary"
"098CCA7B6D0444D7B195569D94FB388C",1,"0198f77e-165d-750f-9e63-200e1d10ffa4","0198f767-55c9-7875-8d21-563b3c0b86ed","2025-08-29_15h21.52.913",NA,NA,426.946,426.946,426.946,427.297,NA,NA,NA,NA,NA,NA,NA,TRUE,1,0.484,423.948,426.946,0,103,103,100,1,180,46,NA,NA,NA,NA,NA,1,104,"binary"
"098CCA7B6D0444D7B195569D94FB388C",1,"0198f77e-165d-750f-9e63-200e1d10ffa4","0198f767-55c9-7875-8d21-563b3c0b86ed","2025-08-29_15h21.52.913",NA,NA,430.297,430.297,430.297,430.647,NA,NA,NA,NA,NA,NA,NA,TRUE,1,0.388,427.298,430.297,0,104,104,76,1,90,46,NA,NA,NA,NA,NA,1,105,"binary"
"098CCA7B6D0444D7B195569D94FB388C",1,"0198f77e-165d-750f-9e63-200e1d10ffa4","0198f767-55c9-7875-8d21-563b3c0b86ed","2025-08-29_15h21.52.913",NA,NA,433.647,433.647,433.647,433.998,NA,NA,NA,NA,NA,NA,NA,TRUE,1,0.337,430.649,433.647,0,105,105,95,1,150,54,NA,NA,NA,NA,NA,1,106,"binary"
"098CCA7B6D0444D7B195569D94FB388C",1,"0198f77e-165d-750f-9e63-200e1d10ffa4","0198f767-55c9-7875-8d21-563b3c0b86ed","2025-08-29_15h21.52.913",NA,NA,436.997,436.997,436.997,437.347,NA,NA,NA,NA,NA,NA,NA,TRUE,1,0.393,433.999,436.997,0,106,106,51,1,40,40,NA,NA,NA,NA,NA,1,107,"binary"
"098CCA7B6D0444D7B195569D94FB388C",1,"0198f77e-165d-750f-9e63-200e1d10ffa4","0198f767-55c9-7875-8d21-563b3c0b86ed","2025-08-29_15h21.52.913",NA,NA,440.348,440.348,440.348,440.697,NA,NA,NA,NA,NA,NA,NA,TRUE,1,0.454,437.348,440.347,0,107,107,15,1,12,31,NA,NA,NA,NA,NA,1,108,"binary"
"098CCA7B6D0444D7B195569D94FB388C",1,"0198f77e-165d-750f-9e63-200e1d10ffa4","0198f767-55c9-7875-8d21-563b3c0b86ed","2025-08-29_15h21.52.913",NA,NA,450.331,450.331,450.331,450.682,NA,NA,NA,NA,NA,NA,NA,TRUE,1,1.735,447.351,450.331,NA,NA,NA,NA,NA,100,39,0,0,0,87,1,2,1,"binary"
"098CCA7B6D0444D7B195569D94FB388C",1,"0198f77e-165d-750f-9e63-200e1d10ffa4","0198f767-55c9-7875-8d21-563b3c0b86ed","2025-08-29_15h21.52.913",NA,NA,453.682,453.682,453.682,454.032,NA,NA,NA,NA,NA,NA,NA,TRUE,1,0.921,450.683,453.682,NA,NA,NA,NA,NA,60,54,0,1,1,71,1,2,2,"binary"
"098CCA7B6D0444D7B195569D94FB388C",1,"0198f77e-165d-750f-9e63-200e1d10ffa4","0198f767-55c9-7875-8d21-563b3c0b86ed","2025-08-29_15h21.52.913",NA,NA,457.033,457.033,457.033,457.382,NA,NA,NA,NA,NA,NA,NA,TRUE,1,0.617,454.034,457.033,NA,NA,NA,NA,NA,45,35,0,2,2,57,1,2,3,"binary"
"098CCA7B6D0444D7B195569D94FB388C",1,"0198f77e-165d-750f-9e63-200e1d10ffa4","0198f767-55c9-7875-8d21-563b3c0b86ed","2025-08-29_15h21.52.913",NA,NA,460.382,460.382,460.382,460.733,NA,NA,NA,NA,NA,NA,NA,TRUE,1,1.033,457.385,460.382,NA,NA,NA,NA,NA,25,35,0,3,3,34,1,2,4,"binary"
"098CCA7B6D0444D7B195569D94FB388C",1,"0198f77e-165d-750f-9e63-200e1d10ffa4","0198f767-55c9-7875-8d21-563b3c0b86ed","2025-08-29_15h21.52.913",NA,NA,463.733,463.733,463.733,464.083,NA,NA,NA,NA,NA,NA,NA,TRUE,1,0.542,460.733,463.732,NA,NA,NA,NA,NA,180,39,0,4,4,99,1,2,5,"binary"
"098CCA7B6D0444D7B195569D94FB388C",1,"0198f77e-165d-750f-9e63-200e1d10ffa4","0198f767-55c9-7875-8d21-563b3c0b86ed","2025-08-29_15h21.52.913",NA,NA,467.082,467.082,467.082,467.432,NA,NA,NA,NA,NA,NA,NA,TRUE,1,0.851,464.084,467.082,NA,NA,NA,NA,NA,12,28,0,5,5,14,1,2,6,"binary"
"098CCA7B6D0444D7B195569D94FB388C",1,"0198f77e-165d-750f-9e63-200e1d10ffa4","0198f767-55c9-7875-8d21-563b3c0b86ed","2025-08-29_15h21.52.913",NA,NA,470.433,470.433,470.433,470.782,NA,NA,NA,NA,NA,NA,NA,TRUE,1,0.457,467.434,470.433,NA,NA,NA,NA,NA,60,29,0,6,6,66,1,2,7,"binary"
"098CCA7B6D0444D7B195569D94FB388C",1,"0198f77e-165d-750f-9e63-200e1d10ffa4","0198f767-55c9-7875-8d21-563b3c0b86ed","2025-08-29_15h21.52.913",NA,NA,473.783,473.783,473.783,474.133,NA,NA,NA,NA,NA,NA,NA,TRUE,1,0.434,470.784,473.783,NA,NA,NA,NA,NA,180,27,0,7,7,96,1,2,8,"binary"
"098CCA7B6D0444D7B195569D94FB388C",1,"0198f77e-165d-750f-9e63-200e1d10ffa4","0198f767-55c9-7875-8d21-563b3c0b86ed","2025-08-29_15h21.52.913",NA,NA,477.133,477.133,477.133,477.483,NA,NA,NA,NA,NA,NA,NA,TRUE,1,0.425,474.134,477.133,NA,NA,NA,NA,NA,28,39,0,8,8,40,1,2,9,"binary"
"098CCA7B6D0444D7B195569D94FB388C",1,"0198f77e-165d-750f-9e63-200e1d10ffa4","0198f767-55c9-7875-8d21-563b3c0b86ed","2025-08-29_15h21.52.913",NA,NA,480.484,480.484,480.484,480.833,NA,NA,NA,NA,NA,NA,NA,TRUE,1,0.454,477.485,480.483,NA,NA,NA,NA,NA,30,38,0,9,9,47,1,2,10,"binary"
"098CCA7B6D0444D7B195569D94FB388C",1,"0198f77e-165d-750f-9e63-200e1d10ffa4","0198f767-55c9-7875-8d21-563b3c0b86ed","2025-08-29_15h21.52.913",NA,NA,483.834,483.834,483.834,484.183,NA,NA,NA,NA,NA,NA,NA,TRUE,1,0.492,480.839,483.833,NA,NA,NA,NA,NA,21,32,0,10,10,28,1,2,11,"binary"
"098CCA7B6D0444D7B195569D94FB388C",1,"0198f77e-165d-750f-9e63-200e1d10ffa4","0198f767-55c9-7875-8d21-563b3c0b86ed","2025-08-29_15h21.52.913",NA,NA,487.184,487.184,487.184,487.533,NA,NA,NA,NA,NA,NA,NA,TRUE,1,1.099,484.185,487.184,NA,NA,NA,NA,NA,30,27,0,11,11,43,1,2,12,"binary"
"098CCA7B6D0444D7B195569D94FB388C",1,"0198f77e-165d-750f-9e63-200e1d10ffa4","0198f767-55c9-7875-8d21-563b3c0b86ed","2025-08-29_15h21.52.913",NA,NA,490.534,490.535,490.535,490.884,NA,NA,NA,NA,NA,NA,NA,TRUE,1,0.525,487.535,490.534,NA,NA,NA,NA,NA,60,33,0,12,12,67,1,2,13,"binary"
"098CCA7B6D0444D7B195569D94FB388C",1,"0198f77e-165d-750f-9e63-200e1d10ffa4","0198f767-55c9-7875-8d21-563b3c0b86ed","2025-08-29_15h21.52.913",NA,NA,493.885,493.885,493.885,494.234,NA,NA,NA,NA,NA,NA,NA,TRUE,1,0.687,490.887,493.884,NA,NA,NA,NA,NA,90,26,0,13,13,72,1,2,14,"binary"
"098CCA7B6D0444D7B195569D94FB388C",1,"0198f77e-165d-750f-9e63-200e1d10ffa4","0198f767-55c9-7875-8d21-563b3c0b86ed","2025-08-29_15h21.52.913",NA,NA,497.235,497.235,497.235,497.584,NA,NA,NA,NA,NA,NA,NA,TRUE,1,0.733,494.236,497.235,NA,NA,NA,NA,NA,7,25,0,14,14,0,1,2,15,"binary"
"098CCA7B6D0444D7B195569D94FB388C",1,"0198f77e-165d-750f-9e63-200e1d10ffa4","0198f767-55c9-7875-8d21-563b3c0b86ed","2025-08-29_15h21.52.913",NA,NA,500.585,500.585,500.585,500.935,NA,NA,NA,NA,NA,NA,NA,TRUE,1,0.627,497.586,500.585,NA,NA,NA,NA,NA,10,27,0,15,15,8,1,2,16,"binary"
"098CCA7B6D0444D7B195569D94FB388C",1,"0198f77e-165d-750f-9e63-200e1d10ffa4","0198f767-55c9-7875-8d21-563b3c0b86ed","2025-08-29_15h21.52.913",NA,NA,503.935,503.935,503.935,504.285,NA,NA,NA,NA,NA,NA,NA,TRUE,1,0.609,500.936,503.935,NA,NA,NA,NA,NA,30,29,0,16,16,44,1,2,17,"binary"
"098CCA7B6D0444D7B195569D94FB388C",1,"0198f77e-165d-750f-9e63-200e1d10ffa4","0198f767-55c9-7875-8d21-563b3c0b86ed","2025-08-29_15h21.52.913",NA,NA,507.286,507.286,507.286,507.635,NA,NA,NA,NA,NA,NA,NA,TRUE,1,0.523,504.286,507.286,NA,NA,NA,NA,NA,90,33,0,17,17,74,1,2,18,"binary"
"098CCA7B6D0444D7B195569D94FB388C",1,"0198f77e-165d-750f-9e63-200e1d10ffa4","0198f767-55c9-7875-8d21-563b3c0b86ed","2025-08-29_15h21.52.913",NA,NA,510.635,510.635,510.635,510.985,NA,NA,NA,NA,NA,NA,NA,TRUE,1,0.551,507.636,510.635,NA,NA,NA,NA,NA,10,32,0,18,18,11,1,2,19,"binary"
"098CCA7B6D0444D7B195569D94FB388C",1,"0198f77e-165d-750f-9e63-200e1d10ffa4","0198f767-55c9-7875-8d21-563b3c0b86ed","2025-08-29_15h21.52.913",NA,NA,513.987,513.987,513.987,514.336,NA,NA,NA,NA,NA,NA,NA,TRUE,1,0.452,510.986,513.987,NA,NA,NA,NA,NA,10,26,0,19,19,7,1,2,20,"binary"
"098CCA7B6D0444D7B195569D94FB388C",1,"0198f77e-165d-750f-9e63-200e1d10ffa4","0198f767-55c9-7875-8d21-563b3c0b86ed","2025-08-29_15h21.52.913",NA,NA,517.32,517.32,517.32,517.67,NA,NA,NA,NA,NA,NA,NA,TRUE,1,0.358,514.342,517.32,NA,NA,NA,NA,NA,10,25,0,20,20,6,1,2,21,"binary"
"098CCA7B6D0444D7B195569D94FB388C",1,"0198f77e-165d-750f-9e63-200e1d10ffa4","0198f767-55c9-7875-8d21-563b3c0b86ed","2025-08-29_15h21.52.913",NA,NA,520.687,520.687,520.687,521.036,NA,NA,NA,NA,NA,NA,NA,TRUE,1,0.376,517.671,520.687,NA,NA,NA,NA,NA,7,30,0,21,21,3,1,2,22,"binary"
"098CCA7B6D0444D7B195569D94FB388C",1,"0198f77e-165d-750f-9e63-200e1d10ffa4","0198f767-55c9-7875-8d21-563b3c0b86ed","2025-08-29_15h21.52.913",NA,NA,524.02,524.02,524.02,524.37,NA,NA,NA,NA,NA,NA,NA,TRUE,1,0.421,521.037,524.02,NA,NA,NA,NA,NA,21,30,0,22,22,27,1,2,23,"binary"
"098CCA7B6D0444D7B195569D94FB388C",1,"0198f77e-165d-750f-9e63-200e1d10ffa4","0198f767-55c9-7875-8d21-563b3c0b86ed","2025-08-29_15h21.52.913",NA,NA,527.37,527.37,527.37,527.72,NA,NA,NA,NA,NA,NA,NA,TRUE,1,0.485,524.372,527.37,NA,NA,NA,NA,NA,7,35,0,23,23,5,1,2,24,"binary"
"098CCA7B6D0444D7B195569D94FB388C",1,"0198f77e-165d-750f-9e63-200e1d10ffa4","0198f767-55c9-7875-8d21-563b3c0b86ed","2025-08-29_15h21.52.913",NA,NA,530.737,530.737,530.737,531.087,NA,NA,NA,NA,NA,NA,NA,TRUE,1,0.584,527.722,530.737,NA,NA,NA,NA,NA,100,54,0,24,24,89,1,2,25,"binary"
"098CCA7B6D0444D7B195569D94FB388C",1,"0198f77e-165d-750f-9e63-200e1d10ffa4","0198f767-55c9-7875-8d21-563b3c0b86ed","2025-08-29_15h21.52.913",NA,NA,534.07,534.07,534.07,534.42,NA,NA,NA,NA,NA,NA,NA,TRUE,1,0.544,531.088,534.07,NA,NA,NA,NA,NA,150,31,0,25,25,90,1,2,26,"binary"
"098CCA7B6D0444D7B195569D94FB388C",1,"0198f77e-165d-750f-9e63-200e1d10ffa4","0198f767-55c9-7875-8d21-563b3c0b86ed","2025-08-29_15h21.52.913",NA,NA,537.42,537.42,537.42,537.77,NA,NA,NA,NA,NA,NA,NA,TRUE,1,0.476,534.421,537.42,NA,NA,NA,NA,NA,150,40,0,26,26,93,1,2,27,"binary"
"098CCA7B6D0444D7B195569D94FB388C",1,"0198f77e-165d-750f-9e63-200e1d10ffa4","0198f767-55c9-7875-8d21-563b3c0b86ed","2025-08-29_15h21.52.913",NA,NA,540.771,540.771,540.771,541.121,NA,NA,NA,NA,NA,NA,NA,TRUE,1,0.446,537.771,540.771,NA,NA,NA,NA,NA,28,46,0,27,27,41,1,2,28,"binary"
"098CCA7B6D0444D7B195569D94FB388C",1,"0198f77e-165d-750f-9e63-200e1d10ffa4","0198f767-55c9-7875-8d21-563b3c0b86ed","2025-08-29_15h21.52.913",NA,NA,544.121,544.121,544.121,544.471,NA,NA,NA,NA,NA,NA,NA,TRUE,1,0.401,541.123,544.121,NA,NA,NA,NA,NA,100,31,0,28,28,85,1,2,29,"binary"
"098CCA7B6D0444D7B195569D94FB388C",1,"0198f77e-165d-750f-9e63-200e1d10ffa4","0198f767-55c9-7875-8d21-563b3c0b86ed","2025-08-29_15h21.52.913",NA,NA,547.471,547.471,547.471,547.821,NA,NA,NA,NA,NA,NA,NA,TRUE,1,0.432,544.472,547.471,NA,NA,NA,NA,NA,50,27,0,29,29,60,1,2,30,"binary"
"098CCA7B6D0444D7B195569D94FB388C",1,"0198f77e-165d-750f-9e63-200e1d10ffa4","0198f767-55c9-7875-8d21-563b3c0b86ed","2025-08-29_15h21.52.913",NA,NA,550.822,550.823,550.823,551.172,NA,NA,NA,NA,NA,NA,NA,TRUE,1,0.306,547.823,550.822,NA,NA,NA,NA,NA,180,46,0,30,30,100,1,2,31,"binary"
"098CCA7B6D0444D7B195569D94FB388C",1,"0198f77e-165d-750f-9e63-200e1d10ffa4","0198f767-55c9-7875-8d21-563b3c0b86ed","2025-08-29_15h21.52.913",NA,NA,554.172,554.172,554.172,554.522,NA,NA,NA,NA,NA,NA,NA,TRUE,1,0.501,551.177,554.172,NA,NA,NA,NA,NA,40,40,0,31,31,51,1,2,32,"binary"
"098CCA7B6D0444D7B195569D94FB388C",1,"0198f77e-165d-750f-9e63-200e1d10ffa4","0198f767-55c9-7875-8d21-563b3c0b86ed","2025-08-29_15h21.52.913",NA,NA,557.522,557.522,557.522,557.872,NA,NA,NA,NA,NA,NA,NA,TRUE,1,0.404,554.523,557.522,NA,NA,NA,NA,NA,60,47,0,32,32,70,1,2,33,"binary"
"098CCA7B6D0444D7B195569D94FB388C",1,"0198f77e-165d-750f-9e63-200e1d10ffa4","0198f767-55c9-7875-8d21-563b3c0b86ed","2025-08-29_15h21.52.913",NA,NA,560.872,560.872,560.872,561.222,NA,NA,NA,NA,NA,NA,NA,TRUE,1,0.362,557.874,560.872,NA,NA,NA,NA,NA,14,32,0,33,33,21,1,2,34,"binary"
"098CCA7B6D0444D7B195569D94FB388C",1,"0198f77e-165d-750f-9e63-200e1d10ffa4","0198f767-55c9-7875-8d21-563b3c0b86ed","2025-08-29_15h21.52.913",NA,NA,564.223,564.223,564.223,564.573,NA,NA,NA,NA,NA,NA,NA,TRUE,1,0.501,561.223,564.222,NA,NA,NA,NA,NA,21,27,0,34,34,25,1,2,35,"binary"
"098CCA7B6D0444D7B195569D94FB388C",1,"0198f77e-165d-750f-9e63-200e1d10ffa4","0198f767-55c9-7875-8d21-563b3c0b86ed","2025-08-29_15h21.52.913",NA,NA,567.573,567.573,567.573,567.922,NA,NA,NA,NA,NA,NA,NA,TRUE,1,0.534,564.574,567.573,NA,NA,NA,NA,NA,40,47,0,35,35,52,1,2,36,"binary"
"098CCA7B6D0444D7B195569D94FB388C",1,"0198f77e-165d-750f-9e63-200e1d10ffa4","0198f767-55c9-7875-8d21-563b3c0b86ed","2025-08-29_15h21.52.913",NA,NA,570.923,570.923,570.923,571.273,NA,NA,NA,NA,NA,NA,NA,TRUE,1,0.633,567.924,570.923,NA,NA,NA,NA,NA,200,54,0,36,36,107,1,2,37,"binary"
"098CCA7B6D0444D7B195569D94FB388C",1,"0198f77e-165d-750f-9e63-200e1d10ffa4","0198f767-55c9-7875-8d21-563b3c0b86ed","2025-08-29_15h21.52.913",NA,NA,574.273,574.273,574.273,574.623,NA,NA,NA,NA,NA,NA,NA,TRUE,1,0.493,571.274,574.273,NA,NA,NA,NA,NA,25,31,0,37,37,32,1,2,38,"binary"
"098CCA7B6D0444D7B195569D94FB388C",1,"0198f77e-165d-750f-9e63-200e1d10ffa4","0198f767-55c9-7875-8d21-563b3c0b86ed","2025-08-29_15h21.52.913",NA,NA,577.624,577.624,577.624,577.973,NA,NA,NA,NA,NA,NA,NA,TRUE,1,0.334,574.624,577.623,NA,NA,NA,NA,NA,150,47,0,38,38,94,1,2,39,"binary"
"098CCA7B6D0444D7B195569D94FB388C",1,"0198f77e-165d-750f-9e63-200e1d10ffa4","0198f767-55c9-7875-8d21-563b3c0b86ed","2025-08-29_15h21.52.913",NA,NA,580.973,580.973,580.973,581.323,NA,NA,NA,NA,NA,NA,NA,TRUE,1,0.406,577.974,580.973,NA,NA,NA,NA,NA,14,25,0,39,39,18,1,2,40,"binary"
"098CCA7B6D0444D7B195569D94FB388C",1,"0198f77e-165d-750f-9e63-200e1d10ffa4","0198f767-55c9-7875-8d21-563b3c0b86ed","2025-08-29_15h21.52.913",NA,NA,584.324,584.324,584.324,584.674,NA,NA,NA,NA,NA,NA,NA,TRUE,1,0.367,581.324,584.323,NA,NA,NA,NA,NA,60,35,0,40,40,68,1,2,41,"binary"
"098CCA7B6D0444D7B195569D94FB388C",1,"0198f77e-165d-750f-9e63-200e1d10ffa4","0198f767-55c9-7875-8d21-563b3c0b86ed","2025-08-29_15h21.52.913",NA,NA,587.674,587.674,587.674,588.024,NA,NA,NA,NA,NA,NA,NA,TRUE,1,0.501,584.675,587.674,NA,NA,NA,NA,NA,40,27,0,41,41,48,1,2,42,"binary"
"098CCA7B6D0444D7B195569D94FB388C",1,"0198f77e-165d-750f-9e63-200e1d10ffa4","0198f767-55c9-7875-8d21-563b3c0b86ed","2025-08-29_15h21.52.913",NA,NA,591.024,591.024,591.024,591.374,NA,NA,NA,NA,NA,NA,NA,TRUE,1,0.301,588.029,591.024,NA,NA,NA,NA,NA,90,54,0,42,42,77,1,2,43,"binary"
"098CCA7B6D0444D7B195569D94FB388C",1,"0198f77e-165d-750f-9e63-200e1d10ffa4","0198f767-55c9-7875-8d21-563b3c0b86ed","2025-08-29_15h21.52.913",NA,NA,594.375,594.375,594.375,594.724,NA,NA,NA,NA,NA,NA,NA,TRUE,1,0.576,591.376,594.374,NA,NA,NA,NA,NA,95,33,0,43,43,79,1,2,44,"binary"
"098CCA7B6D0444D7B195569D94FB388C",1,"0198f77e-165d-750f-9e63-200e1d10ffa4","0198f767-55c9-7875-8d21-563b3c0b86ed","2025-08-29_15h21.52.913",NA,NA,597.724,597.724,597.724,598.075,NA,NA,NA,NA,NA,NA,NA,TRUE,1,0.534,594.726,597.724,NA,NA,NA,NA,NA,95,40,0,44,44,81,1,2,45,"binary"
"098CCA7B6D0444D7B195569D94FB388C",1,"0198f77e-165d-750f-9e63-200e1d10ffa4","0198f767-55c9-7875-8d21-563b3c0b86ed","2025-08-29_15h21.52.913",NA,NA,601.075,601.075,601.075,601.425,NA,NA,NA,NA,NA,NA,NA,TRUE,1,0.326,598.077,601.075,NA,NA,NA,NA,NA,28,28,0,45,45,37,1,2,46,"binary"
"098CCA7B6D0444D7B195569D94FB388C",1,"0198f77e-165d-750f-9e63-200e1d10ffa4","0198f767-55c9-7875-8d21-563b3c0b86ed","2025-08-29_15h21.52.913",NA,NA,604.425,604.425,604.425,604.774,NA,NA,NA,NA,NA,NA,NA,TRUE,1,0.505,601.426,604.424,NA,NA,NA,NA,NA,50,35,0,46,46,62,1,2,47,"binary"
"098CCA7B6D0444D7B195569D94FB388C",1,"0198f77e-165d-750f-9e63-200e1d10ffa4","0198f767-55c9-7875-8d21-563b3c0b86ed","2025-08-29_15h21.52.913",NA,NA,607.775,607.775,607.775,608.125,NA,NA,NA,NA,NA,NA,NA,TRUE,1,0.633,604.776,607.775,NA,NA,NA,NA,NA,25,27,0,47,47,30,1,2,48,"binary"
"098CCA7B6D0444D7B195569D94FB388C",1,"0198f77e-165d-750f-9e63-200e1d10ffa4","0198f767-55c9-7875-8d21-563b3c0b86ed","2025-08-29_15h21.52.913",NA,NA,611.125,611.125,611.125,611.475,NA,NA,NA,NA,NA,NA,NA,TRUE,1,0.515,608.126,611.125,NA,NA,NA,NA,NA,50,30,0,48,48,61,1,2,49,"binary"
"098CCA7B6D0444D7B195569D94FB388C",1,"0198f77e-165d-750f-9e63-200e1d10ffa4","0198f767-55c9-7875-8d21-563b3c0b86ed","2025-08-29_15h21.52.913",NA,NA,614.475,614.475,614.475,614.826,NA,NA,NA,NA,NA,NA,NA,TRUE,1,0.418,611.477,614.475,NA,NA,NA,NA,NA,200,26,0,49,49,102,1,2,50,"binary"
"098CCA7B6D0444D7B195569D94FB388C",1,"0198f77e-165d-750f-9e63-200e1d10ffa4","0198f767-55c9-7875-8d21-563b3c0b86ed","2025-08-29_15h21.52.913",NA,NA,617.826,617.826,617.826,618.176,NA,NA,NA,NA,NA,NA,NA,TRUE,1,0.732,614.826,617.826,NA,NA,NA,NA,NA,45,46,0,50,50,59,1,2,51,"binary"
"098CCA7B6D0444D7B195569D94FB388C",1,"0198f77e-165d-750f-9e63-200e1d10ffa4","0198f767-55c9-7875-8d21-563b3c0b86ed","2025-08-29_15h21.52.913",NA,NA,621.176,621.176,621.176,621.525,NA,NA,NA,NA,NA,NA,NA,TRUE,1,0.733,618.181,621.176,NA,NA,NA,NA,NA,30,30,0,51,51,45,1,2,52,"binary"
"098CCA7B6D0444D7B195569D94FB388C",1,"0198f77e-165d-750f-9e63-200e1d10ffa4","0198f767-55c9-7875-8d21-563b3c0b86ed","2025-08-29_15h21.52.913",NA,NA,624.526,624.526,624.526,624.875,NA,NA,NA,NA,NA,NA,NA,TRUE,1,0.552,621.528,624.526,NA,NA,NA,NA,NA,50,54,0,52,52,65,1,2,53,"binary"
"098CCA7B6D0444D7B195569D94FB388C",1,"0198f77e-165d-750f-9e63-200e1d10ffa4","0198f767-55c9-7875-8d21-563b3c0b86ed","2025-08-29_15h21.52.913",NA,NA,627.876,627.877,627.877,628.226,NA,NA,NA,NA,NA,NA,NA,TRUE,1,0.44,624.878,627.876,NA,NA,NA,NA,NA,10,30,0,53,53,10,1,2,54,"binary"
"098CCA7B6D0444D7B195569D94FB388C",1,"0198f77e-165d-750f-9e63-200e1d10ffa4","0198f767-55c9-7875-8d21-563b3c0b86ed","2025-08-29_15h21.52.913",NA,NA,631.227,631.227,631.227,631.576,NA,NA,NA,NA,NA,NA,NA,TRUE,1,0.426,628.228,631.227,NA,NA,NA,NA,NA,40,33,0,54,54,49,1,2,55,"binary"
"098CCA7B6D0444D7B195569D94FB388C",1,"0198f77e-165d-750f-9e63-200e1d10ffa4","0198f767-55c9-7875-8d21-563b3c0b86ed","2025-08-29_15h21.52.913",NA,NA,634.577,634.577,634.577,634.927,NA,NA,NA,NA,NA,NA,NA,TRUE,1,0.521,631.578,634.577,NA,NA,NA,NA,NA,14,39,0,55,55,23,1,2,56,"binary"
"098CCA7B6D0444D7B195569D94FB388C",1,"0198f77e-165d-750f-9e63-200e1d10ffa4","0198f767-55c9-7875-8d21-563b3c0b86ed","2025-08-29_15h21.52.913",NA,NA,637.927,637.927,637.927,638.277,NA,NA,NA,NA,NA,NA,NA,TRUE,1,1.015,634.929,637.927,NA,NA,NA,NA,NA,7,26,0,56,56,1,1,2,57,"binary"
"098CCA7B6D0444D7B195569D94FB388C",1,"0198f77e-165d-750f-9e63-200e1d10ffa4","0198f767-55c9-7875-8d21-563b3c0b86ed","2025-08-29_15h21.52.913",NA,NA,641.277,641.277,641.277,641.627,NA,NA,NA,NA,NA,NA,NA,TRUE,1,0.755,638.278,641.277,NA,NA,NA,NA,NA,12,31,0,57,57,15,1,2,58,"binary"
"098CCA7B6D0444D7B195569D94FB388C",1,"0198f77e-165d-750f-9e63-200e1d10ffa4","0198f767-55c9-7875-8d21-563b3c0b86ed","2025-08-29_15h21.52.913",NA,NA,644.627,644.627,644.627,644.977,NA,NA,NA,NA,NA,NA,NA,TRUE,1,0.538,641.628,644.627,NA,NA,NA,NA,NA,7,28,0,58,58,2,1,2,59,"binary"
"098CCA7B6D0444D7B195569D94FB388C",1,"0198f77e-165d-750f-9e63-200e1d10ffa4","0198f767-55c9-7875-8d21-563b3c0b86ed","2025-08-29_15h21.52.913",NA,NA,647.978,647.978,647.978,648.328,NA,NA,NA,NA,NA,NA,NA,TRUE,1,0.582,644.978,647.977,NA,NA,NA,NA,NA,25,29,0,59,59,31,1,2,60,"binary"
"098CCA7B6D0444D7B195569D94FB388C",1,"0198f77e-165d-750f-9e63-200e1d10ffa4","0198f767-55c9-7875-8d21-563b3c0b86ed","2025-08-29_15h21.52.913",NA,NA,651.328,651.328,651.328,651.678,NA,NA,NA,NA,NA,NA,NA,TRUE,1,1.009,648.328,651.328,NA,NA,NA,NA,NA,12,25,0,60,60,12,1,2,61,"binary"
"098CCA7B6D0444D7B195569D94FB388C",1,"0198f77e-165d-750f-9e63-200e1d10ffa4","0198f767-55c9-7875-8d21-563b3c0b86ed","2025-08-29_15h21.52.913",NA,NA,654.678,654.678,654.678,655.028,NA,NA,NA,NA,NA,NA,NA,TRUE,1,0.942,651.683,654.678,NA,NA,NA,NA,NA,45,31,0,61,61,56,1,2,62,"binary"
"098CCA7B6D0444D7B195569D94FB388C",1,"0198f77e-165d-750f-9e63-200e1d10ffa4","0198f767-55c9-7875-8d21-563b3c0b86ed","2025-08-29_15h21.52.913",NA,NA,658.029,658.029,658.029,658.378,NA,NA,NA,NA,NA,NA,NA,TRUE,1,0.618,655.03,658.029,NA,NA,NA,NA,NA,7,32,0,62,62,4,1,2,63,"binary"
"098CCA7B6D0444D7B195569D94FB388C",1,"0198f77e-165d-750f-9e63-200e1d10ffa4","0198f767-55c9-7875-8d21-563b3c0b86ed","2025-08-29_15h21.52.913",NA,NA,661.379,661.379,661.379,661.728,NA,NA,NA,NA,NA,NA,NA,TRUE,1,0.899,658.38,661.379,NA,NA,NA,NA,NA,40,35,0,63,63,50,1,2,64,"binary"
"098CCA7B6D0444D7B195569D94FB388C",1,"0198f77e-165d-750f-9e63-200e1d10ffa4","0198f767-55c9-7875-8d21-563b3c0b86ed","2025-08-29_15h21.52.913",NA,NA,664.729,664.729,664.729,665.079,NA,NA,NA,NA,NA,NA,NA,TRUE,1,0.607,661.731,664.729,NA,NA,NA,NA,NA,95,47,0,64,64,82,1,2,65,"binary"
"098CCA7B6D0444D7B195569D94FB388C",1,"0198f77e-165d-750f-9e63-200e1d10ffa4","0198f767-55c9-7875-8d21-563b3c0b86ed","2025-08-29_15h21.52.913",NA,NA,668.079,668.079,668.079,668.429,NA,NA,NA,NA,NA,NA,NA,TRUE,1,0.959,665.08,668.078,NA,NA,NA,NA,NA,30,26,0,65,65,42,1,2,66,"binary"
"098CCA7B6D0444D7B195569D94FB388C",1,"0198f77e-165d-750f-9e63-200e1d10ffa4","0198f767-55c9-7875-8d21-563b3c0b86ed","2025-08-29_15h21.52.913",NA,NA,671.429,671.429,671.429,671.779,NA,NA,NA,NA,NA,NA,NA,TRUE,1,0.614,668.43,671.429,NA,NA,NA,NA,NA,95,35,0,66,66,80,1,2,67,"binary"
"098CCA7B6D0444D7B195569D94FB388C",1,"0198f77e-165d-750f-9e63-200e1d10ffa4","0198f767-55c9-7875-8d21-563b3c0b86ed","2025-08-29_15h21.52.913",NA,NA,674.779,674.779,674.779,675.129,NA,NA,NA,NA,NA,NA,NA,TRUE,1,0.361,671.78,674.779,NA,NA,NA,NA,NA,90,30,0,67,67,73,1,2,68,"binary"
"098CCA7B6D0444D7B195569D94FB388C",1,"0198f77e-165d-750f-9e63-200e1d10ffa4","0198f767-55c9-7875-8d21-563b3c0b86ed","2025-08-29_15h21.52.913",NA,NA,678.13,678.13,678.13,678.48,NA,NA,NA,NA,NA,NA,NA,TRUE,1,0.451,675.131,678.13,NA,NA,NA,NA,NA,28,35,0,68,68,39,1,2,69,"binary"
"098CCA7B6D0444D7B195569D94FB388C",1,"0198f77e-165d-750f-9e63-200e1d10ffa4","0198f767-55c9-7875-8d21-563b3c0b86ed","2025-08-29_15h21.52.913",NA,NA,681.481,681.481,681.481,681.83,NA,NA,NA,NA,NA,NA,NA,TRUE,1,0.725,678.481,681.48,NA,NA,NA,NA,NA,21,38,0,69,69,29,1,2,70,"binary"
"098CCA7B6D0444D7B195569D94FB388C",1,"0198f77e-165d-750f-9e63-200e1d10ffa4","0198f767-55c9-7875-8d21-563b3c0b86ed","2025-08-29_15h21.52.913",NA,NA,684.83,684.83,684.83,685.18,NA,NA,NA,NA,NA,NA,NA,TRUE,1,0.637,681.835,684.83,NA,NA,NA,NA,NA,21,26,0,70,70,24,1,2,71,"binary"
"098CCA7B6D0444D7B195569D94FB388C",1,"0198f77e-165d-750f-9e63-200e1d10ffa4","0198f767-55c9-7875-8d21-563b3c0b86ed","2025-08-29_15h21.52.913",NA,NA,688.18,688.18,688.18,688.531,NA,NA,NA,NA,NA,NA,NA,TRUE,1,0.561,685.183,688.18,NA,NA,NA,NA,NA,100,26,0,71,71,84,1,2,72,"binary"
"098CCA7B6D0444D7B195569D94FB388C",1,"0198f77e-165d-750f-9e63-200e1d10ffa4","0198f767-55c9-7875-8d21-563b3c0b86ed","2025-08-29_15h21.52.913",NA,NA,691.531,691.531,691.531,691.88,NA,NA,NA,NA,NA,NA,NA,TRUE,1,0.368,688.531,691.531,NA,NA,NA,NA,NA,60,40,0,72,72,69,1,2,73,"binary"
"098CCA7B6D0444D7B195569D94FB388C",1,"0198f77e-165d-750f-9e63-200e1d10ffa4","0198f767-55c9-7875-8d21-563b3c0b86ed","2025-08-29_15h21.52.913",NA,NA,694.88,694.88,694.88,695.231,NA,NA,NA,NA,NA,NA,NA,TRUE,1,0.527,691.882,694.88,NA,NA,NA,NA,NA,95,54,0,73,73,83,1,2,74,"binary"
"098CCA7B6D0444D7B195569D94FB388C",1,"0198f77e-165d-750f-9e63-200e1d10ffa4","0198f767-55c9-7875-8d21-563b3c0b86ed","2025-08-29_15h21.52.913",NA,NA,698.23,698.23,698.23,698.581,NA,NA,NA,NA,NA,NA,NA,TRUE,1,0.314,695.232,698.23,NA,NA,NA,NA,NA,10,29,0,74,74,9,1,2,75,"binary"
"098CCA7B6D0444D7B195569D94FB388C",1,"0198f77e-165d-750f-9e63-200e1d10ffa4","0198f767-55c9-7875-8d21-563b3c0b86ed","2025-08-29_15h21.52.913",NA,NA,701.581,701.581,701.581,701.931,NA,NA,NA,NA,NA,NA,NA,TRUE,1,0.473,698.582,701.581,NA,NA,NA,NA,NA,45,26,0,75,75,54,1,2,76,"binary"
"098CCA7B6D0444D7B195569D94FB388C",1,"0198f77e-165d-750f-9e63-200e1d10ffa4","0198f767-55c9-7875-8d21-563b3c0b86ed","2025-08-29_15h21.52.913",NA,NA,704.931,704.931,704.931,705.282,NA,NA,NA,NA,NA,NA,NA,TRUE,1,0.396,701.932,704.931,NA,NA,NA,NA,NA,28,32,0,76,76,38,1,2,77,"binary"
"098CCA7B6D0444D7B195569D94FB388C",1,"0198f77e-165d-750f-9e63-200e1d10ffa4","0198f767-55c9-7875-8d21-563b3c0b86ed","2025-08-29_15h21.52.913",NA,NA,708.282,708.282,708.282,708.631,NA,NA,NA,NA,NA,NA,NA,TRUE,1,0.643,705.283,708.281,NA,NA,NA,NA,NA,45,40,0,77,77,58,1,2,78,"binary"
"098CCA7B6D0444D7B195569D94FB388C",1,"0198f77e-165d-750f-9e63-200e1d10ffa4","0198f767-55c9-7875-8d21-563b3c0b86ed","2025-08-29_15h21.52.913",NA,NA,711.631,711.631,711.631,711.981,NA,NA,NA,NA,NA,NA,NA,TRUE,1,0.422,708.633,711.631,NA,NA,NA,NA,NA,95,31,0,78,78,78,1,2,79,"binary"
"098CCA7B6D0444D7B195569D94FB388C",1,"0198f77e-165d-750f-9e63-200e1d10ffa4","0198f767-55c9-7875-8d21-563b3c0b86ed","2025-08-29_15h21.52.913",NA,NA,714.982,714.982,714.982,715.333,NA,NA,NA,NA,NA,NA,NA,TRUE,1,0.516,711.983,714.982,NA,NA,NA,NA,NA,30,32,0,79,79,46,1,2,80,"binary"
"098CCA7B6D0444D7B195569D94FB388C",1,"0198f77e-165d-750f-9e63-200e1d10ffa4","0198f767-55c9-7875-8d21-563b3c0b86ed","2025-08-29_15h21.52.913",NA,NA,718.332,718.332,718.332,718.682,NA,NA,NA,NA,NA,NA,NA,TRUE,1,0.548,715.341,718.332,NA,NA,NA,NA,NA,150,54,0,80,80,95,1,2,81,"binary"
"098CCA7B6D0444D7B195569D94FB388C",1,"0198f77e-165d-750f-9e63-200e1d10ffa4","0198f767-55c9-7875-8d21-563b3c0b86ed","2025-08-29_15h21.52.913",NA,NA,721.682,721.683,721.683,722.032,NA,NA,NA,NA,NA,NA,NA,TRUE,1,0.731,718.684,721.682,NA,NA,NA,NA,NA,12,26,0,81,81,13,1,2,82,"binary"
"098CCA7B6D0444D7B195569D94FB388C",1,"0198f77e-165d-750f-9e63-200e1d10ffa4","0198f767-55c9-7875-8d21-563b3c0b86ed","2025-08-29_15h21.52.913",NA,NA,725.032,725.032,725.032,725.382,NA,NA,NA,NA,NA,NA,NA,TRUE,1,0.661,722.033,725.032,NA,NA,NA,NA,NA,50,46,0,82,82,64,1,2,83,"binary"
"098CCA7B6D0444D7B195569D94FB388C",1,"0198f77e-165d-750f-9e63-200e1d10ffa4","0198f767-55c9-7875-8d21-563b3c0b86ed","2025-08-29_15h21.52.913",NA,NA,728.383,728.383,728.383,728.732,NA,NA,NA,NA,NA,NA,NA,TRUE,1,0.856,725.385,728.383,NA,NA,NA,NA,NA,90,46,0,83,83,76,1,2,84,"binary"
"098CCA7B6D0444D7B195569D94FB388C",1,"0198f77e-165d-750f-9e63-200e1d10ffa4","0198f767-55c9-7875-8d21-563b3c0b86ed","2025-08-29_15h21.52.913",NA,NA,731.733,731.733,731.733,732.083,NA,NA,NA,NA,NA,NA,NA,TRUE,1,0.558,728.734,731.733,NA,NA,NA,NA,NA,12,35,0,84,84,17,1,2,85,"binary"
"098CCA7B6D0444D7B195569D94FB388C",1,"0198f77e-165d-750f-9e63-200e1d10ffa4","0198f767-55c9-7875-8d21-563b3c0b86ed","2025-08-29_15h21.52.913",NA,NA,735.083,735.083,735.083,735.433,NA,NA,NA,NA,NA,NA,NA,TRUE,1,0.598,732.085,735.083,NA,NA,NA,NA,NA,14,35,0,85,85,22,1,2,86,"binary"
"098CCA7B6D0444D7B195569D94FB388C",1,"0198f77e-165d-750f-9e63-200e1d10ffa4","0198f767-55c9-7875-8d21-563b3c0b86ed","2025-08-29_15h21.52.913",NA,NA,738.434,738.434,738.434,738.784,NA,NA,NA,NA,NA,NA,NA,TRUE,1,0.657,735.434,738.433,NA,NA,NA,NA,NA,40,54,0,86,86,53,1,2,87,"binary"
"098CCA7B6D0444D7B195569D94FB388C",1,"0198f77e-165d-750f-9e63-200e1d10ffa4","0198f767-55c9-7875-8d21-563b3c0b86ed","2025-08-29_15h21.52.913",NA,NA,741.784,741.784,741.784,742.133,NA,NA,NA,NA,NA,NA,NA,TRUE,1,0.729,738.785,741.783,NA,NA,NA,NA,NA,90,40,0,87,87,75,1,2,88,"binary"
"098CCA7B6D0444D7B195569D94FB388C",1,"0198f77e-165d-750f-9e63-200e1d10ffa4","0198f767-55c9-7875-8d21-563b3c0b86ed","2025-08-29_15h21.52.913",NA,NA,745.134,745.134,745.134,745.484,NA,NA,NA,NA,NA,NA,NA,TRUE,1,0.584,742.135,745.133,NA,NA,NA,NA,NA,28,26,0,88,88,36,1,2,89,"binary"
"098CCA7B6D0444D7B195569D94FB388C",1,"0198f77e-165d-750f-9e63-200e1d10ffa4","0198f767-55c9-7875-8d21-563b3c0b86ed","2025-08-29_15h21.52.913",NA,NA,748.485,748.485,748.485,748.834,NA,NA,NA,NA,NA,NA,NA,TRUE,1,0.939,745.485,748.484,NA,NA,NA,NA,NA,50,40,0,89,89,63,1,2,90,"binary"
"098CCA7B6D0444D7B195569D94FB388C",1,"0198f77e-165d-750f-9e63-200e1d10ffa4","0198f767-55c9-7875-8d21-563b3c0b86ed","2025-08-29_15h21.52.913",NA,NA,751.834,751.834,751.834,752.184,NA,NA,NA,NA,NA,NA,NA,TRUE,1,0.575,748.84,751.834,NA,NA,NA,NA,NA,150,33,0,90,90,91,1,2,91,"binary"
"098CCA7B6D0444D7B195569D94FB388C",1,"0198f77e-165d-750f-9e63-200e1d10ffa4","0198f767-55c9-7875-8d21-563b3c0b86ed","2025-08-29_15h21.52.913",NA,NA,755.185,755.185,755.185,755.534,NA,NA,NA,NA,NA,NA,NA,TRUE,1,0.517,752.186,755.185,NA,NA,NA,NA,NA,150,35,0,91,91,92,1,2,92,"binary"
"098CCA7B6D0444D7B195569D94FB388C",1,"0198f77e-165d-750f-9e63-200e1d10ffa4","0198f767-55c9-7875-8d21-563b3c0b86ed","2025-08-29_15h21.52.913",NA,NA,758.535,758.535,758.535,758.885,NA,NA,NA,NA,NA,NA,NA,TRUE,1,0.62,755.536,758.535,NA,NA,NA,NA,NA,200,47,0,92,92,106,1,2,93,"binary"
"098CCA7B6D0444D7B195569D94FB388C",1,"0198f77e-165d-750f-9e63-200e1d10ffa4","0198f767-55c9-7875-8d21-563b3c0b86ed","2025-08-29_15h21.52.913",NA,NA,761.885,761.885,761.885,762.235,NA,NA,NA,NA,NA,NA,NA,TRUE,1,1.449,758.887,761.885,NA,NA,NA,NA,NA,200,39,0,93,93,105,1,2,94,"binary"
"098CCA7B6D0444D7B195569D94FB388C",1,"0198f77e-165d-750f-9e63-200e1d10ffa4","0198f767-55c9-7875-8d21-563b3c0b86ed","2025-08-29_15h21.52.913",NA,NA,765.235,765.485,765.485,765.585,NA,NA,NA,NA,NA,NA,NA,FALSE,NA,NA,762.236,765.235,NA,NA,NA,NA,NA,100,46,0,94,94,88,1,2,95,"binary"
"098CCA7B6D0444D7B195569D94FB388C",1,"0198f77e-165d-750f-9e63-200e1d10ffa4","0198f767-55c9-7875-8d21-563b3c0b86ed","2025-08-29_15h21.52.913",NA,NA,768.586,768.586,768.586,768.935,NA,NA,NA,NA,NA,NA,NA,TRUE,1,0.675,765.586,768.585,NA,NA,NA,NA,NA,200,28,0,95,95,103,1,2,96,"binary"
"098CCA7B6D0444D7B195569D94FB388C",1,"0198f77e-165d-750f-9e63-200e1d10ffa4","0198f767-55c9-7875-8d21-563b3c0b86ed","2025-08-29_15h21.52.913",NA,NA,771.935,771.935,771.935,772.285,NA,NA,NA,NA,NA,NA,NA,TRUE,1,0.729,768.936,771.935,NA,NA,NA,NA,NA,200,35,0,96,96,104,1,2,97,"binary"
"098CCA7B6D0444D7B195569D94FB388C",1,"0198f77e-165d-750f-9e63-200e1d10ffa4","0198f767-55c9-7875-8d21-563b3c0b86ed","2025-08-29_15h21.52.913",NA,NA,775.286,775.286,775.286,775.636,NA,NA,NA,NA,NA,NA,NA,TRUE,1,1.635,772.286,775.285,NA,NA,NA,NA,NA,180,35,0,97,97,98,1,2,98,"binary"
"098CCA7B6D0444D7B195569D94FB388C",1,"0198f77e-165d-750f-9e63-200e1d10ffa4","0198f767-55c9-7875-8d21-563b3c0b86ed","2025-08-29_15h21.52.913",NA,NA,778.636,778.886,778.886,778.97,NA,NA,NA,NA,NA,NA,NA,FALSE,NA,NA,775.637,778.636,NA,NA,NA,NA,NA,14,26,0,98,98,19,1,2,99,"binary"
"098CCA7B6D0444D7B195569D94FB388C",1,"0198f77e-165d-750f-9e63-200e1d10ffa4","0198f767-55c9-7875-8d21-563b3c0b86ed","2025-08-29_15h21.52.913",NA,NA,781.986,781.986,781.986,782.336,NA,NA,NA,NA,NA,NA,NA,TRUE,1,1.276,778.971,781.986,NA,NA,NA,NA,NA,12,33,0,99,99,16,1,2,100,"binary"
"098CCA7B6D0444D7B195569D94FB388C",1,"0198f77e-165d-750f-9e63-200e1d10ffa4","0198f767-55c9-7875-8d21-563b3c0b86ed","2025-08-29_15h21.52.913",NA,NA,785.337,785.337,785.337,785.67,NA,NA,NA,NA,NA,NA,NA,TRUE,1,1.229,782.338,785.336,NA,NA,NA,NA,NA,100,38,0,100,100,86,1,2,101,"binary"
"098CCA7B6D0444D7B195569D94FB388C",1,"0198f77e-165d-750f-9e63-200e1d10ffa4","0198f767-55c9-7875-8d21-563b3c0b86ed","2025-08-29_15h21.52.913",NA,NA,788.67,788.67,788.67,789.02,NA,NA,NA,NA,NA,NA,NA,TRUE,1,0.601,785.676,788.67,NA,NA,NA,NA,NA,180,31,0,101,101,97,1,2,102,"binary"
"098CCA7B6D0444D7B195569D94FB388C",1,"0198f77e-165d-750f-9e63-200e1d10ffa4","0198f767-55c9-7875-8d21-563b3c0b86ed","2025-08-29_15h21.52.913",NA,NA,792.021,792.021,792.021,792.37,NA,NA,NA,NA,NA,NA,NA,TRUE,1,0.677,789.023,792.021,NA,NA,NA,NA,NA,25,33,0,102,102,33,1,2,103,"binary"
"098CCA7B6D0444D7B195569D94FB388C",1,"0198f77e-165d-750f-9e63-200e1d10ffa4","0198f767-55c9-7875-8d21-563b3c0b86ed","2025-08-29_15h21.52.913",NA,NA,795.371,795.371,795.371,795.721,NA,NA,NA,NA,NA,NA,NA,TRUE,1,0.686,792.372,795.371,NA,NA,NA,NA,NA,180,54,0,103,103,101,1,2,104,"binary"
"098CCA7B6D0444D7B195569D94FB388C",1,"0198f77e-165d-750f-9e63-200e1d10ffa4","0198f767-55c9-7875-8d21-563b3c0b86ed","2025-08-29_15h21.52.913",NA,NA,798.721,798.721,798.721,799.071,NA,NA,NA,NA,NA,NA,NA,TRUE,1,0.58,795.722,798.721,NA,NA,NA,NA,NA,14,28,0,104,104,20,1,2,105,"binary"
"098CCA7B6D0444D7B195569D94FB388C",1,"0198f77e-165d-750f-9e63-200e1d10ffa4","0198f767-55c9-7875-8d21-563b3c0b86ed","2025-08-29_15h21.52.913",NA,NA,802.07,802.07,802.07,802.421,NA,NA,NA,NA,NA,NA,NA,TRUE,1,0.542,799.071,802.07,NA,NA,NA,NA,NA,45,29,0,105,105,55,1,2,106,"binary"
"098CCA7B6D0444D7B195569D94FB388C",1,"0198f77e-165d-750f-9e63-200e1d10ffa4","0198f767-55c9-7875-8d21-563b3c0b86ed","2025-08-29_15h21.52.913",NA,NA,805.422,805.422,805.422,805.771,NA,NA,NA,NA,NA,NA,NA,TRUE,1,0.52,802.422,805.421,NA,NA,NA,NA,NA,21,29,0,106,106,26,1,2,107,"binary"
"098CCA7B6D0444D7B195569D94FB388C",1,"0198f77e-165d-750f-9e63-200e1d10ffa4","0198f767-55c9-7875-8d21-563b3c0b86ed","2025-08-29_15h21.52.913",NA,NA,808.771,808.771,808.771,809.121,NA,NA,NA,NA,NA,NA,NA,TRUE,1,0.505,805.772,808.771,NA,NA,NA,NA,NA,25,46,0,107,107,35,1,2,108,"binary"
