"participant","session","assignmentId","projectId","date","practiceTrial.started","practiceTrial.stopped","tooLate.started","tooLate.stopped","blank.started","blank.stopped","trials_pract.thisRepN","trials_pract.thisTrialN","trials_pract.thisN","trials_pract.thisIndex","trials_pract.ran","delay_pract","amount_pract","responseMade","key","rt","trial.started","trial.stopped","trials.thisRepN","trials.thisTrialN","trials.thisN","trials.thisIndex","trials.ran","delay","amount","trials_2.thisRepN","trials_2.thisTrialN","trials_2.thisN","trials_2.thisIndex","trials_2.ran","block","trial","taskType"
"1403A555DC784AEB95EA3FFB5001082E",1,"01990a98-3f5e-7f47-ad08-d61af1d7d1b9","01990a83-7673-7c0c-a792-bbd8fbbaf673","2025-09-02_09h25.00.232",172.4414,175.4067,175.4073,175.4073,175.4074,175.7648,0,0,0,1,1,100,50,TRUE,1,1.5578,NA,NA,NA,NA,NA,NA,NA,NA,NA,NA,NA,NA,NA,NA,0,1,"binary"
"1403A555DC784AEB95EA3FFB5001082E",1,"01990a98-3f5e-7f47-ad08-d61af1d7d1b9","01990a83-7673-7c0c-a792-bbd8fbbaf673","2025-09-02_09h25.00.232",175.7669,178.7622,178.7625,178.7625,178.7625,179.1184,0,1,1,3,1,3,27,TRUE,1,2.7498,NA,NA,NA,NA,NA,NA,NA,NA,NA,NA,NA,NA,NA,NA,0,2,"binary"
"1403A555DC784AEB95EA3FFB5001082E",1,"01990a98-3f5e-7f47-ad08-d61af1d7d1b9","01990a83-7673-7c0c-a792-bbd8fbbaf673","2025-09-02_09h25.00.232",179.1199,182.1092,182.1095,182.1095,182.1095,182.4562,0,2,2,4,1,30,40,TRUE,1,2.1894,NA,NA,NA,NA,NA,NA,NA,NA,NA,NA,NA,NA,NA,NA,0,3,"binary"
"1403A555DC784AEB95EA3FFB5001082E",1,"01990a98-3f5e-7f47-ad08-d61af1d7d1b9","01990a83-7673-7c0c-a792-bbd8fbbaf673","2025-09-02_09h25.00.232",182.4577,185.4632,185.4635,185.4672,185.4672,185.8129,0,3,3,2,1,14,45,TRUE,1,2.4999,NA,NA,NA,NA,NA,NA,NA,NA,NA,NA,NA,NA,NA,NA,0,4,"binary"
"1403A555DC784AEB95EA3FFB5001082E",1,"01990a98-3f5e-7f47-ad08-d61af1d7d1b9","01990a83-7673-7c0c-a792-bbd8fbbaf673","2025-09-02_09h25.00.232",185.8143,188.8055,188.8057,188.8057,188.8057,189.159,0,4,4,0,1,7,30,TRUE,1,1.2073,NA,NA,NA,NA,NA,NA,NA,NA,NA,NA,NA,NA,NA,NA,0,5,"binary"
"1403A555DC784AEB95EA3FFB5001082E",1,"01990a98-3f5e-7f47-ad08-d61af1d7d1b9","01990a83-7673-7c0c-a792-bbd8fbbaf673","2025-09-02_09h25.00.232",NA,NA,1038.638,1038.6382,1038.6382,1038.987,NA,NA,NA,NA,NA,NA,NA,TRUE,1,1.2676,1035.6536,1038.6377,0,0,0,24,1,21,26,NA,NA,NA,NA,NA,1,1,"binary"
"1403A555DC784AEB95EA3FFB5001082E",1,"01990a98-3f5e-7f47-ad08-d61af1d7d1b9","01990a83-7673-7c0c-a792-bbd8fbbaf673","2025-09-02_09h25.00.232",NA,NA,1041.9766,1041.9766,1041.9766,1042.3255,NA,NA,NA,NA,NA,NA,NA,TRUE,1,1.5585,1038.9884,1041.9763,0,1,1,65,1,50,54,NA,NA,NA,NA,NA,1,2,"binary"
"1403A555DC784AEB95EA3FFB5001082E",1,"01990a98-3f5e-7f47-ad08-d61af1d7d1b9","01990a83-7673-7c0c-a792-bbd8fbbaf673","2025-09-02_09h25.00.232",NA,NA,1045.3306,1045.3306,1045.3306,1045.6827,NA,NA,NA,NA,NA,NA,NA,TRUE,1,1.165,1042.3266,1045.3301,0,2,2,35,1,25,46,NA,NA,NA,NA,NA,1,3,"binary"
"1403A555DC784AEB95EA3FFB5001082E",1,"01990a98-3f5e-7f47-ad08-d61af1d7d1b9","01990a83-7673-7c0c-a792-bbd8fbbaf673","2025-09-02_09h25.00.232",NA,NA,1048.6786,1048.6786,1048.6786,1049.0255,NA,NA,NA,NA,NA,NA,NA,TRUE,1,1.6571,1045.6843,1048.6783,0,3,3,69,1,60,40,NA,NA,NA,NA,NA,1,4,"binary"
"1403A555DC784AEB95EA3FFB5001082E",1,"01990a98-3f5e-7f47-ad08-d61af1d7d1b9","01990a83-7673-7c0c-a792-bbd8fbbaf673","2025-09-02_09h25.00.232",NA,NA,1052.0372,1052.0372,1052.0372,1052.384,NA,NA,NA,NA,NA,NA,NA,TRUE,1,1.4998,1049.0269,1052.0365,0,4,4,36,1,28,26,NA,NA,NA,NA,NA,1,5,"binary"
"1403A555DC784AEB95EA3FFB5001082E",1,"01990a98-3f5e-7f47-ad08-d61af1d7d1b9","01990a83-7673-7c0c-a792-bbd8fbbaf673","2025-09-02_09h25.00.232",NA,NA,1055.3869,1055.387,1055.387,1055.7323,NA,NA,NA,NA,NA,NA,NA,TRUE,1,1.131,1052.3852,1055.3866,0,5,5,63,1,50,40,NA,NA,NA,NA,NA,1,6,"binary"
"1403A555DC784AEB95EA3FFB5001082E",1,"01990a98-3f5e-7f47-ad08-d61af1d7d1b9","01990a83-7673-7c0c-a792-bbd8fbbaf673","2025-09-02_09h25.00.232",NA,NA,1058.7278,1058.7279,1058.728,1059.078,NA,NA,NA,NA,NA,NA,NA,TRUE,1,1.9585,1055.7334,1058.7276,0,6,6,7,1,10,26,NA,NA,NA,NA,NA,1,7,"binary"
"1403A555DC784AEB95EA3FFB5001082E",1,"01990a98-3f5e-7f47-ad08-d61af1d7d1b9","01990a83-7673-7c0c-a792-bbd8fbbaf673","2025-09-02_09h25.00.232",NA,NA,1062.0825,1062.0825,1062.0825,1062.4301,NA,NA,NA,NA,NA,NA,NA,TRUE,1,1.4846,1059.0794,1062.0822,0,7,7,9,1,10,29,NA,NA,NA,NA,NA,1,8,"binary"
"1403A555DC784AEB95EA3FFB5001082E",1,"01990a98-3f5e-7f47-ad08-d61af1d7d1b9","01990a83-7673-7c0c-a792-bbd8fbbaf673","2025-09-02_09h25.00.232",NA,NA,1065.4384,1065.4384,1065.4384,1065.7867,NA,NA,NA,NA,NA,NA,NA,TRUE,1,0.8596,1062.4314,1065.4379,0,8,8,83,1,95,54,NA,NA,NA,NA,NA,1,9,"binary"
"1403A555DC784AEB95EA3FFB5001082E",1,"01990a98-3f5e-7f47-ad08-d61af1d7d1b9","01990a83-7673-7c0c-a792-bbd8fbbaf673","2025-09-02_09h25.00.232",NA,NA,1068.7805,1068.7805,1068.7805,1069.1294,NA,NA,NA,NA,NA,NA,NA,TRUE,1,1.6388,1065.7879,1068.7802,0,9,9,79,1,95,33,NA,NA,NA,NA,NA,1,10,"binary"
"1403A555DC784AEB95EA3FFB5001082E",1,"01990a98-3f5e-7f47-ad08-d61af1d7d1b9","01990a83-7673-7c0c-a792-bbd8fbbaf673","2025-09-02_09h25.00.232",NA,NA,1072.1289,1072.1289,1072.1289,1072.4777,NA,NA,NA,NA,NA,NA,NA,TRUE,1,1.4595,1069.1306,1072.1287,0,10,10,39,1,28,35,NA,NA,NA,NA,NA,1,11,"binary"
"1403A555DC784AEB95EA3FFB5001082E",1,"01990a98-3f5e-7f47-ad08-d61af1d7d1b9","01990a83-7673-7c0c-a792-bbd8fbbaf673","2025-09-02_09h25.00.232",NA,NA,1075.4839,1075.4839,1075.4839,1075.8341,NA,NA,NA,NA,NA,NA,NA,TRUE,1,0.9121,1072.4789,1075.4836,0,11,11,61,1,50,30,NA,NA,NA,NA,NA,1,12,"binary"
"1403A555DC784AEB95EA3FFB5001082E",1,"01990a98-3f5e-7f47-ad08-d61af1d7d1b9","01990a83-7673-7c0c-a792-bbd8fbbaf673","2025-09-02_09h25.00.232",NA,NA,1078.8341,1078.8341,1078.8341,1079.1857,NA,NA,NA,NA,NA,NA,NA,TRUE,1,1.1566,1075.8356,1078.8337,0,12,12,5,1,7,35,NA,NA,NA,NA,NA,1,13,"binary"
"1403A555DC784AEB95EA3FFB5001082E",1,"01990a98-3f5e-7f47-ad08-d61af1d7d1b9","01990a83-7673-7c0c-a792-bbd8fbbaf673","2025-09-02_09h25.00.232",NA,NA,1082.1749,1082.1749,1082.1749,1082.524,NA,NA,NA,NA,NA,NA,NA,TRUE,1,1.914,1079.1869,1082.1747,0,13,13,103,1,200,28,NA,NA,NA,NA,NA,1,14,"binary"
"1403A555DC784AEB95EA3FFB5001082E",1,"01990a98-3f5e-7f47-ad08-d61af1d7d1b9","01990a83-7673-7c0c-a792-bbd8fbbaf673","2025-09-02_09h25.00.232",NA,NA,1085.5297,1085.5299,1085.5299,1085.8761,NA,NA,NA,NA,NA,NA,NA,TRUE,1,1.9807,1082.5252,1085.5296,0,14,14,66,1,60,29,NA,NA,NA,NA,NA,1,15,"binary"
"1403A555DC784AEB95EA3FFB5001082E",1,"01990a98-3f5e-7f47-ad08-d61af1d7d1b9","01990a83-7673-7c0c-a792-bbd8fbbaf673","2025-09-02_09h25.00.232",NA,NA,1088.8908,1088.8908,1088.8908,1089.2244,NA,NA,NA,NA,NA,NA,NA,TRUE,1,2.0894,1085.8772,1088.8905,0,15,15,58,1,45,40,NA,NA,NA,NA,NA,1,16,"binary"
"1403A555DC784AEB95EA3FFB5001082E",1,"01990a98-3f5e-7f47-ad08-d61af1d7d1b9","01990a83-7673-7c0c-a792-bbd8fbbaf673","2025-09-02_09h25.00.232",NA,NA,1092.2424,1092.2425,1092.2425,1092.5871,NA,NA,NA,NA,NA,NA,NA,TRUE,1,1.0288,1089.2256,1092.2422,0,16,16,11,1,10,32,NA,NA,NA,NA,NA,1,17,"binary"
"1403A555DC784AEB95EA3FFB5001082E",1,"01990a98-3f5e-7f47-ad08-d61af1d7d1b9","01990a83-7673-7c0c-a792-bbd8fbbaf673","2025-09-02_09h25.00.232",NA,NA,1095.5898,1095.5898,1095.5898,1095.9245,NA,NA,NA,NA,NA,NA,NA,TRUE,1,1.6975,1092.5882,1095.5894,0,17,17,87,1,100,39,NA,NA,NA,NA,NA,1,18,"binary"
"1403A555DC784AEB95EA3FFB5001082E",1,"01990a98-3f5e-7f47-ad08-d61af1d7d1b9","01990a83-7673-7c0c-a792-bbd8fbbaf673","2025-09-02_09h25.00.232",NA,NA,1098.9288,1098.9288,1098.9288,1099.2799,NA,NA,NA,NA,NA,NA,NA,TRUE,1,1.2425,1095.9258,1098.9285,0,18,18,33,1,25,33,NA,NA,NA,NA,NA,1,19,"binary"
"1403A555DC784AEB95EA3FFB5001082E",1,"01990a98-3f5e-7f47-ad08-d61af1d7d1b9","01990a83-7673-7c0c-a792-bbd8fbbaf673","2025-09-02_09h25.00.232",NA,NA,1102.2797,1102.2797,1102.2797,1102.6268,NA,NA,NA,NA,NA,NA,NA,TRUE,1,1.0371,1099.2813,1102.2794,0,19,19,45,1,30,30,NA,NA,NA,NA,NA,1,20,"binary"
"1403A555DC784AEB95EA3FFB5001082E",1,"01990a98-3f5e-7f47-ad08-d61af1d7d1b9","01990a83-7673-7c0c-a792-bbd8fbbaf673","2025-09-02_09h25.00.232",NA,NA,1105.6324,1105.6324,1105.6324,1105.9774,NA,NA,NA,NA,NA,NA,NA,TRUE,1,1.1315,1102.628,1105.6322,0,20,20,10,1,10,30,NA,NA,NA,NA,NA,1,21,"binary"
"1403A555DC784AEB95EA3FFB5001082E",1,"01990a98-3f5e-7f47-ad08-d61af1d7d1b9","01990a83-7673-7c0c-a792-bbd8fbbaf673","2025-09-02_09h25.00.232",NA,NA,1108.9811,1108.9811,1108.9811,1109.3276,NA,NA,NA,NA,NA,NA,NA,TRUE,1,1.0414,1105.9785,1108.9809,0,21,21,76,1,90,46,NA,NA,NA,NA,NA,1,22,"binary"
"1403A555DC784AEB95EA3FFB5001082E",1,"01990a98-3f5e-7f47-ad08-d61af1d7d1b9","01990a83-7673-7c0c-a792-bbd8fbbaf673","2025-09-02_09h25.00.232",NA,NA,1112.3292,1112.3292,1112.3293,1112.6789,NA,NA,NA,NA,NA,NA,NA,TRUE,1,0.8964,1109.3287,1112.329,0,22,22,49,1,40,33,NA,NA,NA,NA,NA,1,23,"binary"
"1403A555DC784AEB95EA3FFB5001082E",1,"01990a98-3f5e-7f47-ad08-d61af1d7d1b9","01990a83-7673-7c0c-a792-bbd8fbbaf673","2025-09-02_09h25.00.232",NA,NA,1115.6919,1115.6919,1115.6919,1116.0254,NA,NA,NA,NA,NA,NA,NA,TRUE,1,1.0985,1112.6799,1115.6916,0,23,23,62,1,50,35,NA,NA,NA,NA,NA,1,24,"binary"
"1403A555DC784AEB95EA3FFB5001082E",1,"01990a98-3f5e-7f47-ad08-d61af1d7d1b9","01990a83-7673-7c0c-a792-bbd8fbbaf673","2025-09-02_09h25.00.232",NA,NA,1119.0418,1119.0418,1119.0418,1119.3881,NA,NA,NA,NA,NA,NA,NA,TRUE,1,0.9214,1116.0269,1119.0414,0,24,24,41,1,28,46,NA,NA,NA,NA,NA,1,25,"binary"
"1403A555DC784AEB95EA3FFB5001082E",1,"01990a98-3f5e-7f47-ad08-d61af1d7d1b9","01990a83-7673-7c0c-a792-bbd8fbbaf673","2025-09-02_09h25.00.232",NA,NA,1122.3834,1122.3835,1122.3835,1122.7323,NA,NA,NA,NA,NA,NA,NA,TRUE,1,0.5918,1119.3893,1122.3832,0,25,25,32,1,25,31,NA,NA,NA,NA,NA,1,26,"binary"
"1403A555DC784AEB95EA3FFB5001082E",1,"01990a98-3f5e-7f47-ad08-d61af1d7d1b9","01990a83-7673-7c0c-a792-bbd8fbbaf673","2025-09-02_09h25.00.232",NA,NA,1125.7293,1125.7293,1125.7294,1126.08,NA,NA,NA,NA,NA,NA,NA,TRUE,1,1.3935,1122.7335,1125.7291,0,26,26,6,1,10,25,NA,NA,NA,NA,NA,1,27,"binary"
"1403A555DC784AEB95EA3FFB5001082E",1,"01990a98-3f5e-7f47-ad08-d61af1d7d1b9","01990a83-7673-7c0c-a792-bbd8fbbaf673","2025-09-02_09h25.00.232",NA,NA,1129.0867,1129.0867,1129.0867,1129.4416,NA,NA,NA,NA,NA,NA,NA,TRUE,1,1.1527,1126.0813,1129.0864,0,27,27,68,1,60,35,NA,NA,NA,NA,NA,1,28,"binary"
"1403A555DC784AEB95EA3FFB5001082E",1,"01990a98-3f5e-7f47-ad08-d61af1d7d1b9","01990a83-7673-7c0c-a792-bbd8fbbaf673","2025-09-02_09h25.00.232",NA,NA,1132.432,1132.432,1132.432,1132.7797,NA,NA,NA,NA,NA,NA,NA,TRUE,1,1.0183,1129.4429,1132.4318,0,28,28,34,1,25,35,NA,NA,NA,NA,NA,1,29,"binary"
"1403A555DC784AEB95EA3FFB5001082E",1,"01990a98-3f5e-7f47-ad08-d61af1d7d1b9","01990a83-7673-7c0c-a792-bbd8fbbaf673","2025-09-02_09h25.00.232",NA,NA,1135.7767,1135.7767,1135.7767,1136.1327,NA,NA,NA,NA,NA,NA,NA,TRUE,1,1.1401,1132.7809,1135.7764,0,29,29,54,1,45,26,NA,NA,NA,NA,NA,1,30,"binary"
"1403A555DC784AEB95EA3FFB5001082E",1,"01990a98-3f5e-7f47-ad08-d61af1d7d1b9","01990a83-7673-7c0c-a792-bbd8fbbaf673","2025-09-02_09h25.00.232",NA,NA,1139.1383,1139.1383,1139.1383,1139.4891,NA,NA,NA,NA,NA,NA,NA,TRUE,1,0.9396,1136.1339,1139.138,0,30,30,25,1,21,27,NA,NA,NA,NA,NA,1,31,"binary"
"1403A555DC784AEB95EA3FFB5001082E",1,"01990a98-3f5e-7f47-ad08-d61af1d7d1b9","01990a83-7673-7c0c-a792-bbd8fbbaf673","2025-09-02_09h25.00.232",NA,NA,1142.4749,1142.475,1142.475,1142.8384,NA,NA,NA,NA,NA,NA,NA,TRUE,1,0.7671,1139.4903,1142.4747,0,31,31,27,1,21,30,NA,NA,NA,NA,NA,1,32,"binary"
"1403A555DC784AEB95EA3FFB5001082E",1,"01990a98-3f5e-7f47-ad08-d61af1d7d1b9","01990a83-7673-7c0c-a792-bbd8fbbaf673","2025-09-02_09h25.00.232",NA,NA,1145.8362,1145.8363,1145.8363,1146.1729,NA,NA,NA,NA,NA,NA,NA,TRUE,1,0.9181,1142.8396,1145.836,0,32,32,102,1,200,26,NA,NA,NA,NA,NA,1,33,"binary"
"1403A555DC784AEB95EA3FFB5001082E",1,"01990a98-3f5e-7f47-ad08-d61af1d7d1b9","01990a83-7673-7c0c-a792-bbd8fbbaf673","2025-09-02_09h25.00.232",NA,NA,1149.1861,1149.1861,1149.1861,1149.5334,NA,NA,NA,NA,NA,NA,NA,TRUE,1,1.0222,1146.1741,1149.1859,0,33,33,43,1,30,27,NA,NA,NA,NA,NA,1,34,"binary"
"1403A555DC784AEB95EA3FFB5001082E",1,"01990a98-3f5e-7f47-ad08-d61af1d7d1b9","01990a83-7673-7c0c-a792-bbd8fbbaf673","2025-09-02_09h25.00.232",NA,NA,1152.534,1152.534,1152.534,1152.8826,NA,NA,NA,NA,NA,NA,NA,TRUE,1,1.0365,1149.5346,1152.5338,0,34,34,101,1,180,54,NA,NA,NA,NA,NA,1,35,"binary"
"1403A555DC784AEB95EA3FFB5001082E",1,"01990a98-3f5e-7f47-ad08-d61af1d7d1b9","01990a83-7673-7c0c-a792-bbd8fbbaf673","2025-09-02_09h25.00.232",NA,NA,1155.8763,1155.8763,1155.8763,1156.242,NA,NA,NA,NA,NA,NA,NA,TRUE,1,0.9844,1152.8863,1155.8761,0,35,35,106,1,200,47,NA,NA,NA,NA,NA,1,36,"binary"
"1403A555DC784AEB95EA3FFB5001082E",1,"01990a98-3f5e-7f47-ad08-d61af1d7d1b9","01990a83-7673-7c0c-a792-bbd8fbbaf673","2025-09-02_09h25.00.232",NA,NA,1159.2301,1159.2301,1159.2301,1159.5768,NA,NA,NA,NA,NA,NA,NA,TRUE,1,1.2687,1156.2431,1159.2298,0,36,36,42,1,30,26,NA,NA,NA,NA,NA,1,37,"binary"
"1403A555DC784AEB95EA3FFB5001082E",1,"01990a98-3f5e-7f47-ad08-d61af1d7d1b9","01990a83-7673-7c0c-a792-bbd8fbbaf673","2025-09-02_09h25.00.232",NA,NA,1162.5871,1162.5872,1162.5872,1162.9319,NA,NA,NA,NA,NA,NA,NA,TRUE,1,0.9384,1159.5779,1162.5868,0,37,37,47,1,30,38,NA,NA,NA,NA,NA,1,38,"binary"
"1403A555DC784AEB95EA3FFB5001082E",1,"01990a98-3f5e-7f47-ad08-d61af1d7d1b9","01990a83-7673-7c0c-a792-bbd8fbbaf673","2025-09-02_09h25.00.232",NA,NA,1165.9388,1165.9389,1165.9389,1166.286,NA,NA,NA,NA,NA,NA,NA,TRUE,1,0.8572,1162.933,1165.9385,0,38,38,46,1,30,32,NA,NA,NA,NA,NA,1,39,"binary"
"1403A555DC784AEB95EA3FFB5001082E",1,"01990a98-3f5e-7f47-ad08-d61af1d7d1b9","01990a83-7673-7c0c-a792-bbd8fbbaf673","2025-09-02_09h25.00.232",NA,NA,1169.2855,1169.2855,1169.2855,1169.6296,NA,NA,NA,NA,NA,NA,NA,TRUE,1,1.6324,1166.2877,1169.2852,0,39,39,16,1,12,33,NA,NA,NA,NA,NA,1,40,"binary"
"1403A555DC784AEB95EA3FFB5001082E",1,"01990a98-3f5e-7f47-ad08-d61af1d7d1b9","01990a83-7673-7c0c-a792-bbd8fbbaf673","2025-09-02_09h25.00.232",NA,NA,1172.6353,1172.6353,1172.6353,1172.9813,NA,NA,NA,NA,NA,NA,NA,TRUE,1,1.0427,1169.6307,1172.635,0,40,40,52,1,40,47,NA,NA,NA,NA,NA,1,41,"binary"
"1403A555DC784AEB95EA3FFB5001082E",1,"01990a98-3f5e-7f47-ad08-d61af1d7d1b9","01990a83-7673-7c0c-a792-bbd8fbbaf673","2025-09-02_09h25.00.232",NA,NA,1175.9887,1175.9887,1175.9888,1176.3384,NA,NA,NA,NA,NA,NA,NA,TRUE,1,0.8856,1172.9825,1175.9885,0,41,41,80,1,95,35,NA,NA,NA,NA,NA,1,42,"binary"
"1403A555DC784AEB95EA3FFB5001082E",1,"01990a98-3f5e-7f47-ad08-d61af1d7d1b9","01990a83-7673-7c0c-a792-bbd8fbbaf673","2025-09-02_09h25.00.232",NA,NA,1179.3271,1179.3271,1179.3271,1179.6806,NA,NA,NA,NA,NA,NA,NA,TRUE,1,1.0375,1176.3395,1179.3268,0,42,42,23,1,14,39,NA,NA,NA,NA,NA,1,43,"binary"
"1403A555DC784AEB95EA3FFB5001082E",1,"01990a98-3f5e-7f47-ad08-d61af1d7d1b9","01990a83-7673-7c0c-a792-bbd8fbbaf673","2025-09-02_09h25.00.232",NA,NA,1182.6871,1182.6871,1182.6871,1183.0373,NA,NA,NA,NA,NA,NA,NA,TRUE,1,2.0914,1179.6818,1182.6869,0,43,43,40,1,28,39,NA,NA,NA,NA,NA,1,44,"binary"
"1403A555DC784AEB95EA3FFB5001082E",1,"01990a98-3f5e-7f47-ad08-d61af1d7d1b9","01990a83-7673-7c0c-a792-bbd8fbbaf673","2025-09-02_09h25.00.232",NA,NA,1186.0323,1186.0323,1186.0324,1186.3801,NA,NA,NA,NA,NA,NA,NA,TRUE,1,1.3113,1183.0392,1186.0319,0,44,44,17,1,12,35,NA,NA,NA,NA,NA,1,45,"binary"
"1403A555DC784AEB95EA3FFB5001082E",1,"01990a98-3f5e-7f47-ad08-d61af1d7d1b9","01990a83-7673-7c0c-a792-bbd8fbbaf673","2025-09-02_09h25.00.232",NA,NA,1189.3809,1189.3809,1189.381,1189.7253,NA,NA,NA,NA,NA,NA,NA,TRUE,1,0.9868,1186.3812,1189.3807,0,45,45,73,1,90,30,NA,NA,NA,NA,NA,1,46,"binary"
"1403A555DC784AEB95EA3FFB5001082E",1,"01990a98-3f5e-7f47-ad08-d61af1d7d1b9","01990a83-7673-7c0c-a792-bbd8fbbaf673","2025-09-02_09h25.00.232",NA,NA,1192.7424,1192.7424,1192.7424,1193.0809,NA,NA,NA,NA,NA,NA,NA,TRUE,1,1.185,1189.7264,1192.7421,0,46,46,104,1,200,35,NA,NA,NA,NA,NA,1,47,"binary"
"1403A555DC784AEB95EA3FFB5001082E",1,"01990a98-3f5e-7f47-ad08-d61af1d7d1b9","01990a83-7673-7c0c-a792-bbd8fbbaf673","2025-09-02_09h25.00.232",NA,NA,1196.0754,1196.0754,1196.0754,1196.4408,NA,NA,NA,NA,NA,NA,NA,TRUE,1,1.255,1193.082,1196.0752,0,47,47,94,1,150,47,NA,NA,NA,NA,NA,1,48,"binary"
"1403A555DC784AEB95EA3FFB5001082E",1,"01990a98-3f5e-7f47-ad08-d61af1d7d1b9","01990a83-7673-7c0c-a792-bbd8fbbaf673","2025-09-02_09h25.00.232",NA,NA,1199.4284,1199.4285,1199.4285,1199.776,NA,NA,NA,NA,NA,NA,NA,TRUE,1,1.3461,1196.4419,1199.4282,0,48,48,100,1,180,46,NA,NA,NA,NA,NA,1,49,"binary"
"1403A555DC784AEB95EA3FFB5001082E",1,"01990a98-3f5e-7f47-ad08-d61af1d7d1b9","01990a83-7673-7c0c-a792-bbd8fbbaf673","2025-09-02_09h25.00.232",NA,NA,1202.7876,1202.7877,1202.7877,1203.135,NA,NA,NA,NA,NA,NA,NA,TRUE,1,0.9728,1199.7771,1202.7873,0,49,49,30,1,25,27,NA,NA,NA,NA,NA,1,50,"binary"
"1403A555DC784AEB95EA3FFB5001082E",1,"01990a98-3f5e-7f47-ad08-d61af1d7d1b9","01990a83-7673-7c0c-a792-bbd8fbbaf673","2025-09-02_09h25.00.232",NA,NA,1206.1284,1206.1284,1206.1284,1206.4792,NA,NA,NA,NA,NA,NA,NA,TRUE,1,1.1213,1203.1362,1206.1281,0,50,50,51,1,40,40,NA,NA,NA,NA,NA,1,51,"binary"
"1403A555DC784AEB95EA3FFB5001082E",1,"01990a98-3f5e-7f47-ad08-d61af1d7d1b9","01990a83-7673-7c0c-a792-bbd8fbbaf673","2025-09-02_09h25.00.232",NA,NA,1209.4886,1209.7383,1209.7383,1209.8373,NA,NA,NA,NA,NA,NA,NA,FALSE,NA,NA,1206.4807,1209.4883,0,51,51,15,1,12,31,NA,NA,NA,NA,NA,1,52,"binary"
"1403A555DC784AEB95EA3FFB5001082E",1,"01990a98-3f5e-7f47-ad08-d61af1d7d1b9","01990a83-7673-7c0c-a792-bbd8fbbaf673","2025-09-02_09h25.00.232",NA,NA,1212.8302,1212.8302,1212.8302,1213.1767,NA,NA,NA,NA,NA,NA,NA,TRUE,1,1.0494,1209.8383,1212.8299,0,52,52,59,1,45,46,NA,NA,NA,NA,NA,1,53,"binary"
"1403A555DC784AEB95EA3FFB5001082E",1,"01990a98-3f5e-7f47-ad08-d61af1d7d1b9","01990a83-7673-7c0c-a792-bbd8fbbaf673","2025-09-02_09h25.00.232",NA,NA,1216.1895,1216.1895,1216.1895,1216.536,NA,NA,NA,NA,NA,NA,NA,TRUE,1,0.54,1213.1777,1216.1891,0,53,53,29,1,21,38,NA,NA,NA,NA,NA,1,54,"binary"
"1403A555DC784AEB95EA3FFB5001082E",1,"01990a98-3f5e-7f47-ad08-d61af1d7d1b9","01990a83-7673-7c0c-a792-bbd8fbbaf673","2025-09-02_09h25.00.232",NA,NA,1219.5283,1219.5283,1219.5283,1219.8781,NA,NA,NA,NA,NA,NA,NA,TRUE,1,0.5553,1216.5372,1219.528,0,54,54,22,1,14,35,NA,NA,NA,NA,NA,1,55,"binary"
"1403A555DC784AEB95EA3FFB5001082E",1,"01990a98-3f5e-7f47-ad08-d61af1d7d1b9","01990a83-7673-7c0c-a792-bbd8fbbaf673","2025-09-02_09h25.00.232",NA,NA,1222.8861,1222.8861,1222.8861,1223.234,NA,NA,NA,NA,NA,NA,NA,TRUE,1,0.6345,1219.8793,1222.8858,0,55,55,74,1,90,33,NA,NA,NA,NA,NA,1,56,"binary"
"1403A555DC784AEB95EA3FFB5001082E",1,"01990a98-3f5e-7f47-ad08-d61af1d7d1b9","01990a83-7673-7c0c-a792-bbd8fbbaf673","2025-09-02_09h25.00.232",NA,NA,1226.2365,1226.2365,1226.2366,1226.5822,NA,NA,NA,NA,NA,NA,NA,TRUE,1,0.993,1223.2352,1226.2362,0,56,56,55,1,45,29,NA,NA,NA,NA,NA,1,57,"binary"
"1403A555DC784AEB95EA3FFB5001082E",1,"01990a98-3f5e-7f47-ad08-d61af1d7d1b9","01990a83-7673-7c0c-a792-bbd8fbbaf673","2025-09-02_09h25.00.232",NA,NA,1229.5751,1229.5751,1229.5751,1229.9382,NA,NA,NA,NA,NA,NA,NA,TRUE,1,0.6155,1226.5835,1229.5748,0,57,57,70,1,60,47,NA,NA,NA,NA,NA,1,58,"binary"
"1403A555DC784AEB95EA3FFB5001082E",1,"01990a98-3f5e-7f47-ad08-d61af1d7d1b9","01990a83-7673-7c0c-a792-bbd8fbbaf673","2025-09-02_09h25.00.232",NA,NA,1232.9256,1232.9256,1232.9256,1233.2888,NA,NA,NA,NA,NA,NA,NA,TRUE,1,0.0926,1229.94,1232.9253,0,58,58,86,1,100,38,NA,NA,NA,NA,NA,1,59,"binary"
"1403A555DC784AEB95EA3FFB5001082E",1,"01990a98-3f5e-7f47-ad08-d61af1d7d1b9","01990a83-7673-7c0c-a792-bbd8fbbaf673","2025-09-02_09h25.00.232",NA,NA,1236.2825,1236.2825,1236.2825,1236.6306,NA,NA,NA,NA,NA,NA,NA,TRUE,1,1.0828,1233.29,1236.2822,0,59,59,13,1,12,26,NA,NA,NA,NA,NA,1,60,"binary"
"1403A555DC784AEB95EA3FFB5001082E",1,"01990a98-3f5e-7f47-ad08-d61af1d7d1b9","01990a83-7673-7c0c-a792-bbd8fbbaf673","2025-09-02_09h25.00.232",NA,NA,1239.6246,1239.6246,1239.6246,1239.9774,NA,NA,NA,NA,NA,NA,NA,TRUE,1,0.7503,1236.6317,1239.6244,0,60,60,53,1,40,54,NA,NA,NA,NA,NA,1,61,"binary"
"1403A555DC784AEB95EA3FFB5001082E",1,"01990a98-3f5e-7f47-ad08-d61af1d7d1b9","01990a83-7673-7c0c-a792-bbd8fbbaf673","2025-09-02_09h25.00.232",NA,NA,1242.9781,1242.9782,1242.9782,1243.3253,NA,NA,NA,NA,NA,NA,NA,TRUE,1,0.8723,1239.9787,1242.9779,0,61,61,92,1,150,35,NA,NA,NA,NA,NA,1,62,"binary"
"1403A555DC784AEB95EA3FFB5001082E",1,"01990a98-3f5e-7f47-ad08-d61af1d7d1b9","01990a83-7673-7c0c-a792-bbd8fbbaf673","2025-09-02_09h25.00.232",NA,NA,1246.3295,1246.3295,1246.3295,1246.6809,NA,NA,NA,NA,NA,NA,NA,TRUE,1,0.5332,1243.3263,1246.3293,0,62,62,72,1,90,26,NA,NA,NA,NA,NA,1,63,"binary"
"1403A555DC784AEB95EA3FFB5001082E",1,"01990a98-3f5e-7f47-ad08-d61af1d7d1b9","01990a83-7673-7c0c-a792-bbd8fbbaf673","2025-09-02_09h25.00.232",NA,NA,1249.6905,1249.6906,1249.6906,1250.0384,NA,NA,NA,NA,NA,NA,NA,TRUE,1,0.6535,1246.6821,1249.6902,0,63,63,85,1,100,31,NA,NA,NA,NA,NA,1,64,"binary"
"1403A555DC784AEB95EA3FFB5001082E",1,"01990a98-3f5e-7f47-ad08-d61af1d7d1b9","01990a83-7673-7c0c-a792-bbd8fbbaf673","2025-09-02_09h25.00.232",NA,NA,1253.0362,1253.0363,1253.0363,1253.3738,NA,NA,NA,NA,NA,NA,NA,TRUE,1,0.8275,1250.0404,1253.0359,0,64,64,88,1,100,46,NA,NA,NA,NA,NA,1,65,"binary"
"1403A555DC784AEB95EA3FFB5001082E",1,"01990a98-3f5e-7f47-ad08-d61af1d7d1b9","01990a83-7673-7c0c-a792-bbd8fbbaf673","2025-09-02_09h25.00.232",NA,NA,1256.3782,1256.3782,1256.3783,1256.7286,NA,NA,NA,NA,NA,NA,NA,TRUE,1,1.1646,1253.3749,1256.378,0,65,65,91,1,150,33,NA,NA,NA,NA,NA,1,66,"binary"
"1403A555DC784AEB95EA3FFB5001082E",1,"01990a98-3f5e-7f47-ad08-d61af1d7d1b9","01990a83-7673-7c0c-a792-bbd8fbbaf673","2025-09-02_09h25.00.232",NA,NA,1259.7176,1259.7176,1259.7176,1260.0772,NA,NA,NA,NA,NA,NA,NA,TRUE,1,0.6869,1256.7301,1259.7173,0,66,66,48,1,40,27,NA,NA,NA,NA,NA,1,67,"binary"
"1403A555DC784AEB95EA3FFB5001082E",1,"01990a98-3f5e-7f47-ad08-d61af1d7d1b9","01990a83-7673-7c0c-a792-bbd8fbbaf673","2025-09-02_09h25.00.232",NA,NA,1263.0868,1263.0868,1263.0868,1263.4371,NA,NA,NA,NA,NA,NA,NA,TRUE,1,0.8047,1260.0783,1263.0865,0,67,67,28,1,21,32,NA,NA,NA,NA,NA,1,68,"binary"
"1403A555DC784AEB95EA3FFB5001082E",1,"01990a98-3f5e-7f47-ad08-d61af1d7d1b9","01990a83-7673-7c0c-a792-bbd8fbbaf673","2025-09-02_09h25.00.232",NA,NA,1266.4257,1266.4257,1266.4257,1266.7892,NA,NA,NA,NA,NA,NA,NA,TRUE,1,1.1116,1263.4382,1266.4254,0,68,68,20,1,14,28,NA,NA,NA,NA,NA,1,69,"binary"
"1403A555DC784AEB95EA3FFB5001082E",1,"01990a98-3f5e-7f47-ad08-d61af1d7d1b9","01990a83-7673-7c0c-a792-bbd8fbbaf673","2025-09-02_09h25.00.232",NA,NA,1269.7806,1269.7806,1269.7806,1270.1307,NA,NA,NA,NA,NA,NA,NA,TRUE,1,0.7675,1266.7903,1269.7803,0,69,69,57,1,45,35,NA,NA,NA,NA,NA,1,70,"binary"
"1403A555DC784AEB95EA3FFB5001082E",1,"01990a98-3f5e-7f47-ad08-d61af1d7d1b9","01990a83-7673-7c0c-a792-bbd8fbbaf673","2025-09-02_09h25.00.232",NA,NA,1273.1379,1273.1379,1273.138,1273.4847,NA,NA,NA,NA,NA,NA,NA,TRUE,1,1.2341,1270.132,1273.1376,0,70,70,2,1,7,28,NA,NA,NA,NA,NA,1,71,"binary"
"1403A555DC784AEB95EA3FFB5001082E",1,"01990a98-3f5e-7f47-ad08-d61af1d7d1b9","01990a83-7673-7c0c-a792-bbd8fbbaf673","2025-09-02_09h25.00.232",NA,NA,1276.4831,1276.4831,1276.4831,1276.8264,NA,NA,NA,NA,NA,NA,NA,TRUE,1,1.1337,1273.4859,1276.4828,0,71,71,31,1,25,29,NA,NA,NA,NA,NA,1,72,"binary"
"1403A555DC784AEB95EA3FFB5001082E",1,"01990a98-3f5e-7f47-ad08-d61af1d7d1b9","01990a83-7673-7c0c-a792-bbd8fbbaf673","2025-09-02_09h25.00.232",NA,NA,1279.8363,1279.8364,1279.8364,1280.1809,NA,NA,NA,NA,NA,NA,NA,TRUE,1,0.6925,1276.8276,1279.8361,0,72,72,14,1,12,28,NA,NA,NA,NA,NA,1,73,"binary"
"1403A555DC784AEB95EA3FFB5001082E",1,"01990a98-3f5e-7f47-ad08-d61af1d7d1b9","01990a83-7673-7c0c-a792-bbd8fbbaf673","2025-09-02_09h25.00.232",NA,NA,1283.1793,1283.1793,1283.1793,1283.5285,NA,NA,NA,NA,NA,NA,NA,TRUE,1,0.5557,1280.1819,1283.179,0,73,73,97,1,180,31,NA,NA,NA,NA,NA,1,74,"binary"
"1403A555DC784AEB95EA3FFB5001082E",1,"01990a98-3f5e-7f47-ad08-d61af1d7d1b9","01990a83-7673-7c0c-a792-bbd8fbbaf673","2025-09-02_09h25.00.232",NA,NA,1286.5276,1286.5277,1286.5277,1286.877,NA,NA,NA,NA,NA,NA,NA,TRUE,1,0.5233,1283.5297,1286.5273,0,74,74,89,1,100,54,NA,NA,NA,NA,NA,1,75,"binary"
"1403A555DC784AEB95EA3FFB5001082E",1,"01990a98-3f5e-7f47-ad08-d61af1d7d1b9","01990a83-7673-7c0c-a792-bbd8fbbaf673","2025-09-02_09h25.00.232",NA,NA,1289.8914,1289.8914,1289.8914,1290.2245,NA,NA,NA,NA,NA,NA,NA,TRUE,1,0.7866,1286.8783,1289.8911,0,75,75,99,1,180,39,NA,NA,NA,NA,NA,1,76,"binary"
"1403A555DC784AEB95EA3FFB5001082E",1,"01990a98-3f5e-7f47-ad08-d61af1d7d1b9","01990a83-7673-7c0c-a792-bbd8fbbaf673","2025-09-02_09h25.00.232",NA,NA,1293.2281,1293.2281,1293.2282,1293.577,NA,NA,NA,NA,NA,NA,NA,TRUE,1,1.124,1290.2264,1293.2279,0,76,76,81,1,95,40,NA,NA,NA,NA,NA,1,77,"binary"
"1403A555DC784AEB95EA3FFB5001082E",1,"01990a98-3f5e-7f47-ad08-d61af1d7d1b9","01990a83-7673-7c0c-a792-bbd8fbbaf673","2025-09-02_09h25.00.232",NA,NA,1296.5905,1296.5905,1296.5905,1296.9389,NA,NA,NA,NA,NA,NA,NA,TRUE,1,1.3151,1293.5782,1296.5902,0,77,77,26,1,21,29,NA,NA,NA,NA,NA,1,78,"binary"
"1403A555DC784AEB95EA3FFB5001082E",1,"01990a98-3f5e-7f47-ad08-d61af1d7d1b9","01990a83-7673-7c0c-a792-bbd8fbbaf673","2025-09-02_09h25.00.232",NA,NA,1299.9371,1299.9371,1299.9371,1300.2814,NA,NA,NA,NA,NA,NA,NA,TRUE,1,0.6854,1296.9402,1299.9368,0,78,78,90,1,150,31,NA,NA,NA,NA,NA,1,79,"binary"
"1403A555DC784AEB95EA3FFB5001082E",1,"01990a98-3f5e-7f47-ad08-d61af1d7d1b9","01990a83-7673-7c0c-a792-bbd8fbbaf673","2025-09-02_09h25.00.232",NA,NA,1303.282,1303.282,1303.282,1303.6259,NA,NA,NA,NA,NA,NA,NA,TRUE,1,1.1463,1300.2826,1303.2818,0,79,79,78,1,95,31,NA,NA,NA,NA,NA,1,80,"binary"
"1403A555DC784AEB95EA3FFB5001082E",1,"01990a98-3f5e-7f47-ad08-d61af1d7d1b9","01990a83-7673-7c0c-a792-bbd8fbbaf673","2025-09-02_09h25.00.232",NA,NA,1306.6407,1306.6408,1306.6408,1306.9752,NA,NA,NA,NA,NA,NA,NA,TRUE,1,1.2861,1303.6271,1306.6405,0,80,80,105,1,200,39,NA,NA,NA,NA,NA,1,81,"binary"
"1403A555DC784AEB95EA3FFB5001082E",1,"01990a98-3f5e-7f47-ad08-d61af1d7d1b9","01990a83-7673-7c0c-a792-bbd8fbbaf673","2025-09-02_09h25.00.232",NA,NA,1309.9755,1309.9755,1309.9755,1310.3264,NA,NA,NA,NA,NA,NA,NA,TRUE,1,0.8536,1306.9764,1309.9752,0,81,81,93,1,150,40,NA,NA,NA,NA,NA,1,82,"binary"
"1403A555DC784AEB95EA3FFB5001082E",1,"01990a98-3f5e-7f47-ad08-d61af1d7d1b9","01990a83-7673-7c0c-a792-bbd8fbbaf673","2025-09-02_09h25.00.232",NA,NA,1313.3253,1313.3253,1313.3253,1313.6743,NA,NA,NA,NA,NA,NA,NA,TRUE,1,1.3169,1310.3282,1313.325,0,82,82,98,1,180,35,NA,NA,NA,NA,NA,1,83,"binary"
"1403A555DC784AEB95EA3FFB5001082E",1,"01990a98-3f5e-7f47-ad08-d61af1d7d1b9","01990a83-7673-7c0c-a792-bbd8fbbaf673","2025-09-02_09h25.00.232",NA,NA,1316.6753,1316.6753,1316.6754,1317.0302,NA,NA,NA,NA,NA,NA,NA,TRUE,1,2.6409,1313.6754,1316.6751,0,83,83,44,1,30,29,NA,NA,NA,NA,NA,1,84,"binary"
"1403A555DC784AEB95EA3FFB5001082E",1,"01990a98-3f5e-7f47-ad08-d61af1d7d1b9","01990a83-7673-7c0c-a792-bbd8fbbaf673","2025-09-02_09h25.00.232",NA,NA,1320.0318,1320.0318,1320.0318,1320.3813,NA,NA,NA,NA,NA,NA,NA,TRUE,1,1.3268,1317.0313,1320.0315,0,84,84,12,1,12,25,NA,NA,NA,NA,NA,1,85,"binary"
"1403A555DC784AEB95EA3FFB5001082E",1,"01990a98-3f5e-7f47-ad08-d61af1d7d1b9","01990a83-7673-7c0c-a792-bbd8fbbaf673","2025-09-02_09h25.00.232",NA,NA,1323.3851,1323.3851,1323.3851,1323.733,NA,NA,NA,NA,NA,NA,NA,TRUE,1,1.4617,1320.3826,1323.3848,0,85,85,38,1,28,32,NA,NA,NA,NA,NA,1,86,"binary"
"1403A555DC784AEB95EA3FFB5001082E",1,"01990a98-3f5e-7f47-ad08-d61af1d7d1b9","01990a83-7673-7c0c-a792-bbd8fbbaf673","2025-09-02_09h25.00.232",NA,NA,1326.7274,1326.7274,1326.7274,1327.0746,NA,NA,NA,NA,NA,NA,NA,TRUE,1,0.852,1323.7344,1326.7272,0,86,86,75,1,90,40,NA,NA,NA,NA,NA,1,87,"binary"
"1403A555DC784AEB95EA3FFB5001082E",1,"01990a98-3f5e-7f47-ad08-d61af1d7d1b9","01990a83-7673-7c0c-a792-bbd8fbbaf673","2025-09-02_09h25.00.232",NA,NA,1330.0828,1330.0828,1330.0828,1330.4325,NA,NA,NA,NA,NA,NA,NA,TRUE,1,0.9018,1327.0757,1330.0826,0,87,87,37,1,28,28,NA,NA,NA,NA,NA,1,88,"binary"
"1403A555DC784AEB95EA3FFB5001082E",1,"01990a98-3f5e-7f47-ad08-d61af1d7d1b9","01990a83-7673-7c0c-a792-bbd8fbbaf673","2025-09-02_09h25.00.232",NA,NA,1333.4361,1333.4361,1333.4361,1333.7894,NA,NA,NA,NA,NA,NA,NA,TRUE,1,1.3209,1330.4337,1333.4358,0,88,88,19,1,14,26,NA,NA,NA,NA,NA,1,89,"binary"
"1403A555DC784AEB95EA3FFB5001082E",1,"01990a98-3f5e-7f47-ad08-d61af1d7d1b9","01990a83-7673-7c0c-a792-bbd8fbbaf673","2025-09-02_09h25.00.232",NA,NA,1336.7756,1336.7756,1336.7756,1337.1255,NA,NA,NA,NA,NA,NA,NA,TRUE,1,1.0451,1333.7906,1336.7753,0,89,89,1,1,7,26,NA,NA,NA,NA,NA,1,90,"binary"
"1403A555DC784AEB95EA3FFB5001082E",1,"01990a98-3f5e-7f47-ad08-d61af1d7d1b9","01990a83-7673-7c0c-a792-bbd8fbbaf673","2025-09-02_09h25.00.232",NA,NA,1340.1431,1340.1431,1340.1431,1340.4752,NA,NA,NA,NA,NA,NA,NA,TRUE,1,0.7628,1337.1268,1340.1428,0,90,90,0,1,7,25,NA,NA,NA,NA,NA,1,91,"binary"
"1403A555DC784AEB95EA3FFB5001082E",1,"01990a98-3f5e-7f47-ad08-d61af1d7d1b9","01990a83-7673-7c0c-a792-bbd8fbbaf673","2025-09-02_09h25.00.232",NA,NA,1343.4905,1343.4906,1343.4906,1343.8254,NA,NA,NA,NA,NA,NA,NA,TRUE,1,0.5545,1340.4764,1343.4903,0,91,91,8,1,10,27,NA,NA,NA,NA,NA,1,92,"binary"
"1403A555DC784AEB95EA3FFB5001082E",1,"01990a98-3f5e-7f47-ad08-d61af1d7d1b9","01990a83-7673-7c0c-a792-bbd8fbbaf673","2025-09-02_09h25.00.232",NA,NA,1346.8297,1346.8297,1346.8297,1347.1785,NA,NA,NA,NA,NA,NA,NA,TRUE,1,0.6119,1343.8265,1346.8293,0,92,92,64,1,50,46,NA,NA,NA,NA,NA,1,93,"binary"
"1403A555DC784AEB95EA3FFB5001082E",1,"01990a98-3f5e-7f47-ad08-d61af1d7d1b9","01990a83-7673-7c0c-a792-bbd8fbbaf673","2025-09-02_09h25.00.232",NA,NA,1350.1749,1350.1749,1350.1749,1350.5369,NA,NA,NA,NA,NA,NA,NA,TRUE,1,0.7531,1347.1797,1350.1746,0,93,93,77,1,90,54,NA,NA,NA,NA,NA,1,94,"binary"
"1403A555DC784AEB95EA3FFB5001082E",1,"01990a98-3f5e-7f47-ad08-d61af1d7d1b9","01990a83-7673-7c0c-a792-bbd8fbbaf673","2025-09-02_09h25.00.232",NA,NA,1353.5396,1353.5397,1353.5397,1353.8854,NA,NA,NA,NA,NA,NA,NA,TRUE,1,1.9625,1350.538,1353.5394,0,94,94,4,1,7,32,NA,NA,NA,NA,NA,1,95,"binary"
"1403A555DC784AEB95EA3FFB5001082E",1,"01990a98-3f5e-7f47-ad08-d61af1d7d1b9","01990a83-7673-7c0c-a792-bbd8fbbaf673","2025-09-02_09h25.00.232",NA,NA,1356.8791,1356.8791,1356.8791,1357.2339,NA,NA,NA,NA,NA,NA,NA,TRUE,1,1.2901,1353.8865,1356.8788,0,95,95,50,1,40,35,NA,NA,NA,NA,NA,1,96,"binary"
"1403A555DC784AEB95EA3FFB5001082E",1,"01990a98-3f5e-7f47-ad08-d61af1d7d1b9","01990a83-7673-7c0c-a792-bbd8fbbaf673","2025-09-02_09h25.00.232",NA,NA,1360.2255,1360.2255,1360.2256,1360.5911,NA,NA,NA,NA,NA,NA,NA,TRUE,1,0.9645,1357.2351,1360.2253,0,96,96,95,1,150,54,NA,NA,NA,NA,NA,1,97,"binary"
"1403A555DC784AEB95EA3FFB5001082E",1,"01990a98-3f5e-7f47-ad08-d61af1d7d1b9","01990a83-7673-7c0c-a792-bbd8fbbaf673","2025-09-02_09h25.00.232",NA,NA,1363.5773,1363.5773,1363.5773,1363.9409,NA,NA,NA,NA,NA,NA,NA,TRUE,1,1.1622,1360.5923,1363.577,0,97,97,3,1,7,30,NA,NA,NA,NA,NA,1,98,"binary"
"1403A555DC784AEB95EA3FFB5001082E",1,"01990a98-3f5e-7f47-ad08-d61af1d7d1b9","01990a83-7673-7c0c-a792-bbd8fbbaf673","2025-09-02_09h25.00.232",NA,NA,1366.9311,1366.9311,1366.9311,1367.2802,NA,NA,NA,NA,NA,NA,NA,TRUE,1,1.119,1363.9421,1366.9309,0,98,98,84,1,100,26,NA,NA,NA,NA,NA,1,99,"binary"
"1403A555DC784AEB95EA3FFB5001082E",1,"01990a98-3f5e-7f47-ad08-d61af1d7d1b9","01990a83-7673-7c0c-a792-bbd8fbbaf673","2025-09-02_09h25.00.232",NA,NA,1370.2771,1370.2772,1370.2772,1370.6404,NA,NA,NA,NA,NA,NA,NA,TRUE,1,1.526,1367.2814,1370.2769,0,99,99,67,1,60,33,NA,NA,NA,NA,NA,1,100,"binary"
"1403A555DC784AEB95EA3FFB5001082E",1,"01990a98-3f5e-7f47-ad08-d61af1d7d1b9","01990a83-7673-7c0c-a792-bbd8fbbaf673","2025-09-02_09h25.00.232",NA,NA,1373.6291,1373.6291,1373.6291,1373.9808,NA,NA,NA,NA,NA,NA,NA,TRUE,1,1.2555,1370.6417,1373.6288,0,100,100,71,1,60,54,NA,NA,NA,NA,NA,1,101,"binary"
"1403A555DC784AEB95EA3FFB5001082E",1,"01990a98-3f5e-7f47-ad08-d61af1d7d1b9","01990a83-7673-7c0c-a792-bbd8fbbaf673","2025-09-02_09h25.00.232",NA,NA,1376.9779,1376.9779,1376.9779,1377.3259,NA,NA,NA,NA,NA,NA,NA,TRUE,1,1.2416,1373.982,1376.9776,0,101,101,82,1,95,47,NA,NA,NA,NA,NA,1,102,"binary"
"1403A555DC784AEB95EA3FFB5001082E",1,"01990a98-3f5e-7f47-ad08-d61af1d7d1b9","01990a83-7673-7c0c-a792-bbd8fbbaf673","2025-09-02_09h25.00.232",NA,NA,1380.3325,1380.3326,1380.3326,1380.6773,NA,NA,NA,NA,NA,NA,NA,TRUE,1,0.9822,1377.3271,1380.3323,0,102,102,18,1,14,25,NA,NA,NA,NA,NA,1,103,"binary"
"1403A555DC784AEB95EA3FFB5001082E",1,"01990a98-3f5e-7f47-ad08-d61af1d7d1b9","01990a83-7673-7c0c-a792-bbd8fbbaf673","2025-09-02_09h25.00.232",NA,NA,1383.691,1383.691,1383.691,1384.0386,NA,NA,NA,NA,NA,NA,NA,TRUE,1,1.3547,1380.6785,1383.6908,0,103,103,21,1,14,32,NA,NA,NA,NA,NA,1,104,"binary"
"1403A555DC784AEB95EA3FFB5001082E",1,"01990a98-3f5e-7f47-ad08-d61af1d7d1b9","01990a83-7673-7c0c-a792-bbd8fbbaf673","2025-09-02_09h25.00.232",NA,NA,1387.0249,1387.0249,1387.0249,1387.3752,NA,NA,NA,NA,NA,NA,NA,TRUE,1,1.1499,1384.04,1387.0246,0,104,104,96,1,180,27,NA,NA,NA,NA,NA,1,105,"binary"
"1403A555DC784AEB95EA3FFB5001082E",1,"01990a98-3f5e-7f47-ad08-d61af1d7d1b9","01990a83-7673-7c0c-a792-bbd8fbbaf673","2025-09-02_09h25.00.232",NA,NA,1390.3762,1390.3762,1390.3762,1390.7324,NA,NA,NA,NA,NA,NA,NA,TRUE,1,0.8557,1387.3766,1390.376,0,105,105,56,1,45,31,NA,NA,NA,NA,NA,1,106,"binary"
"1403A555DC784AEB95EA3FFB5001082E",1,"01990a98-3f5e-7f47-ad08-d61af1d7d1b9","01990a83-7673-7c0c-a792-bbd8fbbaf673","2025-09-02_09h25.00.232",NA,NA,1393.7407,1393.7408,1393.7408,1394.076,NA,NA,NA,NA,NA,NA,NA,TRUE,1,0.9549,1390.7336,1393.7404,0,106,106,107,1,200,54,NA,NA,NA,NA,NA,1,107,"binary"
"1403A555DC784AEB95EA3FFB5001082E",1,"01990a98-3f5e-7f47-ad08-d61af1d7d1b9","01990a83-7673-7c0c-a792-bbd8fbbaf673","2025-09-02_09h25.00.232",NA,NA,1397.0767,1397.0767,1397.0767,1397.4421,NA,NA,NA,NA,NA,NA,NA,TRUE,1,0.5272,1394.0774,1397.0764,0,107,107,60,1,50,27,NA,NA,NA,NA,NA,1,108,"binary"
"1403A555DC784AEB95EA3FFB5001082E",1,"01990a98-3f5e-7f47-ad08-d61af1d7d1b9","01990a83-7673-7c0c-a792-bbd8fbbaf673","2025-09-02_09h25.00.232",NA,NA,1408.8561,1408.8561,1408.8561,1409.2131,NA,NA,NA,NA,NA,NA,NA,TRUE,1,1.4109,1405.8752,1408.8557,NA,NA,NA,NA,NA,30,26,0,0,0,42,1,2,1,"binary"
"1403A555DC784AEB95EA3FFB5001082E",1,"01990a98-3f5e-7f47-ad08-d61af1d7d1b9","01990a83-7673-7c0c-a792-bbd8fbbaf673","2025-09-02_09h25.00.232",NA,NA,1412.216,1412.216,1412.216,1412.5636,NA,NA,NA,NA,NA,NA,NA,TRUE,1,0.7431,1409.2148,1412.2158,NA,NA,NA,NA,NA,12,35,0,1,1,17,1,2,2,"binary"
"1403A555DC784AEB95EA3FFB5001082E",1,"01990a98-3f5e-7f47-ad08-d61af1d7d1b9","01990a83-7673-7c0c-a792-bbd8fbbaf673","2025-09-02_09h25.00.232",NA,NA,1415.5526,1415.5526,1415.5526,1415.9185,NA,NA,NA,NA,NA,NA,NA,TRUE,1,0.6025,1412.5648,1415.5523,NA,NA,NA,NA,NA,95,35,0,2,2,80,1,2,3,"binary"
"1403A555DC784AEB95EA3FFB5001082E",1,"01990a98-3f5e-7f47-ad08-d61af1d7d1b9","01990a83-7673-7c0c-a792-bbd8fbbaf673","2025-09-02_09h25.00.232",NA,NA,1418.9188,1418.9189,1418.9189,1419.2633,NA,NA,NA,NA,NA,NA,NA,TRUE,1,0.8404,1415.9195,1418.9186,NA,NA,NA,NA,NA,28,39,0,3,3,40,1,2,4,"binary"
"1403A555DC784AEB95EA3FFB5001082E",1,"01990a98-3f5e-7f47-ad08-d61af1d7d1b9","01990a83-7673-7c0c-a792-bbd8fbbaf673","2025-09-02_09h25.00.232",NA,NA,1422.2543,1422.2543,1422.2543,1422.6053,NA,NA,NA,NA,NA,NA,NA,TRUE,1,0.6304,1419.2644,1422.2541,NA,NA,NA,NA,NA,200,47,0,4,4,106,1,2,5,"binary"
"1403A555DC784AEB95EA3FFB5001082E",1,"01990a98-3f5e-7f47-ad08-d61af1d7d1b9","01990a83-7673-7c0c-a792-bbd8fbbaf673","2025-09-02_09h25.00.232",NA,NA,1425.6023,1425.6023,1425.6023,1425.9533,NA,NA,NA,NA,NA,NA,NA,TRUE,1,0.5711,1422.6065,1425.602,NA,NA,NA,NA,NA,10,26,0,5,5,7,1,2,6,"binary"
"1403A555DC784AEB95EA3FFB5001082E",1,"01990a98-3f5e-7f47-ad08-d61af1d7d1b9","01990a83-7673-7c0c-a792-bbd8fbbaf673","2025-09-02_09h25.00.232",NA,NA,1428.9527,1428.9527,1428.9528,1429.3091,NA,NA,NA,NA,NA,NA,NA,TRUE,1,0.4688,1425.9545,1428.9524,NA,NA,NA,NA,NA,21,26,0,6,6,24,1,2,7,"binary"
"1403A555DC784AEB95EA3FFB5001082E",1,"01990a98-3f5e-7f47-ad08-d61af1d7d1b9","01990a83-7673-7c0c-a792-bbd8fbbaf673","2025-09-02_09h25.00.232",NA,NA,1432.3055,1432.3056,1432.3056,1432.657,NA,NA,NA,NA,NA,NA,NA,TRUE,1,0.7367,1429.3103,1432.3053,NA,NA,NA,NA,NA,12,31,0,7,7,15,1,2,8,"binary"
"1403A555DC784AEB95EA3FFB5001082E",1,"01990a98-3f5e-7f47-ad08-d61af1d7d1b9","01990a83-7673-7c0c-a792-bbd8fbbaf673","2025-09-02_09h25.00.232",NA,NA,1435.6652,1435.6652,1435.6652,1436.0109,NA,NA,NA,NA,NA,NA,NA,TRUE,1,0.7081,1432.6582,1435.6649,NA,NA,NA,NA,NA,12,33,0,8,8,16,1,2,9,"binary"
"1403A555DC784AEB95EA3FFB5001082E",1,"01990a98-3f5e-7f47-ad08-d61af1d7d1b9","01990a83-7673-7c0c-a792-bbd8fbbaf673","2025-09-02_09h25.00.232",NA,NA,1439.0173,1439.0173,1439.0173,1439.3634,NA,NA,NA,NA,NA,NA,NA,TRUE,1,0.7143,1436.0121,1439.017,NA,NA,NA,NA,NA,60,35,0,9,9,68,1,2,10,"binary"
"1403A555DC784AEB95EA3FFB5001082E",1,"01990a98-3f5e-7f47-ad08-d61af1d7d1b9","01990a83-7673-7c0c-a792-bbd8fbbaf673","2025-09-02_09h25.00.232",NA,NA,1442.3654,1442.3654,1442.3654,1442.7141,NA,NA,NA,NA,NA,NA,NA,TRUE,1,0.6663,1439.3646,1442.3652,NA,NA,NA,NA,NA,50,30,0,10,10,61,1,2,11,"binary"
"1403A555DC784AEB95EA3FFB5001082E",1,"01990a98-3f5e-7f47-ad08-d61af1d7d1b9","01990a83-7673-7c0c-a792-bbd8fbbaf673","2025-09-02_09h25.00.232",NA,NA,1445.7127,1445.7128,1445.7128,1446.0524,NA,NA,NA,NA,NA,NA,NA,TRUE,1,0.7845,1442.7156,1445.7125,NA,NA,NA,NA,NA,10,32,0,11,11,11,1,2,12,"binary"
"1403A555DC784AEB95EA3FFB5001082E",1,"01990a98-3f5e-7f47-ad08-d61af1d7d1b9","01990a83-7673-7c0c-a792-bbd8fbbaf673","2025-09-02_09h25.00.232",NA,NA,1449.0554,1449.0554,1449.0554,1449.4185,NA,NA,NA,NA,NA,NA,NA,TRUE,1,0.6593,1446.0537,1449.0552,NA,NA,NA,NA,NA,30,30,0,12,12,45,1,2,13,"binary"
"1403A555DC784AEB95EA3FFB5001082E",1,"01990a98-3f5e-7f47-ad08-d61af1d7d1b9","01990a83-7673-7c0c-a792-bbd8fbbaf673","2025-09-02_09h25.00.232",NA,NA,1452.4071,1452.4072,1452.4072,1452.7544,NA,NA,NA,NA,NA,NA,NA,TRUE,1,1.0034,1449.4196,1452.4069,NA,NA,NA,NA,NA,95,31,0,13,13,78,1,2,14,"binary"
"1403A555DC784AEB95EA3FFB5001082E",1,"01990a98-3f5e-7f47-ad08-d61af1d7d1b9","01990a83-7673-7c0c-a792-bbd8fbbaf673","2025-09-02_09h25.00.232",NA,NA,1455.752,1455.752,1455.752,1456.1146,NA,NA,NA,NA,NA,NA,NA,TRUE,1,0.6024,1452.7557,1455.7517,NA,NA,NA,NA,NA,10,29,0,14,14,9,1,2,15,"binary"
"1403A555DC784AEB95EA3FFB5001082E",1,"01990a98-3f5e-7f47-ad08-d61af1d7d1b9","01990a83-7673-7c0c-a792-bbd8fbbaf673","2025-09-02_09h25.00.232",NA,NA,1459.1108,1459.1108,1459.1108,1459.4607,NA,NA,NA,NA,NA,NA,NA,TRUE,1,0.9828,1456.116,1459.1106,NA,NA,NA,NA,NA,30,29,0,15,15,44,1,2,16,"binary"
"1403A555DC784AEB95EA3FFB5001082E",1,"01990a98-3f5e-7f47-ad08-d61af1d7d1b9","01990a83-7673-7c0c-a792-bbd8fbbaf673","2025-09-02_09h25.00.232",NA,NA,1462.4641,1462.4641,1462.4641,1462.8087,NA,NA,NA,NA,NA,NA,NA,TRUE,1,1.4301,1459.4619,1462.4638,NA,NA,NA,NA,NA,200,54,0,16,16,107,1,2,17,"binary"
"1403A555DC784AEB95EA3FFB5001082E",1,"01990a98-3f5e-7f47-ad08-d61af1d7d1b9","01990a83-7673-7c0c-a792-bbd8fbbaf673","2025-09-02_09h25.00.232",NA,NA,1465.8159,1465.8159,1465.8159,1466.16,NA,NA,NA,NA,NA,NA,NA,TRUE,1,0.7379,1462.81,1465.8157,NA,NA,NA,NA,NA,40,54,0,17,17,53,1,2,18,"binary"
"1403A555DC784AEB95EA3FFB5001082E",1,"01990a98-3f5e-7f47-ad08-d61af1d7d1b9","01990a83-7673-7c0c-a792-bbd8fbbaf673","2025-09-02_09h25.00.232",NA,NA,1469.1593,1469.1594,1469.1594,1469.5075,NA,NA,NA,NA,NA,NA,NA,TRUE,1,0.6381,1466.1611,1469.159,NA,NA,NA,NA,NA,45,35,0,18,18,57,1,2,19,"binary"
"1403A555DC784AEB95EA3FFB5001082E",1,"01990a98-3f5e-7f47-ad08-d61af1d7d1b9","01990a83-7673-7c0c-a792-bbd8fbbaf673","2025-09-02_09h25.00.232",NA,NA,1472.5113,1472.5113,1472.5113,1472.8586,NA,NA,NA,NA,NA,NA,NA,TRUE,1,1.7118,1469.5086,1472.511,NA,NA,NA,NA,NA,12,28,0,19,19,14,1,2,20,"binary"
"1403A555DC784AEB95EA3FFB5001082E",1,"01990a98-3f5e-7f47-ad08-d61af1d7d1b9","01990a83-7673-7c0c-a792-bbd8fbbaf673","2025-09-02_09h25.00.232",NA,NA,1475.861,1475.861,1475.861,1476.2091,NA,NA,NA,NA,NA,NA,NA,TRUE,1,0.8039,1472.8597,1475.8606,NA,NA,NA,NA,NA,95,33,0,20,20,79,1,2,21,"binary"
"1403A555DC784AEB95EA3FFB5001082E",1,"01990a98-3f5e-7f47-ad08-d61af1d7d1b9","01990a83-7673-7c0c-a792-bbd8fbbaf673","2025-09-02_09h25.00.232",NA,NA,1479.2155,1479.2156,1479.2156,1479.5627,NA,NA,NA,NA,NA,NA,NA,TRUE,1,1.0434,1476.2103,1479.2152,NA,NA,NA,NA,NA,7,32,0,21,21,4,1,2,22,"binary"
"1403A555DC784AEB95EA3FFB5001082E",1,"01990a98-3f5e-7f47-ad08-d61af1d7d1b9","01990a83-7673-7c0c-a792-bbd8fbbaf673","2025-09-02_09h25.00.232",NA,NA,1482.5709,1482.5709,1482.5709,1482.9181,NA,NA,NA,NA,NA,NA,NA,TRUE,1,0.8159,1479.5638,1482.5706,NA,NA,NA,NA,NA,100,39,0,22,22,87,1,2,23,"binary"
"1403A555DC784AEB95EA3FFB5001082E",1,"01990a98-3f5e-7f47-ad08-d61af1d7d1b9","01990a83-7673-7c0c-a792-bbd8fbbaf673","2025-09-02_09h25.00.232",NA,NA,1485.904,1485.904,1485.904,1486.2538,NA,NA,NA,NA,NA,NA,NA,TRUE,1,0.899,1482.9195,1485.9038,NA,NA,NA,NA,NA,21,32,0,23,23,28,1,2,24,"binary"
"1403A555DC784AEB95EA3FFB5001082E",1,"01990a98-3f5e-7f47-ad08-d61af1d7d1b9","01990a83-7673-7c0c-a792-bbd8fbbaf673","2025-09-02_09h25.00.232",NA,NA,1489.2621,1489.2622,1489.2622,1489.6097,NA,NA,NA,NA,NA,NA,NA,TRUE,1,2.3501,1486.255,1489.2619,NA,NA,NA,NA,NA,95,54,0,24,24,83,1,2,25,"binary"
"1403A555DC784AEB95EA3FFB5001082E",1,"01990a98-3f5e-7f47-ad08-d61af1d7d1b9","01990a83-7673-7c0c-a792-bbd8fbbaf673","2025-09-02_09h25.00.232",NA,NA,1492.6064,1492.6064,1492.6065,1492.9571,NA,NA,NA,NA,NA,NA,NA,TRUE,1,1.4556,1489.6109,1492.6061,NA,NA,NA,NA,NA,90,33,0,25,25,74,1,2,26,"binary"
"1403A555DC784AEB95EA3FFB5001082E",1,"01990a98-3f5e-7f47-ad08-d61af1d7d1b9","01990a83-7673-7c0c-a792-bbd8fbbaf673","2025-09-02_09h25.00.232",NA,NA,1495.9686,1495.9686,1495.9686,1496.3142,NA,NA,NA,NA,NA,NA,NA,TRUE,1,0.4346,1492.9583,1495.9683,NA,NA,NA,NA,NA,100,54,0,26,26,89,1,2,27,"binary"
"1403A555DC784AEB95EA3FFB5001082E",1,"01990a98-3f5e-7f47-ad08-d61af1d7d1b9","01990a83-7673-7c0c-a792-bbd8fbbaf673","2025-09-02_09h25.00.232",NA,NA,1499.3069,1499.3069,1499.3069,1499.6561,NA,NA,NA,NA,NA,NA,NA,TRUE,1,0.7841,1496.3154,1499.3066,NA,NA,NA,NA,NA,90,26,0,27,27,72,1,2,28,"binary"
"1403A555DC784AEB95EA3FFB5001082E",1,"01990a98-3f5e-7f47-ad08-d61af1d7d1b9","01990a83-7673-7c0c-a792-bbd8fbbaf673","2025-09-02_09h25.00.232",NA,NA,1502.664,1502.6641,1502.6641,1503.0126,NA,NA,NA,NA,NA,NA,NA,TRUE,1,0.9541,1499.6571,1502.6638,NA,NA,NA,NA,NA,21,27,0,28,28,25,1,2,29,"binary"
"1403A555DC784AEB95EA3FFB5001082E",1,"01990a98-3f5e-7f47-ad08-d61af1d7d1b9","01990a83-7673-7c0c-a792-bbd8fbbaf673","2025-09-02_09h25.00.232",NA,NA,1506.0164,1506.0164,1506.0164,1506.3613,NA,NA,NA,NA,NA,NA,NA,TRUE,1,0.772,1503.0138,1506.0161,NA,NA,NA,NA,NA,40,47,0,29,29,52,1,2,30,"binary"
"1403A555DC784AEB95EA3FFB5001082E",1,"01990a98-3f5e-7f47-ad08-d61af1d7d1b9","01990a83-7673-7c0c-a792-bbd8fbbaf673","2025-09-02_09h25.00.232",NA,NA,1509.3579,1509.6052,1509.6052,1509.7054,NA,NA,NA,NA,NA,NA,NA,FALSE,NA,NA,1506.3625,1509.3577,NA,NA,NA,NA,NA,180,35,0,30,30,98,1,2,31,"binary"
"1403A555DC784AEB95EA3FFB5001082E",1,"01990a98-3f5e-7f47-ad08-d61af1d7d1b9","01990a83-7673-7c0c-a792-bbd8fbbaf673","2025-09-02_09h25.00.232",NA,NA,1512.7069,1512.9554,1512.9554,1513.0583,NA,NA,NA,NA,NA,NA,NA,FALSE,NA,NA,1509.7066,1512.7067,NA,NA,NA,NA,NA,7,35,0,31,31,5,1,2,32,"binary"
"1403A555DC784AEB95EA3FFB5001082E",1,"01990a98-3f5e-7f47-ad08-d61af1d7d1b9","01990a83-7673-7c0c-a792-bbd8fbbaf673","2025-09-02_09h25.00.232",NA,NA,1516.0674,1516.0674,1516.0674,1516.4134,NA,NA,NA,NA,NA,NA,NA,TRUE,1,2.0114,1513.0595,1516.0671,NA,NA,NA,NA,NA,180,54,0,32,32,101,1,2,33,"binary"
"1403A555DC784AEB95EA3FFB5001082E",1,"01990a98-3f5e-7f47-ad08-d61af1d7d1b9","01990a83-7673-7c0c-a792-bbd8fbbaf673","2025-09-02_09h25.00.232",NA,NA,1519.4179,1519.4179,1519.418,1519.7632,NA,NA,NA,NA,NA,NA,NA,TRUE,1,1.6293,1516.4146,1519.4177,NA,NA,NA,NA,NA,100,38,0,33,33,86,1,2,34,"binary"
"1403A555DC784AEB95EA3FFB5001082E",1,"01990a98-3f5e-7f47-ad08-d61af1d7d1b9","01990a83-7673-7c0c-a792-bbd8fbbaf673","2025-09-02_09h25.00.232",NA,NA,1522.7604,1522.7604,1522.7604,1523.1082,NA,NA,NA,NA,NA,NA,NA,TRUE,1,1.2117,1519.7649,1522.7601,NA,NA,NA,NA,NA,60,40,0,34,34,69,1,2,35,"binary"
"1403A555DC784AEB95EA3FFB5001082E",1,"01990a98-3f5e-7f47-ad08-d61af1d7d1b9","01990a83-7673-7c0c-a792-bbd8fbbaf673","2025-09-02_09h25.00.232",NA,NA,1526.1042,1526.1042,1526.1042,1526.4535,NA,NA,NA,NA,NA,NA,NA,TRUE,1,1.253,1523.1093,1526.104,NA,NA,NA,NA,NA,180,39,0,35,35,99,1,2,36,"binary"
"1403A555DC784AEB95EA3FFB5001082E",1,"01990a98-3f5e-7f47-ad08-d61af1d7d1b9","01990a83-7673-7c0c-a792-bbd8fbbaf673","2025-09-02_09h25.00.232",NA,NA,1529.4654,1529.4654,1529.4655,1529.8132,NA,NA,NA,NA,NA,NA,NA,TRUE,1,1.1432,1526.4547,1529.4651,NA,NA,NA,NA,NA,200,39,0,36,36,105,1,2,37,"binary"
"1403A555DC784AEB95EA3FFB5001082E",1,"01990a98-3f5e-7f47-ad08-d61af1d7d1b9","01990a83-7673-7c0c-a792-bbd8fbbaf673","2025-09-02_09h25.00.232",NA,NA,1532.8048,1532.8049,1532.8049,1533.1685,NA,NA,NA,NA,NA,NA,NA,TRUE,1,1.1754,1529.8144,1532.8046,NA,NA,NA,NA,NA,25,35,0,37,37,34,1,2,38,"binary"
"1403A555DC784AEB95EA3FFB5001082E",1,"01990a98-3f5e-7f47-ad08-d61af1d7d1b9","01990a83-7673-7c0c-a792-bbd8fbbaf673","2025-09-02_09h25.00.232",NA,NA,1536.1636,1536.1637,1536.1637,1536.5166,NA,NA,NA,NA,NA,NA,NA,TRUE,1,1.1649,1533.1696,1536.1634,NA,NA,NA,NA,NA,21,38,0,38,38,29,1,2,39,"binary"
"1403A555DC784AEB95EA3FFB5001082E",1,"01990a98-3f5e-7f47-ad08-d61af1d7d1b9","01990a83-7673-7c0c-a792-bbd8fbbaf673","2025-09-02_09h25.00.232",NA,NA,1539.502,1539.5021,1539.5021,1539.8642,NA,NA,NA,NA,NA,NA,NA,TRUE,1,1.2204,1536.5177,1539.5018,NA,NA,NA,NA,NA,10,27,0,39,39,8,1,2,40,"binary"
"1403A555DC784AEB95EA3FFB5001082E",1,"01990a98-3f5e-7f47-ad08-d61af1d7d1b9","01990a83-7673-7c0c-a792-bbd8fbbaf673","2025-09-02_09h25.00.232",NA,NA,1542.8647,1542.8647,1542.8647,1543.213,NA,NA,NA,NA,NA,NA,NA,TRUE,1,1.0414,1539.8656,1542.8643,NA,NA,NA,NA,NA,150,54,0,40,40,95,1,2,41,"binary"
"1403A555DC784AEB95EA3FFB5001082E",1,"01990a98-3f5e-7f47-ad08-d61af1d7d1b9","01990a83-7673-7c0c-a792-bbd8fbbaf673","2025-09-02_09h25.00.232",NA,NA,1546.2134,1546.2134,1546.2134,1546.5636,NA,NA,NA,NA,NA,NA,NA,TRUE,1,1.0526,1543.2142,1546.2131,NA,NA,NA,NA,NA,25,46,0,41,41,35,1,2,42,"binary"
"1403A555DC784AEB95EA3FFB5001082E",1,"01990a98-3f5e-7f47-ad08-d61af1d7d1b9","01990a83-7673-7c0c-a792-bbd8fbbaf673","2025-09-02_09h25.00.232",NA,NA,1549.5593,1549.5593,1549.5593,1549.9108,NA,NA,NA,NA,NA,NA,NA,TRUE,1,1.3226,1546.5648,1549.5591,NA,NA,NA,NA,NA,50,27,0,42,42,60,1,2,43,"binary"
"1403A555DC784AEB95EA3FFB5001082E",1,"01990a98-3f5e-7f47-ad08-d61af1d7d1b9","01990a83-7673-7c0c-a792-bbd8fbbaf673","2025-09-02_09h25.00.232",NA,NA,1552.9062,1552.9062,1552.9062,1553.2571,NA,NA,NA,NA,NA,NA,NA,TRUE,1,1.2871,1549.9122,1552.9059,NA,NA,NA,NA,NA,150,47,0,43,43,94,1,2,44,"binary"
"1403A555DC784AEB95EA3FFB5001082E",1,"01990a98-3f5e-7f47-ad08-d61af1d7d1b9","01990a83-7673-7c0c-a792-bbd8fbbaf673","2025-09-02_09h25.00.232",NA,NA,1556.2554,1556.2554,1556.2555,1556.6096,NA,NA,NA,NA,NA,NA,NA,TRUE,1,1.2188,1553.2584,1556.2551,NA,NA,NA,NA,NA,28,26,0,44,44,36,1,2,45,"binary"
"1403A555DC784AEB95EA3FFB5001082E",1,"01990a98-3f5e-7f47-ad08-d61af1d7d1b9","01990a83-7673-7c0c-a792-bbd8fbbaf673","2025-09-02_09h25.00.232",NA,NA,1559.6042,1559.6042,1559.6042,1559.9523,NA,NA,NA,NA,NA,NA,NA,TRUE,1,1.5499,1556.6111,1559.6039,NA,NA,NA,NA,NA,90,40,0,45,45,75,1,2,46,"binary"
"1403A555DC784AEB95EA3FFB5001082E",1,"01990a98-3f5e-7f47-ad08-d61af1d7d1b9","01990a83-7673-7c0c-a792-bbd8fbbaf673","2025-09-02_09h25.00.232",NA,NA,1562.9598,1562.9598,1562.9598,1563.3129,NA,NA,NA,NA,NA,NA,NA,TRUE,1,1.6557,1559.9536,1562.9594,NA,NA,NA,NA,NA,40,33,0,46,46,49,1,2,47,"binary"
"1403A555DC784AEB95EA3FFB5001082E",1,"01990a98-3f5e-7f47-ad08-d61af1d7d1b9","01990a83-7673-7c0c-a792-bbd8fbbaf673","2025-09-02_09h25.00.232",NA,NA,1566.305,1566.305,1566.3051,1566.6703,NA,NA,NA,NA,NA,NA,NA,TRUE,1,1.104,1563.3141,1566.3048,NA,NA,NA,NA,NA,150,31,0,47,47,90,1,2,48,"binary"
"1403A555DC784AEB95EA3FFB5001082E",1,"01990a98-3f5e-7f47-ad08-d61af1d7d1b9","01990a83-7673-7c0c-a792-bbd8fbbaf673","2025-09-02_09h25.00.232",NA,NA,1569.6688,1569.6689,1569.6689,1570.0141,NA,NA,NA,NA,NA,NA,NA,TRUE,1,1.0878,1566.6715,1569.6685,NA,NA,NA,NA,NA,40,27,0,48,48,48,1,2,49,"binary"
"1403A555DC784AEB95EA3FFB5001082E",1,"01990a98-3f5e-7f47-ad08-d61af1d7d1b9","01990a83-7673-7c0c-a792-bbd8fbbaf673","2025-09-02_09h25.00.232",NA,NA,1573.0176,1573.0177,1573.0177,1573.352,NA,NA,NA,NA,NA,NA,NA,TRUE,1,1.5374,1570.0153,1573.0174,NA,NA,NA,NA,NA,14,35,0,49,49,22,1,2,50,"binary"
"1403A555DC784AEB95EA3FFB5001082E",1,"01990a98-3f5e-7f47-ad08-d61af1d7d1b9","01990a83-7673-7c0c-a792-bbd8fbbaf673","2025-09-02_09h25.00.232",NA,NA,1576.3584,1576.3584,1576.3585,1576.7071,NA,NA,NA,NA,NA,NA,NA,TRUE,1,1.5715,1573.3557,1576.358,NA,NA,NA,NA,NA,7,25,0,50,50,0,1,2,51,"binary"
"1403A555DC784AEB95EA3FFB5001082E",1,"01990a98-3f5e-7f47-ad08-d61af1d7d1b9","01990a83-7673-7c0c-a792-bbd8fbbaf673","2025-09-02_09h25.00.232",NA,NA,1579.71,1579.71,1579.71,1580.0591,NA,NA,NA,NA,NA,NA,NA,TRUE,1,1.0681,1576.7087,1579.7098,NA,NA,NA,NA,NA,100,46,0,51,51,88,1,2,52,"binary"
"1403A555DC784AEB95EA3FFB5001082E",1,"01990a98-3f5e-7f47-ad08-d61af1d7d1b9","01990a83-7673-7c0c-a792-bbd8fbbaf673","2025-09-02_09h25.00.232",NA,NA,1583.0661,1583.0661,1583.0661,1583.4138,NA,NA,NA,NA,NA,NA,NA,TRUE,1,1.3856,1580.0602,1583.0657,NA,NA,NA,NA,NA,12,26,0,52,52,13,1,2,53,"binary"
"1403A555DC784AEB95EA3FFB5001082E",1,"01990a98-3f5e-7f47-ad08-d61af1d7d1b9","01990a83-7673-7c0c-a792-bbd8fbbaf673","2025-09-02_09h25.00.232",NA,NA,1586.4131,1586.4131,1586.4131,1586.764,NA,NA,NA,NA,NA,NA,NA,TRUE,1,1.3498,1583.4153,1586.4129,NA,NA,NA,NA,NA,21,29,0,53,53,26,1,2,54,"binary"
"1403A555DC784AEB95EA3FFB5001082E",1,"01990a98-3f5e-7f47-ad08-d61af1d7d1b9","01990a83-7673-7c0c-a792-bbd8fbbaf673","2025-09-02_09h25.00.232",NA,NA,1589.7596,1589.7597,1589.7597,1590.111,NA,NA,NA,NA,NA,NA,NA,TRUE,1,1.8072,1586.7652,1589.7594,NA,NA,NA,NA,NA,150,40,0,54,54,93,1,2,55,"binary"
"1403A555DC784AEB95EA3FFB5001082E",1,"01990a98-3f5e-7f47-ad08-d61af1d7d1b9","01990a83-7673-7c0c-a792-bbd8fbbaf673","2025-09-02_09h25.00.232",NA,NA,1593.1067,1593.1067,1593.1067,1593.4709,NA,NA,NA,NA,NA,NA,NA,TRUE,1,1.0409,1590.1121,1593.1065,NA,NA,NA,NA,NA,45,46,0,55,55,59,1,2,56,"binary"
"1403A555DC784AEB95EA3FFB5001082E",1,"01990a98-3f5e-7f47-ad08-d61af1d7d1b9","01990a83-7673-7c0c-a792-bbd8fbbaf673","2025-09-02_09h25.00.232",NA,NA,1596.4651,1596.4651,1596.4651,1596.8135,NA,NA,NA,NA,NA,NA,NA,TRUE,1,1.2466,1593.472,1596.4648,NA,NA,NA,NA,NA,200,28,0,56,56,103,1,2,57,"binary"
"1403A555DC784AEB95EA3FFB5001082E",1,"01990a98-3f5e-7f47-ad08-d61af1d7d1b9","01990a83-7673-7c0c-a792-bbd8fbbaf673","2025-09-02_09h25.00.232",NA,NA,1599.8166,1599.8167,1599.8167,1600.1629,NA,NA,NA,NA,NA,NA,NA,TRUE,1,0.9186,1596.8146,1599.8163,NA,NA,NA,NA,NA,90,54,0,57,57,77,1,2,58,"binary"
"1403A555DC784AEB95EA3FFB5001082E",1,"01990a98-3f5e-7f47-ad08-d61af1d7d1b9","01990a83-7673-7c0c-a792-bbd8fbbaf673","2025-09-02_09h25.00.232",NA,NA,1603.157,1603.157,1603.157,1603.5037,NA,NA,NA,NA,NA,NA,NA,TRUE,1,0.8899,1600.164,1603.1566,NA,NA,NA,NA,NA,28,28,0,58,58,37,1,2,59,"binary"
"1403A555DC784AEB95EA3FFB5001082E",1,"01990a98-3f5e-7f47-ad08-d61af1d7d1b9","01990a83-7673-7c0c-a792-bbd8fbbaf673","2025-09-02_09h25.00.232",NA,NA,1606.5124,1606.5124,1606.5124,1606.8602,NA,NA,NA,NA,NA,NA,NA,TRUE,1,0.6647,1603.505,1606.5122,NA,NA,NA,NA,NA,28,46,0,59,59,41,1,2,60,"binary"
"1403A555DC784AEB95EA3FFB5001082E",1,"01990a98-3f5e-7f47-ad08-d61af1d7d1b9","01990a83-7673-7c0c-a792-bbd8fbbaf673","2025-09-02_09h25.00.232",NA,NA,1609.855,1609.8551,1609.8551,1610.2087,NA,NA,NA,NA,NA,NA,NA,TRUE,1,0.4094,1606.8613,1609.8547,NA,NA,NA,NA,NA,45,31,0,60,60,56,1,2,61,"binary"
"1403A555DC784AEB95EA3FFB5001082E",1,"01990a98-3f5e-7f47-ad08-d61af1d7d1b9","01990a83-7673-7c0c-a792-bbd8fbbaf673","2025-09-02_09h25.00.232",NA,NA,1613.2178,1613.2179,1613.2179,1613.5626,NA,NA,NA,NA,NA,NA,NA,TRUE,1,0.6098,1610.21,1613.2175,NA,NA,NA,NA,NA,100,31,0,61,61,85,1,2,62,"binary"
"1403A555DC784AEB95EA3FFB5001082E",1,"01990a98-3f5e-7f47-ad08-d61af1d7d1b9","01990a83-7673-7c0c-a792-bbd8fbbaf673","2025-09-02_09h25.00.232",NA,NA,1616.5612,1616.5612,1616.5612,1616.909,NA,NA,NA,NA,NA,NA,NA,TRUE,1,0.369,1613.564,1616.5609,NA,NA,NA,NA,NA,7,28,0,62,62,2,1,2,63,"binary"
"1403A555DC784AEB95EA3FFB5001082E",1,"01990a98-3f5e-7f47-ad08-d61af1d7d1b9","01990a83-7673-7c0c-a792-bbd8fbbaf673","2025-09-02_09h25.00.232",NA,NA,1619.9033,1619.9033,1619.9033,1620.252,NA,NA,NA,NA,NA,NA,NA,TRUE,1,0.5282,1616.9101,1619.9031,NA,NA,NA,NA,NA,95,47,0,63,63,82,1,2,64,"binary"
"1403A555DC784AEB95EA3FFB5001082E",1,"01990a98-3f5e-7f47-ad08-d61af1d7d1b9","01990a83-7673-7c0c-a792-bbd8fbbaf673","2025-09-02_09h25.00.232",NA,NA,1623.2589,1623.2589,1623.2589,1623.6089,NA,NA,NA,NA,NA,NA,NA,TRUE,1,0.6142,1620.2531,1623.2587,NA,NA,NA,NA,NA,50,35,0,64,64,62,1,2,65,"binary"
"1403A555DC784AEB95EA3FFB5001082E",1,"01990a98-3f5e-7f47-ad08-d61af1d7d1b9","01990a83-7673-7c0c-a792-bbd8fbbaf673","2025-09-02_09h25.00.232",NA,NA,1626.6084,1626.6085,1626.6085,1626.9526,NA,NA,NA,NA,NA,NA,NA,TRUE,1,0.907,1623.6101,1626.6081,NA,NA,NA,NA,NA,25,31,0,65,65,32,1,2,66,"binary"
"1403A555DC784AEB95EA3FFB5001082E",1,"01990a98-3f5e-7f47-ad08-d61af1d7d1b9","01990a83-7673-7c0c-a792-bbd8fbbaf673","2025-09-02_09h25.00.232",NA,NA,1629.9554,1629.9555,1629.9555,1630.3181,NA,NA,NA,NA,NA,NA,NA,TRUE,1,0.9785,1626.9537,1629.9552,NA,NA,NA,NA,NA,14,28,0,66,66,20,1,2,67,"binary"
"1403A555DC784AEB95EA3FFB5001082E",1,"01990a98-3f5e-7f47-ad08-d61af1d7d1b9","01990a83-7673-7c0c-a792-bbd8fbbaf673","2025-09-02_09h25.00.232",NA,NA,1633.3127,1633.3127,1633.3127,1633.6571,NA,NA,NA,NA,NA,NA,NA,TRUE,1,1.4425,1630.3192,1633.3125,NA,NA,NA,NA,NA,100,26,0,67,67,84,1,2,68,"binary"
"1403A555DC784AEB95EA3FFB5001082E",1,"01990a98-3f5e-7f47-ad08-d61af1d7d1b9","01990a83-7673-7c0c-a792-bbd8fbbaf673","2025-09-02_09h25.00.232",NA,NA,1636.6644,1636.6644,1636.6644,1637.0113,NA,NA,NA,NA,NA,NA,NA,TRUE,1,1.3315,1633.6583,1636.6641,NA,NA,NA,NA,NA,45,40,0,68,68,58,1,2,69,"binary"
"1403A555DC784AEB95EA3FFB5001082E",1,"01990a98-3f5e-7f47-ad08-d61af1d7d1b9","01990a83-7673-7c0c-a792-bbd8fbbaf673","2025-09-02_09h25.00.232",NA,NA,1640.0166,1640.0167,1640.0167,1640.3626,NA,NA,NA,NA,NA,NA,NA,TRUE,1,1.37,1637.0125,1640.0164,NA,NA,NA,NA,NA,180,46,0,69,69,100,1,2,70,"binary"
"1403A555DC784AEB95EA3FFB5001082E",1,"01990a98-3f5e-7f47-ad08-d61af1d7d1b9","01990a83-7673-7c0c-a792-bbd8fbbaf673","2025-09-02_09h25.00.232",NA,NA,1643.3615,1643.3615,1643.3615,1643.7069,NA,NA,NA,NA,NA,NA,NA,TRUE,1,1.8101,1640.3638,1643.3611,NA,NA,NA,NA,NA,50,46,0,70,70,64,1,2,71,"binary"
"1403A555DC784AEB95EA3FFB5001082E",1,"01990a98-3f5e-7f47-ad08-d61af1d7d1b9","01990a83-7673-7c0c-a792-bbd8fbbaf673","2025-09-02_09h25.00.232",NA,NA,1646.7143,1646.7143,1646.7143,1647.0635,NA,NA,NA,NA,NA,NA,NA,TRUE,1,0.7044,1643.7082,1646.7139,NA,NA,NA,NA,NA,60,29,0,71,71,66,1,2,72,"binary"
"1403A555DC784AEB95EA3FFB5001082E",1,"01990a98-3f5e-7f47-ad08-d61af1d7d1b9","01990a83-7673-7c0c-a792-bbd8fbbaf673","2025-09-02_09h25.00.232",NA,NA,1650.0573,1650.0573,1650.0573,1650.4097,NA,NA,NA,NA,NA,NA,NA,TRUE,1,1.2222,1647.0646,1650.0571,NA,NA,NA,NA,NA,14,39,0,72,72,23,1,2,73,"binary"
"1403A555DC784AEB95EA3FFB5001082E",1,"01990a98-3f5e-7f47-ad08-d61af1d7d1b9","01990a83-7673-7c0c-a792-bbd8fbbaf673","2025-09-02_09h25.00.232",NA,NA,1653.4082,1653.4082,1653.4082,1653.7595,NA,NA,NA,NA,NA,NA,NA,TRUE,1,1.2725,1650.411,1653.408,NA,NA,NA,NA,NA,25,29,0,73,73,31,1,2,74,"binary"
"1403A555DC784AEB95EA3FFB5001082E",1,"01990a98-3f5e-7f47-ad08-d61af1d7d1b9","01990a83-7673-7c0c-a792-bbd8fbbaf673","2025-09-02_09h25.00.232",NA,NA,1656.7614,1657.0103,1657.0104,1657.1103,NA,NA,NA,NA,NA,NA,NA,FALSE,NA,NA,1653.7607,1656.7611,NA,NA,NA,NA,NA,10,30,0,74,74,10,1,2,75,"binary"
"1403A555DC784AEB95EA3FFB5001082E",1,"01990a98-3f5e-7f47-ad08-d61af1d7d1b9","01990a83-7673-7c0c-a792-bbd8fbbaf673","2025-09-02_09h25.00.232",NA,NA,1660.1147,1660.3645,1660.3645,1660.4637,NA,NA,NA,NA,NA,NA,NA,FALSE,NA,NA,1657.1115,1660.1144,NA,NA,NA,NA,NA,10,25,0,75,75,6,1,2,76,"binary"
"1403A555DC784AEB95EA3FFB5001082E",1,"01990a98-3f5e-7f47-ad08-d61af1d7d1b9","01990a83-7673-7c0c-a792-bbd8fbbaf673","2025-09-02_09h25.00.232",NA,NA,1663.454,1663.454,1663.454,1663.8174,NA,NA,NA,NA,NA,NA,NA,TRUE,1,0.75,1660.4647,1663.4536,NA,NA,NA,NA,NA,7,26,0,76,76,1,1,2,77,"binary"
"1403A555DC784AEB95EA3FFB5001082E",1,"01990a98-3f5e-7f47-ad08-d61af1d7d1b9","01990a83-7673-7c0c-a792-bbd8fbbaf673","2025-09-02_09h25.00.232",NA,NA,1666.8104,1666.8104,1666.8104,1667.1583,NA,NA,NA,NA,NA,NA,NA,TRUE,1,2.4926,1663.8187,1666.8101,NA,NA,NA,NA,NA,30,32,0,77,77,46,1,2,78,"binary"
"1403A555DC784AEB95EA3FFB5001082E",1,"01990a98-3f5e-7f47-ad08-d61af1d7d1b9","01990a83-7673-7c0c-a792-bbd8fbbaf673","2025-09-02_09h25.00.232",NA,NA,1670.1665,1670.4154,1670.4154,1670.5142,NA,NA,NA,NA,NA,NA,NA,FALSE,NA,NA,1667.1595,1670.1662,NA,NA,NA,NA,NA,7,30,0,78,78,3,1,2,79,"binary"
"1403A555DC784AEB95EA3FFB5001082E",1,"01990a98-3f5e-7f47-ad08-d61af1d7d1b9","01990a83-7673-7c0c-a792-bbd8fbbaf673","2025-09-02_09h25.00.232",NA,NA,1673.5031,1673.5031,1673.5031,1673.8521,NA,NA,NA,NA,NA,NA,NA,TRUE,1,1.2596,1670.5155,1673.5028,NA,NA,NA,NA,NA,95,40,0,79,79,81,1,2,80,"binary"
"1403A555DC784AEB95EA3FFB5001082E",1,"01990a98-3f5e-7f47-ad08-d61af1d7d1b9","01990a83-7673-7c0c-a792-bbd8fbbaf673","2025-09-02_09h25.00.232",NA,NA,1676.8685,1676.8686,1676.8686,1677.214,NA,NA,NA,NA,NA,NA,NA,TRUE,2,2.013,1673.8535,1676.8683,NA,NA,NA,NA,NA,21,30,0,80,80,27,1,2,81,"binary"
"1403A555DC784AEB95EA3FFB5001082E",1,"01990a98-3f5e-7f47-ad08-d61af1d7d1b9","01990a83-7673-7c0c-a792-bbd8fbbaf673","2025-09-02_09h25.00.232",NA,NA,1680.2224,1680.2224,1680.2224,1680.5528,NA,NA,NA,NA,NA,NA,NA,TRUE,1,1.1856,1677.2152,1680.222,NA,NA,NA,NA,NA,30,38,0,81,81,47,1,2,82,"binary"
"1403A555DC784AEB95EA3FFB5001082E",1,"01990a98-3f5e-7f47-ad08-d61af1d7d1b9","01990a83-7673-7c0c-a792-bbd8fbbaf673","2025-09-02_09h25.00.232",NA,NA,1683.5675,1683.5675,1683.5675,1683.9117,NA,NA,NA,NA,NA,NA,NA,TRUE,1,1.5121,1680.5539,1683.5673,NA,NA,NA,NA,NA,14,25,0,82,82,18,1,2,83,"binary"
"1403A555DC784AEB95EA3FFB5001082E",1,"01990a98-3f5e-7f47-ad08-d61af1d7d1b9","01990a83-7673-7c0c-a792-bbd8fbbaf673","2025-09-02_09h25.00.232",NA,NA,1686.9038,1686.9038,1686.9038,1687.2638,NA,NA,NA,NA,NA,NA,NA,TRUE,1,1.449,1683.9131,1686.9035,NA,NA,NA,NA,NA,28,35,0,83,83,39,1,2,84,"binary"
"1403A555DC784AEB95EA3FFB5001082E",1,"01990a98-3f5e-7f47-ad08-d61af1d7d1b9","01990a83-7673-7c0c-a792-bbd8fbbaf673","2025-09-02_09h25.00.232",NA,NA,1690.2568,1690.5079,1690.508,1690.6067,NA,NA,NA,NA,NA,NA,NA,FALSE,NA,NA,1687.2649,1690.2566,NA,NA,NA,NA,NA,14,32,0,84,84,21,1,2,85,"binary"
"1403A555DC784AEB95EA3FFB5001082E",1,"01990a98-3f5e-7f47-ad08-d61af1d7d1b9","01990a83-7673-7c0c-a792-bbd8fbbaf673","2025-09-02_09h25.00.232",NA,NA,1693.6079,1693.8579,1693.8579,1693.9581,NA,NA,NA,NA,NA,NA,NA,FALSE,NA,NA,1690.6077,1693.6076,NA,NA,NA,NA,NA,45,29,0,85,85,55,1,2,86,"binary"
"1403A555DC784AEB95EA3FFB5001082E",1,"01990a98-3f5e-7f47-ad08-d61af1d7d1b9","01990a83-7673-7c0c-a792-bbd8fbbaf673","2025-09-02_09h25.00.232",NA,NA,1696.9547,1696.9548,1696.9548,1697.3025,NA,NA,NA,NA,NA,NA,NA,TRUE,1,0.3201,1693.9593,1696.9545,NA,NA,NA,NA,NA,30,27,0,86,86,43,1,2,87,"binary"
"1403A555DC784AEB95EA3FFB5001082E",1,"01990a98-3f5e-7f47-ad08-d61af1d7d1b9","01990a83-7673-7c0c-a792-bbd8fbbaf673","2025-09-02_09h25.00.232",NA,NA,1700.3134,1700.3135,1700.3135,1700.665,NA,NA,NA,NA,NA,NA,NA,TRUE,1,0.8598,1697.304,1700.3131,NA,NA,NA,NA,NA,90,46,0,87,87,76,1,2,88,"binary"
"1403A555DC784AEB95EA3FFB5001082E",1,"01990a98-3f5e-7f47-ad08-d61af1d7d1b9","01990a83-7673-7c0c-a792-bbd8fbbaf673","2025-09-02_09h25.00.232",NA,NA,1703.6532,1703.6533,1703.6533,1704.0186,NA,NA,NA,NA,NA,NA,NA,TRUE,1,0.8695,1700.6661,1703.653,NA,NA,NA,NA,NA,180,27,0,88,88,96,1,2,89,"binary"
"1403A555DC784AEB95EA3FFB5001082E",1,"01990a98-3f5e-7f47-ad08-d61af1d7d1b9","01990a83-7673-7c0c-a792-bbd8fbbaf673","2025-09-02_09h25.00.232",NA,NA,1707.0138,1707.0139,1707.0139,1707.3579,NA,NA,NA,NA,NA,NA,NA,TRUE,1,0.7354,1704.0197,1707.0135,NA,NA,NA,NA,NA,28,32,0,89,89,38,1,2,90,"binary"
"1403A555DC784AEB95EA3FFB5001082E",1,"01990a98-3f5e-7f47-ad08-d61af1d7d1b9","01990a83-7673-7c0c-a792-bbd8fbbaf673","2025-09-02_09h25.00.232",NA,NA,1710.3549,1710.3549,1710.3549,1710.7194,NA,NA,NA,NA,NA,NA,NA,TRUE,1,0.9351,1707.3592,1710.3545,NA,NA,NA,NA,NA,25,33,0,90,90,33,1,2,91,"binary"
"1403A555DC784AEB95EA3FFB5001082E",1,"01990a98-3f5e-7f47-ad08-d61af1d7d1b9","01990a83-7673-7c0c-a792-bbd8fbbaf673","2025-09-02_09h25.00.232",NA,NA,1713.7083,1713.7083,1713.7083,1714.0544,NA,NA,NA,NA,NA,NA,NA,TRUE,1,1.2653,1710.7206,1713.7077,NA,NA,NA,NA,NA,150,33,0,91,91,91,1,2,92,"binary"
"1403A555DC784AEB95EA3FFB5001082E",1,"01990a98-3f5e-7f47-ad08-d61af1d7d1b9","01990a83-7673-7c0c-a792-bbd8fbbaf673","2025-09-02_09h25.00.232",NA,NA,1717.0574,1717.0574,1717.0574,1717.4193,NA,NA,NA,NA,NA,NA,NA,TRUE,1,0.8882,1714.0555,1717.0571,NA,NA,NA,NA,NA,150,35,0,92,92,92,1,2,93,"binary"
"1403A555DC784AEB95EA3FFB5001082E",1,"01990a98-3f5e-7f47-ad08-d61af1d7d1b9","01990a83-7673-7c0c-a792-bbd8fbbaf673","2025-09-02_09h25.00.232",NA,NA,1720.4025,1720.4025,1720.4025,1720.7571,NA,NA,NA,NA,NA,NA,NA,TRUE,1,0.631,1717.421,1720.4022,NA,NA,NA,NA,NA,14,26,0,93,93,19,1,2,94,"binary"
"1403A555DC784AEB95EA3FFB5001082E",1,"01990a98-3f5e-7f47-ad08-d61af1d7d1b9","01990a83-7673-7c0c-a792-bbd8fbbaf673","2025-09-02_09h25.00.232",NA,NA,1723.766,1723.766,1723.766,1724.1149,NA,NA,NA,NA,NA,NA,NA,TRUE,1,0.748,1720.7583,1723.7657,NA,NA,NA,NA,NA,200,35,0,94,94,104,1,2,95,"binary"
"1403A555DC784AEB95EA3FFB5001082E",1,"01990a98-3f5e-7f47-ad08-d61af1d7d1b9","01990a83-7673-7c0c-a792-bbd8fbbaf673","2025-09-02_09h25.00.232",NA,NA,1727.1122,1727.1122,1727.1122,1727.4634,NA,NA,NA,NA,NA,NA,NA,TRUE,1,0.9416,1724.116,1727.1119,NA,NA,NA,NA,NA,40,40,0,95,95,51,1,2,96,"binary"
"1403A555DC784AEB95EA3FFB5001082E",1,"01990a98-3f5e-7f47-ad08-d61af1d7d1b9","01990a83-7673-7c0c-a792-bbd8fbbaf673","2025-09-02_09h25.00.232",NA,NA,1730.4553,1730.4554,1730.4554,1730.8016,NA,NA,NA,NA,NA,NA,NA,TRUE,1,0.8077,1727.4646,1730.4552,NA,NA,NA,NA,NA,40,35,0,96,96,50,1,2,97,"binary"
"1403A555DC784AEB95EA3FFB5001082E",1,"01990a98-3f5e-7f47-ad08-d61af1d7d1b9","01990a83-7673-7c0c-a792-bbd8fbbaf673","2025-09-02_09h25.00.232",NA,NA,1733.8105,1733.8105,1733.8105,1734.1545,NA,NA,NA,NA,NA,NA,NA,TRUE,1,0.5736,1730.8028,1733.8102,NA,NA,NA,NA,NA,60,47,0,97,97,70,1,2,98,"binary"
"1403A555DC784AEB95EA3FFB5001082E",1,"01990a98-3f5e-7f47-ad08-d61af1d7d1b9","01990a83-7673-7c0c-a792-bbd8fbbaf673","2025-09-02_09h25.00.232",NA,NA,1737.1535,1737.4206,1737.4206,1737.5194,NA,NA,NA,NA,NA,NA,NA,FALSE,NA,NA,1734.1556,1737.1532,NA,NA,NA,NA,NA,90,30,0,98,98,73,1,2,99,"binary"
"1403A555DC784AEB95EA3FFB5001082E",1,"01990a98-3f5e-7f47-ad08-d61af1d7d1b9","01990a83-7673-7c0c-a792-bbd8fbbaf673","2025-09-02_09h25.00.232",NA,NA,1740.5181,1740.5181,1740.5181,1740.8642,NA,NA,NA,NA,NA,NA,NA,TRUE,1,2.1323,1737.5205,1740.5177,NA,NA,NA,NA,NA,50,54,0,99,99,65,1,2,100,"binary"
"1403A555DC784AEB95EA3FFB5001082E",1,"01990a98-3f5e-7f47-ad08-d61af1d7d1b9","01990a83-7673-7c0c-a792-bbd8fbbaf673","2025-09-02_09h25.00.232",NA,NA,1743.8563,1743.8563,1743.8563,1744.2096,NA,NA,NA,NA,NA,NA,NA,TRUE,1,0.6408,1740.8652,1743.8561,NA,NA,NA,NA,NA,45,26,0,100,100,54,1,2,101,"binary"
"1403A555DC784AEB95EA3FFB5001082E",1,"01990a98-3f5e-7f47-ad08-d61af1d7d1b9","01990a83-7673-7c0c-a792-bbd8fbbaf673","2025-09-02_09h25.00.232",NA,NA,1747.2141,1747.2142,1747.2142,1747.5614,NA,NA,NA,NA,NA,NA,NA,TRUE,1,0.6752,1744.2107,1747.2138,NA,NA,NA,NA,NA,60,54,0,101,101,71,1,2,102,"binary"
"1403A555DC784AEB95EA3FFB5001082E",1,"01990a98-3f5e-7f47-ad08-d61af1d7d1b9","01990a83-7673-7c0c-a792-bbd8fbbaf673","2025-09-02_09h25.00.232",NA,NA,1750.5529,1750.5529,1750.5529,1750.9051,NA,NA,NA,NA,NA,NA,NA,TRUE,1,0.8244,1747.5625,1750.5527,NA,NA,NA,NA,NA,50,40,0,102,102,63,1,2,103,"binary"
"1403A555DC784AEB95EA3FFB5001082E",1,"01990a98-3f5e-7f47-ad08-d61af1d7d1b9","01990a83-7673-7c0c-a792-bbd8fbbaf673","2025-09-02_09h25.00.232",NA,NA,1753.907,1753.907,1753.907,1754.2542,NA,NA,NA,NA,NA,NA,NA,TRUE,1,0.8261,1750.9062,1753.9068,NA,NA,NA,NA,NA,12,25,0,103,103,12,1,2,104,"binary"
"1403A555DC784AEB95EA3FFB5001082E",1,"01990a98-3f5e-7f47-ad08-d61af1d7d1b9","01990a83-7673-7c0c-a792-bbd8fbbaf673","2025-09-02_09h25.00.232",NA,NA,1757.2595,1757.2595,1757.2595,1757.6036,NA,NA,NA,NA,NA,NA,NA,TRUE,1,0.9268,1754.2552,1757.2593,NA,NA,NA,NA,NA,25,27,0,104,104,30,1,2,105,"binary"
"1403A555DC784AEB95EA3FFB5001082E",1,"01990a98-3f5e-7f47-ad08-d61af1d7d1b9","01990a83-7673-7c0c-a792-bbd8fbbaf673","2025-09-02_09h25.00.232",NA,NA,1760.6064,1760.6064,1760.6064,1760.954,NA,NA,NA,NA,NA,NA,NA,TRUE,1,0.6677,1757.6048,1760.6062,NA,NA,NA,NA,NA,200,26,0,105,105,102,1,2,106,"binary"
"1403A555DC784AEB95EA3FFB5001082E",1,"01990a98-3f5e-7f47-ad08-d61af1d7d1b9","01990a83-7673-7c0c-a792-bbd8fbbaf673","2025-09-02_09h25.00.232",NA,NA,1763.9617,1763.9617,1763.9617,1764.3086,NA,NA,NA,NA,NA,NA,NA,TRUE,1,0.9656,1760.9553,1763.9613,NA,NA,NA,NA,NA,180,31,0,106,106,97,1,2,107,"binary"
"1403A555DC784AEB95EA3FFB5001082E",1,"01990a98-3f5e-7f47-ad08-d61af1d7d1b9","01990a83-7673-7c0c-a792-bbd8fbbaf673","2025-09-02_09h25.00.232",NA,NA,1767.3087,1767.3087,1767.3087,1767.6557,NA,NA,NA,NA,NA,NA,NA,TRUE,1,0.9268,1764.3098,1767.3085,NA,NA,NA,NA,NA,60,33,0,107,107,67,1,2,108,"binary"
