"participant","session","assignmentId","projectId","date","practiceTrial.started","practiceTrial.stopped","tooLate.started","tooLate.stopped","blank.started","blank.stopped","trials_pract.thisRepN","trials_pract.thisTrialN","trials_pract.thisN","trials_pract.thisIndex","trials_pract.ran","delay_pract","amount_pract","responseMade","key","rt","trial.started","trial.stopped","trials.thisRepN","trials.thisTrialN","trials.thisN","trials.thisIndex","trials.ran","delay","amount","trials_2.thisRepN","trials_2.thisTrialN","trials_2.thisN","trials_2.thisIndex","trials_2.ran","block","trial","taskType"
"171DEC1860E7498A962991D13A17DE21",1,"01990a98-0b5f-7ac2-804d-7a7dc0856a7e","01990a83-7673-7c0c-a792-bbd8fbbaf673","2025-09-02_22h23.28.628",66.4628,69.4012,69.4046,69.6546,69.6551,69.7538,0,0,0,3,1,3,27,FALSE,NA,NA,NA,NA,NA,NA,NA,NA,NA,NA,NA,NA,NA,NA,NA,NA,0,1,"binary"
"171DEC1860E7498A962991D13A17DE21",1,"01990a98-0b5f-7ac2-804d-7a7dc0856a7e","01990a83-7673-7c0c-a792-bbd8fbbaf673","2025-09-02_22h23.28.628",69.7585,72.7494,72.7501,72.7503,72.7507,73.0989,0,1,1,1,1,100,50,TRUE,2,1.4977,NA,NA,NA,NA,NA,NA,NA,NA,NA,NA,NA,NA,NA,NA,0,2,"binary"
"171DEC1860E7498A962991D13A17DE21",1,"01990a98-0b5f-7ac2-804d-7a7dc0856a7e","01990a83-7673-7c0c-a792-bbd8fbbaf673","2025-09-02_22h23.28.628",73.1047,76.1003,76.1005,76.1006,76.1007,76.4479,0,2,2,2,1,14,45,TRUE,2,1.1708,NA,NA,NA,NA,NA,NA,NA,NA,NA,NA,NA,NA,NA,NA,0,3,"binary"
"171DEC1860E7498A962991D13A17DE21",1,"01990a98-0b5f-7ac2-804d-7a7dc0856a7e","01990a83-7673-7c0c-a792-bbd8fbbaf673","2025-09-02_22h23.28.628",76.4535,79.4482,79.4488,79.4489,79.4489,79.8008,0,3,3,0,1,7,30,TRUE,1,1.2192,NA,NA,NA,NA,NA,NA,NA,NA,NA,NA,NA,NA,NA,NA,0,4,"binary"
"171DEC1860E7498A962991D13A17DE21",1,"01990a98-0b5f-7ac2-804d-7a7dc0856a7e","01990a83-7673-7c0c-a792-bbd8fbbaf673","2025-09-02_22h23.28.628",79.8082,82.7969,82.7974,82.7975,82.7976,83.147,0,4,4,4,1,30,40,TRUE,2,0.8255,NA,NA,NA,NA,NA,NA,NA,NA,NA,NA,NA,NA,NA,NA,0,5,"binary"
"171DEC1860E7498A962991D13A17DE21",1,"01990a98-0b5f-7ac2-804d-7a7dc0856a7e","01990a83-7673-7c0c-a792-bbd8fbbaf673","2025-09-02_22h23.28.628",NA,NA,111.5712,111.5719,111.5726,111.9194,NA,NA,NA,NA,NA,NA,NA,TRUE,2,1.0958,108.6112,111.5698,0,0,0,33,1,25,33,NA,NA,NA,NA,NA,1,1,"binary"
"171DEC1860E7498A962991D13A17DE21",1,"01990a98-0b5f-7ac2-804d-7a7dc0856a7e","01990a83-7673-7c0c-a792-bbd8fbbaf673","2025-09-02_22h23.28.628",NA,NA,114.9197,114.9198,114.92,115.2684,NA,NA,NA,NA,NA,NA,NA,TRUE,2,1.4077,111.9271,114.9189,0,1,1,47,1,30,38,NA,NA,NA,NA,NA,1,2,"binary"
"171DEC1860E7498A962991D13A17DE21",1,"01990a98-0b5f-7ac2-804d-7a7dc0856a7e","01990a83-7673-7c0c-a792-bbd8fbbaf673","2025-09-02_22h23.28.628",NA,NA,118.2669,118.2672,118.2674,118.6161,NA,NA,NA,NA,NA,NA,NA,TRUE,2,1.0683,115.2735,118.2663,0,2,2,11,1,10,32,NA,NA,NA,NA,NA,1,3,"binary"
"171DEC1860E7498A962991D13A17DE21",1,"01990a98-0b5f-7ac2-804d-7a7dc0856a7e","01990a83-7673-7c0c-a792-bbd8fbbaf673","2025-09-02_22h23.28.628",NA,NA,121.6167,121.6168,121.6168,121.9662,NA,NA,NA,NA,NA,NA,NA,TRUE,1,1.8478,118.6184,121.6164,0,3,3,78,1,95,31,NA,NA,NA,NA,NA,1,4,"binary"
"171DEC1860E7498A962991D13A17DE21",1,"01990a98-0b5f-7ac2-804d-7a7dc0856a7e","01990a83-7673-7c0c-a792-bbd8fbbaf673","2025-09-02_22h23.28.628",NA,NA,124.9653,124.9654,124.9655,125.3153,NA,NA,NA,NA,NA,NA,NA,TRUE,2,0.7466,121.9691,124.9645,0,4,4,89,1,100,54,NA,NA,NA,NA,NA,1,5,"binary"
"171DEC1860E7498A962991D13A17DE21",1,"01990a98-0b5f-7ac2-804d-7a7dc0856a7e","01990a83-7673-7c0c-a792-bbd8fbbaf673","2025-09-02_22h23.28.628",NA,NA,128.3147,128.3148,128.3151,128.6642,NA,NA,NA,NA,NA,NA,NA,TRUE,2,0.7626,125.3192,128.3143,0,5,5,35,1,25,46,NA,NA,NA,NA,NA,1,6,"binary"
"171DEC1860E7498A962991D13A17DE21",1,"01990a98-0b5f-7ac2-804d-7a7dc0856a7e","01990a83-7673-7c0c-a792-bbd8fbbaf673","2025-09-02_22h23.28.628",NA,NA,131.6638,131.664,131.6641,132.0124,NA,NA,NA,NA,NA,NA,NA,TRUE,2,0.6963,128.6677,131.6626,0,6,6,106,1,200,47,NA,NA,NA,NA,NA,1,7,"binary"
"171DEC1860E7498A962991D13A17DE21",1,"01990a98-0b5f-7ac2-804d-7a7dc0856a7e","01990a83-7673-7c0c-a792-bbd8fbbaf673","2025-09-02_22h23.28.628",NA,NA,135.0135,135.0138,135.0139,135.3772,NA,NA,NA,NA,NA,NA,NA,TRUE,2,1.0762,132.0192,135.0133,0,7,7,58,1,45,40,NA,NA,NA,NA,NA,1,8,"binary"
"171DEC1860E7498A962991D13A17DE21",1,"01990a98-0b5f-7ac2-804d-7a7dc0856a7e","01990a83-7673-7c0c-a792-bbd8fbbaf673","2025-09-02_22h23.28.628",NA,NA,138.3634,138.3637,138.3638,138.7123,NA,NA,NA,NA,NA,NA,NA,TRUE,1,1.3861,135.3793,138.363,0,8,8,97,1,180,31,NA,NA,NA,NA,NA,1,9,"binary"
"171DEC1860E7498A962991D13A17DE21",1,"01990a98-0b5f-7ac2-804d-7a7dc0856a7e","01990a83-7673-7c0c-a792-bbd8fbbaf673","2025-09-02_22h23.28.628",NA,NA,141.7291,141.7295,141.7296,142.0746,NA,NA,NA,NA,NA,NA,NA,TRUE,2,1.1231,138.7164,141.7289,0,9,9,28,1,21,32,NA,NA,NA,NA,NA,1,10,"binary"
"171DEC1860E7498A962991D13A17DE21",1,"01990a98-0b5f-7ac2-804d-7a7dc0856a7e","01990a83-7673-7c0c-a792-bbd8fbbaf673","2025-09-02_22h23.28.628",NA,NA,145.0784,145.0787,145.0788,145.4258,NA,NA,NA,NA,NA,NA,NA,TRUE,2,1.4824,142.0774,145.078,0,10,10,77,1,90,54,NA,NA,NA,NA,NA,1,11,"binary"
"171DEC1860E7498A962991D13A17DE21",1,"01990a98-0b5f-7ac2-804d-7a7dc0856a7e","01990a83-7673-7c0c-a792-bbd8fbbaf673","2025-09-02_22h23.28.628",NA,NA,148.4239,148.4241,148.4242,148.7744,NA,NA,NA,NA,NA,NA,NA,TRUE,1,1.0258,145.4293,148.4231,0,11,11,72,1,90,26,NA,NA,NA,NA,NA,1,12,"binary"
"171DEC1860E7498A962991D13A17DE21",1,"01990a98-0b5f-7ac2-804d-7a7dc0856a7e","01990a83-7673-7c0c-a792-bbd8fbbaf673","2025-09-02_22h23.28.628",NA,NA,151.7727,151.7728,151.7728,152.1219,NA,NA,NA,NA,NA,NA,NA,TRUE,1,1.8831,148.7796,151.7721,0,12,12,99,1,180,39,NA,NA,NA,NA,NA,1,13,"binary"
"171DEC1860E7498A962991D13A17DE21",1,"01990a98-0b5f-7ac2-804d-7a7dc0856a7e","01990a83-7673-7c0c-a792-bbd8fbbaf673","2025-09-02_22h23.28.628",NA,NA,155.1241,155.1245,155.1246,155.4744,NA,NA,NA,NA,NA,NA,NA,TRUE,1,1.2052,152.1269,155.1238,0,13,13,13,1,12,26,NA,NA,NA,NA,NA,1,14,"binary"
"171DEC1860E7498A962991D13A17DE21",1,"01990a98-0b5f-7ac2-804d-7a7dc0856a7e","01990a83-7673-7c0c-a792-bbd8fbbaf673","2025-09-02_22h23.28.628",NA,NA,158.4707,158.4711,158.4713,158.8195,NA,NA,NA,NA,NA,NA,NA,TRUE,2,1.1205,155.4779,158.47,0,14,14,17,1,12,35,NA,NA,NA,NA,NA,1,15,"binary"
"171DEC1860E7498A962991D13A17DE21",1,"01990a98-0b5f-7ac2-804d-7a7dc0856a7e","01990a83-7673-7c0c-a792-bbd8fbbaf673","2025-09-02_22h23.28.628",NA,NA,161.8198,161.8199,161.82,162.168,NA,NA,NA,NA,NA,NA,NA,TRUE,1,1.2701,158.8235,161.8188,0,15,15,80,1,95,35,NA,NA,NA,NA,NA,1,16,"binary"
"171DEC1860E7498A962991D13A17DE21",1,"01990a98-0b5f-7ac2-804d-7a7dc0856a7e","01990a83-7673-7c0c-a792-bbd8fbbaf673","2025-09-02_22h23.28.628",NA,NA,165.1685,165.1686,165.1688,165.5171,NA,NA,NA,NA,NA,NA,NA,TRUE,1,1.3482,162.1706,165.1674,0,16,16,85,1,100,31,NA,NA,NA,NA,NA,1,17,"binary"
"171DEC1860E7498A962991D13A17DE21",1,"01990a98-0b5f-7ac2-804d-7a7dc0856a7e","01990a83-7673-7c0c-a792-bbd8fbbaf673","2025-09-02_22h23.28.628",NA,NA,168.5205,168.5207,168.5208,168.8658,NA,NA,NA,NA,NA,NA,NA,TRUE,1,1.3146,165.5203,168.5202,0,17,17,25,1,21,27,NA,NA,NA,NA,NA,1,18,"binary"
"171DEC1860E7498A962991D13A17DE21",1,"01990a98-0b5f-7ac2-804d-7a7dc0856a7e","01990a83-7673-7c0c-a792-bbd8fbbaf673","2025-09-02_22h23.28.628",NA,NA,171.8662,171.8664,171.8665,172.2153,NA,NA,NA,NA,NA,NA,NA,TRUE,1,1.6122,168.8691,171.8652,0,18,18,107,1,200,54,NA,NA,NA,NA,NA,1,19,"binary"
"171DEC1860E7498A962991D13A17DE21",1,"01990a98-0b5f-7ac2-804d-7a7dc0856a7e","01990a83-7673-7c0c-a792-bbd8fbbaf673","2025-09-02_22h23.28.628",NA,NA,175.2157,175.2162,175.2163,175.5646,NA,NA,NA,NA,NA,NA,NA,TRUE,1,1.5451,172.2211,175.2147,0,19,19,1,1,7,26,NA,NA,NA,NA,NA,1,20,"binary"
"171DEC1860E7498A962991D13A17DE21",1,"01990a98-0b5f-7ac2-804d-7a7dc0856a7e","01990a83-7673-7c0c-a792-bbd8fbbaf673","2025-09-02_22h23.28.628",NA,NA,178.5638,178.5639,178.5639,178.9145,NA,NA,NA,NA,NA,NA,NA,TRUE,1,2.2783,175.5698,178.5628,0,20,20,49,1,40,33,NA,NA,NA,NA,NA,1,21,"binary"
"171DEC1860E7498A962991D13A17DE21",1,"01990a98-0b5f-7ac2-804d-7a7dc0856a7e","01990a83-7673-7c0c-a792-bbd8fbbaf673","2025-09-02_22h23.28.628",NA,NA,181.9145,181.9146,181.9146,182.2783,NA,NA,NA,NA,NA,NA,NA,TRUE,1,1.6004,178.9166,181.9143,0,21,21,55,1,45,29,NA,NA,NA,NA,NA,1,22,"binary"
"171DEC1860E7498A962991D13A17DE21",1,"01990a98-0b5f-7ac2-804d-7a7dc0856a7e","01990a83-7673-7c0c-a792-bbd8fbbaf673","2025-09-02_22h23.28.628",NA,NA,185.28,185.2802,185.2803,185.6276,NA,NA,NA,NA,NA,NA,NA,TRUE,1,1.0674,182.2846,185.2782,0,22,22,46,1,30,32,NA,NA,NA,NA,NA,1,23,"binary"
"171DEC1860E7498A962991D13A17DE21",1,"01990a98-0b5f-7ac2-804d-7a7dc0856a7e","01990a83-7673-7c0c-a792-bbd8fbbaf673","2025-09-02_22h23.28.628",NA,NA,188.6133,188.6134,188.6134,188.9761,NA,NA,NA,NA,NA,NA,NA,TRUE,1,1.1648,185.6345,188.6127,0,23,23,0,1,7,25,NA,NA,NA,NA,NA,1,24,"binary"
"171DEC1860E7498A962991D13A17DE21",1,"01990a98-0b5f-7ac2-804d-7a7dc0856a7e","01990a83-7673-7c0c-a792-bbd8fbbaf673","2025-09-02_22h23.28.628",NA,NA,191.9796,191.9801,191.9802,192.3242,NA,NA,NA,NA,NA,NA,NA,TRUE,1,1.301,188.9796,191.9792,0,24,24,6,1,10,25,NA,NA,NA,NA,NA,1,25,"binary"
"171DEC1860E7498A962991D13A17DE21",1,"01990a98-0b5f-7ac2-804d-7a7dc0856a7e","01990a83-7673-7c0c-a792-bbd8fbbaf673","2025-09-02_22h23.28.628",NA,NA,195.3258,195.3265,195.3266,195.6744,NA,NA,NA,NA,NA,NA,NA,TRUE,1,0.9237,192.3268,195.3247,0,25,25,61,1,50,30,NA,NA,NA,NA,NA,1,26,"binary"
"171DEC1860E7498A962991D13A17DE21",1,"01990a98-0b5f-7ac2-804d-7a7dc0856a7e","01990a83-7673-7c0c-a792-bbd8fbbaf673","2025-09-02_22h23.28.628",NA,NA,198.6775,198.6776,198.6777,199.0226,NA,NA,NA,NA,NA,NA,NA,TRUE,1,1.2551,195.6797,198.677,0,26,26,2,1,7,28,NA,NA,NA,NA,NA,1,27,"binary"
"171DEC1860E7498A962991D13A17DE21",1,"01990a98-0b5f-7ac2-804d-7a7dc0856a7e","01990a83-7673-7c0c-a792-bbd8fbbaf673","2025-09-02_22h23.28.628",NA,NA,202.0227,202.0229,202.0229,202.3733,NA,NA,NA,NA,NA,NA,NA,TRUE,1,1.3019,199.0289,202.0221,0,27,27,75,1,90,40,NA,NA,NA,NA,NA,1,28,"binary"
"171DEC1860E7498A962991D13A17DE21",1,"01990a98-0b5f-7ac2-804d-7a7dc0856a7e","01990a83-7673-7c0c-a792-bbd8fbbaf673","2025-09-02_22h23.28.628",NA,NA,205.3745,205.3751,205.3752,205.7203,NA,NA,NA,NA,NA,NA,NA,TRUE,1,1.3965,202.3752,205.3742,0,28,28,60,1,50,27,NA,NA,NA,NA,NA,1,29,"binary"
"171DEC1860E7498A962991D13A17DE21",1,"01990a98-0b5f-7ac2-804d-7a7dc0856a7e","01990a83-7673-7c0c-a792-bbd8fbbaf673","2025-09-02_22h23.28.628",NA,NA,208.7243,208.7249,208.7251,209.0694,NA,NA,NA,NA,NA,NA,NA,TRUE,2,2.0004,205.7245,208.7237,0,29,29,71,1,60,54,NA,NA,NA,NA,NA,1,30,"binary"
"171DEC1860E7498A962991D13A17DE21",1,"01990a98-0b5f-7ac2-804d-7a7dc0856a7e","01990a83-7673-7c0c-a792-bbd8fbbaf673","2025-09-02_22h23.28.628",NA,NA,212.0693,212.0694,212.0695,212.4182,NA,NA,NA,NA,NA,NA,NA,TRUE,2,2.0865,209.0745,212.0686,0,30,30,69,1,60,40,NA,NA,NA,NA,NA,1,31,"binary"
"171DEC1860E7498A962991D13A17DE21",1,"01990a98-0b5f-7ac2-804d-7a7dc0856a7e","01990a83-7673-7c0c-a792-bbd8fbbaf673","2025-09-02_22h23.28.628",NA,NA,215.4181,215.4183,215.4183,215.7678,NA,NA,NA,NA,NA,NA,NA,TRUE,1,1.1447,212.4233,215.4175,0,31,31,42,1,30,26,NA,NA,NA,NA,NA,1,32,"binary"
"171DEC1860E7498A962991D13A17DE21",1,"01990a98-0b5f-7ac2-804d-7a7dc0856a7e","01990a83-7673-7c0c-a792-bbd8fbbaf673","2025-09-02_22h23.28.628",NA,NA,218.7704,218.7705,218.7706,219.1192,NA,NA,NA,NA,NA,NA,NA,TRUE,1,0.9692,215.7744,218.77,0,32,32,26,1,21,29,NA,NA,NA,NA,NA,1,33,"binary"
"171DEC1860E7498A962991D13A17DE21",1,"01990a98-0b5f-7ac2-804d-7a7dc0856a7e","01990a83-7673-7c0c-a792-bbd8fbbaf673","2025-09-02_22h23.28.628",NA,NA,222.1158,222.1162,222.1164,222.4653,NA,NA,NA,NA,NA,NA,NA,TRUE,1,1.5751,219.1235,222.1151,0,33,33,93,1,150,40,NA,NA,NA,NA,NA,1,34,"binary"
"171DEC1860E7498A962991D13A17DE21",1,"01990a98-0b5f-7ac2-804d-7a7dc0856a7e","01990a83-7673-7c0c-a792-bbd8fbbaf673","2025-09-02_22h23.28.628",NA,NA,225.4651,225.4654,225.4656,225.8151,NA,NA,NA,NA,NA,NA,NA,TRUE,1,1.6032,222.4711,225.4645,0,34,34,14,1,12,28,NA,NA,NA,NA,NA,1,35,"binary"
"171DEC1860E7498A962991D13A17DE21",1,"01990a98-0b5f-7ac2-804d-7a7dc0856a7e","01990a83-7673-7c0c-a792-bbd8fbbaf673","2025-09-02_22h23.28.628",NA,NA,228.8139,228.8141,228.8145,229.1622,NA,NA,NA,NA,NA,NA,NA,TRUE,2,1.3147,225.8201,228.8126,0,35,35,5,1,7,35,NA,NA,NA,NA,NA,1,36,"binary"
"171DEC1860E7498A962991D13A17DE21",1,"01990a98-0b5f-7ac2-804d-7a7dc0856a7e","01990a83-7673-7c0c-a792-bbd8fbbaf673","2025-09-02_22h23.28.628",NA,NA,232.1814,232.1817,232.1817,232.515,NA,NA,NA,NA,NA,NA,NA,TRUE,1,1.1357,229.1666,232.1811,0,36,36,95,1,150,54,NA,NA,NA,NA,NA,1,37,"binary"
"171DEC1860E7498A962991D13A17DE21",1,"01990a98-0b5f-7ac2-804d-7a7dc0856a7e","01990a83-7673-7c0c-a792-bbd8fbbaf673","2025-09-02_22h23.28.628",NA,NA,235.5149,235.515,235.5151,235.8637,NA,NA,NA,NA,NA,NA,NA,TRUE,1,1.3813,232.5185,235.5147,0,37,37,24,1,21,26,NA,NA,NA,NA,NA,1,38,"binary"
"171DEC1860E7498A962991D13A17DE21",1,"01990a98-0b5f-7ac2-804d-7a7dc0856a7e","01990a83-7673-7c0c-a792-bbd8fbbaf673","2025-09-02_22h23.28.628",NA,NA,238.8768,238.8774,238.8775,239.2253,NA,NA,NA,NA,NA,NA,NA,TRUE,2,2.016,235.867,238.8763,0,38,38,4,1,7,32,NA,NA,NA,NA,NA,1,39,"binary"
"171DEC1860E7498A962991D13A17DE21",1,"01990a98-0b5f-7ac2-804d-7a7dc0856a7e","01990a83-7673-7c0c-a792-bbd8fbbaf673","2025-09-02_22h23.28.628",NA,NA,242.2263,242.2265,242.2267,242.5737,NA,NA,NA,NA,NA,NA,NA,TRUE,2,1.6104,239.2295,242.2255,0,39,39,15,1,12,31,NA,NA,NA,NA,NA,1,40,"binary"
"171DEC1860E7498A962991D13A17DE21",1,"01990a98-0b5f-7ac2-804d-7a7dc0856a7e","01990a83-7673-7c0c-a792-bbd8fbbaf673","2025-09-02_22h23.28.628",NA,NA,245.5751,245.5752,245.5753,245.9242,NA,NA,NA,NA,NA,NA,NA,TRUE,1,1.3368,242.5763,245.5742,0,40,40,105,1,200,39,NA,NA,NA,NA,NA,1,41,"binary"
"171DEC1860E7498A962991D13A17DE21",1,"01990a98-0b5f-7ac2-804d-7a7dc0856a7e","01990a83-7673-7c0c-a792-bbd8fbbaf673","2025-09-02_22h23.28.628",NA,NA,248.9243,248.925,248.9251,249.2715,NA,NA,NA,NA,NA,NA,NA,TRUE,2,2.0177,245.9281,248.9238,0,41,41,23,1,14,39,NA,NA,NA,NA,NA,1,42,"binary"
"171DEC1860E7498A962991D13A17DE21",1,"01990a98-0b5f-7ac2-804d-7a7dc0856a7e","01990a83-7673-7c0c-a792-bbd8fbbaf673","2025-09-02_22h23.28.628",NA,NA,252.2721,252.2722,252.2723,252.6255,NA,NA,NA,NA,NA,NA,NA,TRUE,2,2.3237,249.2746,252.2714,0,42,42,59,1,45,46,NA,NA,NA,NA,NA,1,43,"binary"
"171DEC1860E7498A962991D13A17DE21",1,"01990a98-0b5f-7ac2-804d-7a7dc0856a7e","01990a83-7673-7c0c-a792-bbd8fbbaf673","2025-09-02_22h23.28.628",NA,NA,255.6203,255.6205,255.6209,255.97,NA,NA,NA,NA,NA,NA,NA,TRUE,1,1.2469,252.6302,255.6197,0,43,43,74,1,90,33,NA,NA,NA,NA,NA,1,44,"binary"
"171DEC1860E7498A962991D13A17DE21",1,"01990a98-0b5f-7ac2-804d-7a7dc0856a7e","01990a83-7673-7c0c-a792-bbd8fbbaf673","2025-09-02_22h23.28.628",NA,NA,258.9686,258.9689,258.9691,259.318,NA,NA,NA,NA,NA,NA,NA,TRUE,1,0.9109,255.976,258.9683,0,44,44,18,1,14,25,NA,NA,NA,NA,NA,1,45,"binary"
"171DEC1860E7498A962991D13A17DE21",1,"01990a98-0b5f-7ac2-804d-7a7dc0856a7e","01990a83-7673-7c0c-a792-bbd8fbbaf673","2025-09-02_22h23.28.628",NA,NA,262.3184,262.3186,262.3187,262.6669,NA,NA,NA,NA,NA,NA,NA,TRUE,1,1.8109,259.3209,262.3177,0,45,45,44,1,30,29,NA,NA,NA,NA,NA,1,46,"binary"
"171DEC1860E7498A962991D13A17DE21",1,"01990a98-0b5f-7ac2-804d-7a7dc0856a7e","01990a83-7673-7c0c-a792-bbd8fbbaf673","2025-09-02_22h23.28.628",NA,NA,265.6682,265.6686,265.6688,266.0163,NA,NA,NA,NA,NA,NA,NA,TRUE,2,2.0148,262.6696,265.6673,0,46,46,70,1,60,47,NA,NA,NA,NA,NA,1,47,"binary"
"171DEC1860E7498A962991D13A17DE21",1,"01990a98-0b5f-7ac2-804d-7a7dc0856a7e","01990a83-7673-7c0c-a792-bbd8fbbaf673","2025-09-02_22h23.28.628",NA,NA,269.0164,269.0167,269.0168,269.3688,NA,NA,NA,NA,NA,NA,NA,TRUE,1,1.547,266.0195,269.0159,0,47,47,9,1,10,29,NA,NA,NA,NA,NA,1,48,"binary"
"171DEC1860E7498A962991D13A17DE21",1,"01990a98-0b5f-7ac2-804d-7a7dc0856a7e","01990a83-7673-7c0c-a792-bbd8fbbaf673","2025-09-02_22h23.28.628",NA,NA,272.3651,272.3654,272.3655,272.7176,NA,NA,NA,NA,NA,NA,NA,TRUE,1,1.6312,269.3719,272.3644,0,48,48,36,1,28,26,NA,NA,NA,NA,NA,1,49,"binary"
"171DEC1860E7498A962991D13A17DE21",1,"01990a98-0b5f-7ac2-804d-7a7dc0856a7e","01990a83-7673-7c0c-a792-bbd8fbbaf673","2025-09-02_22h23.28.628",NA,NA,275.7165,275.7166,275.7166,276.0645,NA,NA,NA,NA,NA,NA,NA,TRUE,1,0.8701,272.7204,275.7163,0,49,49,37,1,28,28,NA,NA,NA,NA,NA,1,50,"binary"
"171DEC1860E7498A962991D13A17DE21",1,"01990a98-0b5f-7ac2-804d-7a7dc0856a7e","01990a83-7673-7c0c-a792-bbd8fbbaf673","2025-09-02_22h23.28.628",NA,NA,279.0629,279.0634,279.0637,279.4158,NA,NA,NA,NA,NA,NA,NA,TRUE,1,1.6914,276.0706,279.0621,0,50,50,34,1,25,35,NA,NA,NA,NA,NA,1,51,"binary"
"171DEC1860E7498A962991D13A17DE21",1,"01990a98-0b5f-7ac2-804d-7a7dc0856a7e","01990a83-7673-7c0c-a792-bbd8fbbaf673","2025-09-02_22h23.28.628",NA,NA,282.4286,282.4289,282.429,282.7776,NA,NA,NA,NA,NA,NA,NA,TRUE,1,1.6039,279.4205,282.4282,0,51,51,48,1,40,27,NA,NA,NA,NA,NA,1,52,"binary"
"171DEC1860E7498A962991D13A17DE21",1,"01990a98-0b5f-7ac2-804d-7a7dc0856a7e","01990a83-7673-7c0c-a792-bbd8fbbaf673","2025-09-02_22h23.28.628",NA,NA,285.765,285.7651,285.7651,286.114,NA,NA,NA,NA,NA,NA,NA,TRUE,2,2.4346,282.7821,285.7641,0,52,52,29,1,21,38,NA,NA,NA,NA,NA,1,53,"binary"
"171DEC1860E7498A962991D13A17DE21",1,"01990a98-0b5f-7ac2-804d-7a7dc0856a7e","01990a83-7673-7c0c-a792-bbd8fbbaf673","2025-09-02_22h23.28.628",NA,NA,289.1135,289.1138,289.1139,289.4752,NA,NA,NA,NA,NA,NA,NA,TRUE,2,1.5187,286.1184,289.113,0,53,53,16,1,12,33,NA,NA,NA,NA,NA,1,54,"binary"
"171DEC1860E7498A962991D13A17DE21",1,"01990a98-0b5f-7ac2-804d-7a7dc0856a7e","01990a83-7673-7c0c-a792-bbd8fbbaf673","2025-09-02_22h23.28.628",NA,NA,292.4765,292.4767,292.4767,292.8263,NA,NA,NA,NA,NA,NA,NA,TRUE,2,2.1212,289.48,292.4752,0,54,54,50,1,40,35,NA,NA,NA,NA,NA,1,55,"binary"
"171DEC1860E7498A962991D13A17DE21",1,"01990a98-0b5f-7ac2-804d-7a7dc0856a7e","01990a83-7673-7c0c-a792-bbd8fbbaf673","2025-09-02_22h23.28.628",NA,NA,295.8245,295.8248,295.8249,296.1726,NA,NA,NA,NA,NA,NA,NA,TRUE,2,1.2717,292.8294,295.8238,0,55,55,40,1,28,39,NA,NA,NA,NA,NA,1,56,"binary"
"171DEC1860E7498A962991D13A17DE21",1,"01990a98-0b5f-7ac2-804d-7a7dc0856a7e","01990a83-7673-7c0c-a792-bbd8fbbaf673","2025-09-02_22h23.28.628",NA,NA,299.1768,299.177,299.1771,299.5219,NA,NA,NA,NA,NA,NA,NA,TRUE,1,2.6254,296.1756,299.1765,0,56,56,45,1,30,30,NA,NA,NA,NA,NA,1,57,"binary"
"171DEC1860E7498A962991D13A17DE21",1,"01990a98-0b5f-7ac2-804d-7a7dc0856a7e","01990a83-7673-7c0c-a792-bbd8fbbaf673","2025-09-02_22h23.28.628",NA,NA,302.5203,302.5204,302.5204,302.8698,NA,NA,NA,NA,NA,NA,NA,TRUE,2,1.3591,299.5283,302.5198,0,57,57,41,1,28,46,NA,NA,NA,NA,NA,1,58,"binary"
"171DEC1860E7498A962991D13A17DE21",1,"01990a98-0b5f-7ac2-804d-7a7dc0856a7e","01990a83-7673-7c0c-a792-bbd8fbbaf673","2025-09-02_22h23.28.628",NA,NA,305.8691,305.8694,305.8696,306.2186,NA,NA,NA,NA,NA,NA,NA,TRUE,2,1.3199,302.8726,305.8687,0,58,58,3,1,7,30,NA,NA,NA,NA,NA,1,59,"binary"
"171DEC1860E7498A962991D13A17DE21",1,"01990a98-0b5f-7ac2-804d-7a7dc0856a7e","01990a83-7673-7c0c-a792-bbd8fbbaf673","2025-09-02_22h23.28.628",NA,NA,309.22,309.2203,309.2203,309.568,NA,NA,NA,NA,NA,NA,NA,TRUE,1,1.3318,306.2212,309.2196,0,59,59,66,1,60,29,NA,NA,NA,NA,NA,1,60,"binary"
"171DEC1860E7498A962991D13A17DE21",1,"01990a98-0b5f-7ac2-804d-7a7dc0856a7e","01990a83-7673-7c0c-a792-bbd8fbbaf673","2025-09-02_22h23.28.628",NA,NA,312.5686,312.5687,312.5687,312.9215,NA,NA,NA,NA,NA,NA,NA,TRUE,1,0.9263,309.5702,312.5682,0,60,60,7,1,10,26,NA,NA,NA,NA,NA,1,61,"binary"
"171DEC1860E7498A962991D13A17DE21",1,"01990a98-0b5f-7ac2-804d-7a7dc0856a7e","01990a83-7673-7c0c-a792-bbd8fbbaf673","2025-09-02_22h23.28.628",NA,NA,315.9177,315.918,315.9181,316.2665,NA,NA,NA,NA,NA,NA,NA,TRUE,1,1.0201,312.9257,315.9171,0,61,61,92,1,150,35,NA,NA,NA,NA,NA,1,62,"binary"
"171DEC1860E7498A962991D13A17DE21",1,"01990a98-0b5f-7ac2-804d-7a7dc0856a7e","01990a83-7673-7c0c-a792-bbd8fbbaf673","2025-09-02_22h23.28.628",NA,NA,319.2685,319.2685,319.2685,319.6147,NA,NA,NA,NA,NA,NA,NA,TRUE,1,1.4524,316.2717,319.2681,0,62,62,57,1,45,35,NA,NA,NA,NA,NA,1,63,"binary"
"171DEC1860E7498A962991D13A17DE21",1,"01990a98-0b5f-7ac2-804d-7a7dc0856a7e","01990a83-7673-7c0c-a792-bbd8fbbaf673","2025-09-02_22h23.28.628",NA,NA,322.6156,322.6156,322.6158,322.9681,NA,NA,NA,NA,NA,NA,NA,TRUE,1,1.28,319.6189,322.6148,0,63,63,104,1,200,35,NA,NA,NA,NA,NA,1,64,"binary"
"171DEC1860E7498A962991D13A17DE21",1,"01990a98-0b5f-7ac2-804d-7a7dc0856a7e","01990a83-7673-7c0c-a792-bbd8fbbaf673","2025-09-02_22h23.28.628",NA,NA,325.9643,325.9644,325.9645,326.3125,NA,NA,NA,NA,NA,NA,NA,TRUE,1,1.101,322.9722,325.9631,0,64,64,100,1,180,46,NA,NA,NA,NA,NA,1,65,"binary"
"171DEC1860E7498A962991D13A17DE21",1,"01990a98-0b5f-7ac2-804d-7a7dc0856a7e","01990a83-7673-7c0c-a792-bbd8fbbaf673","2025-09-02_22h23.28.628",NA,NA,329.3126,329.5651,329.5651,329.678,NA,NA,NA,NA,NA,NA,NA,FALSE,NA,NA,326.3176,329.3119,0,65,65,39,1,28,35,NA,NA,NA,NA,NA,1,66,"binary"
"171DEC1860E7498A962991D13A17DE21",1,"01990a98-0b5f-7ac2-804d-7a7dc0856a7e","01990a83-7673-7c0c-a792-bbd8fbbaf673","2025-09-02_22h23.28.628",NA,NA,332.666,332.6662,332.6662,333.0151,NA,NA,NA,NA,NA,NA,NA,TRUE,1,1.8841,329.6817,332.6653,0,66,66,87,1,100,39,NA,NA,NA,NA,NA,1,67,"binary"
"171DEC1860E7498A962991D13A17DE21",1,"01990a98-0b5f-7ac2-804d-7a7dc0856a7e","01990a83-7673-7c0c-a792-bbd8fbbaf673","2025-09-02_22h23.28.628",NA,NA,336.0151,336.0156,336.0157,336.3754,NA,NA,NA,NA,NA,NA,NA,TRUE,1,2.1351,333.0203,336.0143,0,67,67,62,1,50,35,NA,NA,NA,NA,NA,1,68,"binary"
"171DEC1860E7498A962991D13A17DE21",1,"01990a98-0b5f-7ac2-804d-7a7dc0856a7e","01990a83-7673-7c0c-a792-bbd8fbbaf673","2025-09-02_22h23.28.628",NA,NA,339.376,339.3762,339.3763,339.7246,NA,NA,NA,NA,NA,NA,NA,TRUE,1,1.0854,336.3776,339.3754,0,68,68,90,1,150,31,NA,NA,NA,NA,NA,1,69,"binary"
"171DEC1860E7498A962991D13A17DE21",1,"01990a98-0b5f-7ac2-804d-7a7dc0856a7e","01990a83-7673-7c0c-a792-bbd8fbbaf673","2025-09-02_22h23.28.628",NA,NA,342.7249,342.7253,342.7254,343.0742,NA,NA,NA,NA,NA,NA,NA,TRUE,1,0.9007,339.7293,342.7241,0,69,69,84,1,100,26,NA,NA,NA,NA,NA,1,70,"binary"
"171DEC1860E7498A962991D13A17DE21",1,"01990a98-0b5f-7ac2-804d-7a7dc0856a7e","01990a83-7673-7c0c-a792-bbd8fbbaf673","2025-09-02_22h23.28.628",NA,NA,346.0745,346.0751,346.0753,346.4238,NA,NA,NA,NA,NA,NA,NA,TRUE,1,0.8202,343.0782,346.0728,0,70,70,73,1,90,30,NA,NA,NA,NA,NA,1,71,"binary"
"171DEC1860E7498A962991D13A17DE21",1,"01990a98-0b5f-7ac2-804d-7a7dc0856a7e","01990a83-7673-7c0c-a792-bbd8fbbaf673","2025-09-02_22h23.28.628",NA,NA,349.4226,349.4226,349.423,349.771,NA,NA,NA,NA,NA,NA,NA,TRUE,1,1.002,346.4251,349.4219,0,71,71,31,1,25,29,NA,NA,NA,NA,NA,1,72,"binary"
"171DEC1860E7498A962991D13A17DE21",1,"01990a98-0b5f-7ac2-804d-7a7dc0856a7e","01990a83-7673-7c0c-a792-bbd8fbbaf673","2025-09-02_22h23.28.628",NA,NA,352.7712,352.7713,352.7714,353.1241,NA,NA,NA,NA,NA,NA,NA,TRUE,2,2.5757,349.7739,352.7705,0,72,72,83,1,95,54,NA,NA,NA,NA,NA,1,73,"binary"
"171DEC1860E7498A962991D13A17DE21",1,"01990a98-0b5f-7ac2-804d-7a7dc0856a7e","01990a83-7673-7c0c-a792-bbd8fbbaf673","2025-09-02_22h23.28.628",NA,NA,356.1202,356.1202,356.1205,356.4691,NA,NA,NA,NA,NA,NA,NA,TRUE,1,0.8834,353.1288,356.1196,0,73,73,8,1,10,27,NA,NA,NA,NA,NA,1,74,"binary"
"171DEC1860E7498A962991D13A17DE21",1,"01990a98-0b5f-7ac2-804d-7a7dc0856a7e","01990a83-7673-7c0c-a792-bbd8fbbaf673","2025-09-02_22h23.28.628",NA,NA,359.4695,359.4697,359.4698,359.8183,NA,NA,NA,NA,NA,NA,NA,TRUE,1,1.646,356.4739,359.4683,0,74,74,67,1,60,33,NA,NA,NA,NA,NA,1,75,"binary"
"171DEC1860E7498A962991D13A17DE21",1,"01990a98-0b5f-7ac2-804d-7a7dc0856a7e","01990a83-7673-7c0c-a792-bbd8fbbaf673","2025-09-02_22h23.28.628",NA,NA,362.8183,362.8183,362.8184,363.1672,NA,NA,NA,NA,NA,NA,NA,TRUE,1,1.1084,359.825,362.8176,0,75,75,76,1,90,46,NA,NA,NA,NA,NA,1,76,"binary"
"171DEC1860E7498A962991D13A17DE21",1,"01990a98-0b5f-7ac2-804d-7a7dc0856a7e","01990a83-7673-7c0c-a792-bbd8fbbaf673","2025-09-02_22h23.28.628",NA,NA,366.1662,366.1664,366.1667,366.5161,NA,NA,NA,NA,NA,NA,NA,TRUE,1,1.0463,363.1712,366.1657,0,76,76,94,1,150,47,NA,NA,NA,NA,NA,1,77,"binary"
"171DEC1860E7498A962991D13A17DE21",1,"01990a98-0b5f-7ac2-804d-7a7dc0856a7e","01990a83-7673-7c0c-a792-bbd8fbbaf673","2025-09-02_22h23.28.628",NA,NA,369.516,369.5162,369.5166,369.8651,NA,NA,NA,NA,NA,NA,NA,TRUE,1,0.9726,366.5223,369.5156,0,77,77,82,1,95,47,NA,NA,NA,NA,NA,1,78,"binary"
"171DEC1860E7498A962991D13A17DE21",1,"01990a98-0b5f-7ac2-804d-7a7dc0856a7e","01990a83-7673-7c0c-a792-bbd8fbbaf673","2025-09-02_22h23.28.628",NA,NA,372.8656,372.8662,372.8663,373.2145,NA,NA,NA,NA,NA,NA,NA,TRUE,1,1.2735,369.8689,372.8644,0,78,78,20,1,14,28,NA,NA,NA,NA,NA,1,79,"binary"
"171DEC1860E7498A962991D13A17DE21",1,"01990a98-0b5f-7ac2-804d-7a7dc0856a7e","01990a83-7673-7c0c-a792-bbd8fbbaf673","2025-09-02_22h23.28.628",NA,NA,376.2126,376.2129,376.2134,376.5618,NA,NA,NA,NA,NA,NA,NA,TRUE,1,1.1073,373.2205,376.2122,0,79,79,103,1,200,28,NA,NA,NA,NA,NA,1,80,"binary"
"171DEC1860E7498A962991D13A17DE21",1,"01990a98-0b5f-7ac2-804d-7a7dc0856a7e","01990a83-7673-7c0c-a792-bbd8fbbaf673","2025-09-02_22h23.28.628",NA,NA,379.5784,379.5789,379.5789,379.9137,NA,NA,NA,NA,NA,NA,NA,TRUE,2,1.9642,376.5646,379.5776,0,80,80,10,1,10,30,NA,NA,NA,NA,NA,1,81,"binary"
"171DEC1860E7498A962991D13A17DE21",1,"01990a98-0b5f-7ac2-804d-7a7dc0856a7e","01990a83-7673-7c0c-a792-bbd8fbbaf673","2025-09-02_22h23.28.628",NA,NA,382.9316,382.9321,382.9323,383.2769,NA,NA,NA,NA,NA,NA,NA,TRUE,1,0.906,379.9179,382.9313,0,81,81,98,1,180,35,NA,NA,NA,NA,NA,1,82,"binary"
"171DEC1860E7498A962991D13A17DE21",1,"01990a98-0b5f-7ac2-804d-7a7dc0856a7e","01990a83-7673-7c0c-a792-bbd8fbbaf673","2025-09-02_22h23.28.628",NA,NA,386.2621,386.2622,386.2622,386.6285,NA,NA,NA,NA,NA,NA,NA,TRUE,1,1.8652,383.2841,386.2619,0,82,82,27,1,21,30,NA,NA,NA,NA,NA,1,83,"binary"
"171DEC1860E7498A962991D13A17DE21",1,"01990a98-0b5f-7ac2-804d-7a7dc0856a7e","01990a83-7673-7c0c-a792-bbd8fbbaf673","2025-09-02_22h23.28.628",NA,NA,389.6289,389.6293,389.6293,389.9776,NA,NA,NA,NA,NA,NA,NA,TRUE,2,1.9076,386.632,389.6286,0,83,83,52,1,40,47,NA,NA,NA,NA,NA,1,84,"binary"
"171DEC1860E7498A962991D13A17DE21",1,"01990a98-0b5f-7ac2-804d-7a7dc0856a7e","01990a83-7673-7c0c-a792-bbd8fbbaf673","2025-09-02_22h23.28.628",NA,NA,392.9748,392.9751,392.9752,393.325,NA,NA,NA,NA,NA,NA,NA,TRUE,1,2.1591,389.9805,392.9742,0,84,84,32,1,25,31,NA,NA,NA,NA,NA,1,85,"binary"
"171DEC1860E7498A962991D13A17DE21",1,"01990a98-0b5f-7ac2-804d-7a7dc0856a7e","01990a83-7673-7c0c-a792-bbd8fbbaf673","2025-09-02_22h23.28.628",NA,NA,396.3246,396.325,396.3251,396.6728,NA,NA,NA,NA,NA,NA,NA,TRUE,2,1.2792,393.3285,396.3224,0,85,85,63,1,50,40,NA,NA,NA,NA,NA,1,86,"binary"
"171DEC1860E7498A962991D13A17DE21",1,"01990a98-0b5f-7ac2-804d-7a7dc0856a7e","01990a83-7673-7c0c-a792-bbd8fbbaf673","2025-09-02_22h23.28.628",NA,NA,399.6752,399.6753,399.6754,400.0244,NA,NA,NA,NA,NA,NA,NA,TRUE,2,1.5252,396.6785,399.6749,0,86,86,53,1,40,54,NA,NA,NA,NA,NA,1,87,"binary"
"171DEC1860E7498A962991D13A17DE21",1,"01990a98-0b5f-7ac2-804d-7a7dc0856a7e","01990a83-7673-7c0c-a792-bbd8fbbaf673","2025-09-02_22h23.28.628",NA,NA,403.021,403.0214,403.0215,403.3737,NA,NA,NA,NA,NA,NA,NA,TRUE,1,2.1358,400.0281,403.0199,0,87,87,38,1,28,32,NA,NA,NA,NA,NA,1,88,"binary"
"171DEC1860E7498A962991D13A17DE21",1,"01990a98-0b5f-7ac2-804d-7a7dc0856a7e","01990a83-7673-7c0c-a792-bbd8fbbaf673","2025-09-02_22h23.28.628",NA,NA,406.3701,406.3702,406.3702,406.719,NA,NA,NA,NA,NA,NA,NA,TRUE,1,1.0666,403.3775,406.3691,0,88,88,54,1,45,26,NA,NA,NA,NA,NA,1,89,"binary"
"171DEC1860E7498A962991D13A17DE21",1,"01990a98-0b5f-7ac2-804d-7a7dc0856a7e","01990a83-7673-7c0c-a792-bbd8fbbaf673","2025-09-02_22h23.28.628",NA,NA,409.7188,409.7189,409.719,410.0673,NA,NA,NA,NA,NA,NA,NA,TRUE,1,1.194,406.7242,409.7183,0,89,89,19,1,14,26,NA,NA,NA,NA,NA,1,90,"binary"
"171DEC1860E7498A962991D13A17DE21",1,"01990a98-0b5f-7ac2-804d-7a7dc0856a7e","01990a83-7673-7c0c-a792-bbd8fbbaf673","2025-09-02_22h23.28.628",NA,NA,413.0682,413.0683,413.0683,413.4173,NA,NA,NA,NA,NA,NA,NA,TRUE,1,1.035,410.0704,413.0669,0,90,90,79,1,95,33,NA,NA,NA,NA,NA,1,91,"binary"
"171DEC1860E7498A962991D13A17DE21",1,"01990a98-0b5f-7ac2-804d-7a7dc0856a7e","01990a83-7673-7c0c-a792-bbd8fbbaf673","2025-09-02_22h23.28.628",NA,NA,416.4172,416.4173,416.4174,416.7656,NA,NA,NA,NA,NA,NA,NA,TRUE,1,0.8871,413.4226,416.416,0,91,91,88,1,100,46,NA,NA,NA,NA,NA,1,92,"binary"
"171DEC1860E7498A962991D13A17DE21",1,"01990a98-0b5f-7ac2-804d-7a7dc0856a7e","01990a83-7673-7c0c-a792-bbd8fbbaf673","2025-09-02_22h23.28.628",NA,NA,419.7654,419.7655,419.7659,420.1143,NA,NA,NA,NA,NA,NA,NA,TRUE,1,0.9098,416.7711,419.7649,0,92,92,12,1,12,25,NA,NA,NA,NA,NA,1,93,"binary"
"171DEC1860E7498A962991D13A17DE21",1,"01990a98-0b5f-7ac2-804d-7a7dc0856a7e","01990a83-7673-7c0c-a792-bbd8fbbaf673","2025-09-02_22h23.28.628",NA,NA,423.1167,423.1168,423.1168,423.4639,NA,NA,NA,NA,NA,NA,NA,TRUE,1,0.8291,420.1182,423.1165,0,93,93,102,1,200,26,NA,NA,NA,NA,NA,1,94,"binary"
"171DEC1860E7498A962991D13A17DE21",1,"01990a98-0b5f-7ac2-804d-7a7dc0856a7e","01990a83-7673-7c0c-a792-bbd8fbbaf673","2025-09-02_22h23.28.628",NA,NA,426.4643,426.4646,426.4646,426.8282,NA,NA,NA,NA,NA,NA,NA,TRUE,1,1.095,423.4682,426.4626,0,94,94,22,1,14,35,NA,NA,NA,NA,NA,1,95,"binary"
"171DEC1860E7498A962991D13A17DE21",1,"01990a98-0b5f-7ac2-804d-7a7dc0856a7e","01990a83-7673-7c0c-a792-bbd8fbbaf673","2025-09-02_22h23.28.628",NA,NA,429.8324,429.833,429.8333,430.1772,NA,NA,NA,NA,NA,NA,NA,TRUE,1,1.5655,426.8304,429.832,0,95,95,56,1,45,31,NA,NA,NA,NA,NA,1,96,"binary"
"171DEC1860E7498A962991D13A17DE21",1,"01990a98-0b5f-7ac2-804d-7a7dc0856a7e","01990a83-7673-7c0c-a792-bbd8fbbaf673","2025-09-02_22h23.28.628",NA,NA,433.165,433.1652,433.1657,433.5265,NA,NA,NA,NA,NA,NA,NA,TRUE,1,2.3695,430.1811,433.1645,0,96,96,21,1,14,32,NA,NA,NA,NA,NA,1,97,"binary"
"171DEC1860E7498A962991D13A17DE21",1,"01990a98-0b5f-7ac2-804d-7a7dc0856a7e","01990a83-7673-7c0c-a792-bbd8fbbaf673","2025-09-02_22h23.28.628",NA,NA,436.5139,436.5144,436.5146,436.8757,NA,NA,NA,NA,NA,NA,NA,TRUE,1,1.5591,433.5321,436.5135,0,97,97,43,1,30,27,NA,NA,NA,NA,NA,1,98,"binary"
"171DEC1860E7498A962991D13A17DE21",1,"01990a98-0b5f-7ac2-804d-7a7dc0856a7e","01990a83-7673-7c0c-a792-bbd8fbbaf673","2025-09-02_22h23.28.628",NA,NA,439.8755,439.8757,439.8758,440.2238,NA,NA,NA,NA,NA,NA,NA,TRUE,1,1.0325,436.8811,439.8747,0,98,98,30,1,25,27,NA,NA,NA,NA,NA,1,99,"binary"
"171DEC1860E7498A962991D13A17DE21",1,"01990a98-0b5f-7ac2-804d-7a7dc0856a7e","01990a83-7673-7c0c-a792-bbd8fbbaf673","2025-09-02_22h23.28.628",NA,NA,443.2246,443.2247,443.2249,443.5727,NA,NA,NA,NA,NA,NA,NA,TRUE,1,1.1073,440.2259,443.2242,0,99,99,91,1,150,33,NA,NA,NA,NA,NA,1,100,"binary"
"171DEC1860E7498A962991D13A17DE21",1,"01990a98-0b5f-7ac2-804d-7a7dc0856a7e","01990a83-7673-7c0c-a792-bbd8fbbaf673","2025-09-02_22h23.28.628",NA,NA,446.5739,446.5741,446.5744,446.9262,NA,NA,NA,NA,NA,NA,NA,TRUE,1,0.9841,443.5778,446.5724,0,100,100,96,1,180,27,NA,NA,NA,NA,NA,1,101,"binary"
"171DEC1860E7498A962991D13A17DE21",1,"01990a98-0b5f-7ac2-804d-7a7dc0856a7e","01990a83-7673-7c0c-a792-bbd8fbbaf673","2025-09-02_22h23.28.628",NA,NA,449.9216,449.9216,449.9216,450.2705,NA,NA,NA,NA,NA,NA,NA,TRUE,2,1.9806,446.931,449.9209,0,101,101,65,1,50,54,NA,NA,NA,NA,NA,1,102,"binary"
"171DEC1860E7498A962991D13A17DE21",1,"01990a98-0b5f-7ac2-804d-7a7dc0856a7e","01990a83-7673-7c0c-a792-bbd8fbbaf673","2025-09-02_22h23.28.628",NA,NA,453.2696,453.2698,453.2699,453.6193,NA,NA,NA,NA,NA,NA,NA,TRUE,2,1.2377,450.2732,453.269,0,102,102,51,1,40,40,NA,NA,NA,NA,NA,1,103,"binary"
"171DEC1860E7498A962991D13A17DE21",1,"01990a98-0b5f-7ac2-804d-7a7dc0856a7e","01990a83-7673-7c0c-a792-bbd8fbbaf673","2025-09-02_22h23.28.628",NA,NA,456.6198,456.62,456.6201,456.968,NA,NA,NA,NA,NA,NA,NA,TRUE,1,0.9182,453.6246,456.6189,0,103,103,81,1,95,40,NA,NA,NA,NA,NA,1,104,"binary"
"171DEC1860E7498A962991D13A17DE21",1,"01990a98-0b5f-7ac2-804d-7a7dc0856a7e","01990a83-7673-7c0c-a792-bbd8fbbaf673","2025-09-02_22h23.28.628",NA,NA,459.9681,459.9683,459.9684,460.3176,NA,NA,NA,NA,NA,NA,NA,TRUE,1,1.1315,456.9722,459.9674,0,104,104,86,1,100,38,NA,NA,NA,NA,NA,1,105,"binary"
"171DEC1860E7498A962991D13A17DE21",1,"01990a98-0b5f-7ac2-804d-7a7dc0856a7e","01990a83-7673-7c0c-a792-bbd8fbbaf673","2025-09-02_22h23.28.628",NA,NA,463.3169,463.317,463.3173,463.6663,NA,NA,NA,NA,NA,NA,NA,TRUE,1,1.0323,460.322,463.3162,0,105,105,101,1,180,54,NA,NA,NA,NA,NA,1,106,"binary"
"171DEC1860E7498A962991D13A17DE21",1,"01990a98-0b5f-7ac2-804d-7a7dc0856a7e","01990a83-7673-7c0c-a792-bbd8fbbaf673","2025-09-02_22h23.28.628",NA,NA,466.6667,466.6668,466.6669,467.0173,NA,NA,NA,NA,NA,NA,NA,TRUE,1,1.5605,463.6711,466.6655,0,106,106,68,1,60,35,NA,NA,NA,NA,NA,1,107,"binary"
"171DEC1860E7498A962991D13A17DE21",1,"01990a98-0b5f-7ac2-804d-7a7dc0856a7e","01990a83-7673-7c0c-a792-bbd8fbbaf673","2025-09-02_22h23.28.628",NA,NA,470.0156,470.0159,470.0159,470.3645,NA,NA,NA,NA,NA,NA,NA,TRUE,2,2.4041,467.0246,470.015,0,107,107,64,1,50,46,NA,NA,NA,NA,NA,1,108,"binary"
"171DEC1860E7498A962991D13A17DE21",1,"01990a98-0b5f-7ac2-804d-7a7dc0856a7e","01990a83-7673-7c0c-a792-bbd8fbbaf673","2025-09-02_22h23.28.628",NA,NA,476.8116,476.8117,476.8118,477.1612,NA,NA,NA,NA,NA,NA,NA,TRUE,1,1.4742,473.8611,476.8113,NA,NA,NA,NA,NA,40,27,0,0,0,48,1,2,1,"binary"
"171DEC1860E7498A962991D13A17DE21",1,"01990a98-0b5f-7ac2-804d-7a7dc0856a7e","01990a83-7673-7c0c-a792-bbd8fbbaf673","2025-09-02_22h23.28.628",NA,NA,480.1606,480.1607,480.1607,480.5102,NA,NA,NA,NA,NA,NA,NA,TRUE,1,0.8916,477.1669,480.1603,NA,NA,NA,NA,NA,100,26,0,1,1,84,1,2,2,"binary"
"171DEC1860E7498A962991D13A17DE21",1,"01990a98-0b5f-7ac2-804d-7a7dc0856a7e","01990a83-7673-7c0c-a792-bbd8fbbaf673","2025-09-02_22h23.28.628",NA,NA,483.5088,483.5089,483.5091,483.8586,NA,NA,NA,NA,NA,NA,NA,TRUE,1,0.7427,480.516,483.5087,NA,NA,NA,NA,NA,25,29,0,2,2,31,1,2,3,"binary"
"171DEC1860E7498A962991D13A17DE21",1,"01990a98-0b5f-7ac2-804d-7a7dc0856a7e","01990a83-7673-7c0c-a792-bbd8fbbaf673","2025-09-02_22h23.28.628",NA,NA,486.8587,486.859,486.859,487.2079,NA,NA,NA,NA,NA,NA,NA,TRUE,2,0.9792,483.862,486.8582,NA,NA,NA,NA,NA,40,40,0,3,3,51,1,2,4,"binary"
"171DEC1860E7498A962991D13A17DE21",1,"01990a98-0b5f-7ac2-804d-7a7dc0856a7e","01990a83-7673-7c0c-a792-bbd8fbbaf673","2025-09-02_22h23.28.628",NA,NA,490.2242,490.2245,490.2246,490.5571,NA,NA,NA,NA,NA,NA,NA,TRUE,1,1.0991,487.2137,490.2236,NA,NA,NA,NA,NA,95,47,0,4,4,82,1,2,5,"binary"
"171DEC1860E7498A962991D13A17DE21",1,"01990a98-0b5f-7ac2-804d-7a7dc0856a7e","01990a83-7673-7c0c-a792-bbd8fbbaf673","2025-09-02_22h23.28.628",NA,NA,493.5722,493.5725,493.5725,493.9222,NA,NA,NA,NA,NA,NA,NA,TRUE,1,2.0856,490.5632,493.572,NA,NA,NA,NA,NA,21,32,0,5,5,28,1,2,6,"binary"
"171DEC1860E7498A962991D13A17DE21",1,"01990a98-0b5f-7ac2-804d-7a7dc0856a7e","01990a83-7673-7c0c-a792-bbd8fbbaf673","2025-09-02_22h23.28.628",NA,NA,496.922,496.9222,496.9224,497.2713,NA,NA,NA,NA,NA,NA,NA,TRUE,1,0.8742,493.9295,496.9215,NA,NA,NA,NA,NA,7,26,0,6,6,1,1,2,7,"binary"
"171DEC1860E7498A962991D13A17DE21",1,"01990a98-0b5f-7ac2-804d-7a7dc0856a7e","01990a83-7673-7c0c-a792-bbd8fbbaf673","2025-09-02_22h23.28.628",NA,NA,500.2708,500.271,500.2713,500.62,NA,NA,NA,NA,NA,NA,NA,TRUE,1,0.6703,497.2784,500.2705,NA,NA,NA,NA,NA,30,27,0,7,7,43,1,2,8,"binary"
"171DEC1860E7498A962991D13A17DE21",1,"01990a98-0b5f-7ac2-804d-7a7dc0856a7e","01990a83-7673-7c0c-a792-bbd8fbbaf673","2025-09-02_22h23.28.628",NA,NA,503.6196,503.6201,503.6203,503.9692,NA,NA,NA,NA,NA,NA,NA,TRUE,2,0.9409,500.6269,503.6192,NA,NA,NA,NA,NA,45,46,0,8,8,59,1,2,9,"binary"
"171DEC1860E7498A962991D13A17DE21",1,"01990a98-0b5f-7ac2-804d-7a7dc0856a7e","01990a83-7673-7c0c-a792-bbd8fbbaf673","2025-09-02_22h23.28.628",NA,NA,506.9684,506.9686,506.9687,507.3178,NA,NA,NA,NA,NA,NA,NA,TRUE,1,0.8563,503.9761,506.968,NA,NA,NA,NA,NA,90,40,0,9,9,75,1,2,10,"binary"
"171DEC1860E7498A962991D13A17DE21",1,"01990a98-0b5f-7ac2-804d-7a7dc0856a7e","01990a83-7673-7c0c-a792-bbd8fbbaf673","2025-09-02_22h23.28.628",NA,NA,510.3174,510.3175,510.3179,510.6663,NA,NA,NA,NA,NA,NA,NA,TRUE,1,0.9967,507.3229,510.317,NA,NA,NA,NA,NA,180,46,0,10,10,100,1,2,11,"binary"
"171DEC1860E7498A962991D13A17DE21",1,"01990a98-0b5f-7ac2-804d-7a7dc0856a7e","01990a83-7673-7c0c-a792-bbd8fbbaf673","2025-09-02_22h23.28.628",NA,NA,513.6657,513.6657,513.6658,514.0149,NA,NA,NA,NA,NA,NA,NA,TRUE,2,1.0854,510.6702,513.6653,NA,NA,NA,NA,NA,28,46,0,11,11,41,1,2,12,"binary"
"171DEC1860E7498A962991D13A17DE21",1,"01990a98-0b5f-7ac2-804d-7a7dc0856a7e","01990a83-7673-7c0c-a792-bbd8fbbaf673","2025-09-02_22h23.28.628",NA,NA,517.0143,517.0144,517.0145,517.3637,NA,NA,NA,NA,NA,NA,NA,TRUE,1,0.8762,514.0183,517.0139,NA,NA,NA,NA,NA,30,29,0,12,12,44,1,2,13,"binary"
"171DEC1860E7498A962991D13A17DE21",1,"01990a98-0b5f-7ac2-804d-7a7dc0856a7e","01990a83-7673-7c0c-a792-bbd8fbbaf673","2025-09-02_22h23.28.628",NA,NA,520.3636,520.3637,520.3637,520.7132,NA,NA,NA,NA,NA,NA,NA,TRUE,1,1.486,517.3686,520.3633,NA,NA,NA,NA,NA,28,28,0,13,13,37,1,2,14,"binary"
"171DEC1860E7498A962991D13A17DE21",1,"01990a98-0b5f-7ac2-804d-7a7dc0856a7e","01990a83-7673-7c0c-a792-bbd8fbbaf673","2025-09-02_22h23.28.628",NA,NA,523.7127,523.7131,523.7133,524.0623,NA,NA,NA,NA,NA,NA,NA,TRUE,1,2.0261,520.7189,523.7123,NA,NA,NA,NA,NA,45,31,0,14,14,56,1,2,15,"binary"
"171DEC1860E7498A962991D13A17DE21",1,"01990a98-0b5f-7ac2-804d-7a7dc0856a7e","01990a83-7673-7c0c-a792-bbd8fbbaf673","2025-09-02_22h23.28.628",NA,NA,527.0617,527.0617,527.0619,527.4107,NA,NA,NA,NA,NA,NA,NA,TRUE,1,0.9003,524.0691,527.0612,NA,NA,NA,NA,NA,95,40,0,15,15,81,1,2,16,"binary"
"171DEC1860E7498A962991D13A17DE21",1,"01990a98-0b5f-7ac2-804d-7a7dc0856a7e","01990a83-7673-7c0c-a792-bbd8fbbaf673","2025-09-02_22h23.28.628",NA,NA,530.4105,530.4108,530.4108,530.7592,NA,NA,NA,NA,NA,NA,NA,TRUE,2,2.2382,527.4161,530.4101,NA,NA,NA,NA,NA,12,31,0,16,16,15,1,2,17,"binary"
"171DEC1860E7498A962991D13A17DE21",1,"01990a98-0b5f-7ac2-804d-7a7dc0856a7e","01990a83-7673-7c0c-a792-bbd8fbbaf673","2025-09-02_22h23.28.628",NA,NA,533.7594,533.7595,533.7597,534.1088,NA,NA,NA,NA,NA,NA,NA,TRUE,1,1.1901,530.7632,533.759,NA,NA,NA,NA,NA,25,31,0,17,17,32,1,2,18,"binary"
"171DEC1860E7498A962991D13A17DE21",1,"01990a98-0b5f-7ac2-804d-7a7dc0856a7e","01990a83-7673-7c0c-a792-bbd8fbbaf673","2025-09-02_22h23.28.628",NA,NA,537.1079,537.1079,537.108,537.4573,NA,NA,NA,NA,NA,NA,NA,TRUE,2,1.1506,534.1157,537.1075,NA,NA,NA,NA,NA,40,47,0,18,18,52,1,2,19,"binary"
"171DEC1860E7498A962991D13A17DE21",1,"01990a98-0b5f-7ac2-804d-7a7dc0856a7e","01990a83-7673-7c0c-a792-bbd8fbbaf673","2025-09-02_22h23.28.628",NA,NA,540.4738,540.4741,540.4744,540.8232,NA,NA,NA,NA,NA,NA,NA,TRUE,2,1.621,537.4619,540.4734,NA,NA,NA,NA,NA,7,35,0,19,19,5,1,2,20,"binary"
"171DEC1860E7498A962991D13A17DE21",1,"01990a98-0b5f-7ac2-804d-7a7dc0856a7e","01990a83-7673-7c0c-a792-bbd8fbbaf673","2025-09-02_22h23.28.628",NA,NA,543.8234,543.8242,543.8243,544.1716,NA,NA,NA,NA,NA,NA,NA,TRUE,1,1.67,540.8288,543.8223,NA,NA,NA,NA,NA,12,26,0,20,20,13,1,2,21,"binary"
"171DEC1860E7498A962991D13A17DE21",1,"01990a98-0b5f-7ac2-804d-7a7dc0856a7e","01990a83-7673-7c0c-a792-bbd8fbbaf673","2025-09-02_22h23.28.628",NA,NA,547.1708,547.1712,547.1713,547.5207,NA,NA,NA,NA,NA,NA,NA,TRUE,2,1.8515,544.1772,547.1707,NA,NA,NA,NA,NA,12,35,0,21,21,17,1,2,22,"binary"
"171DEC1860E7498A962991D13A17DE21",1,"01990a98-0b5f-7ac2-804d-7a7dc0856a7e","01990a83-7673-7c0c-a792-bbd8fbbaf673","2025-09-02_22h23.28.628",NA,NA,550.5191,550.5191,550.5191,550.8691,NA,NA,NA,NA,NA,NA,NA,TRUE,1,0.9593,547.5267,550.5189,NA,NA,NA,NA,NA,200,39,0,22,22,105,1,2,23,"binary"
"171DEC1860E7498A962991D13A17DE21",1,"01990a98-0b5f-7ac2-804d-7a7dc0856a7e","01990a83-7673-7c0c-a792-bbd8fbbaf673","2025-09-02_22h23.28.628",NA,NA,553.8684,553.8684,553.8685,554.2179,NA,NA,NA,NA,NA,NA,NA,TRUE,1,2.0315,550.8726,553.8683,NA,NA,NA,NA,NA,45,35,0,23,23,57,1,2,24,"binary"
"171DEC1860E7498A962991D13A17DE21",1,"01990a98-0b5f-7ac2-804d-7a7dc0856a7e","01990a83-7673-7c0c-a792-bbd8fbbaf673","2025-09-02_22h23.28.628",NA,NA,557.2179,557.218,557.2181,557.5672,NA,NA,NA,NA,NA,NA,NA,TRUE,1,1.8651,554.2212,557.2177,NA,NA,NA,NA,NA,25,27,0,24,24,30,1,2,25,"binary"
"171DEC1860E7498A962991D13A17DE21",1,"01990a98-0b5f-7ac2-804d-7a7dc0856a7e","01990a83-7673-7c0c-a792-bbd8fbbaf673","2025-09-02_22h23.28.628",NA,NA,560.5667,560.567,560.567,560.9163,NA,NA,NA,NA,NA,NA,NA,TRUE,1,1.1765,557.5732,560.5664,NA,NA,NA,NA,NA,90,46,0,25,25,76,1,2,26,"binary"
"171DEC1860E7498A962991D13A17DE21",1,"01990a98-0b5f-7ac2-804d-7a7dc0856a7e","01990a83-7673-7c0c-a792-bbd8fbbaf673","2025-09-02_22h23.28.628",NA,NA,563.9148,563.9148,563.9148,564.2644,NA,NA,NA,NA,NA,NA,NA,TRUE,1,2.122,560.9222,563.9147,NA,NA,NA,NA,NA,10,25,0,26,26,6,1,2,27,"binary"
"171DEC1860E7498A962991D13A17DE21",1,"01990a98-0b5f-7ac2-804d-7a7dc0856a7e","01990a83-7673-7c0c-a792-bbd8fbbaf673","2025-09-02_22h23.28.628",NA,NA,567.2641,567.2643,567.2644,567.6136,NA,NA,NA,NA,NA,NA,NA,TRUE,1,1.3099,564.2673,567.2637,NA,NA,NA,NA,NA,60,33,0,27,27,67,1,2,28,"binary"
"171DEC1860E7498A962991D13A17DE21",1,"01990a98-0b5f-7ac2-804d-7a7dc0856a7e","01990a83-7673-7c0c-a792-bbd8fbbaf673","2025-09-02_22h23.28.628",NA,NA,570.614,570.6142,570.6143,570.9632,NA,NA,NA,NA,NA,NA,NA,TRUE,1,1.8794,567.6183,570.6135,NA,NA,NA,NA,NA,12,25,0,28,28,12,1,2,29,"binary"
"171DEC1860E7498A962991D13A17DE21",1,"01990a98-0b5f-7ac2-804d-7a7dc0856a7e","01990a83-7673-7c0c-a792-bbd8fbbaf673","2025-09-02_22h23.28.628",NA,NA,573.9618,573.9619,573.9619,574.3114,NA,NA,NA,NA,NA,NA,NA,TRUE,1,0.8937,570.9695,573.9616,NA,NA,NA,NA,NA,100,31,0,29,29,85,1,2,30,"binary"
"171DEC1860E7498A962991D13A17DE21",1,"01990a98-0b5f-7ac2-804d-7a7dc0856a7e","01990a83-7673-7c0c-a792-bbd8fbbaf673","2025-09-02_22h23.28.628",NA,NA,577.3103,577.3103,577.3103,577.6598,NA,NA,NA,NA,NA,NA,NA,TRUE,2,2.4162,574.3173,577.3101,NA,NA,NA,NA,NA,60,47,0,30,30,70,1,2,31,"binary"
"171DEC1860E7498A962991D13A17DE21",1,"01990a98-0b5f-7ac2-804d-7a7dc0856a7e","01990a83-7673-7c0c-a792-bbd8fbbaf673","2025-09-02_22h23.28.628",NA,NA,580.6597,580.6597,580.6597,581.0095,NA,NA,NA,NA,NA,NA,NA,TRUE,1,1.1267,577.6622,580.6594,NA,NA,NA,NA,NA,200,54,0,31,31,107,1,2,32,"binary"
"171DEC1860E7498A962991D13A17DE21",1,"01990a98-0b5f-7ac2-804d-7a7dc0856a7e","01990a83-7673-7c0c-a792-bbd8fbbaf673","2025-09-02_22h23.28.628",NA,NA,584.0088,584.0091,584.0091,584.3583,NA,NA,NA,NA,NA,NA,NA,TRUE,1,2.0351,581.0161,584.0085,NA,NA,NA,NA,NA,14,26,0,32,32,19,1,2,33,"binary"
"171DEC1860E7498A962991D13A17DE21",1,"01990a98-0b5f-7ac2-804d-7a7dc0856a7e","01990a83-7673-7c0c-a792-bbd8fbbaf673","2025-09-02_22h23.28.628",NA,NA,587.3576,587.3576,587.3576,587.707,NA,NA,NA,NA,NA,NA,NA,TRUE,2,1.8418,584.3647,587.3573,NA,NA,NA,NA,NA,14,39,0,33,33,23,1,2,34,"binary"
"171DEC1860E7498A962991D13A17DE21",1,"01990a98-0b5f-7ac2-804d-7a7dc0856a7e","01990a83-7673-7c0c-a792-bbd8fbbaf673","2025-09-02_22h23.28.628",NA,NA,590.7238,590.7242,590.7243,591.0734,NA,NA,NA,NA,NA,NA,NA,TRUE,1,1.0175,587.7124,590.7233,NA,NA,NA,NA,NA,150,54,0,34,34,95,1,2,35,"binary"
"171DEC1860E7498A962991D13A17DE21",1,"01990a98-0b5f-7ac2-804d-7a7dc0856a7e","01990a83-7673-7c0c-a792-bbd8fbbaf673","2025-09-02_22h23.28.628",NA,NA,594.0723,594.0732,594.0733,594.4217,NA,NA,NA,NA,NA,NA,NA,TRUE,1,1.5461,591.0795,594.0719,NA,NA,NA,NA,NA,30,32,0,35,35,46,1,2,36,"binary"
"171DEC1860E7498A962991D13A17DE21",1,"01990a98-0b5f-7ac2-804d-7a7dc0856a7e","01990a83-7673-7c0c-a792-bbd8fbbaf673","2025-09-02_22h23.28.628",NA,NA,597.4221,597.4224,597.4229,597.7746,NA,NA,NA,NA,NA,NA,NA,TRUE,1,1.4952,594.4291,597.4211,NA,NA,NA,NA,NA,21,30,0,36,36,27,1,2,37,"binary"
"171DEC1860E7498A962991D13A17DE21",1,"01990a98-0b5f-7ac2-804d-7a7dc0856a7e","01990a83-7673-7c0c-a792-bbd8fbbaf673","2025-09-02_22h23.28.628",NA,NA,600.7756,600.7759,600.7761,601.1242,NA,NA,NA,NA,NA,NA,NA,TRUE,1,2.1334,597.7789,600.7743,NA,NA,NA,NA,NA,95,31,0,37,37,78,1,2,38,"binary"
"171DEC1860E7498A962991D13A17DE21",1,"01990a98-0b5f-7ac2-804d-7a7dc0856a7e","01990a83-7673-7c0c-a792-bbd8fbbaf673","2025-09-02_22h23.28.628",NA,NA,604.1192,604.1195,604.1196,604.4686,NA,NA,NA,NA,NA,NA,NA,TRUE,1,0.9723,601.1296,604.1185,NA,NA,NA,NA,NA,180,39,0,38,38,99,1,2,39,"binary"
"171DEC1860E7498A962991D13A17DE21",1,"01990a98-0b5f-7ac2-804d-7a7dc0856a7e","01990a83-7673-7c0c-a792-bbd8fbbaf673","2025-09-02_22h23.28.628",NA,NA,607.4711,607.4715,607.4715,607.8176,NA,NA,NA,NA,NA,NA,NA,TRUE,1,0.8518,604.4749,607.4709,NA,NA,NA,NA,NA,100,38,0,39,39,86,1,2,40,"binary"
"171DEC1860E7498A962991D13A17DE21",1,"01990a98-0b5f-7ac2-804d-7a7dc0856a7e","01990a83-7673-7c0c-a792-bbd8fbbaf673","2025-09-02_22h23.28.628",NA,NA,610.8174,610.8175,610.8176,611.1664,NA,NA,NA,NA,NA,NA,NA,TRUE,2,2.2774,607.8216,610.8165,NA,NA,NA,NA,NA,25,46,0,40,40,35,1,2,41,"binary"
"171DEC1860E7498A962991D13A17DE21",1,"01990a98-0b5f-7ac2-804d-7a7dc0856a7e","01990a83-7673-7c0c-a792-bbd8fbbaf673","2025-09-02_22h23.28.628",NA,NA,614.168,614.1682,614.1683,614.5155,NA,NA,NA,NA,NA,NA,NA,TRUE,1,1.1742,611.1701,614.1677,NA,NA,NA,NA,NA,90,26,0,41,41,72,1,2,42,"binary"
"171DEC1860E7498A962991D13A17DE21",1,"01990a98-0b5f-7ac2-804d-7a7dc0856a7e","01990a83-7673-7c0c-a792-bbd8fbbaf673","2025-09-02_22h23.28.628",NA,NA,617.5153,617.5155,617.5162,617.8644,NA,NA,NA,NA,NA,NA,NA,TRUE,2,2.5179,614.5201,617.5149,NA,NA,NA,NA,NA,90,54,0,42,42,77,1,2,43,"binary"
"171DEC1860E7498A962991D13A17DE21",1,"01990a98-0b5f-7ac2-804d-7a7dc0856a7e","01990a83-7673-7c0c-a792-bbd8fbbaf673","2025-09-02_22h23.28.628",NA,NA,620.8657,620.8657,620.8658,621.2134,NA,NA,NA,NA,NA,NA,NA,TRUE,1,0.8224,617.8704,620.8653,NA,NA,NA,NA,NA,150,31,0,43,43,90,1,2,44,"binary"
"171DEC1860E7498A962991D13A17DE21",1,"01990a98-0b5f-7ac2-804d-7a7dc0856a7e","01990a83-7673-7c0c-a792-bbd8fbbaf673","2025-09-02_22h23.28.628",NA,NA,624.2119,624.212,624.2121,624.5614,NA,NA,NA,NA,NA,NA,NA,TRUE,1,2.022,621.2184,624.2115,NA,NA,NA,NA,NA,45,29,0,44,44,55,1,2,45,"binary"
"171DEC1860E7498A962991D13A17DE21",1,"01990a98-0b5f-7ac2-804d-7a7dc0856a7e","01990a83-7673-7c0c-a792-bbd8fbbaf673","2025-09-02_22h23.28.628",NA,NA,627.5661,627.5664,627.5665,627.9105,NA,NA,NA,NA,NA,NA,NA,TRUE,2,1.7193,624.5655,627.5653,NA,NA,NA,NA,NA,50,46,0,45,45,64,1,2,46,"binary"
"171DEC1860E7498A962991D13A17DE21",1,"01990a98-0b5f-7ac2-804d-7a7dc0856a7e","01990a83-7673-7c0c-a792-bbd8fbbaf673","2025-09-02_22h23.28.628",NA,NA,630.915,630.9151,630.9153,631.2594,NA,NA,NA,NA,NA,NA,NA,TRUE,2,2.7746,627.918,630.9143,NA,NA,NA,NA,NA,10,32,0,46,46,11,1,2,47,"binary"
"171DEC1860E7498A962991D13A17DE21",1,"01990a98-0b5f-7ac2-804d-7a7dc0856a7e","01990a83-7673-7c0c-a792-bbd8fbbaf673","2025-09-02_22h23.28.628",NA,NA,634.2594,634.2594,634.2595,634.6083,NA,NA,NA,NA,NA,NA,NA,TRUE,1,1.3704,631.2667,634.259,NA,NA,NA,NA,NA,21,27,0,47,47,25,1,2,48,"binary"
"171DEC1860E7498A962991D13A17DE21",1,"01990a98-0b5f-7ac2-804d-7a7dc0856a7e","01990a83-7673-7c0c-a792-bbd8fbbaf673","2025-09-02_22h23.28.628",NA,NA,637.608,637.6081,637.6081,637.957,NA,NA,NA,NA,NA,NA,NA,TRUE,2,1.9596,634.6146,637.6076,NA,NA,NA,NA,NA,100,54,0,48,48,89,1,2,49,"binary"
"171DEC1860E7498A962991D13A17DE21",1,"01990a98-0b5f-7ac2-804d-7a7dc0856a7e","01990a83-7673-7c0c-a792-bbd8fbbaf673","2025-09-02_22h23.28.628",NA,NA,640.9742,640.9746,640.9748,641.3225,NA,NA,NA,NA,NA,NA,NA,TRUE,2,2.2264,637.9616,640.9739,NA,NA,NA,NA,NA,60,40,0,49,49,69,1,2,50,"binary"
"171DEC1860E7498A962991D13A17DE21",1,"01990a98-0b5f-7ac2-804d-7a7dc0856a7e","01990a83-7673-7c0c-a792-bbd8fbbaf673","2025-09-02_22h23.28.628",NA,NA,644.3235,644.3242,644.3243,644.6717,NA,NA,NA,NA,NA,NA,NA,TRUE,1,1.9488,641.3286,644.3231,NA,NA,NA,NA,NA,30,30,0,50,50,45,1,2,51,"binary"
"171DEC1860E7498A962991D13A17DE21",1,"01990a98-0b5f-7ac2-804d-7a7dc0856a7e","01990a83-7673-7c0c-a792-bbd8fbbaf673","2025-09-02_22h23.28.628",NA,NA,647.6742,647.6744,647.6744,648.0224,NA,NA,NA,NA,NA,NA,NA,TRUE,2,1.7351,644.6775,647.6741,NA,NA,NA,NA,NA,14,35,0,51,51,22,1,2,52,"binary"
"171DEC1860E7498A962991D13A17DE21",1,"01990a98-0b5f-7ac2-804d-7a7dc0856a7e","01990a83-7673-7c0c-a792-bbd8fbbaf673","2025-09-02_22h23.28.628",NA,NA,651.0253,651.0256,651.0256,651.3723,NA,NA,NA,NA,NA,NA,NA,TRUE,2,1.1951,648.0261,651.0243,NA,NA,NA,NA,NA,45,40,0,52,52,58,1,2,53,"binary"
"171DEC1860E7498A962991D13A17DE21",1,"01990a98-0b5f-7ac2-804d-7a7dc0856a7e","01990a83-7673-7c0c-a792-bbd8fbbaf673","2025-09-02_22h23.28.628",NA,NA,654.3725,654.3731,654.3732,654.7221,NA,NA,NA,NA,NA,NA,NA,TRUE,1,1.3807,651.3778,654.3719,NA,NA,NA,NA,NA,30,26,0,53,53,42,1,2,54,"binary"
"171DEC1860E7498A962991D13A17DE21",1,"01990a98-0b5f-7ac2-804d-7a7dc0856a7e","01990a83-7673-7c0c-a792-bbd8fbbaf673","2025-09-02_22h23.28.628",NA,NA,657.7179,657.718,657.7181,658.0673,NA,NA,NA,NA,NA,NA,NA,TRUE,1,1.7204,654.7279,657.7173,NA,NA,NA,NA,NA,10,27,0,54,54,8,1,2,55,"binary"
"171DEC1860E7498A962991D13A17DE21",1,"01990a98-0b5f-7ac2-804d-7a7dc0856a7e","01990a83-7673-7c0c-a792-bbd8fbbaf673","2025-09-02_22h23.28.628",NA,NA,661.0667,661.0668,661.0669,661.4155,NA,NA,NA,NA,NA,NA,NA,TRUE,2,2.0535,658.0734,661.0661,NA,NA,NA,NA,NA,95,54,0,55,55,83,1,2,56,"binary"
"171DEC1860E7498A962991D13A17DE21",1,"01990a98-0b5f-7ac2-804d-7a7dc0856a7e","01990a83-7673-7c0c-a792-bbd8fbbaf673","2025-09-02_22h23.28.628",NA,NA,664.4164,664.4166,664.4167,664.765,NA,NA,NA,NA,NA,NA,NA,TRUE,2,2.6239,661.4201,664.4153,NA,NA,NA,NA,NA,21,29,0,56,56,26,1,2,57,"binary"
"171DEC1860E7498A962991D13A17DE21",1,"01990a98-0b5f-7ac2-804d-7a7dc0856a7e","01990a83-7673-7c0c-a792-bbd8fbbaf673","2025-09-02_22h23.28.628",NA,NA,667.766,667.7661,667.7661,668.1166,NA,NA,NA,NA,NA,NA,NA,TRUE,2,1.2759,664.7709,667.7645,NA,NA,NA,NA,NA,25,35,0,57,57,34,1,2,58,"binary"
"171DEC1860E7498A962991D13A17DE21",1,"01990a98-0b5f-7ac2-804d-7a7dc0856a7e","01990a83-7673-7c0c-a792-bbd8fbbaf673","2025-09-02_22h23.28.628",NA,NA,671.1138,671.1139,671.114,671.4661,NA,NA,NA,NA,NA,NA,NA,TRUE,2,1.4502,668.1217,671.113,NA,NA,NA,NA,NA,7,30,0,58,58,3,1,2,59,"binary"
"171DEC1860E7498A962991D13A17DE21",1,"01990a98-0b5f-7ac2-804d-7a7dc0856a7e","01990a83-7673-7c0c-a792-bbd8fbbaf673","2025-09-02_22h23.28.628",NA,NA,674.462,674.4622,674.4622,674.8114,NA,NA,NA,NA,NA,NA,NA,TRUE,2,1.2336,671.4702,674.4614,NA,NA,NA,NA,NA,21,38,0,59,59,29,1,2,60,"binary"
"171DEC1860E7498A962991D13A17DE21",1,"01990a98-0b5f-7ac2-804d-7a7dc0856a7e","01990a83-7673-7c0c-a792-bbd8fbbaf673","2025-09-02_22h23.28.628",NA,NA,677.8111,677.8112,677.8112,678.1605,NA,NA,NA,NA,NA,NA,NA,TRUE,2,0.8104,674.8155,677.8104,NA,NA,NA,NA,NA,50,54,0,60,60,65,1,2,61,"binary"
"171DEC1860E7498A962991D13A17DE21",1,"01990a98-0b5f-7ac2-804d-7a7dc0856a7e","01990a83-7673-7c0c-a792-bbd8fbbaf673","2025-09-02_22h23.28.628",NA,NA,681.1642,681.1645,681.1646,681.5084,NA,NA,NA,NA,NA,NA,NA,TRUE,1,1.3102,678.1661,681.1637,NA,NA,NA,NA,NA,60,35,0,61,61,68,1,2,62,"binary"
"171DEC1860E7498A962991D13A17DE21",1,"01990a98-0b5f-7ac2-804d-7a7dc0856a7e","01990a83-7673-7c0c-a792-bbd8fbbaf673","2025-09-02_22h23.28.628",NA,NA,684.5089,684.509,684.509,684.8582,NA,NA,NA,NA,NA,NA,NA,TRUE,2,1.4886,681.5104,684.5085,NA,NA,NA,NA,NA,40,35,0,62,62,50,1,2,63,"binary"
"171DEC1860E7498A962991D13A17DE21",1,"01990a98-0b5f-7ac2-804d-7a7dc0856a7e","01990a83-7673-7c0c-a792-bbd8fbbaf673","2025-09-02_22h23.28.628",NA,NA,687.8599,687.8601,687.8604,688.2231,NA,NA,NA,NA,NA,NA,NA,TRUE,1,1.2722,684.8636,687.8596,NA,NA,NA,NA,NA,150,40,0,63,63,93,1,2,64,"binary"
"171DEC1860E7498A962991D13A17DE21",1,"01990a98-0b5f-7ac2-804d-7a7dc0856a7e","01990a83-7673-7c0c-a792-bbd8fbbaf673","2025-09-02_22h23.28.628",NA,NA,691.2235,691.2238,691.224,691.5713,NA,NA,NA,NA,NA,NA,NA,TRUE,2,1.9421,688.2273,691.2226,NA,NA,NA,NA,NA,10,30,0,64,64,10,1,2,65,"binary"
"171DEC1860E7498A962991D13A17DE21",1,"01990a98-0b5f-7ac2-804d-7a7dc0856a7e","01990a83-7673-7c0c-a792-bbd8fbbaf673","2025-09-02_22h23.28.628",NA,NA,694.5721,694.5733,694.5734,694.9208,NA,NA,NA,NA,NA,NA,NA,TRUE,2,1.971,691.5744,694.5715,NA,NA,NA,NA,NA,28,32,0,65,65,38,1,2,66,"binary"
"171DEC1860E7498A962991D13A17DE21",1,"01990a98-0b5f-7ac2-804d-7a7dc0856a7e","01990a83-7673-7c0c-a792-bbd8fbbaf673","2025-09-02_22h23.28.628",NA,NA,697.9075,697.9078,697.9078,698.2747,NA,NA,NA,NA,NA,NA,NA,TRUE,1,2.5715,694.9242,697.9072,NA,NA,NA,NA,NA,12,28,0,66,66,14,1,2,67,"binary"
"171DEC1860E7498A962991D13A17DE21",1,"01990a98-0b5f-7ac2-804d-7a7dc0856a7e","01990a83-7673-7c0c-a792-bbd8fbbaf673","2025-09-02_22h23.28.628",NA,NA,701.2699,701.2704,701.2705,701.6186,NA,NA,NA,NA,NA,NA,NA,TRUE,1,1.2459,698.2808,701.2696,NA,NA,NA,NA,NA,50,27,0,67,67,60,1,2,68,"binary"
"171DEC1860E7498A962991D13A17DE21",1,"01990a98-0b5f-7ac2-804d-7a7dc0856a7e","01990a83-7673-7c0c-a792-bbd8fbbaf673","2025-09-02_22h23.28.628",NA,NA,704.6193,704.6197,704.6198,704.9676,NA,NA,NA,NA,NA,NA,NA,TRUE,2,1.2257,701.6236,704.6182,NA,NA,NA,NA,NA,28,39,0,68,68,40,1,2,69,"binary"
"171DEC1860E7498A962991D13A17DE21",1,"01990a98-0b5f-7ac2-804d-7a7dc0856a7e","01990a83-7673-7c0c-a792-bbd8fbbaf673","2025-09-02_22h23.28.628",NA,NA,707.9675,707.9679,707.968,708.3198,NA,NA,NA,NA,NA,NA,NA,TRUE,1,1.7119,704.974,707.9669,NA,NA,NA,NA,NA,50,35,0,69,69,62,1,2,70,"binary"
"171DEC1860E7498A962991D13A17DE21",1,"01990a98-0b5f-7ac2-804d-7a7dc0856a7e","01990a83-7673-7c0c-a792-bbd8fbbaf673","2025-09-02_22h23.28.628",NA,NA,711.3164,711.3165,711.3165,711.6657,NA,NA,NA,NA,NA,NA,NA,TRUE,1,2.0566,708.3247,711.3158,NA,NA,NA,NA,NA,150,47,0,70,70,94,1,2,71,"binary"
"171DEC1860E7498A962991D13A17DE21",1,"01990a98-0b5f-7ac2-804d-7a7dc0856a7e","01990a83-7673-7c0c-a792-bbd8fbbaf673","2025-09-02_22h23.28.628",NA,NA,714.6652,714.6653,714.6654,715.0144,NA,NA,NA,NA,NA,NA,NA,TRUE,2,2.065,711.6705,714.6642,NA,NA,NA,NA,NA,12,33,0,71,71,16,1,2,72,"binary"
"171DEC1860E7498A962991D13A17DE21",1,"01990a98-0b5f-7ac2-804d-7a7dc0856a7e","01990a83-7673-7c0c-a792-bbd8fbbaf673","2025-09-02_22h23.28.628",NA,NA,718.0144,718.0145,718.0146,718.362,NA,NA,NA,NA,NA,NA,NA,TRUE,1,1.0994,715.0203,718.0137,NA,NA,NA,NA,NA,150,35,0,72,72,92,1,2,73,"binary"
"171DEC1860E7498A962991D13A17DE21",1,"01990a98-0b5f-7ac2-804d-7a7dc0856a7e","01990a83-7673-7c0c-a792-bbd8fbbaf673","2025-09-02_22h23.28.628",NA,NA,721.3619,721.362,721.3623,721.711,NA,NA,NA,NA,NA,NA,NA,TRUE,1,1.4482,718.3652,721.3614,NA,NA,NA,NA,NA,7,25,0,73,73,0,1,2,74,"binary"
"171DEC1860E7498A962991D13A17DE21",1,"01990a98-0b5f-7ac2-804d-7a7dc0856a7e","01990a83-7673-7c0c-a792-bbd8fbbaf673","2025-09-02_22h23.28.628",NA,NA,724.7106,724.711,724.711,725.0637,NA,NA,NA,NA,NA,NA,NA,TRUE,1,2.7021,721.714,724.7102,NA,NA,NA,NA,NA,28,35,0,74,74,39,1,2,75,"binary"
"171DEC1860E7498A962991D13A17DE21",1,"01990a98-0b5f-7ac2-804d-7a7dc0856a7e","01990a83-7673-7c0c-a792-bbd8fbbaf673","2025-09-02_22h23.28.628",NA,NA,728.0642,728.0643,728.0644,728.4094,NA,NA,NA,NA,NA,NA,NA,TRUE,1,2.5341,725.0662,728.0635,NA,NA,NA,NA,NA,25,33,0,75,75,33,1,2,76,"binary"
"171DEC1860E7498A962991D13A17DE21",1,"01990a98-0b5f-7ac2-804d-7a7dc0856a7e","01990a83-7673-7c0c-a792-bbd8fbbaf673","2025-09-02_22h23.28.628",NA,NA,731.4085,731.4088,731.409,731.7616,NA,NA,NA,NA,NA,NA,NA,TRUE,1,1.6301,728.4124,731.4082,NA,NA,NA,NA,NA,100,39,0,76,76,87,1,2,77,"binary"
"171DEC1860E7498A962991D13A17DE21",1,"01990a98-0b5f-7ac2-804d-7a7dc0856a7e","01990a83-7673-7c0c-a792-bbd8fbbaf673","2025-09-02_22h23.28.628",NA,NA,734.7587,734.7589,734.7589,735.111,NA,NA,NA,NA,NA,NA,NA,TRUE,1,1.3353,731.7648,734.7583,NA,NA,NA,NA,NA,45,26,0,77,77,54,1,2,78,"binary"
"171DEC1860E7498A962991D13A17DE21",1,"01990a98-0b5f-7ac2-804d-7a7dc0856a7e","01990a83-7673-7c0c-a792-bbd8fbbaf673","2025-09-02_22h23.28.628",NA,NA,738.1265,738.1269,738.127,738.4592,NA,NA,NA,NA,NA,NA,NA,TRUE,1,1.4036,735.117,738.1262,NA,NA,NA,NA,NA,14,25,0,78,78,18,1,2,79,"binary"
"171DEC1860E7498A962991D13A17DE21",1,"01990a98-0b5f-7ac2-804d-7a7dc0856a7e","01990a83-7673-7c0c-a792-bbd8fbbaf673","2025-09-02_22h23.28.628",NA,NA,741.4734,741.4745,741.4746,741.8219,NA,NA,NA,NA,NA,NA,NA,TRUE,1,0.7754,738.4649,741.4723,NA,NA,NA,NA,NA,28,26,0,79,79,36,1,2,80,"binary"
"171DEC1860E7498A962991D13A17DE21",1,"01990a98-0b5f-7ac2-804d-7a7dc0856a7e","01990a83-7673-7c0c-a792-bbd8fbbaf673","2025-09-02_22h23.28.628",NA,NA,744.8231,744.8233,744.8237,745.1695,NA,NA,NA,NA,NA,NA,NA,TRUE,2,2.9749,741.8282,744.8218,NA,NA,NA,NA,NA,10,29,0,80,80,9,1,2,81,"binary"
"171DEC1860E7498A962991D13A17DE21",1,"01990a98-0b5f-7ac2-804d-7a7dc0856a7e","01990a83-7673-7c0c-a792-bbd8fbbaf673","2025-09-02_22h23.28.628",NA,NA,748.1733,748.1736,748.1737,748.5232,NA,NA,NA,NA,NA,NA,NA,TRUE,1,2.2835,745.1724,748.1731,NA,NA,NA,NA,NA,40,33,0,81,81,49,1,2,82,"binary"
"171DEC1860E7498A962991D13A17DE21",1,"01990a98-0b5f-7ac2-804d-7a7dc0856a7e","01990a83-7673-7c0c-a792-bbd8fbbaf673","2025-09-02_22h23.28.628",NA,NA,751.521,751.5211,751.5212,751.8708,NA,NA,NA,NA,NA,NA,NA,TRUE,1,1.2598,748.5263,751.521,NA,NA,NA,NA,NA,180,35,0,82,82,98,1,2,83,"binary"
"171DEC1860E7498A962991D13A17DE21",1,"01990a98-0b5f-7ac2-804d-7a7dc0856a7e","01990a83-7673-7c0c-a792-bbd8fbbaf673","2025-09-02_22h23.28.628",NA,NA,754.8708,754.8709,754.871,755.2167,NA,NA,NA,NA,NA,NA,NA,TRUE,2,1.4501,751.8728,754.8707,NA,NA,NA,NA,NA,50,40,0,83,83,63,1,2,84,"binary"
"171DEC1860E7498A962991D13A17DE21",1,"01990a98-0b5f-7ac2-804d-7a7dc0856a7e","01990a83-7673-7c0c-a792-bbd8fbbaf673","2025-09-02_22h23.28.628",NA,NA,758.2166,758.2169,758.217,758.5695,NA,NA,NA,NA,NA,NA,NA,TRUE,1,2.5724,755.221,758.216,NA,NA,NA,NA,NA,21,26,0,84,84,24,1,2,85,"binary"
"171DEC1860E7498A962991D13A17DE21",1,"01990a98-0b5f-7ac2-804d-7a7dc0856a7e","01990a83-7673-7c0c-a792-bbd8fbbaf673","2025-09-02_22h23.28.628",NA,NA,761.5663,761.5664,761.5664,761.9161,NA,NA,NA,NA,NA,NA,NA,TRUE,1,1.3329,758.5744,761.566,NA,NA,NA,NA,NA,100,46,0,85,85,88,1,2,86,"binary"
"171DEC1860E7498A962991D13A17DE21",1,"01990a98-0b5f-7ac2-804d-7a7dc0856a7e","01990a83-7673-7c0c-a792-bbd8fbbaf673","2025-09-02_22h23.28.628",NA,NA,764.9155,764.9156,764.9157,765.264,NA,NA,NA,NA,NA,NA,NA,TRUE,1,1.2514,761.9201,764.9143,NA,NA,NA,NA,NA,95,35,0,86,86,80,1,2,87,"binary"
"171DEC1860E7498A962991D13A17DE21",1,"01990a98-0b5f-7ac2-804d-7a7dc0856a7e","01990a83-7673-7c0c-a792-bbd8fbbaf673","2025-09-02_22h23.28.628",NA,NA,768.2625,768.2632,768.2634,768.6122,NA,NA,NA,NA,NA,NA,NA,TRUE,1,1.0494,765.269,768.2617,NA,NA,NA,NA,NA,50,30,0,87,87,61,1,2,88,"binary"
"171DEC1860E7498A962991D13A17DE21",1,"01990a98-0b5f-7ac2-804d-7a7dc0856a7e","01990a83-7673-7c0c-a792-bbd8fbbaf673","2025-09-02_22h23.28.628",NA,NA,771.6134,771.6135,771.6136,771.9652,NA,NA,NA,NA,NA,NA,NA,TRUE,1,1.0172,768.6159,771.6123,NA,NA,NA,NA,NA,200,26,0,88,88,102,1,2,89,"binary"
"171DEC1860E7498A962991D13A17DE21",1,"01990a98-0b5f-7ac2-804d-7a7dc0856a7e","01990a83-7673-7c0c-a792-bbd8fbbaf673","2025-09-02_22h23.28.628",NA,NA,774.9613,774.9616,774.9616,775.3101,NA,NA,NA,NA,NA,NA,NA,TRUE,1,0.9874,771.9686,774.9606,NA,NA,NA,NA,NA,180,27,0,89,89,96,1,2,90,"binary"
"171DEC1860E7498A962991D13A17DE21",1,"01990a98-0b5f-7ac2-804d-7a7dc0856a7e","01990a83-7673-7c0c-a792-bbd8fbbaf673","2025-09-02_22h23.28.628",NA,NA,778.3148,778.315,778.3151,778.6597,NA,NA,NA,NA,NA,NA,NA,TRUE,1,1.051,775.3141,778.314,NA,NA,NA,NA,NA,150,33,0,90,90,91,1,2,91,"binary"
"171DEC1860E7498A962991D13A17DE21",1,"01990a98-0b5f-7ac2-804d-7a7dc0856a7e","01990a83-7673-7c0c-a792-bbd8fbbaf673","2025-09-02_22h23.28.628",NA,NA,781.659,781.659,781.6591,782.0075,NA,NA,NA,NA,NA,NA,NA,TRUE,1,1.3439,778.6654,781.6584,NA,NA,NA,NA,NA,200,35,0,91,91,104,1,2,92,"binary"
"171DEC1860E7498A962991D13A17DE21",1,"01990a98-0b5f-7ac2-804d-7a7dc0856a7e","01990a83-7673-7c0c-a792-bbd8fbbaf673","2025-09-02_22h23.28.628",NA,NA,785.0082,785.0083,785.0083,785.3569,NA,NA,NA,NA,NA,NA,NA,TRUE,1,0.9302,782.0098,785.0072,NA,NA,NA,NA,NA,95,33,0,92,92,79,1,2,93,"binary"
"171DEC1860E7498A962991D13A17DE21",1,"01990a98-0b5f-7ac2-804d-7a7dc0856a7e","01990a83-7673-7c0c-a792-bbd8fbbaf673","2025-09-02_22h23.28.628",NA,NA,788.3593,788.3594,788.3594,788.7265,NA,NA,NA,NA,NA,NA,NA,TRUE,1,1.5335,785.3623,788.3592,NA,NA,NA,NA,NA,7,28,0,93,93,2,1,2,94,"binary"
"171DEC1860E7498A962991D13A17DE21",1,"01990a98-0b5f-7ac2-804d-7a7dc0856a7e","01990a83-7673-7c0c-a792-bbd8fbbaf673","2025-09-02_22h23.28.628",NA,NA,791.7232,791.9716,791.9718,792.0708,NA,NA,NA,NA,NA,NA,NA,FALSE,NA,NA,788.7304,791.722,NA,NA,NA,NA,NA,30,38,0,94,94,47,1,2,95,"binary"
"171DEC1860E7498A962991D13A17DE21",1,"01990a98-0b5f-7ac2-804d-7a7dc0856a7e","01990a83-7673-7c0c-a792-bbd8fbbaf673","2025-09-02_22h23.28.628",NA,NA,795.0711,795.0713,795.0713,795.4232,NA,NA,NA,NA,NA,NA,NA,TRUE,2,1.2097,792.0735,795.0705,NA,NA,NA,NA,NA,40,54,0,95,95,53,1,2,96,"binary"
"171DEC1860E7498A962991D13A17DE21",1,"01990a98-0b5f-7ac2-804d-7a7dc0856a7e","01990a83-7673-7c0c-a792-bbd8fbbaf673","2025-09-02_22h23.28.628",NA,NA,798.4243,798.425,798.4252,798.7694,NA,NA,NA,NA,NA,NA,NA,TRUE,1,0.9593,795.4262,798.4237,NA,NA,NA,NA,NA,180,54,0,96,96,101,1,2,97,"binary"
"171DEC1860E7498A962991D13A17DE21",1,"01990a98-0b5f-7ac2-804d-7a7dc0856a7e","01990a83-7673-7c0c-a792-bbd8fbbaf673","2025-09-02_22h23.28.628",NA,NA,801.7734,801.7739,801.7739,802.1182,NA,NA,NA,NA,NA,NA,NA,TRUE,1,0.8845,798.7756,801.7729,NA,NA,NA,NA,NA,200,47,0,97,97,106,1,2,98,"binary"
"171DEC1860E7498A962991D13A17DE21",1,"01990a98-0b5f-7ac2-804d-7a7dc0856a7e","01990a83-7673-7c0c-a792-bbd8fbbaf673","2025-09-02_22h23.28.628",NA,NA,805.1205,805.1209,805.121,805.4671,NA,NA,NA,NA,NA,NA,NA,TRUE,1,0.9588,802.1247,805.12,NA,NA,NA,NA,NA,14,28,0,98,98,20,1,2,99,"binary"
"171DEC1860E7498A962991D13A17DE21",1,"01990a98-0b5f-7ac2-804d-7a7dc0856a7e","01990a83-7673-7c0c-a792-bbd8fbbaf673","2025-09-02_22h23.28.628",NA,NA,808.4707,808.471,808.4711,808.8157,NA,NA,NA,NA,NA,NA,NA,TRUE,1,1.5527,805.4728,808.4703,NA,NA,NA,NA,NA,180,31,0,99,99,97,1,2,100,"binary"
"171DEC1860E7498A962991D13A17DE21",1,"01990a98-0b5f-7ac2-804d-7a7dc0856a7e","01990a83-7673-7c0c-a792-bbd8fbbaf673","2025-09-02_22h23.28.628",NA,NA,811.8163,811.8165,811.8165,812.1641,NA,NA,NA,NA,NA,NA,NA,TRUE,1,1.2347,808.82,811.8162,NA,NA,NA,NA,NA,200,28,0,100,100,103,1,2,101,"binary"
"171DEC1860E7498A962991D13A17DE21",1,"01990a98-0b5f-7ac2-804d-7a7dc0856a7e","01990a83-7673-7c0c-a792-bbd8fbbaf673","2025-09-02_22h23.28.628",NA,NA,815.1651,815.4139,815.4141,815.5127,NA,NA,NA,NA,NA,NA,NA,FALSE,NA,NA,812.1671,815.1639,NA,NA,NA,NA,NA,7,32,0,101,101,4,1,2,102,"binary"
"171DEC1860E7498A962991D13A17DE21",1,"01990a98-0b5f-7ac2-804d-7a7dc0856a7e","01990a83-7673-7c0c-a792-bbd8fbbaf673","2025-09-02_22h23.28.628",NA,NA,818.5129,818.5134,818.5134,818.8624,NA,NA,NA,NA,NA,NA,NA,TRUE,1,1.5472,815.5153,818.5121,NA,NA,NA,NA,NA,60,29,0,102,102,66,1,2,103,"binary"
"171DEC1860E7498A962991D13A17DE21",1,"01990a98-0b5f-7ac2-804d-7a7dc0856a7e","01990a83-7673-7c0c-a792-bbd8fbbaf673","2025-09-02_22h23.28.628",NA,NA,821.8655,821.8656,821.8657,822.2101,NA,NA,NA,NA,NA,NA,NA,TRUE,1,0.9052,818.8664,821.8652,NA,NA,NA,NA,NA,90,30,0,103,103,73,1,2,104,"binary"
"171DEC1860E7498A962991D13A17DE21",1,"01990a98-0b5f-7ac2-804d-7a7dc0856a7e","01990a83-7673-7c0c-a792-bbd8fbbaf673","2025-09-02_22h23.28.628",NA,NA,825.2101,825.2102,825.2103,825.5599,NA,NA,NA,NA,NA,NA,NA,TRUE,2,1.3676,822.213,825.2096,NA,NA,NA,NA,NA,60,54,0,104,104,71,1,2,105,"binary"
"171DEC1860E7498A962991D13A17DE21",1,"01990a98-0b5f-7ac2-804d-7a7dc0856a7e","01990a83-7673-7c0c-a792-bbd8fbbaf673","2025-09-02_22h23.28.628",NA,NA,828.5624,828.5625,828.5625,828.9086,NA,NA,NA,NA,NA,NA,NA,TRUE,1,2.6992,825.564,828.5618,NA,NA,NA,NA,NA,14,32,0,105,105,21,1,2,106,"binary"
"171DEC1860E7498A962991D13A17DE21",1,"01990a98-0b5f-7ac2-804d-7a7dc0856a7e","01990a83-7673-7c0c-a792-bbd8fbbaf673","2025-09-02_22h23.28.628",NA,NA,831.9129,831.9131,831.9132,832.261,NA,NA,NA,NA,NA,NA,NA,TRUE,1,1.0868,828.9133,831.9117,NA,NA,NA,NA,NA,10,26,0,106,106,7,1,2,107,"binary"
"171DEC1860E7498A962991D13A17DE21",1,"01990a98-0b5f-7ac2-804d-7a7dc0856a7e","01990a83-7673-7c0c-a792-bbd8fbbaf673","2025-09-02_22h23.28.628",NA,NA,835.2776,835.2779,835.2779,835.6227,NA,NA,NA,NA,NA,NA,NA,TRUE,1,1.0754,832.2647,835.2773,NA,NA,NA,NA,NA,90,33,0,107,107,74,1,2,108,"binary"
