"participant","session","assignmentId","projectId","date","practiceTrial.started","practiceTrial.stopped","tooLate.started","tooLate.stopped","blank.started","blank.stopped","trials_pract.thisRepN","trials_pract.thisTrialN","trials_pract.thisN","trials_pract.thisIndex","trials_pract.ran","delay_pract","amount_pract","responseMade","key","rt","trial.started","trial.stopped","trials.thisRepN","trials.thisTrialN","trials.thisN","trials.thisIndex","trials.ran","delay","amount","trials_2.thisRepN","trials_2.thisTrialN","trials_2.thisN","trials_2.thisIndex","trials_2.ran","block","trial","taskType"
"18FB6A772EAC454BB20B1A6B18E9C844",1,"0198f781-27cc-7dcd-9ba7-8fbd39039742","0198f767-55c9-7875-8d21-563b3c0b86ed","2025-08-29_16h25.19.464",29.047,32.02,32.021,32.022,32.022,32.369,0,0,0,2,1,14,45,TRUE,1,2.186,NA,NA,NA,NA,NA,NA,NA,NA,NA,NA,NA,NA,NA,NA,0,1,"binary"
"18FB6A772EAC454BB20B1A6B18E9C844",1,"0198f781-27cc-7dcd-9ba7-8fbd39039742","0198f767-55c9-7875-8d21-563b3c0b86ed","2025-08-29_16h25.19.464",32.372,35.37,35.37,35.37,35.37,35.719,0,1,1,4,1,30,40,TRUE,1,1.751,NA,NA,NA,NA,NA,NA,NA,NA,NA,NA,NA,NA,NA,NA,0,2,"binary"
"18FB6A772EAC454BB20B1A6B18E9C844",1,"0198f781-27cc-7dcd-9ba7-8fbd39039742","0198f767-55c9-7875-8d21-563b3c0b86ed","2025-08-29_16h25.19.464",35.723,38.719,38.719,38.72,38.72,39.069,0,2,2,0,1,7,30,TRUE,1,1.742,NA,NA,NA,NA,NA,NA,NA,NA,NA,NA,NA,NA,NA,NA,0,3,"binary"
"18FB6A772EAC454BB20B1A6B18E9C844",1,"0198f781-27cc-7dcd-9ba7-8fbd39039742","0198f767-55c9-7875-8d21-563b3c0b86ed","2025-08-29_16h25.19.464",39.072,42.069,42.07,42.07,42.07,42.419,0,3,3,1,1,100,50,TRUE,1,2.113,NA,NA,NA,NA,NA,NA,NA,NA,NA,NA,NA,NA,NA,NA,0,4,"binary"
"18FB6A772EAC454BB20B1A6B18E9C844",1,"0198f781-27cc-7dcd-9ba7-8fbd39039742","0198f767-55c9-7875-8d21-563b3c0b86ed","2025-08-29_16h25.19.464",42.422,45.419,45.42,45.42,45.42,45.769,0,4,4,3,1,3,27,TRUE,1,1.309,NA,NA,NA,NA,NA,NA,NA,NA,NA,NA,NA,NA,NA,NA,0,5,"binary"
"18FB6A772EAC454BB20B1A6B18E9C844",1,"0198f781-27cc-7dcd-9ba7-8fbd39039742","0198f767-55c9-7875-8d21-563b3c0b86ed","2025-08-29_16h25.19.464",NA,NA,77.837,77.837,77.837,78.186,NA,NA,NA,NA,NA,NA,NA,TRUE,1,2.332,74.852,77.837,0,0,0,101,1,180,54,NA,NA,NA,NA,NA,1,1,"binary"
"18FB6A772EAC454BB20B1A6B18E9C844",1,"0198f781-27cc-7dcd-9ba7-8fbd39039742","0198f767-55c9-7875-8d21-563b3c0b86ed","2025-08-29_16h25.19.464",NA,NA,81.186,81.187,81.187,81.536,NA,NA,NA,NA,NA,NA,NA,TRUE,1,1.111,78.189,81.186,0,1,1,74,1,90,33,NA,NA,NA,NA,NA,1,2,"binary"
"18FB6A772EAC454BB20B1A6B18E9C844",1,"0198f781-27cc-7dcd-9ba7-8fbd39039742","0198f767-55c9-7875-8d21-563b3c0b86ed","2025-08-29_16h25.19.464",NA,NA,84.536,84.536,84.536,84.886,NA,NA,NA,NA,NA,NA,NA,TRUE,1,0.668,81.539,84.536,0,2,2,50,1,40,35,NA,NA,NA,NA,NA,1,3,"binary"
"18FB6A772EAC454BB20B1A6B18E9C844",1,"0198f781-27cc-7dcd-9ba7-8fbd39039742","0198f767-55c9-7875-8d21-563b3c0b86ed","2025-08-29_16h25.19.464",NA,NA,87.886,87.887,87.887,88.235,NA,NA,NA,NA,NA,NA,NA,TRUE,1,0.935,84.89,87.886,0,3,3,53,1,40,54,NA,NA,NA,NA,NA,1,4,"binary"
"18FB6A772EAC454BB20B1A6B18E9C844",1,"0198f781-27cc-7dcd-9ba7-8fbd39039742","0198f767-55c9-7875-8d21-563b3c0b86ed","2025-08-29_16h25.19.464",NA,NA,91.236,91.236,91.236,91.586,NA,NA,NA,NA,NA,NA,NA,TRUE,1,1.2,88.238,91.236,0,4,4,98,1,180,35,NA,NA,NA,NA,NA,1,5,"binary"
"18FB6A772EAC454BB20B1A6B18E9C844",1,"0198f781-27cc-7dcd-9ba7-8fbd39039742","0198f767-55c9-7875-8d21-563b3c0b86ed","2025-08-29_16h25.19.464",NA,NA,94.586,94.586,94.586,94.936,NA,NA,NA,NA,NA,NA,NA,TRUE,1,0.762,91.589,94.586,0,5,5,8,1,10,27,NA,NA,NA,NA,NA,1,6,"binary"
"18FB6A772EAC454BB20B1A6B18E9C844",1,"0198f781-27cc-7dcd-9ba7-8fbd39039742","0198f767-55c9-7875-8d21-563b3c0b86ed","2025-08-29_16h25.19.464",NA,NA,97.936,97.936,97.936,98.286,NA,NA,NA,NA,NA,NA,NA,TRUE,1,0.61,94.938,97.936,0,6,6,1,1,7,26,NA,NA,NA,NA,NA,1,7,"binary"
"18FB6A772EAC454BB20B1A6B18E9C844",1,"0198f781-27cc-7dcd-9ba7-8fbd39039742","0198f767-55c9-7875-8d21-563b3c0b86ed","2025-08-29_16h25.19.464",NA,NA,101.286,101.286,101.286,101.636,NA,NA,NA,NA,NA,NA,NA,TRUE,1,0.7,98.289,101.286,0,7,7,24,1,21,26,NA,NA,NA,NA,NA,1,8,"binary"
"18FB6A772EAC454BB20B1A6B18E9C844",1,"0198f781-27cc-7dcd-9ba7-8fbd39039742","0198f767-55c9-7875-8d21-563b3c0b86ed","2025-08-29_16h25.19.464",NA,NA,104.635,104.635,104.635,104.986,NA,NA,NA,NA,NA,NA,NA,TRUE,1,1.411,101.638,104.635,0,8,8,95,1,150,54,NA,NA,NA,NA,NA,1,9,"binary"
"18FB6A772EAC454BB20B1A6B18E9C844",1,"0198f781-27cc-7dcd-9ba7-8fbd39039742","0198f767-55c9-7875-8d21-563b3c0b86ed","2025-08-29_16h25.19.464",NA,NA,107.986,107.986,107.986,108.336,NA,NA,NA,NA,NA,NA,NA,TRUE,1,0.76,104.989,107.986,0,9,9,2,1,7,28,NA,NA,NA,NA,NA,1,10,"binary"
"18FB6A772EAC454BB20B1A6B18E9C844",1,"0198f781-27cc-7dcd-9ba7-8fbd39039742","0198f767-55c9-7875-8d21-563b3c0b86ed","2025-08-29_16h25.19.464",NA,NA,111.336,111.336,111.336,111.685,NA,NA,NA,NA,NA,NA,NA,TRUE,1,0.716,108.338,111.336,0,10,10,82,1,95,47,NA,NA,NA,NA,NA,1,11,"binary"
"18FB6A772EAC454BB20B1A6B18E9C844",1,"0198f781-27cc-7dcd-9ba7-8fbd39039742","0198f767-55c9-7875-8d21-563b3c0b86ed","2025-08-29_16h25.19.464",NA,NA,114.686,114.686,114.686,115.036,NA,NA,NA,NA,NA,NA,NA,TRUE,1,0.632,111.688,114.685,0,11,11,44,1,30,29,NA,NA,NA,NA,NA,1,12,"binary"
"18FB6A772EAC454BB20B1A6B18E9C844",1,"0198f781-27cc-7dcd-9ba7-8fbd39039742","0198f767-55c9-7875-8d21-563b3c0b86ed","2025-08-29_16h25.19.464",NA,NA,118.036,118.036,118.036,118.385,NA,NA,NA,NA,NA,NA,NA,TRUE,1,0.776,115.038,118.036,0,12,12,103,1,200,28,NA,NA,NA,NA,NA,1,13,"binary"
"18FB6A772EAC454BB20B1A6B18E9C844",1,"0198f781-27cc-7dcd-9ba7-8fbd39039742","0198f767-55c9-7875-8d21-563b3c0b86ed","2025-08-29_16h25.19.464",NA,NA,121.386,121.386,121.386,121.736,NA,NA,NA,NA,NA,NA,NA,TRUE,1,0.754,118.388,121.386,0,13,13,9,1,10,29,NA,NA,NA,NA,NA,1,14,"binary"
"18FB6A772EAC454BB20B1A6B18E9C844",1,"0198f781-27cc-7dcd-9ba7-8fbd39039742","0198f767-55c9-7875-8d21-563b3c0b86ed","2025-08-29_16h25.19.464",NA,NA,124.736,124.736,124.736,125.086,NA,NA,NA,NA,NA,NA,NA,TRUE,1,1.052,121.738,124.735,0,14,14,7,1,10,26,NA,NA,NA,NA,NA,1,15,"binary"
"18FB6A772EAC454BB20B1A6B18E9C844",1,"0198f781-27cc-7dcd-9ba7-8fbd39039742","0198f767-55c9-7875-8d21-563b3c0b86ed","2025-08-29_16h25.19.464",NA,NA,128.086,128.086,128.086,128.436,NA,NA,NA,NA,NA,NA,NA,TRUE,1,1.02,125.088,128.085,0,15,15,79,1,95,33,NA,NA,NA,NA,NA,1,16,"binary"
"18FB6A772EAC454BB20B1A6B18E9C844",1,"0198f781-27cc-7dcd-9ba7-8fbd39039742","0198f767-55c9-7875-8d21-563b3c0b86ed","2025-08-29_16h25.19.464",NA,NA,131.436,131.436,131.436,131.786,NA,NA,NA,NA,NA,NA,NA,TRUE,1,1.328,128.438,131.436,0,16,16,94,1,150,47,NA,NA,NA,NA,NA,1,17,"binary"
"18FB6A772EAC454BB20B1A6B18E9C844",1,"0198f781-27cc-7dcd-9ba7-8fbd39039742","0198f767-55c9-7875-8d21-563b3c0b86ed","2025-08-29_16h25.19.464",NA,NA,134.786,134.786,134.786,135.135,NA,NA,NA,NA,NA,NA,NA,TRUE,1,1.36,131.788,134.785,0,17,17,41,1,28,46,NA,NA,NA,NA,NA,1,18,"binary"
"18FB6A772EAC454BB20B1A6B18E9C844",1,"0198f781-27cc-7dcd-9ba7-8fbd39039742","0198f767-55c9-7875-8d21-563b3c0b86ed","2025-08-29_16h25.19.464",NA,NA,138.136,138.385,138.386,138.485,NA,NA,NA,NA,NA,NA,NA,FALSE,NA,NA,135.138,138.136,0,18,18,6,1,10,25,NA,NA,NA,NA,NA,1,19,"binary"
"18FB6A772EAC454BB20B1A6B18E9C844",1,"0198f781-27cc-7dcd-9ba7-8fbd39039742","0198f767-55c9-7875-8d21-563b3c0b86ed","2025-08-29_16h25.19.464",NA,NA,141.485,141.486,141.486,141.835,NA,NA,NA,NA,NA,NA,NA,TRUE,1,0.399,138.488,141.485,0,19,19,26,1,21,29,NA,NA,NA,NA,NA,1,20,"binary"
"18FB6A772EAC454BB20B1A6B18E9C844",1,"0198f781-27cc-7dcd-9ba7-8fbd39039742","0198f767-55c9-7875-8d21-563b3c0b86ed","2025-08-29_16h25.19.464",NA,NA,144.835,144.835,144.835,145.185,NA,NA,NA,NA,NA,NA,NA,TRUE,1,0.612,141.838,144.835,0,20,20,36,1,28,26,NA,NA,NA,NA,NA,1,21,"binary"
"18FB6A772EAC454BB20B1A6B18E9C844",1,"0198f781-27cc-7dcd-9ba7-8fbd39039742","0198f767-55c9-7875-8d21-563b3c0b86ed","2025-08-29_16h25.19.464",NA,NA,148.186,148.186,148.186,148.535,NA,NA,NA,NA,NA,NA,NA,TRUE,1,1.144,145.188,148.185,0,21,21,92,1,150,35,NA,NA,NA,NA,NA,1,22,"binary"
"18FB6A772EAC454BB20B1A6B18E9C844",1,"0198f781-27cc-7dcd-9ba7-8fbd39039742","0198f767-55c9-7875-8d21-563b3c0b86ed","2025-08-29_16h25.19.464",NA,NA,151.536,151.536,151.536,151.885,NA,NA,NA,NA,NA,NA,NA,TRUE,1,0.995,148.538,151.536,0,22,22,15,1,12,31,NA,NA,NA,NA,NA,1,23,"binary"
"18FB6A772EAC454BB20B1A6B18E9C844",1,"0198f781-27cc-7dcd-9ba7-8fbd39039742","0198f767-55c9-7875-8d21-563b3c0b86ed","2025-08-29_16h25.19.464",NA,NA,154.886,154.886,154.886,155.235,NA,NA,NA,NA,NA,NA,NA,TRUE,1,0.744,151.888,154.886,0,23,23,35,1,25,46,NA,NA,NA,NA,NA,1,24,"binary"
"18FB6A772EAC454BB20B1A6B18E9C844",1,"0198f781-27cc-7dcd-9ba7-8fbd39039742","0198f767-55c9-7875-8d21-563b3c0b86ed","2025-08-29_16h25.19.464",NA,NA,158.235,158.235,158.235,158.586,NA,NA,NA,NA,NA,NA,NA,TRUE,1,0.978,155.237,158.235,0,24,24,13,1,12,26,NA,NA,NA,NA,NA,1,25,"binary"
"18FB6A772EAC454BB20B1A6B18E9C844",1,"0198f781-27cc-7dcd-9ba7-8fbd39039742","0198f767-55c9-7875-8d21-563b3c0b86ed","2025-08-29_16h25.19.464",NA,NA,161.586,161.586,161.586,161.935,NA,NA,NA,NA,NA,NA,NA,TRUE,1,1.025,158.588,161.586,0,25,25,99,1,180,39,NA,NA,NA,NA,NA,1,26,"binary"
"18FB6A772EAC454BB20B1A6B18E9C844",1,"0198f781-27cc-7dcd-9ba7-8fbd39039742","0198f767-55c9-7875-8d21-563b3c0b86ed","2025-08-29_16h25.19.464",NA,NA,164.936,164.936,164.936,165.285,NA,NA,NA,NA,NA,NA,NA,TRUE,1,1.367,161.939,164.935,0,26,26,89,1,100,54,NA,NA,NA,NA,NA,1,27,"binary"
"18FB6A772EAC454BB20B1A6B18E9C844",1,"0198f781-27cc-7dcd-9ba7-8fbd39039742","0198f767-55c9-7875-8d21-563b3c0b86ed","2025-08-29_16h25.19.464",NA,NA,168.286,168.286,168.286,168.635,NA,NA,NA,NA,NA,NA,NA,TRUE,1,0.613,165.288,168.285,0,27,27,0,1,7,25,NA,NA,NA,NA,NA,1,28,"binary"
"18FB6A772EAC454BB20B1A6B18E9C844",1,"0198f781-27cc-7dcd-9ba7-8fbd39039742","0198f767-55c9-7875-8d21-563b3c0b86ed","2025-08-29_16h25.19.464",NA,NA,171.635,171.636,171.636,171.985,NA,NA,NA,NA,NA,NA,NA,TRUE,1,0.661,168.638,171.635,0,28,28,83,1,95,54,NA,NA,NA,NA,NA,1,29,"binary"
"18FB6A772EAC454BB20B1A6B18E9C844",1,"0198f781-27cc-7dcd-9ba7-8fbd39039742","0198f767-55c9-7875-8d21-563b3c0b86ed","2025-08-29_16h25.19.464",NA,NA,174.986,174.986,174.986,175.335,NA,NA,NA,NA,NA,NA,NA,TRUE,1,0.718,171.988,174.986,0,29,29,17,1,12,35,NA,NA,NA,NA,NA,1,30,"binary"
"18FB6A772EAC454BB20B1A6B18E9C844",1,"0198f781-27cc-7dcd-9ba7-8fbd39039742","0198f767-55c9-7875-8d21-563b3c0b86ed","2025-08-29_16h25.19.464",NA,NA,178.336,178.336,178.336,178.685,NA,NA,NA,NA,NA,NA,NA,TRUE,1,0.727,175.338,178.335,0,30,30,49,1,40,33,NA,NA,NA,NA,NA,1,31,"binary"
"18FB6A772EAC454BB20B1A6B18E9C844",1,"0198f781-27cc-7dcd-9ba7-8fbd39039742","0198f767-55c9-7875-8d21-563b3c0b86ed","2025-08-29_16h25.19.464",NA,NA,181.685,181.686,181.686,182.035,NA,NA,NA,NA,NA,NA,NA,TRUE,1,0.471,178.687,181.685,0,31,31,48,1,40,27,NA,NA,NA,NA,NA,1,32,"binary"
"18FB6A772EAC454BB20B1A6B18E9C844",1,"0198f781-27cc-7dcd-9ba7-8fbd39039742","0198f767-55c9-7875-8d21-563b3c0b86ed","2025-08-29_16h25.19.464",NA,NA,185.036,185.036,185.036,185.385,NA,NA,NA,NA,NA,NA,NA,TRUE,1,0.627,182.038,185.035,0,32,32,86,1,100,38,NA,NA,NA,NA,NA,1,33,"binary"
"18FB6A772EAC454BB20B1A6B18E9C844",1,"0198f781-27cc-7dcd-9ba7-8fbd39039742","0198f767-55c9-7875-8d21-563b3c0b86ed","2025-08-29_16h25.19.464",NA,NA,188.385,188.385,188.385,188.735,NA,NA,NA,NA,NA,NA,NA,TRUE,1,0.576,185.388,188.385,0,33,33,76,1,90,46,NA,NA,NA,NA,NA,1,34,"binary"
"18FB6A772EAC454BB20B1A6B18E9C844",1,"0198f781-27cc-7dcd-9ba7-8fbd39039742","0198f767-55c9-7875-8d21-563b3c0b86ed","2025-08-29_16h25.19.464",NA,NA,191.736,191.736,191.736,192.085,NA,NA,NA,NA,NA,NA,NA,TRUE,1,0.96,188.737,191.735,0,34,34,32,1,25,31,NA,NA,NA,NA,NA,1,35,"binary"
"18FB6A772EAC454BB20B1A6B18E9C844",1,"0198f781-27cc-7dcd-9ba7-8fbd39039742","0198f767-55c9-7875-8d21-563b3c0b86ed","2025-08-29_16h25.19.464",NA,NA,195.085,195.085,195.085,195.434,NA,NA,NA,NA,NA,NA,NA,TRUE,1,1.128,192.087,195.085,0,35,35,16,1,12,33,NA,NA,NA,NA,NA,1,36,"binary"
"18FB6A772EAC454BB20B1A6B18E9C844",1,"0198f781-27cc-7dcd-9ba7-8fbd39039742","0198f767-55c9-7875-8d21-563b3c0b86ed","2025-08-29_16h25.19.464",NA,NA,198.435,198.435,198.435,198.785,NA,NA,NA,NA,NA,NA,NA,TRUE,1,0.862,195.437,198.435,0,36,36,90,1,150,31,NA,NA,NA,NA,NA,1,37,"binary"
"18FB6A772EAC454BB20B1A6B18E9C844",1,"0198f781-27cc-7dcd-9ba7-8fbd39039742","0198f767-55c9-7875-8d21-563b3c0b86ed","2025-08-29_16h25.19.464",NA,NA,201.785,201.785,201.785,202.135,NA,NA,NA,NA,NA,NA,NA,TRUE,1,1.829,198.788,201.785,0,37,37,18,1,14,25,NA,NA,NA,NA,NA,1,38,"binary"
"18FB6A772EAC454BB20B1A6B18E9C844",1,"0198f781-27cc-7dcd-9ba7-8fbd39039742","0198f767-55c9-7875-8d21-563b3c0b86ed","2025-08-29_16h25.19.464",NA,NA,205.135,205.135,205.135,205.485,NA,NA,NA,NA,NA,NA,NA,TRUE,1,1.227,202.137,205.135,0,38,38,70,1,60,47,NA,NA,NA,NA,NA,1,39,"binary"
"18FB6A772EAC454BB20B1A6B18E9C844",1,"0198f781-27cc-7dcd-9ba7-8fbd39039742","0198f767-55c9-7875-8d21-563b3c0b86ed","2025-08-29_16h25.19.464",NA,NA,208.486,208.486,208.486,208.835,NA,NA,NA,NA,NA,NA,NA,TRUE,1,0.993,205.487,208.485,0,39,39,85,1,100,31,NA,NA,NA,NA,NA,1,40,"binary"
"18FB6A772EAC454BB20B1A6B18E9C844",1,"0198f781-27cc-7dcd-9ba7-8fbd39039742","0198f767-55c9-7875-8d21-563b3c0b86ed","2025-08-29_16h25.19.464",NA,NA,211.835,211.835,211.836,212.185,NA,NA,NA,NA,NA,NA,NA,TRUE,1,1.01,208.839,211.835,0,40,40,43,1,30,27,NA,NA,NA,NA,NA,1,41,"binary"
"18FB6A772EAC454BB20B1A6B18E9C844",1,"0198f781-27cc-7dcd-9ba7-8fbd39039742","0198f767-55c9-7875-8d21-563b3c0b86ed","2025-08-29_16h25.19.464",NA,NA,215.186,215.186,215.186,215.535,NA,NA,NA,NA,NA,NA,NA,TRUE,1,0.993,212.188,215.185,0,41,41,67,1,60,33,NA,NA,NA,NA,NA,1,42,"binary"
"18FB6A772EAC454BB20B1A6B18E9C844",1,"0198f781-27cc-7dcd-9ba7-8fbd39039742","0198f767-55c9-7875-8d21-563b3c0b86ed","2025-08-29_16h25.19.464",NA,NA,218.535,218.535,218.535,218.885,NA,NA,NA,NA,NA,NA,NA,TRUE,1,1.369,215.538,218.535,0,42,42,84,1,100,26,NA,NA,NA,NA,NA,1,43,"binary"
"18FB6A772EAC454BB20B1A6B18E9C844",1,"0198f781-27cc-7dcd-9ba7-8fbd39039742","0198f767-55c9-7875-8d21-563b3c0b86ed","2025-08-29_16h25.19.464",NA,NA,221.885,221.885,221.885,222.235,NA,NA,NA,NA,NA,NA,NA,TRUE,1,1.018,218.888,221.885,0,43,43,80,1,95,35,NA,NA,NA,NA,NA,1,44,"binary"
"18FB6A772EAC454BB20B1A6B18E9C844",1,"0198f781-27cc-7dcd-9ba7-8fbd39039742","0198f767-55c9-7875-8d21-563b3c0b86ed","2025-08-29_16h25.19.464",NA,NA,225.235,225.235,225.235,225.585,NA,NA,NA,NA,NA,NA,NA,TRUE,1,1.028,222.238,225.235,0,44,44,72,1,90,26,NA,NA,NA,NA,NA,1,45,"binary"
"18FB6A772EAC454BB20B1A6B18E9C844",1,"0198f781-27cc-7dcd-9ba7-8fbd39039742","0198f767-55c9-7875-8d21-563b3c0b86ed","2025-08-29_16h25.19.464",NA,NA,228.585,228.585,228.585,228.935,NA,NA,NA,NA,NA,NA,NA,TRUE,1,0.86,225.587,228.585,0,45,45,54,1,45,26,NA,NA,NA,NA,NA,1,46,"binary"
"18FB6A772EAC454BB20B1A6B18E9C844",1,"0198f781-27cc-7dcd-9ba7-8fbd39039742","0198f767-55c9-7875-8d21-563b3c0b86ed","2025-08-29_16h25.19.464",NA,NA,231.935,231.936,231.936,232.285,NA,NA,NA,NA,NA,NA,NA,TRUE,1,0.762,228.938,231.935,0,46,46,22,1,14,35,NA,NA,NA,NA,NA,1,47,"binary"
"18FB6A772EAC454BB20B1A6B18E9C844",1,"0198f781-27cc-7dcd-9ba7-8fbd39039742","0198f767-55c9-7875-8d21-563b3c0b86ed","2025-08-29_16h25.19.464",NA,NA,235.285,235.285,235.285,235.635,NA,NA,NA,NA,NA,NA,NA,TRUE,1,0.86,232.289,235.285,0,47,47,71,1,60,54,NA,NA,NA,NA,NA,1,48,"binary"
"18FB6A772EAC454BB20B1A6B18E9C844",1,"0198f781-27cc-7dcd-9ba7-8fbd39039742","0198f767-55c9-7875-8d21-563b3c0b86ed","2025-08-29_16h25.19.464",NA,NA,238.635,238.635,238.635,238.984,NA,NA,NA,NA,NA,NA,NA,TRUE,1,0.866,235.638,238.635,0,48,48,97,1,180,31,NA,NA,NA,NA,NA,1,49,"binary"
"18FB6A772EAC454BB20B1A6B18E9C844",1,"0198f781-27cc-7dcd-9ba7-8fbd39039742","0198f767-55c9-7875-8d21-563b3c0b86ed","2025-08-29_16h25.19.464",NA,NA,241.985,241.985,241.985,242.335,NA,NA,NA,NA,NA,NA,NA,TRUE,1,1.053,238.987,241.985,0,49,49,64,1,50,46,NA,NA,NA,NA,NA,1,50,"binary"
"18FB6A772EAC454BB20B1A6B18E9C844",1,"0198f781-27cc-7dcd-9ba7-8fbd39039742","0198f767-55c9-7875-8d21-563b3c0b86ed","2025-08-29_16h25.19.464",NA,NA,245.335,245.335,245.335,245.685,NA,NA,NA,NA,NA,NA,NA,TRUE,1,0.912,242.337,245.335,0,50,50,19,1,14,26,NA,NA,NA,NA,NA,1,51,"binary"
"18FB6A772EAC454BB20B1A6B18E9C844",1,"0198f781-27cc-7dcd-9ba7-8fbd39039742","0198f767-55c9-7875-8d21-563b3c0b86ed","2025-08-29_16h25.19.464",NA,NA,248.685,248.685,248.685,249.034,NA,NA,NA,NA,NA,NA,NA,TRUE,1,0.811,245.687,248.685,0,51,51,68,1,60,35,NA,NA,NA,NA,NA,1,52,"binary"
"18FB6A772EAC454BB20B1A6B18E9C844",1,"0198f781-27cc-7dcd-9ba7-8fbd39039742","0198f767-55c9-7875-8d21-563b3c0b86ed","2025-08-29_16h25.19.464",NA,NA,252.035,252.035,252.035,252.385,NA,NA,NA,NA,NA,NA,NA,TRUE,1,0.48,249.036,252.035,0,52,52,10,1,10,30,NA,NA,NA,NA,NA,1,53,"binary"
"18FB6A772EAC454BB20B1A6B18E9C844",1,"0198f781-27cc-7dcd-9ba7-8fbd39039742","0198f767-55c9-7875-8d21-563b3c0b86ed","2025-08-29_16h25.19.464",NA,NA,255.385,255.385,255.385,255.735,NA,NA,NA,NA,NA,NA,NA,TRUE,1,1.061,252.387,255.385,0,53,53,21,1,14,32,NA,NA,NA,NA,NA,1,54,"binary"
"18FB6A772EAC454BB20B1A6B18E9C844",1,"0198f781-27cc-7dcd-9ba7-8fbd39039742","0198f767-55c9-7875-8d21-563b3c0b86ed","2025-08-29_16h25.19.464",NA,NA,258.735,258.735,258.735,259.085,NA,NA,NA,NA,NA,NA,NA,TRUE,1,1.101,255.737,258.735,0,54,54,34,1,25,35,NA,NA,NA,NA,NA,1,55,"binary"
"18FB6A772EAC454BB20B1A6B18E9C844",1,"0198f781-27cc-7dcd-9ba7-8fbd39039742","0198f767-55c9-7875-8d21-563b3c0b86ed","2025-08-29_16h25.19.464",NA,NA,262.085,262.085,262.085,262.435,NA,NA,NA,NA,NA,NA,NA,TRUE,1,1.427,259.087,262.085,0,55,55,40,1,28,39,NA,NA,NA,NA,NA,1,56,"binary"
"18FB6A772EAC454BB20B1A6B18E9C844",1,"0198f781-27cc-7dcd-9ba7-8fbd39039742","0198f767-55c9-7875-8d21-563b3c0b86ed","2025-08-29_16h25.19.464",NA,NA,265.435,265.435,265.435,265.785,NA,NA,NA,NA,NA,NA,NA,TRUE,1,1.395,262.437,265.435,0,56,56,25,1,21,27,NA,NA,NA,NA,NA,1,57,"binary"
"18FB6A772EAC454BB20B1A6B18E9C844",1,"0198f781-27cc-7dcd-9ba7-8fbd39039742","0198f767-55c9-7875-8d21-563b3c0b86ed","2025-08-29_16h25.19.464",NA,NA,268.785,268.785,268.785,269.135,NA,NA,NA,NA,NA,NA,NA,TRUE,1,1.542,265.788,268.785,0,57,57,45,1,30,30,NA,NA,NA,NA,NA,1,58,"binary"
"18FB6A772EAC454BB20B1A6B18E9C844",1,"0198f781-27cc-7dcd-9ba7-8fbd39039742","0198f767-55c9-7875-8d21-563b3c0b86ed","2025-08-29_16h25.19.464",NA,NA,272.135,272.135,272.135,272.485,NA,NA,NA,NA,NA,NA,NA,TRUE,1,1.253,269.137,272.135,0,58,58,107,1,200,54,NA,NA,NA,NA,NA,1,59,"binary"
"18FB6A772EAC454BB20B1A6B18E9C844",1,"0198f781-27cc-7dcd-9ba7-8fbd39039742","0198f767-55c9-7875-8d21-563b3c0b86ed","2025-08-29_16h25.19.464",NA,NA,275.485,275.485,275.486,275.835,NA,NA,NA,NA,NA,NA,NA,TRUE,1,0.928,272.487,275.485,0,59,59,96,1,180,27,NA,NA,NA,NA,NA,1,60,"binary"
"18FB6A772EAC454BB20B1A6B18E9C844",1,"0198f781-27cc-7dcd-9ba7-8fbd39039742","0198f767-55c9-7875-8d21-563b3c0b86ed","2025-08-29_16h25.19.464",NA,NA,278.835,278.835,278.835,279.185,NA,NA,NA,NA,NA,NA,NA,TRUE,1,1.059,275.838,278.835,0,60,60,102,1,200,26,NA,NA,NA,NA,NA,1,61,"binary"
"18FB6A772EAC454BB20B1A6B18E9C844",1,"0198f781-27cc-7dcd-9ba7-8fbd39039742","0198f767-55c9-7875-8d21-563b3c0b86ed","2025-08-29_16h25.19.464",NA,NA,282.185,282.185,282.185,282.535,NA,NA,NA,NA,NA,NA,NA,TRUE,1,0.777,279.187,282.185,0,61,61,33,1,25,33,NA,NA,NA,NA,NA,1,62,"binary"
"18FB6A772EAC454BB20B1A6B18E9C844",1,"0198f781-27cc-7dcd-9ba7-8fbd39039742","0198f767-55c9-7875-8d21-563b3c0b86ed","2025-08-29_16h25.19.464",NA,NA,285.535,285.535,285.535,285.885,NA,NA,NA,NA,NA,NA,NA,TRUE,1,0.81,282.537,285.535,0,62,62,23,1,14,39,NA,NA,NA,NA,NA,1,63,"binary"
"18FB6A772EAC454BB20B1A6B18E9C844",1,"0198f781-27cc-7dcd-9ba7-8fbd39039742","0198f767-55c9-7875-8d21-563b3c0b86ed","2025-08-29_16h25.19.464",NA,NA,288.885,288.885,288.885,289.235,NA,NA,NA,NA,NA,NA,NA,TRUE,1,1.319,285.888,288.885,0,63,63,100,1,180,46,NA,NA,NA,NA,NA,1,64,"binary"
"18FB6A772EAC454BB20B1A6B18E9C844",1,"0198f781-27cc-7dcd-9ba7-8fbd39039742","0198f767-55c9-7875-8d21-563b3c0b86ed","2025-08-29_16h25.19.464",NA,NA,292.235,292.235,292.235,292.585,NA,NA,NA,NA,NA,NA,NA,TRUE,1,1.077,289.237,292.235,0,64,64,91,1,150,33,NA,NA,NA,NA,NA,1,65,"binary"
"18FB6A772EAC454BB20B1A6B18E9C844",1,"0198f781-27cc-7dcd-9ba7-8fbd39039742","0198f767-55c9-7875-8d21-563b3c0b86ed","2025-08-29_16h25.19.464",NA,NA,295.585,295.585,295.585,295.935,NA,NA,NA,NA,NA,NA,NA,TRUE,1,0.735,292.587,295.585,0,65,65,73,1,90,30,NA,NA,NA,NA,NA,1,66,"binary"
"18FB6A772EAC454BB20B1A6B18E9C844",1,"0198f781-27cc-7dcd-9ba7-8fbd39039742","0198f767-55c9-7875-8d21-563b3c0b86ed","2025-08-29_16h25.19.464",NA,NA,298.935,298.935,298.935,299.285,NA,NA,NA,NA,NA,NA,NA,TRUE,1,0.694,295.938,298.935,0,66,66,57,1,45,35,NA,NA,NA,NA,NA,1,67,"binary"
"18FB6A772EAC454BB20B1A6B18E9C844",1,"0198f781-27cc-7dcd-9ba7-8fbd39039742","0198f767-55c9-7875-8d21-563b3c0b86ed","2025-08-29_16h25.19.464",NA,NA,302.285,302.285,302.285,302.634,NA,NA,NA,NA,NA,NA,NA,TRUE,1,0.976,299.288,302.285,0,67,67,63,1,50,40,NA,NA,NA,NA,NA,1,68,"binary"
"18FB6A772EAC454BB20B1A6B18E9C844",1,"0198f781-27cc-7dcd-9ba7-8fbd39039742","0198f767-55c9-7875-8d21-563b3c0b86ed","2025-08-29_16h25.19.464",NA,NA,305.634,305.634,305.634,305.984,NA,NA,NA,NA,NA,NA,NA,TRUE,1,0.795,302.637,305.634,0,68,68,87,1,100,39,NA,NA,NA,NA,NA,1,69,"binary"
"18FB6A772EAC454BB20B1A6B18E9C844",1,"0198f781-27cc-7dcd-9ba7-8fbd39039742","0198f767-55c9-7875-8d21-563b3c0b86ed","2025-08-29_16h25.19.464",NA,NA,308.985,308.985,308.985,309.335,NA,NA,NA,NA,NA,NA,NA,TRUE,1,1.412,305.987,308.984,0,69,69,4,1,7,32,NA,NA,NA,NA,NA,1,70,"binary"
"18FB6A772EAC454BB20B1A6B18E9C844",1,"0198f781-27cc-7dcd-9ba7-8fbd39039742","0198f767-55c9-7875-8d21-563b3c0b86ed","2025-08-29_16h25.19.464",NA,NA,312.335,312.335,312.335,312.685,NA,NA,NA,NA,NA,NA,NA,TRUE,1,1.28,309.337,312.335,0,70,70,93,1,150,40,NA,NA,NA,NA,NA,1,71,"binary"
"18FB6A772EAC454BB20B1A6B18E9C844",1,"0198f781-27cc-7dcd-9ba7-8fbd39039742","0198f767-55c9-7875-8d21-563b3c0b86ed","2025-08-29_16h25.19.464",NA,NA,315.684,315.684,315.684,316.034,NA,NA,NA,NA,NA,NA,NA,TRUE,1,0.699,312.687,315.684,0,71,71,38,1,28,32,NA,NA,NA,NA,NA,1,72,"binary"
"18FB6A772EAC454BB20B1A6B18E9C844",1,"0198f781-27cc-7dcd-9ba7-8fbd39039742","0198f767-55c9-7875-8d21-563b3c0b86ed","2025-08-29_16h25.19.464",NA,NA,319.035,319.035,319.035,319.384,NA,NA,NA,NA,NA,NA,NA,TRUE,1,1.182,316.037,319.034,0,72,72,56,1,45,31,NA,NA,NA,NA,NA,1,73,"binary"
"18FB6A772EAC454BB20B1A6B18E9C844",1,"0198f781-27cc-7dcd-9ba7-8fbd39039742","0198f767-55c9-7875-8d21-563b3c0b86ed","2025-08-29_16h25.19.464",NA,NA,322.385,322.385,322.385,322.735,NA,NA,NA,NA,NA,NA,NA,TRUE,1,1.333,319.387,322.384,0,73,73,5,1,7,35,NA,NA,NA,NA,NA,1,74,"binary"
"18FB6A772EAC454BB20B1A6B18E9C844",1,"0198f781-27cc-7dcd-9ba7-8fbd39039742","0198f767-55c9-7875-8d21-563b3c0b86ed","2025-08-29_16h25.19.464",NA,NA,325.735,325.735,325.735,326.084,NA,NA,NA,NA,NA,NA,NA,TRUE,1,0.578,322.737,325.735,0,74,74,106,1,200,47,NA,NA,NA,NA,NA,1,75,"binary"
"18FB6A772EAC454BB20B1A6B18E9C844",1,"0198f781-27cc-7dcd-9ba7-8fbd39039742","0198f767-55c9-7875-8d21-563b3c0b86ed","2025-08-29_16h25.19.464",NA,NA,329.085,329.085,329.085,329.434,NA,NA,NA,NA,NA,NA,NA,TRUE,1,0.564,326.087,329.084,0,75,75,39,1,28,35,NA,NA,NA,NA,NA,1,76,"binary"
"18FB6A772EAC454BB20B1A6B18E9C844",1,"0198f781-27cc-7dcd-9ba7-8fbd39039742","0198f767-55c9-7875-8d21-563b3c0b86ed","2025-08-29_16h25.19.464",NA,NA,332.435,332.435,332.435,332.785,NA,NA,NA,NA,NA,NA,NA,TRUE,1,0.302,329.436,332.435,0,76,76,47,1,30,38,NA,NA,NA,NA,NA,1,77,"binary"
"18FB6A772EAC454BB20B1A6B18E9C844",1,"0198f781-27cc-7dcd-9ba7-8fbd39039742","0198f767-55c9-7875-8d21-563b3c0b86ed","2025-08-29_16h25.19.464",NA,NA,335.785,335.785,335.785,336.135,NA,NA,NA,NA,NA,NA,NA,TRUE,1,0.977,332.788,335.785,0,77,77,104,1,200,35,NA,NA,NA,NA,NA,1,78,"binary"
"18FB6A772EAC454BB20B1A6B18E9C844",1,"0198f781-27cc-7dcd-9ba7-8fbd39039742","0198f767-55c9-7875-8d21-563b3c0b86ed","2025-08-29_16h25.19.464",NA,NA,339.135,339.135,339.135,339.485,NA,NA,NA,NA,NA,NA,NA,TRUE,1,2.218,336.137,339.135,0,78,78,65,1,50,54,NA,NA,NA,NA,NA,1,79,"binary"
"18FB6A772EAC454BB20B1A6B18E9C844",1,"0198f781-27cc-7dcd-9ba7-8fbd39039742","0198f767-55c9-7875-8d21-563b3c0b86ed","2025-08-29_16h25.19.464",NA,NA,342.485,342.485,342.485,342.834,NA,NA,NA,NA,NA,NA,NA,TRUE,1,0.9,339.487,342.485,0,79,79,30,1,25,27,NA,NA,NA,NA,NA,1,80,"binary"
"18FB6A772EAC454BB20B1A6B18E9C844",1,"0198f781-27cc-7dcd-9ba7-8fbd39039742","0198f767-55c9-7875-8d21-563b3c0b86ed","2025-08-29_16h25.19.464",NA,NA,345.835,345.835,345.835,346.184,NA,NA,NA,NA,NA,NA,NA,TRUE,1,0.515,342.837,345.834,0,80,80,42,1,30,26,NA,NA,NA,NA,NA,1,81,"binary"
"18FB6A772EAC454BB20B1A6B18E9C844",1,"0198f781-27cc-7dcd-9ba7-8fbd39039742","0198f767-55c9-7875-8d21-563b3c0b86ed","2025-08-29_16h25.19.464",NA,NA,349.185,349.185,349.185,349.534,NA,NA,NA,NA,NA,NA,NA,TRUE,1,0.527,346.187,349.184,0,81,81,14,1,12,28,NA,NA,NA,NA,NA,1,82,"binary"
"18FB6A772EAC454BB20B1A6B18E9C844",1,"0198f781-27cc-7dcd-9ba7-8fbd39039742","0198f767-55c9-7875-8d21-563b3c0b86ed","2025-08-29_16h25.19.464",NA,NA,352.535,352.535,352.535,352.884,NA,NA,NA,NA,NA,NA,NA,TRUE,1,0.582,349.537,352.534,0,82,82,3,1,7,30,NA,NA,NA,NA,NA,1,83,"binary"
"18FB6A772EAC454BB20B1A6B18E9C844",1,"0198f781-27cc-7dcd-9ba7-8fbd39039742","0198f767-55c9-7875-8d21-563b3c0b86ed","2025-08-29_16h25.19.464",NA,NA,355.885,355.885,355.885,356.234,NA,NA,NA,NA,NA,NA,NA,TRUE,1,0.776,352.887,355.885,0,83,83,11,1,10,32,NA,NA,NA,NA,NA,1,84,"binary"
"18FB6A772EAC454BB20B1A6B18E9C844",1,"0198f781-27cc-7dcd-9ba7-8fbd39039742","0198f767-55c9-7875-8d21-563b3c0b86ed","2025-08-29_16h25.19.464",NA,NA,359.235,359.235,359.235,359.584,NA,NA,NA,NA,NA,NA,NA,TRUE,1,2.954,356.237,359.234,0,84,84,105,1,200,39,NA,NA,NA,NA,NA,1,85,"binary"
"18FB6A772EAC454BB20B1A6B18E9C844",1,"0198f781-27cc-7dcd-9ba7-8fbd39039742","0198f767-55c9-7875-8d21-563b3c0b86ed","2025-08-29_16h25.19.464",NA,NA,362.584,362.584,362.584,362.934,NA,NA,NA,NA,NA,NA,NA,TRUE,1,0.776,359.587,362.584,0,85,85,27,1,21,30,NA,NA,NA,NA,NA,1,86,"binary"
"18FB6A772EAC454BB20B1A6B18E9C844",1,"0198f781-27cc-7dcd-9ba7-8fbd39039742","0198f767-55c9-7875-8d21-563b3c0b86ed","2025-08-29_16h25.19.464",NA,NA,365.935,365.935,365.935,366.284,NA,NA,NA,NA,NA,NA,NA,TRUE,1,0.419,362.937,365.934,0,86,86,78,1,95,31,NA,NA,NA,NA,NA,1,87,"binary"
"18FB6A772EAC454BB20B1A6B18E9C844",1,"0198f781-27cc-7dcd-9ba7-8fbd39039742","0198f767-55c9-7875-8d21-563b3c0b86ed","2025-08-29_16h25.19.464",NA,NA,369.285,369.285,369.285,369.634,NA,NA,NA,NA,NA,NA,NA,TRUE,1,0.517,366.287,369.284,0,87,87,52,1,40,47,NA,NA,NA,NA,NA,1,88,"binary"
"18FB6A772EAC454BB20B1A6B18E9C844",1,"0198f781-27cc-7dcd-9ba7-8fbd39039742","0198f767-55c9-7875-8d21-563b3c0b86ed","2025-08-29_16h25.19.464",NA,NA,372.635,372.635,372.635,372.984,NA,NA,NA,NA,NA,NA,NA,TRUE,1,0.453,369.637,372.634,0,88,88,46,1,30,32,NA,NA,NA,NA,NA,1,89,"binary"
"18FB6A772EAC454BB20B1A6B18E9C844",1,"0198f781-27cc-7dcd-9ba7-8fbd39039742","0198f767-55c9-7875-8d21-563b3c0b86ed","2025-08-29_16h25.19.464",NA,NA,375.984,375.984,375.984,376.334,NA,NA,NA,NA,NA,NA,NA,TRUE,1,0.594,372.987,375.984,0,89,89,88,1,100,46,NA,NA,NA,NA,NA,1,90,"binary"
"18FB6A772EAC454BB20B1A6B18E9C844",1,"0198f781-27cc-7dcd-9ba7-8fbd39039742","0198f767-55c9-7875-8d21-563b3c0b86ed","2025-08-29_16h25.19.464",NA,NA,379.335,379.335,379.335,379.684,NA,NA,NA,NA,NA,NA,NA,TRUE,1,0.761,376.337,379.334,0,90,90,60,1,50,27,NA,NA,NA,NA,NA,1,91,"binary"
"18FB6A772EAC454BB20B1A6B18E9C844",1,"0198f781-27cc-7dcd-9ba7-8fbd39039742","0198f767-55c9-7875-8d21-563b3c0b86ed","2025-08-29_16h25.19.464",NA,NA,382.685,382.685,382.685,383.034,NA,NA,NA,NA,NA,NA,NA,TRUE,1,0.535,379.686,382.684,0,91,91,29,1,21,38,NA,NA,NA,NA,NA,1,92,"binary"
"18FB6A772EAC454BB20B1A6B18E9C844",1,"0198f781-27cc-7dcd-9ba7-8fbd39039742","0198f767-55c9-7875-8d21-563b3c0b86ed","2025-08-29_16h25.19.464",NA,NA,386.035,386.035,386.035,386.385,NA,NA,NA,NA,NA,NA,NA,TRUE,1,0.578,383.037,386.034,0,92,92,81,1,95,40,NA,NA,NA,NA,NA,1,93,"binary"
"18FB6A772EAC454BB20B1A6B18E9C844",1,"0198f781-27cc-7dcd-9ba7-8fbd39039742","0198f767-55c9-7875-8d21-563b3c0b86ed","2025-08-29_16h25.19.464",NA,NA,389.385,389.385,389.385,389.734,NA,NA,NA,NA,NA,NA,NA,TRUE,1,0.144,386.387,389.385,0,93,93,69,1,60,40,NA,NA,NA,NA,NA,1,94,"binary"
"18FB6A772EAC454BB20B1A6B18E9C844",1,"0198f781-27cc-7dcd-9ba7-8fbd39039742","0198f767-55c9-7875-8d21-563b3c0b86ed","2025-08-29_16h25.19.464",NA,NA,392.734,392.734,392.734,393.084,NA,NA,NA,NA,NA,NA,NA,TRUE,1,0.421,389.737,392.734,0,94,94,61,1,50,30,NA,NA,NA,NA,NA,1,95,"binary"
"18FB6A772EAC454BB20B1A6B18E9C844",1,"0198f781-27cc-7dcd-9ba7-8fbd39039742","0198f767-55c9-7875-8d21-563b3c0b86ed","2025-08-29_16h25.19.464",NA,NA,396.085,396.085,396.085,396.434,NA,NA,NA,NA,NA,NA,NA,TRUE,1,1.591,393.086,396.085,0,95,95,59,1,45,46,NA,NA,NA,NA,NA,1,96,"binary"
"18FB6A772EAC454BB20B1A6B18E9C844",1,"0198f781-27cc-7dcd-9ba7-8fbd39039742","0198f767-55c9-7875-8d21-563b3c0b86ed","2025-08-29_16h25.19.464",NA,NA,399.435,399.435,399.435,399.783,NA,NA,NA,NA,NA,NA,NA,TRUE,1,0.315,396.438,399.434,0,96,96,75,1,90,40,NA,NA,NA,NA,NA,1,97,"binary"
"18FB6A772EAC454BB20B1A6B18E9C844",1,"0198f781-27cc-7dcd-9ba7-8fbd39039742","0198f767-55c9-7875-8d21-563b3c0b86ed","2025-08-29_16h25.19.464",NA,NA,402.785,402.785,402.785,403.134,NA,NA,NA,NA,NA,NA,NA,TRUE,1,0.867,399.786,402.785,0,97,97,62,1,50,35,NA,NA,NA,NA,NA,1,98,"binary"
"18FB6A772EAC454BB20B1A6B18E9C844",1,"0198f781-27cc-7dcd-9ba7-8fbd39039742","0198f767-55c9-7875-8d21-563b3c0b86ed","2025-08-29_16h25.19.464",NA,NA,406.134,406.135,406.135,406.484,NA,NA,NA,NA,NA,NA,NA,TRUE,1,1.015,403.137,406.134,0,98,98,12,1,12,25,NA,NA,NA,NA,NA,1,99,"binary"
"18FB6A772EAC454BB20B1A6B18E9C844",1,"0198f781-27cc-7dcd-9ba7-8fbd39039742","0198f767-55c9-7875-8d21-563b3c0b86ed","2025-08-29_16h25.19.464",NA,NA,409.484,409.484,409.484,409.834,NA,NA,NA,NA,NA,NA,NA,TRUE,1,1.196,406.487,409.484,0,99,99,55,1,45,29,NA,NA,NA,NA,NA,1,100,"binary"
"18FB6A772EAC454BB20B1A6B18E9C844",1,"0198f781-27cc-7dcd-9ba7-8fbd39039742","0198f767-55c9-7875-8d21-563b3c0b86ed","2025-08-29_16h25.19.464",NA,NA,412.834,412.835,412.835,413.183,NA,NA,NA,NA,NA,NA,NA,TRUE,1,0.394,409.837,412.834,0,100,100,51,1,40,40,NA,NA,NA,NA,NA,1,101,"binary"
"18FB6A772EAC454BB20B1A6B18E9C844",1,"0198f781-27cc-7dcd-9ba7-8fbd39039742","0198f767-55c9-7875-8d21-563b3c0b86ed","2025-08-29_16h25.19.464",NA,NA,416.184,416.184,416.184,416.534,NA,NA,NA,NA,NA,NA,NA,TRUE,1,0.176,413.186,416.184,0,101,101,20,1,14,28,NA,NA,NA,NA,NA,1,102,"binary"
"18FB6A772EAC454BB20B1A6B18E9C844",1,"0198f781-27cc-7dcd-9ba7-8fbd39039742","0198f767-55c9-7875-8d21-563b3c0b86ed","2025-08-29_16h25.19.464",NA,NA,419.535,419.535,419.535,419.884,NA,NA,NA,NA,NA,NA,NA,TRUE,1,1.068,416.537,419.534,0,102,102,66,1,60,29,NA,NA,NA,NA,NA,1,103,"binary"
"18FB6A772EAC454BB20B1A6B18E9C844",1,"0198f781-27cc-7dcd-9ba7-8fbd39039742","0198f767-55c9-7875-8d21-563b3c0b86ed","2025-08-29_16h25.19.464",NA,NA,422.884,422.884,422.884,423.234,NA,NA,NA,NA,NA,NA,NA,TRUE,1,1.147,419.888,422.884,0,103,103,37,1,28,28,NA,NA,NA,NA,NA,1,104,"binary"
"18FB6A772EAC454BB20B1A6B18E9C844",1,"0198f781-27cc-7dcd-9ba7-8fbd39039742","0198f767-55c9-7875-8d21-563b3c0b86ed","2025-08-29_16h25.19.464",NA,NA,426.234,426.234,426.234,426.584,NA,NA,NA,NA,NA,NA,NA,TRUE,1,0.351,423.236,426.234,0,104,104,28,1,21,32,NA,NA,NA,NA,NA,1,105,"binary"
"18FB6A772EAC454BB20B1A6B18E9C844",1,"0198f781-27cc-7dcd-9ba7-8fbd39039742","0198f767-55c9-7875-8d21-563b3c0b86ed","2025-08-29_16h25.19.464",NA,NA,429.584,429.584,429.584,429.934,NA,NA,NA,NA,NA,NA,NA,TRUE,1,0.394,426.587,429.584,0,105,105,77,1,90,54,NA,NA,NA,NA,NA,1,106,"binary"
"18FB6A772EAC454BB20B1A6B18E9C844",1,"0198f781-27cc-7dcd-9ba7-8fbd39039742","0198f767-55c9-7875-8d21-563b3c0b86ed","2025-08-29_16h25.19.464",NA,NA,432.934,432.934,432.934,433.284,NA,NA,NA,NA,NA,NA,NA,TRUE,1,2.71,429.937,432.934,0,106,106,31,1,25,29,NA,NA,NA,NA,NA,1,107,"binary"
"18FB6A772EAC454BB20B1A6B18E9C844",1,"0198f781-27cc-7dcd-9ba7-8fbd39039742","0198f767-55c9-7875-8d21-563b3c0b86ed","2025-08-29_16h25.19.464",NA,NA,436.284,436.284,436.285,436.634,NA,NA,NA,NA,NA,NA,NA,TRUE,1,0.511,433.286,436.284,0,107,107,58,1,45,40,NA,NA,NA,NA,NA,1,108,"binary"
"18FB6A772EAC454BB20B1A6B18E9C844",1,"0198f781-27cc-7dcd-9ba7-8fbd39039742","0198f767-55c9-7875-8d21-563b3c0b86ed","2025-08-29_16h25.19.464",NA,NA,443.268,443.268,443.268,443.617,NA,NA,NA,NA,NA,NA,NA,TRUE,1,1.087,440.284,443.268,NA,NA,NA,NA,NA,28,32,0,0,0,38,1,2,1,"binary"
"18FB6A772EAC454BB20B1A6B18E9C844",1,"0198f781-27cc-7dcd-9ba7-8fbd39039742","0198f767-55c9-7875-8d21-563b3c0b86ed","2025-08-29_16h25.19.464",NA,NA,446.618,446.618,446.618,446.967,NA,NA,NA,NA,NA,NA,NA,TRUE,1,0.678,443.621,446.617,NA,NA,NA,NA,NA,150,33,0,1,1,91,1,2,2,"binary"
"18FB6A772EAC454BB20B1A6B18E9C844",1,"0198f781-27cc-7dcd-9ba7-8fbd39039742","0198f767-55c9-7875-8d21-563b3c0b86ed","2025-08-29_16h25.19.464",NA,NA,449.968,449.968,449.968,450.316,NA,NA,NA,NA,NA,NA,NA,TRUE,1,0.144,446.97,449.967,NA,NA,NA,NA,NA,28,26,0,2,2,36,1,2,3,"binary"
"18FB6A772EAC454BB20B1A6B18E9C844",1,"0198f781-27cc-7dcd-9ba7-8fbd39039742","0198f767-55c9-7875-8d21-563b3c0b86ed","2025-08-29_16h25.19.464",NA,NA,453.317,453.317,453.317,453.667,NA,NA,NA,NA,NA,NA,NA,TRUE,1,1.012,450.319,453.317,NA,NA,NA,NA,NA,150,47,0,3,3,94,1,2,4,"binary"
"18FB6A772EAC454BB20B1A6B18E9C844",1,"0198f781-27cc-7dcd-9ba7-8fbd39039742","0198f767-55c9-7875-8d21-563b3c0b86ed","2025-08-29_16h25.19.464",NA,NA,456.667,456.667,456.667,457.017,NA,NA,NA,NA,NA,NA,NA,TRUE,1,1.295,453.67,456.667,NA,NA,NA,NA,NA,95,54,0,4,4,83,1,2,5,"binary"
"18FB6A772EAC454BB20B1A6B18E9C844",1,"0198f781-27cc-7dcd-9ba7-8fbd39039742","0198f767-55c9-7875-8d21-563b3c0b86ed","2025-08-29_16h25.19.464",NA,NA,460.017,460.018,460.018,460.367,NA,NA,NA,NA,NA,NA,NA,TRUE,1,0.345,457.02,460.017,NA,NA,NA,NA,NA,28,35,0,5,5,39,1,2,6,"binary"
"18FB6A772EAC454BB20B1A6B18E9C844",1,"0198f781-27cc-7dcd-9ba7-8fbd39039742","0198f767-55c9-7875-8d21-563b3c0b86ed","2025-08-29_16h25.19.464",NA,NA,463.368,463.368,463.368,463.717,NA,NA,NA,NA,NA,NA,NA,TRUE,1,2.161,460.369,463.367,NA,NA,NA,NA,NA,10,26,0,6,6,7,1,2,7,"binary"
"18FB6A772EAC454BB20B1A6B18E9C844",1,"0198f781-27cc-7dcd-9ba7-8fbd39039742","0198f767-55c9-7875-8d21-563b3c0b86ed","2025-08-29_16h25.19.464",NA,NA,466.717,466.718,466.718,467.067,NA,NA,NA,NA,NA,NA,NA,TRUE,1,0.878,463.719,466.717,NA,NA,NA,NA,NA,10,27,0,7,7,8,1,2,8,"binary"
"18FB6A772EAC454BB20B1A6B18E9C844",1,"0198f781-27cc-7dcd-9ba7-8fbd39039742","0198f767-55c9-7875-8d21-563b3c0b86ed","2025-08-29_16h25.19.464",NA,NA,470.067,470.067,470.067,470.417,NA,NA,NA,NA,NA,NA,NA,TRUE,1,2.259,467.071,470.067,NA,NA,NA,NA,NA,180,54,0,8,8,101,1,2,9,"binary"
"18FB6A772EAC454BB20B1A6B18E9C844",1,"0198f781-27cc-7dcd-9ba7-8fbd39039742","0198f767-55c9-7875-8d21-563b3c0b86ed","2025-08-29_16h25.19.464",NA,NA,473.417,473.417,473.417,473.767,NA,NA,NA,NA,NA,NA,NA,TRUE,1,1.198,470.42,473.417,NA,NA,NA,NA,NA,95,40,0,9,9,81,1,2,10,"binary"
"18FB6A772EAC454BB20B1A6B18E9C844",1,"0198f781-27cc-7dcd-9ba7-8fbd39039742","0198f767-55c9-7875-8d21-563b3c0b86ed","2025-08-29_16h25.19.464",NA,NA,476.767,477.017,477.017,477.117,NA,NA,NA,NA,NA,NA,NA,FALSE,NA,NA,473.769,476.767,NA,NA,NA,NA,NA,90,30,0,10,10,73,1,2,11,"binary"
"18FB6A772EAC454BB20B1A6B18E9C844",1,"0198f781-27cc-7dcd-9ba7-8fbd39039742","0198f767-55c9-7875-8d21-563b3c0b86ed","2025-08-29_16h25.19.464",NA,NA,480.117,480.117,480.117,480.467,NA,NA,NA,NA,NA,NA,NA,TRUE,1,0.062,477.12,480.117,NA,NA,NA,NA,NA,25,29,0,11,11,31,1,2,12,"binary"
"18FB6A772EAC454BB20B1A6B18E9C844",1,"0198f781-27cc-7dcd-9ba7-8fbd39039742","0198f767-55c9-7875-8d21-563b3c0b86ed","2025-08-29_16h25.19.464",NA,NA,483.467,483.467,483.467,483.817,NA,NA,NA,NA,NA,NA,NA,TRUE,1,0.944,480.469,483.467,NA,NA,NA,NA,NA,30,32,0,12,12,46,1,2,13,"binary"
"18FB6A772EAC454BB20B1A6B18E9C844",1,"0198f781-27cc-7dcd-9ba7-8fbd39039742","0198f767-55c9-7875-8d21-563b3c0b86ed","2025-08-29_16h25.19.464",NA,NA,486.817,486.817,486.817,487.167,NA,NA,NA,NA,NA,NA,NA,TRUE,1,0.112,483.819,486.817,NA,NA,NA,NA,NA,60,33,0,13,13,67,1,2,14,"binary"
"18FB6A772EAC454BB20B1A6B18E9C844",1,"0198f781-27cc-7dcd-9ba7-8fbd39039742","0198f767-55c9-7875-8d21-563b3c0b86ed","2025-08-29_16h25.19.464",NA,NA,490.166,490.166,490.166,490.517,NA,NA,NA,NA,NA,NA,NA,TRUE,1,0.001,487.169,490.166,NA,NA,NA,NA,NA,150,31,0,14,14,90,1,2,15,"binary"
"18FB6A772EAC454BB20B1A6B18E9C844",1,"0198f781-27cc-7dcd-9ba7-8fbd39039742","0198f767-55c9-7875-8d21-563b3c0b86ed","2025-08-29_16h25.19.464",NA,NA,493.517,493.517,493.517,493.867,NA,NA,NA,NA,NA,NA,NA,TRUE,1,0.085,490.519,493.517,NA,NA,NA,NA,NA,90,33,0,15,15,74,1,2,16,"binary"
"18FB6A772EAC454BB20B1A6B18E9C844",1,"0198f781-27cc-7dcd-9ba7-8fbd39039742","0198f767-55c9-7875-8d21-563b3c0b86ed","2025-08-29_16h25.19.464",NA,NA,496.866,496.867,496.867,497.217,NA,NA,NA,NA,NA,NA,NA,TRUE,1,0.036,493.869,496.866,NA,NA,NA,NA,NA,7,26,0,16,16,1,1,2,17,"binary"
"18FB6A772EAC454BB20B1A6B18E9C844",1,"0198f781-27cc-7dcd-9ba7-8fbd39039742","0198f767-55c9-7875-8d21-563b3c0b86ed","2025-08-29_16h25.19.464",NA,NA,500.217,500.217,500.217,500.567,NA,NA,NA,NA,NA,NA,NA,TRUE,1,0.126,497.22,500.217,NA,NA,NA,NA,NA,30,26,0,17,17,42,1,2,18,"binary"
"18FB6A772EAC454BB20B1A6B18E9C844",1,"0198f781-27cc-7dcd-9ba7-8fbd39039742","0198f767-55c9-7875-8d21-563b3c0b86ed","2025-08-29_16h25.19.464",NA,NA,503.567,503.567,503.567,503.917,NA,NA,NA,NA,NA,NA,NA,TRUE,1,0.049,500.57,503.567,NA,NA,NA,NA,NA,40,47,0,18,18,52,1,2,19,"binary"
"18FB6A772EAC454BB20B1A6B18E9C844",1,"0198f781-27cc-7dcd-9ba7-8fbd39039742","0198f767-55c9-7875-8d21-563b3c0b86ed","2025-08-29_16h25.19.464",NA,NA,506.917,506.917,506.917,507.267,NA,NA,NA,NA,NA,NA,NA,TRUE,1,0.152,503.919,506.917,NA,NA,NA,NA,NA,25,31,0,19,19,32,1,2,20,"binary"
"18FB6A772EAC454BB20B1A6B18E9C844",1,"0198f781-27cc-7dcd-9ba7-8fbd39039742","0198f767-55c9-7875-8d21-563b3c0b86ed","2025-08-29_16h25.19.464",NA,NA,510.267,510.267,510.267,510.617,NA,NA,NA,NA,NA,NA,NA,TRUE,1,0.411,507.269,510.267,NA,NA,NA,NA,NA,180,27,0,20,20,96,1,2,21,"binary"
"18FB6A772EAC454BB20B1A6B18E9C844",1,"0198f781-27cc-7dcd-9ba7-8fbd39039742","0198f767-55c9-7875-8d21-563b3c0b86ed","2025-08-29_16h25.19.464",NA,NA,513.617,513.617,513.617,513.967,NA,NA,NA,NA,NA,NA,NA,TRUE,1,0.197,510.619,513.617,NA,NA,NA,NA,NA,180,39,0,21,21,99,1,2,22,"binary"
"18FB6A772EAC454BB20B1A6B18E9C844",1,"0198f781-27cc-7dcd-9ba7-8fbd39039742","0198f767-55c9-7875-8d21-563b3c0b86ed","2025-08-29_16h25.19.464",NA,NA,516.967,516.967,516.967,517.316,NA,NA,NA,NA,NA,NA,NA,TRUE,1,0.281,513.969,516.967,NA,NA,NA,NA,NA,60,35,0,22,22,68,1,2,23,"binary"
"18FB6A772EAC454BB20B1A6B18E9C844",1,"0198f781-27cc-7dcd-9ba7-8fbd39039742","0198f767-55c9-7875-8d21-563b3c0b86ed","2025-08-29_16h25.19.464",NA,NA,520.316,520.316,520.316,520.667,NA,NA,NA,NA,NA,NA,NA,TRUE,1,0.121,517.318,520.316,NA,NA,NA,NA,NA,60,40,0,23,23,69,1,2,24,"binary"
"18FB6A772EAC454BB20B1A6B18E9C844",1,"0198f781-27cc-7dcd-9ba7-8fbd39039742","0198f767-55c9-7875-8d21-563b3c0b86ed","2025-08-29_16h25.19.464",NA,NA,523.667,523.667,523.667,524.017,NA,NA,NA,NA,NA,NA,NA,TRUE,1,0.41,520.669,523.667,NA,NA,NA,NA,NA,21,38,0,24,24,29,1,2,25,"binary"
"18FB6A772EAC454BB20B1A6B18E9C844",1,"0198f781-27cc-7dcd-9ba7-8fbd39039742","0198f767-55c9-7875-8d21-563b3c0b86ed","2025-08-29_16h25.19.464",NA,NA,527.018,527.018,527.018,527.367,NA,NA,NA,NA,NA,NA,NA,TRUE,1,0.284,524.02,527.017,NA,NA,NA,NA,NA,14,32,0,25,25,21,1,2,26,"binary"
"18FB6A772EAC454BB20B1A6B18E9C844",1,"0198f781-27cc-7dcd-9ba7-8fbd39039742","0198f767-55c9-7875-8d21-563b3c0b86ed","2025-08-29_16h25.19.464",NA,NA,530.367,530.368,530.368,530.717,NA,NA,NA,NA,NA,NA,NA,TRUE,1,0.528,527.37,530.367,NA,NA,NA,NA,NA,100,31,0,26,26,85,1,2,27,"binary"
"18FB6A772EAC454BB20B1A6B18E9C844",1,"0198f781-27cc-7dcd-9ba7-8fbd39039742","0198f767-55c9-7875-8d21-563b3c0b86ed","2025-08-29_16h25.19.464",NA,NA,533.717,533.717,533.717,534.066,NA,NA,NA,NA,NA,NA,NA,TRUE,1,0.176,530.719,533.717,NA,NA,NA,NA,NA,100,46,0,27,27,88,1,2,28,"binary"
"18FB6A772EAC454BB20B1A6B18E9C844",1,"0198f781-27cc-7dcd-9ba7-8fbd39039742","0198f767-55c9-7875-8d21-563b3c0b86ed","2025-08-29_16h25.19.464",NA,NA,537.067,537.067,537.067,537.417,NA,NA,NA,NA,NA,NA,NA,TRUE,1,0.563,534.069,537.067,NA,NA,NA,NA,NA,40,54,0,28,28,53,1,2,29,"binary"
"18FB6A772EAC454BB20B1A6B18E9C844",1,"0198f781-27cc-7dcd-9ba7-8fbd39039742","0198f767-55c9-7875-8d21-563b3c0b86ed","2025-08-29_16h25.19.464",NA,NA,540.417,540.417,540.417,540.766,NA,NA,NA,NA,NA,NA,NA,TRUE,1,0.345,537.42,540.417,NA,NA,NA,NA,NA,50,40,0,29,29,63,1,2,30,"binary"
"18FB6A772EAC454BB20B1A6B18E9C844",1,"0198f781-27cc-7dcd-9ba7-8fbd39039742","0198f767-55c9-7875-8d21-563b3c0b86ed","2025-08-29_16h25.19.464",NA,NA,543.767,543.767,543.767,544.117,NA,NA,NA,NA,NA,NA,NA,TRUE,1,0.244,540.77,543.767,NA,NA,NA,NA,NA,12,28,0,30,30,14,1,2,31,"binary"
"18FB6A772EAC454BB20B1A6B18E9C844",1,"0198f781-27cc-7dcd-9ba7-8fbd39039742","0198f767-55c9-7875-8d21-563b3c0b86ed","2025-08-29_16h25.19.464",NA,NA,547.117,547.117,547.117,547.467,NA,NA,NA,NA,NA,NA,NA,TRUE,1,0.162,544.119,547.117,NA,NA,NA,NA,NA,60,47,0,31,31,70,1,2,32,"binary"
"18FB6A772EAC454BB20B1A6B18E9C844",1,"0198f781-27cc-7dcd-9ba7-8fbd39039742","0198f767-55c9-7875-8d21-563b3c0b86ed","2025-08-29_16h25.19.464",NA,NA,550.467,550.467,550.467,550.817,NA,NA,NA,NA,NA,NA,NA,TRUE,1,0.195,547.469,550.467,NA,NA,NA,NA,NA,7,30,0,32,32,3,1,2,33,"binary"
"18FB6A772EAC454BB20B1A6B18E9C844",1,"0198f781-27cc-7dcd-9ba7-8fbd39039742","0198f767-55c9-7875-8d21-563b3c0b86ed","2025-08-29_16h25.19.464",NA,NA,553.817,553.817,553.817,554.167,NA,NA,NA,NA,NA,NA,NA,TRUE,1,1.07,550.82,553.817,NA,NA,NA,NA,NA,45,29,0,33,33,55,1,2,34,"binary"
"18FB6A772EAC454BB20B1A6B18E9C844",1,"0198f781-27cc-7dcd-9ba7-8fbd39039742","0198f767-55c9-7875-8d21-563b3c0b86ed","2025-08-29_16h25.19.464",NA,NA,557.167,557.167,557.167,557.517,NA,NA,NA,NA,NA,NA,NA,TRUE,1,0.364,554.17,557.167,NA,NA,NA,NA,NA,25,33,0,34,34,33,1,2,35,"binary"
"18FB6A772EAC454BB20B1A6B18E9C844",1,"0198f781-27cc-7dcd-9ba7-8fbd39039742","0198f767-55c9-7875-8d21-563b3c0b86ed","2025-08-29_16h25.19.464",NA,NA,560.517,560.517,560.517,560.867,NA,NA,NA,NA,NA,NA,NA,TRUE,1,0.17,557.519,560.517,NA,NA,NA,NA,NA,30,38,0,35,35,47,1,2,36,"binary"
"18FB6A772EAC454BB20B1A6B18E9C844",1,"0198f781-27cc-7dcd-9ba7-8fbd39039742","0198f767-55c9-7875-8d21-563b3c0b86ed","2025-08-29_16h25.19.464",NA,NA,563.867,563.867,563.867,564.217,NA,NA,NA,NA,NA,NA,NA,TRUE,1,0.127,560.869,563.867,NA,NA,NA,NA,NA,14,35,0,36,36,22,1,2,37,"binary"
"18FB6A772EAC454BB20B1A6B18E9C844",1,"0198f781-27cc-7dcd-9ba7-8fbd39039742","0198f767-55c9-7875-8d21-563b3c0b86ed","2025-08-29_16h25.19.464",NA,NA,567.216,567.216,567.216,567.566,NA,NA,NA,NA,NA,NA,NA,TRUE,1,0.101,564.219,567.216,NA,NA,NA,NA,NA,14,39,0,37,37,23,1,2,38,"binary"
"18FB6A772EAC454BB20B1A6B18E9C844",1,"0198f781-27cc-7dcd-9ba7-8fbd39039742","0198f767-55c9-7875-8d21-563b3c0b86ed","2025-08-29_16h25.19.464",NA,NA,570.567,570.567,570.567,570.917,NA,NA,NA,NA,NA,NA,NA,TRUE,1,0.037,567.568,570.567,NA,NA,NA,NA,NA,14,26,0,38,38,19,1,2,39,"binary"
"18FB6A772EAC454BB20B1A6B18E9C844",1,"0198f781-27cc-7dcd-9ba7-8fbd39039742","0198f767-55c9-7875-8d21-563b3c0b86ed","2025-08-29_16h25.19.464",NA,NA,573.917,573.917,573.917,574.267,NA,NA,NA,NA,NA,NA,NA,TRUE,1,0.327,570.92,573.917,NA,NA,NA,NA,NA,200,35,0,39,39,104,1,2,40,"binary"
"18FB6A772EAC454BB20B1A6B18E9C844",1,"0198f781-27cc-7dcd-9ba7-8fbd39039742","0198f767-55c9-7875-8d21-563b3c0b86ed","2025-08-29_16h25.19.464",NA,NA,577.267,577.267,577.267,577.616,NA,NA,NA,NA,NA,NA,NA,TRUE,1,2.904,574.269,577.267,NA,NA,NA,NA,NA,7,35,0,40,40,5,1,2,41,"binary"
"18FB6A772EAC454BB20B1A6B18E9C844",1,"0198f781-27cc-7dcd-9ba7-8fbd39039742","0198f767-55c9-7875-8d21-563b3c0b86ed","2025-08-29_16h25.19.464",NA,NA,580.617,580.617,580.617,580.966,NA,NA,NA,NA,NA,NA,NA,TRUE,1,0.602,577.619,580.617,NA,NA,NA,NA,NA,95,35,0,41,41,80,1,2,42,"binary"
"18FB6A772EAC454BB20B1A6B18E9C844",1,"0198f781-27cc-7dcd-9ba7-8fbd39039742","0198f767-55c9-7875-8d21-563b3c0b86ed","2025-08-29_16h25.19.464",NA,NA,583.967,583.967,583.967,584.317,NA,NA,NA,NA,NA,NA,NA,TRUE,1,0.422,580.968,583.966,NA,NA,NA,NA,NA,95,33,0,42,42,79,1,2,43,"binary"
"18FB6A772EAC454BB20B1A6B18E9C844",1,"0198f781-27cc-7dcd-9ba7-8fbd39039742","0198f767-55c9-7875-8d21-563b3c0b86ed","2025-08-29_16h25.19.464",NA,NA,587.316,587.316,587.316,587.667,NA,NA,NA,NA,NA,NA,NA,TRUE,1,0.078,584.319,587.316,NA,NA,NA,NA,NA,60,54,0,43,43,71,1,2,44,"binary"
"18FB6A772EAC454BB20B1A6B18E9C844",1,"0198f781-27cc-7dcd-9ba7-8fbd39039742","0198f767-55c9-7875-8d21-563b3c0b86ed","2025-08-29_16h25.19.464",NA,NA,590.667,590.667,590.667,591.016,NA,NA,NA,NA,NA,NA,NA,TRUE,1,0.48,587.671,590.667,NA,NA,NA,NA,NA,12,26,0,44,44,13,1,2,45,"binary"
"18FB6A772EAC454BB20B1A6B18E9C844",1,"0198f781-27cc-7dcd-9ba7-8fbd39039742","0198f767-55c9-7875-8d21-563b3c0b86ed","2025-08-29_16h25.19.464",NA,NA,594.017,594.017,594.017,594.367,NA,NA,NA,NA,NA,NA,NA,TRUE,1,1.35,591.019,594.017,NA,NA,NA,NA,NA,150,35,0,45,45,92,1,2,46,"binary"
"18FB6A772EAC454BB20B1A6B18E9C844",1,"0198f781-27cc-7dcd-9ba7-8fbd39039742","0198f767-55c9-7875-8d21-563b3c0b86ed","2025-08-29_16h25.19.464",NA,NA,597.367,597.367,597.367,597.716,NA,NA,NA,NA,NA,NA,NA,TRUE,1,0.377,594.37,597.366,NA,NA,NA,NA,NA,12,35,0,46,46,17,1,2,47,"binary"
"18FB6A772EAC454BB20B1A6B18E9C844",1,"0198f781-27cc-7dcd-9ba7-8fbd39039742","0198f767-55c9-7875-8d21-563b3c0b86ed","2025-08-29_16h25.19.464",NA,NA,600.717,600.717,600.717,601.067,NA,NA,NA,NA,NA,NA,NA,TRUE,1,0.487,597.718,600.717,NA,NA,NA,NA,NA,180,35,0,47,47,98,1,2,48,"binary"
"18FB6A772EAC454BB20B1A6B18E9C844",1,"0198f781-27cc-7dcd-9ba7-8fbd39039742","0198f767-55c9-7875-8d21-563b3c0b86ed","2025-08-29_16h25.19.464",NA,NA,604.067,604.067,604.067,604.417,NA,NA,NA,NA,NA,NA,NA,TRUE,1,0.012,601.069,604.067,NA,NA,NA,NA,NA,10,29,0,48,48,9,1,2,49,"binary"
"18FB6A772EAC454BB20B1A6B18E9C844",1,"0198f781-27cc-7dcd-9ba7-8fbd39039742","0198f767-55c9-7875-8d21-563b3c0b86ed","2025-08-29_16h25.19.464",NA,NA,607.417,607.417,607.417,607.766,NA,NA,NA,NA,NA,NA,NA,TRUE,1,0.169,604.419,607.416,NA,NA,NA,NA,NA,7,28,0,49,49,2,1,2,50,"binary"
"18FB6A772EAC454BB20B1A6B18E9C844",1,"0198f781-27cc-7dcd-9ba7-8fbd39039742","0198f767-55c9-7875-8d21-563b3c0b86ed","2025-08-29_16h25.19.464",NA,NA,610.767,610.767,610.767,611.116,NA,NA,NA,NA,NA,NA,NA,TRUE,1,0.177,607.769,610.767,NA,NA,NA,NA,NA,90,26,0,50,50,72,1,2,51,"binary"
"18FB6A772EAC454BB20B1A6B18E9C844",1,"0198f781-27cc-7dcd-9ba7-8fbd39039742","0198f767-55c9-7875-8d21-563b3c0b86ed","2025-08-29_16h25.19.464",NA,NA,614.117,614.117,614.117,614.466,NA,NA,NA,NA,NA,NA,NA,TRUE,1,0.011,611.119,614.116,NA,NA,NA,NA,NA,30,30,0,51,51,45,1,2,52,"binary"
"18FB6A772EAC454BB20B1A6B18E9C844",1,"0198f781-27cc-7dcd-9ba7-8fbd39039742","0198f767-55c9-7875-8d21-563b3c0b86ed","2025-08-29_16h25.19.464",NA,NA,617.467,617.467,617.467,617.816,NA,NA,NA,NA,NA,NA,NA,TRUE,1,0.245,614.469,617.466,NA,NA,NA,NA,NA,180,31,0,52,52,97,1,2,53,"binary"
"18FB6A772EAC454BB20B1A6B18E9C844",1,"0198f781-27cc-7dcd-9ba7-8fbd39039742","0198f767-55c9-7875-8d21-563b3c0b86ed","2025-08-29_16h25.19.464",NA,NA,620.817,620.817,620.817,621.166,NA,NA,NA,NA,NA,NA,NA,TRUE,1,0.348,617.819,620.816,NA,NA,NA,NA,NA,12,31,0,53,53,15,1,2,54,"binary"
"18FB6A772EAC454BB20B1A6B18E9C844",1,"0198f781-27cc-7dcd-9ba7-8fbd39039742","0198f767-55c9-7875-8d21-563b3c0b86ed","2025-08-29_16h25.19.464",NA,NA,624.166,624.167,624.167,624.516,NA,NA,NA,NA,NA,NA,NA,TRUE,1,0.129,621.169,624.166,NA,NA,NA,NA,NA,45,46,0,54,54,59,1,2,55,"binary"
"18FB6A772EAC454BB20B1A6B18E9C844",1,"0198f781-27cc-7dcd-9ba7-8fbd39039742","0198f767-55c9-7875-8d21-563b3c0b86ed","2025-08-29_16h25.19.464",NA,NA,627.517,627.517,627.517,627.866,NA,NA,NA,NA,NA,NA,NA,TRUE,1,0.133,624.518,627.516,NA,NA,NA,NA,NA,200,39,0,55,55,105,1,2,56,"binary"
"18FB6A772EAC454BB20B1A6B18E9C844",1,"0198f781-27cc-7dcd-9ba7-8fbd39039742","0198f767-55c9-7875-8d21-563b3c0b86ed","2025-08-29_16h25.19.464",NA,NA,630.867,630.867,630.867,631.216,NA,NA,NA,NA,NA,NA,NA,TRUE,1,0.279,627.869,630.866,NA,NA,NA,NA,NA,40,35,0,56,56,50,1,2,57,"binary"
"18FB6A772EAC454BB20B1A6B18E9C844",1,"0198f781-27cc-7dcd-9ba7-8fbd39039742","0198f767-55c9-7875-8d21-563b3c0b86ed","2025-08-29_16h25.19.464",NA,NA,634.217,634.217,634.217,634.566,NA,NA,NA,NA,NA,NA,NA,TRUE,1,0.15,631.219,634.216,NA,NA,NA,NA,NA,90,46,0,57,57,76,1,2,58,"binary"
"18FB6A772EAC454BB20B1A6B18E9C844",1,"0198f781-27cc-7dcd-9ba7-8fbd39039742","0198f767-55c9-7875-8d21-563b3c0b86ed","2025-08-29_16h25.19.464",NA,NA,637.567,637.567,637.567,637.916,NA,NA,NA,NA,NA,NA,NA,TRUE,1,0.069,634.568,637.566,NA,NA,NA,NA,NA,21,29,0,58,58,26,1,2,59,"binary"
"18FB6A772EAC454BB20B1A6B18E9C844",1,"0198f781-27cc-7dcd-9ba7-8fbd39039742","0198f767-55c9-7875-8d21-563b3c0b86ed","2025-08-29_16h25.19.464",NA,NA,640.917,640.917,640.917,641.266,NA,NA,NA,NA,NA,NA,NA,TRUE,1,0.001,637.919,640.916,NA,NA,NA,NA,NA,150,40,0,59,59,93,1,2,60,"binary"
"18FB6A772EAC454BB20B1A6B18E9C844",1,"0198f781-27cc-7dcd-9ba7-8fbd39039742","0198f767-55c9-7875-8d21-563b3c0b86ed","2025-08-29_16h25.19.464",NA,NA,644.266,644.266,644.266,644.616,NA,NA,NA,NA,NA,NA,NA,TRUE,1,0.264,641.269,644.266,NA,NA,NA,NA,NA,10,30,0,60,60,10,1,2,61,"binary"
"18FB6A772EAC454BB20B1A6B18E9C844",1,"0198f781-27cc-7dcd-9ba7-8fbd39039742","0198f767-55c9-7875-8d21-563b3c0b86ed","2025-08-29_16h25.19.464",NA,NA,647.617,647.617,647.617,647.966,NA,NA,NA,NA,NA,NA,NA,TRUE,1,0.001,644.618,647.616,NA,NA,NA,NA,NA,40,40,0,61,61,51,1,2,62,"binary"
"18FB6A772EAC454BB20B1A6B18E9C844",1,"0198f781-27cc-7dcd-9ba7-8fbd39039742","0198f767-55c9-7875-8d21-563b3c0b86ed","2025-08-29_16h25.19.464",NA,NA,650.966,650.966,650.966,651.316,NA,NA,NA,NA,NA,NA,NA,TRUE,1,0.137,647.968,650.966,NA,NA,NA,NA,NA,45,31,0,62,62,56,1,2,63,"binary"
"18FB6A772EAC454BB20B1A6B18E9C844",1,"0198f781-27cc-7dcd-9ba7-8fbd39039742","0198f767-55c9-7875-8d21-563b3c0b86ed","2025-08-29_16h25.19.464",NA,NA,654.316,654.316,654.316,654.666,NA,NA,NA,NA,NA,NA,NA,TRUE,1,0.109,651.319,654.316,NA,NA,NA,NA,NA,100,38,0,63,63,86,1,2,64,"binary"
"18FB6A772EAC454BB20B1A6B18E9C844",1,"0198f781-27cc-7dcd-9ba7-8fbd39039742","0198f767-55c9-7875-8d21-563b3c0b86ed","2025-08-29_16h25.19.464",NA,NA,657.667,657.667,657.667,658.016,NA,NA,NA,NA,NA,NA,NA,TRUE,1,0.135,654.67,657.667,NA,NA,NA,NA,NA,50,30,0,64,64,61,1,2,65,"binary"
"18FB6A772EAC454BB20B1A6B18E9C844",1,"0198f781-27cc-7dcd-9ba7-8fbd39039742","0198f767-55c9-7875-8d21-563b3c0b86ed","2025-08-29_16h25.19.464",NA,NA,661.017,661.017,661.017,661.366,NA,NA,NA,NA,NA,NA,NA,TRUE,1,0.027,658.019,661.016,NA,NA,NA,NA,NA,14,25,0,65,65,18,1,2,66,"binary"
"18FB6A772EAC454BB20B1A6B18E9C844",1,"0198f781-27cc-7dcd-9ba7-8fbd39039742","0198f767-55c9-7875-8d21-563b3c0b86ed","2025-08-29_16h25.19.464",NA,NA,664.366,664.367,664.367,664.716,NA,NA,NA,NA,NA,NA,NA,TRUE,1,0.31,661.369,664.366,NA,NA,NA,NA,NA,200,54,0,66,66,107,1,2,67,"binary"
"18FB6A772EAC454BB20B1A6B18E9C844",1,"0198f781-27cc-7dcd-9ba7-8fbd39039742","0198f767-55c9-7875-8d21-563b3c0b86ed","2025-08-29_16h25.19.464",NA,NA,667.717,667.717,667.717,668.066,NA,NA,NA,NA,NA,NA,NA,TRUE,1,0.008,664.718,667.717,NA,NA,NA,NA,NA,7,32,0,67,67,4,1,2,68,"binary"
"18FB6A772EAC454BB20B1A6B18E9C844",1,"0198f781-27cc-7dcd-9ba7-8fbd39039742","0198f767-55c9-7875-8d21-563b3c0b86ed","2025-08-29_16h25.19.464",NA,NA,671.066,671.066,671.066,671.416,NA,NA,NA,NA,NA,NA,NA,TRUE,1,2.967,668.069,671.066,NA,NA,NA,NA,NA,200,26,0,68,68,102,1,2,69,"binary"
"18FB6A772EAC454BB20B1A6B18E9C844",1,"0198f781-27cc-7dcd-9ba7-8fbd39039742","0198f767-55c9-7875-8d21-563b3c0b86ed","2025-08-29_16h25.19.464",NA,NA,674.416,674.416,674.416,674.765,NA,NA,NA,NA,NA,NA,NA,TRUE,1,0.197,671.419,674.416,NA,NA,NA,NA,NA,90,40,0,69,69,75,1,2,70,"binary"
"18FB6A772EAC454BB20B1A6B18E9C844",1,"0198f781-27cc-7dcd-9ba7-8fbd39039742","0198f767-55c9-7875-8d21-563b3c0b86ed","2025-08-29_16h25.19.464",NA,NA,677.766,677.766,677.766,678.115,NA,NA,NA,NA,NA,NA,NA,TRUE,1,0.051,674.768,677.766,NA,NA,NA,NA,NA,45,26,0,70,70,54,1,2,71,"binary"
"18FB6A772EAC454BB20B1A6B18E9C844",1,"0198f781-27cc-7dcd-9ba7-8fbd39039742","0198f767-55c9-7875-8d21-563b3c0b86ed","2025-08-29_16h25.19.464",NA,NA,681.117,681.117,681.117,681.466,NA,NA,NA,NA,NA,NA,NA,TRUE,1,0.084,678.118,681.116,NA,NA,NA,NA,NA,100,54,0,71,71,89,1,2,72,"binary"
"18FB6A772EAC454BB20B1A6B18E9C844",1,"0198f781-27cc-7dcd-9ba7-8fbd39039742","0198f767-55c9-7875-8d21-563b3c0b86ed","2025-08-29_16h25.19.464",NA,NA,684.466,684.466,684.466,684.816,NA,NA,NA,NA,NA,NA,NA,TRUE,1,0.078,681.469,684.466,NA,NA,NA,NA,NA,45,40,0,72,72,58,1,2,73,"binary"
"18FB6A772EAC454BB20B1A6B18E9C844",1,"0198f781-27cc-7dcd-9ba7-8fbd39039742","0198f767-55c9-7875-8d21-563b3c0b86ed","2025-08-29_16h25.19.464",NA,NA,687.816,687.816,687.816,688.166,NA,NA,NA,NA,NA,NA,NA,TRUE,1,0.096,684.818,687.816,NA,NA,NA,NA,NA,12,33,0,73,73,16,1,2,74,"binary"
"18FB6A772EAC454BB20B1A6B18E9C844",1,"0198f781-27cc-7dcd-9ba7-8fbd39039742","0198f767-55c9-7875-8d21-563b3c0b86ed","2025-08-29_16h25.19.464",NA,NA,691.166,691.166,691.166,691.516,NA,NA,NA,NA,NA,NA,NA,TRUE,1,0.16,688.168,691.166,NA,NA,NA,NA,NA,28,28,0,74,74,37,1,2,75,"binary"
"18FB6A772EAC454BB20B1A6B18E9C844",1,"0198f781-27cc-7dcd-9ba7-8fbd39039742","0198f767-55c9-7875-8d21-563b3c0b86ed","2025-08-29_16h25.19.464",NA,NA,694.516,694.516,694.516,694.866,NA,NA,NA,NA,NA,NA,NA,TRUE,1,0.193,691.518,694.516,NA,NA,NA,NA,NA,28,39,0,75,75,40,1,2,76,"binary"
"18FB6A772EAC454BB20B1A6B18E9C844",1,"0198f781-27cc-7dcd-9ba7-8fbd39039742","0198f767-55c9-7875-8d21-563b3c0b86ed","2025-08-29_16h25.19.464",NA,NA,697.866,697.866,697.866,698.216,NA,NA,NA,NA,NA,NA,NA,TRUE,1,0.095,694.869,697.866,NA,NA,NA,NA,NA,21,30,0,76,76,27,1,2,77,"binary"
"18FB6A772EAC454BB20B1A6B18E9C844",1,"0198f781-27cc-7dcd-9ba7-8fbd39039742","0198f767-55c9-7875-8d21-563b3c0b86ed","2025-08-29_16h25.19.464",NA,NA,701.216,701.216,701.216,701.566,NA,NA,NA,NA,NA,NA,NA,TRUE,1,0.216,698.219,701.216,NA,NA,NA,NA,NA,28,46,0,77,77,41,1,2,78,"binary"
"18FB6A772EAC454BB20B1A6B18E9C844",1,"0198f781-27cc-7dcd-9ba7-8fbd39039742","0198f767-55c9-7875-8d21-563b3c0b86ed","2025-08-29_16h25.19.464",NA,NA,704.566,704.566,704.566,704.915,NA,NA,NA,NA,NA,NA,NA,TRUE,1,2.979,701.569,704.566,NA,NA,NA,NA,NA,45,35,0,78,78,57,1,2,79,"binary"
"18FB6A772EAC454BB20B1A6B18E9C844",1,"0198f781-27cc-7dcd-9ba7-8fbd39039742","0198f767-55c9-7875-8d21-563b3c0b86ed","2025-08-29_16h25.19.464",NA,NA,707.916,707.916,707.916,708.266,NA,NA,NA,NA,NA,NA,NA,TRUE,1,0.272,704.917,707.916,NA,NA,NA,NA,NA,25,27,0,79,79,30,1,2,80,"binary"
"18FB6A772EAC454BB20B1A6B18E9C844",1,"0198f781-27cc-7dcd-9ba7-8fbd39039742","0198f767-55c9-7875-8d21-563b3c0b86ed","2025-08-29_16h25.19.464",NA,NA,711.265,711.265,711.265,711.615,NA,NA,NA,NA,NA,NA,NA,TRUE,1,0.101,708.268,711.265,NA,NA,NA,NA,NA,95,31,0,80,80,78,1,2,81,"binary"
"18FB6A772EAC454BB20B1A6B18E9C844",1,"0198f781-27cc-7dcd-9ba7-8fbd39039742","0198f767-55c9-7875-8d21-563b3c0b86ed","2025-08-29_16h25.19.464",NA,NA,714.616,714.616,714.616,714.966,NA,NA,NA,NA,NA,NA,NA,TRUE,1,0.218,711.618,714.616,NA,NA,NA,NA,NA,25,35,0,81,81,34,1,2,82,"binary"
"18FB6A772EAC454BB20B1A6B18E9C844",1,"0198f781-27cc-7dcd-9ba7-8fbd39039742","0198f767-55c9-7875-8d21-563b3c0b86ed","2025-08-29_16h25.19.464",NA,NA,717.966,717.966,717.966,718.316,NA,NA,NA,NA,NA,NA,NA,TRUE,1,0.184,714.968,717.966,NA,NA,NA,NA,NA,100,39,0,82,82,87,1,2,83,"binary"
"18FB6A772EAC454BB20B1A6B18E9C844",1,"0198f781-27cc-7dcd-9ba7-8fbd39039742","0198f767-55c9-7875-8d21-563b3c0b86ed","2025-08-29_16h25.19.464",NA,NA,721.315,721.315,721.315,721.666,NA,NA,NA,NA,NA,NA,NA,TRUE,1,2.972,718.318,721.315,NA,NA,NA,NA,NA,100,26,0,83,83,84,1,2,84,"binary"
"18FB6A772EAC454BB20B1A6B18E9C844",1,"0198f781-27cc-7dcd-9ba7-8fbd39039742","0198f767-55c9-7875-8d21-563b3c0b86ed","2025-08-29_16h25.19.464",NA,NA,724.666,724.666,724.666,725.016,NA,NA,NA,NA,NA,NA,NA,TRUE,1,0.021,721.668,724.666,NA,NA,NA,NA,NA,12,25,0,84,84,12,1,2,85,"binary"
"18FB6A772EAC454BB20B1A6B18E9C844",1,"0198f781-27cc-7dcd-9ba7-8fbd39039742","0198f767-55c9-7875-8d21-563b3c0b86ed","2025-08-29_16h25.19.464",NA,NA,728.016,728.016,728.017,728.366,NA,NA,NA,NA,NA,NA,NA,TRUE,1,0.051,725.019,728.016,NA,NA,NA,NA,NA,21,27,0,85,85,25,1,2,86,"binary"
"18FB6A772EAC454BB20B1A6B18E9C844",1,"0198f781-27cc-7dcd-9ba7-8fbd39039742","0198f767-55c9-7875-8d21-563b3c0b86ed","2025-08-29_16h25.19.464",NA,NA,731.366,731.366,731.367,731.716,NA,NA,NA,NA,NA,NA,NA,TRUE,1,0.15,728.369,731.366,NA,NA,NA,NA,NA,21,32,0,86,86,28,1,2,87,"binary"
"18FB6A772EAC454BB20B1A6B18E9C844",1,"0198f781-27cc-7dcd-9ba7-8fbd39039742","0198f767-55c9-7875-8d21-563b3c0b86ed","2025-08-29_16h25.19.464",NA,NA,734.716,734.716,734.716,735.066,NA,NA,NA,NA,NA,NA,NA,TRUE,1,0.056,731.718,734.716,NA,NA,NA,NA,NA,95,47,0,87,87,82,1,2,88,"binary"
"18FB6A772EAC454BB20B1A6B18E9C844",1,"0198f781-27cc-7dcd-9ba7-8fbd39039742","0198f767-55c9-7875-8d21-563b3c0b86ed","2025-08-29_16h25.19.464",NA,NA,738.066,738.066,738.066,738.416,NA,NA,NA,NA,NA,NA,NA,TRUE,1,0.135,735.068,738.066,NA,NA,NA,NA,NA,150,54,0,88,88,95,1,2,89,"binary"
"18FB6A772EAC454BB20B1A6B18E9C844",1,"0198f781-27cc-7dcd-9ba7-8fbd39039742","0198f767-55c9-7875-8d21-563b3c0b86ed","2025-08-29_16h25.19.464",NA,NA,741.416,741.416,741.416,741.766,NA,NA,NA,NA,NA,NA,NA,TRUE,1,0.034,738.418,741.416,NA,NA,NA,NA,NA,40,33,0,89,89,49,1,2,90,"binary"
"18FB6A772EAC454BB20B1A6B18E9C844",1,"0198f781-27cc-7dcd-9ba7-8fbd39039742","0198f767-55c9-7875-8d21-563b3c0b86ed","2025-08-29_16h25.19.464",NA,NA,744.766,744.766,744.766,745.116,NA,NA,NA,NA,NA,NA,NA,TRUE,1,1.169,741.768,744.766,NA,NA,NA,NA,NA,10,25,0,90,90,6,1,2,91,"binary"
"18FB6A772EAC454BB20B1A6B18E9C844",1,"0198f781-27cc-7dcd-9ba7-8fbd39039742","0198f767-55c9-7875-8d21-563b3c0b86ed","2025-08-29_16h25.19.464",NA,NA,748.116,748.117,748.117,748.466,NA,NA,NA,NA,NA,NA,NA,TRUE,1,0.267,745.118,748.116,NA,NA,NA,NA,NA,14,28,0,91,91,20,1,2,92,"binary"
"18FB6A772EAC454BB20B1A6B18E9C844",1,"0198f781-27cc-7dcd-9ba7-8fbd39039742","0198f767-55c9-7875-8d21-563b3c0b86ed","2025-08-29_16h25.19.464",NA,NA,751.466,751.466,751.466,751.816,NA,NA,NA,NA,NA,NA,NA,TRUE,1,0.08,748.469,751.466,NA,NA,NA,NA,NA,40,27,0,92,92,48,1,2,93,"binary"
"18FB6A772EAC454BB20B1A6B18E9C844",1,"0198f781-27cc-7dcd-9ba7-8fbd39039742","0198f767-55c9-7875-8d21-563b3c0b86ed","2025-08-29_16h25.19.464",NA,NA,754.816,754.816,754.816,755.166,NA,NA,NA,NA,NA,NA,NA,TRUE,1,1.317,751.818,754.816,NA,NA,NA,NA,NA,30,27,0,93,93,43,1,2,94,"binary"
"18FB6A772EAC454BB20B1A6B18E9C844",1,"0198f781-27cc-7dcd-9ba7-8fbd39039742","0198f767-55c9-7875-8d21-563b3c0b86ed","2025-08-29_16h25.19.464",NA,NA,758.166,758.166,758.166,758.516,NA,NA,NA,NA,NA,NA,NA,TRUE,1,2.976,755.168,758.166,NA,NA,NA,NA,NA,25,46,0,94,94,35,1,2,95,"binary"
"18FB6A772EAC454BB20B1A6B18E9C844",1,"0198f781-27cc-7dcd-9ba7-8fbd39039742","0198f767-55c9-7875-8d21-563b3c0b86ed","2025-08-29_16h25.19.464",NA,NA,761.516,761.516,761.516,761.866,NA,NA,NA,NA,NA,NA,NA,TRUE,1,0.302,758.518,761.516,NA,NA,NA,NA,NA,180,46,0,95,95,100,1,2,96,"binary"
"18FB6A772EAC454BB20B1A6B18E9C844",1,"0198f781-27cc-7dcd-9ba7-8fbd39039742","0198f767-55c9-7875-8d21-563b3c0b86ed","2025-08-29_16h25.19.464",NA,NA,764.866,764.866,764.866,765.216,NA,NA,NA,NA,NA,NA,NA,TRUE,1,0.87,761.868,764.866,NA,NA,NA,NA,NA,50,54,0,96,96,65,1,2,97,"binary"
"18FB6A772EAC454BB20B1A6B18E9C844",1,"0198f781-27cc-7dcd-9ba7-8fbd39039742","0198f767-55c9-7875-8d21-563b3c0b86ed","2025-08-29_16h25.19.464",NA,NA,768.216,768.216,768.216,768.566,NA,NA,NA,NA,NA,NA,NA,TRUE,1,0.188,765.218,768.216,NA,NA,NA,NA,NA,50,46,0,97,97,64,1,2,98,"binary"
"18FB6A772EAC454BB20B1A6B18E9C844",1,"0198f781-27cc-7dcd-9ba7-8fbd39039742","0198f767-55c9-7875-8d21-563b3c0b86ed","2025-08-29_16h25.19.464",NA,NA,771.566,771.566,771.566,771.916,NA,NA,NA,NA,NA,NA,NA,TRUE,1,1.467,768.568,771.566,NA,NA,NA,NA,NA,50,27,0,98,98,60,1,2,99,"binary"
"18FB6A772EAC454BB20B1A6B18E9C844",1,"0198f781-27cc-7dcd-9ba7-8fbd39039742","0198f767-55c9-7875-8d21-563b3c0b86ed","2025-08-29_16h25.19.464",NA,NA,774.916,774.916,774.916,775.266,NA,NA,NA,NA,NA,NA,NA,TRUE,1,0.352,771.918,774.916,NA,NA,NA,NA,NA,50,35,0,99,99,62,1,2,100,"binary"
"18FB6A772EAC454BB20B1A6B18E9C844",1,"0198f781-27cc-7dcd-9ba7-8fbd39039742","0198f767-55c9-7875-8d21-563b3c0b86ed","2025-08-29_16h25.19.464",NA,NA,778.266,778.266,778.266,778.615,NA,NA,NA,NA,NA,NA,NA,TRUE,1,0.089,775.268,778.266,NA,NA,NA,NA,NA,200,28,0,100,100,103,1,2,101,"binary"
"18FB6A772EAC454BB20B1A6B18E9C844",1,"0198f781-27cc-7dcd-9ba7-8fbd39039742","0198f767-55c9-7875-8d21-563b3c0b86ed","2025-08-29_16h25.19.464",NA,NA,781.616,781.616,781.616,781.966,NA,NA,NA,NA,NA,NA,NA,TRUE,1,2.969,778.618,781.616,NA,NA,NA,NA,NA,30,29,0,101,101,44,1,2,102,"binary"
"18FB6A772EAC454BB20B1A6B18E9C844",1,"0198f781-27cc-7dcd-9ba7-8fbd39039742","0198f767-55c9-7875-8d21-563b3c0b86ed","2025-08-29_16h25.19.464",NA,NA,784.966,784.966,784.966,785.316,NA,NA,NA,NA,NA,NA,NA,TRUE,1,0.823,781.968,784.966,NA,NA,NA,NA,NA,7,25,0,102,102,0,1,2,103,"binary"
"18FB6A772EAC454BB20B1A6B18E9C844",1,"0198f781-27cc-7dcd-9ba7-8fbd39039742","0198f767-55c9-7875-8d21-563b3c0b86ed","2025-08-29_16h25.19.464",NA,NA,788.315,788.316,788.316,788.666,NA,NA,NA,NA,NA,NA,NA,TRUE,1,0.083,785.318,788.315,NA,NA,NA,NA,NA,200,47,0,103,103,106,1,2,104,"binary"
"18FB6A772EAC454BB20B1A6B18E9C844",1,"0198f781-27cc-7dcd-9ba7-8fbd39039742","0198f767-55c9-7875-8d21-563b3c0b86ed","2025-08-29_16h25.19.464",NA,NA,791.666,791.666,791.666,792.016,NA,NA,NA,NA,NA,NA,NA,TRUE,1,2.976,788.669,791.666,NA,NA,NA,NA,NA,10,32,0,104,104,11,1,2,105,"binary"
"18FB6A772EAC454BB20B1A6B18E9C844",1,"0198f781-27cc-7dcd-9ba7-8fbd39039742","0198f767-55c9-7875-8d21-563b3c0b86ed","2025-08-29_16h25.19.464",NA,NA,795.016,795.016,795.016,795.366,NA,NA,NA,NA,NA,NA,NA,TRUE,1,0.227,792.019,795.016,NA,NA,NA,NA,NA,21,26,0,105,105,24,1,2,106,"binary"
"18FB6A772EAC454BB20B1A6B18E9C844",1,"0198f781-27cc-7dcd-9ba7-8fbd39039742","0198f767-55c9-7875-8d21-563b3c0b86ed","2025-08-29_16h25.19.464",NA,NA,798.366,798.366,798.366,798.716,NA,NA,NA,NA,NA,NA,NA,TRUE,1,0.051,795.368,798.366,NA,NA,NA,NA,NA,60,29,0,106,106,66,1,2,107,"binary"
"18FB6A772EAC454BB20B1A6B18E9C844",1,"0198f781-27cc-7dcd-9ba7-8fbd39039742","0198f767-55c9-7875-8d21-563b3c0b86ed","2025-08-29_16h25.19.464",NA,NA,801.716,801.716,801.716,802.065,NA,NA,NA,NA,NA,NA,NA,TRUE,1,0.241,798.718,801.716,NA,NA,NA,NA,NA,90,54,0,107,107,77,1,2,108,"binary"
