"participant","session","assignmentId","projectId","date","practiceTrial.started","practiceTrial.stopped","tooLate.started","tooLate.stopped","blank.started","blank.stopped","trials_pract.thisRepN","trials_pract.thisTrialN","trials_pract.thisN","trials_pract.thisIndex","trials_pract.ran","delay_pract","amount_pract","responseMade","key","rt","trial.started","trial.stopped","trials.thisRepN","trials.thisTrialN","trials.thisN","trials.thisIndex","trials.ran","delay","amount","trials_2.thisRepN","trials_2.thisTrialN","trials_2.thisN","trials_2.thisIndex","trials_2.ran","block","trial","taskType"
"289563D6BCAF43739083EEA3D931B2A4",1,"01990a9c-833a-7543-bf5b-71b6d4b38da5","01990a83-7673-7c0c-a792-bbd8fbbaf673","2025-09-02_08h49.03.738",108.9978,111.9437,111.9588,111.9643,111.9643,112.2937,0,0,0,3,1,3,27,TRUE,2,1.516,NA,NA,NA,NA,NA,NA,NA,NA,NA,NA,NA,NA,NA,NA,0,1,"binary"
"289563D6BCAF43739083EEA3D931B2A4",1,"01990a9c-833a-7543-bf5b-71b6d4b38da5","01990a83-7673-7c0c-a792-bbd8fbbaf673","2025-09-02_08h49.03.738",112.2965,115.3016,115.3017,115.3018,115.3018,115.6529,0,1,1,2,1,14,45,TRUE,2,1.6214,NA,NA,NA,NA,NA,NA,NA,NA,NA,NA,NA,NA,NA,NA,0,2,"binary"
"289563D6BCAF43739083EEA3D931B2A4",1,"01990a9c-833a-7543-bf5b-71b6d4b38da5","01990a83-7673-7c0c-a792-bbd8fbbaf673","2025-09-02_08h49.03.738",115.6556,118.6442,118.6448,118.6448,118.6449,118.9951,0,2,2,1,1,100,50,TRUE,2,0.7736,NA,NA,NA,NA,NA,NA,NA,NA,NA,NA,NA,NA,NA,NA,0,3,"binary"
"289563D6BCAF43739083EEA3D931B2A4",1,"01990a9c-833a-7543-bf5b-71b6d4b38da5","01990a83-7673-7c0c-a792-bbd8fbbaf673","2025-09-02_08h49.03.738",119.0115,122.0032,122.0037,122.0038,122.0038,122.3541,0,3,3,0,1,7,30,TRUE,2,1.1539,NA,NA,NA,NA,NA,NA,NA,NA,NA,NA,NA,NA,NA,NA,0,4,"binary"
"289563D6BCAF43739083EEA3D931B2A4",1,"01990a9c-833a-7543-bf5b-71b6d4b38da5","01990a83-7673-7c0c-a792-bbd8fbbaf673","2025-09-02_08h49.03.738",122.3703,125.3455,125.3456,125.596,125.5961,125.6959,0,4,4,4,1,30,40,FALSE,NA,NA,NA,NA,NA,NA,NA,NA,NA,NA,NA,NA,NA,NA,NA,NA,0,5,"binary"
"289563D6BCAF43739083EEA3D931B2A4",1,"01990a9c-833a-7543-bf5b-71b6d4b38da5","01990a83-7673-7c0c-a792-bbd8fbbaf673","2025-09-02_08h49.03.738",NA,NA,165.1695,165.1696,165.1697,165.5195,NA,NA,NA,NA,NA,NA,NA,TRUE,1,2.319,162.2158,165.1691,0,0,0,76,1,90,46,NA,NA,NA,NA,NA,1,1,"binary"
"289563D6BCAF43739083EEA3D931B2A4",1,"01990a9c-833a-7543-bf5b-71b6d4b38da5","01990a83-7673-7c0c-a792-bbd8fbbaf673","2025-09-02_08h49.03.738",NA,NA,168.5276,168.7782,168.7782,168.8782,NA,NA,NA,NA,NA,NA,NA,FALSE,NA,NA,165.535,168.5274,0,1,1,34,1,25,35,NA,NA,NA,NA,NA,1,2,"binary"
"289563D6BCAF43739083EEA3D931B2A4",1,"01990a9c-833a-7543-bf5b-71b6d4b38da5","01990a83-7673-7c0c-a792-bbd8fbbaf673","2025-09-02_08h49.03.738",NA,NA,171.8699,171.8699,171.8699,172.2205,NA,NA,NA,NA,NA,NA,NA,TRUE,1,1.5202,168.8806,171.8695,0,2,2,67,1,60,33,NA,NA,NA,NA,NA,1,3,"binary"
"289563D6BCAF43739083EEA3D931B2A4",1,"01990a9c-833a-7543-bf5b-71b6d4b38da5","01990a83-7673-7c0c-a792-bbd8fbbaf673","2025-09-02_08h49.03.738",NA,NA,175.2292,175.2293,175.2293,175.579,NA,NA,NA,NA,NA,NA,NA,TRUE,2,1.0934,172.237,175.2287,0,3,3,26,1,21,29,NA,NA,NA,NA,NA,1,4,"binary"
"289563D6BCAF43739083EEA3D931B2A4",1,"01990a9c-833a-7543-bf5b-71b6d4b38da5","01990a83-7673-7c0c-a792-bbd8fbbaf673","2025-09-02_08h49.03.738",NA,NA,178.5708,178.5709,178.5709,178.9218,NA,NA,NA,NA,NA,NA,NA,TRUE,1,1.2596,175.5952,178.5707,0,4,4,51,1,40,40,NA,NA,NA,NA,NA,1,5,"binary"
"289563D6BCAF43739083EEA3D931B2A4",1,"01990a9c-833a-7543-bf5b-71b6d4b38da5","01990a83-7673-7c0c-a792-bbd8fbbaf673","2025-09-02_08h49.03.738",NA,NA,181.9304,181.9305,181.9305,182.2642,NA,NA,NA,NA,NA,NA,NA,TRUE,2,1.6706,178.924,181.9299,0,5,5,23,1,14,39,NA,NA,NA,NA,NA,1,6,"binary"
"289563D6BCAF43739083EEA3D931B2A4",1,"01990a9c-833a-7543-bf5b-71b6d4b38da5","01990a83-7673-7c0c-a792-bbd8fbbaf673","2025-09-02_08h49.03.738",NA,NA,185.2727,185.2728,185.2728,185.6229,NA,NA,NA,NA,NA,NA,NA,TRUE,1,1.3792,182.2806,185.2721,0,6,6,37,1,28,28,NA,NA,NA,NA,NA,1,7,"binary"
"289563D6BCAF43739083EEA3D931B2A4",1,"01990a9c-833a-7543-bf5b-71b6d4b38da5","01990a83-7673-7c0c-a792-bbd8fbbaf673","2025-09-02_08h49.03.738",NA,NA,188.6312,188.6312,188.6313,188.9656,NA,NA,NA,NA,NA,NA,NA,TRUE,2,1.6838,185.6339,188.631,0,7,7,28,1,21,32,NA,NA,NA,NA,NA,1,8,"binary"
"289563D6BCAF43739083EEA3D931B2A4",1,"01990a9c-833a-7543-bf5b-71b6d4b38da5","01990a83-7673-7c0c-a792-bbd8fbbaf673","2025-09-02_08h49.03.738",NA,NA,191.9741,191.9742,191.9742,192.3245,NA,NA,NA,NA,NA,NA,NA,TRUE,1,1.0427,188.9676,191.9734,0,8,8,74,1,90,33,NA,NA,NA,NA,NA,1,9,"binary"
"289563D6BCAF43739083EEA3D931B2A4",1,"01990a9c-833a-7543-bf5b-71b6d4b38da5","01990a83-7673-7c0c-a792-bbd8fbbaf673","2025-09-02_08h49.03.738",NA,NA,195.3164,195.3164,195.3164,195.6668,NA,NA,NA,NA,NA,NA,NA,TRUE,1,1.1896,192.3407,195.3157,0,9,9,86,1,100,38,NA,NA,NA,NA,NA,1,10,"binary"
"289563D6BCAF43739083EEA3D931B2A4",1,"01990a9c-833a-7543-bf5b-71b6d4b38da5","01990a83-7673-7c0c-a792-bbd8fbbaf673","2025-09-02_08h49.03.738",NA,NA,198.6749,198.6749,198.675,199.0258,NA,NA,NA,NA,NA,NA,NA,TRUE,1,1.8649,195.6829,198.6747,0,10,10,46,1,30,32,NA,NA,NA,NA,NA,1,11,"binary"
"289563D6BCAF43739083EEA3D931B2A4",1,"01990a9c-833a-7543-bf5b-71b6d4b38da5","01990a83-7673-7c0c-a792-bbd8fbbaf673","2025-09-02_08h49.03.738",NA,NA,202.0181,202.0182,202.0182,202.3677,NA,NA,NA,NA,NA,NA,NA,TRUE,1,1.6411,199.028,202.016,0,11,11,68,1,60,35,NA,NA,NA,NA,NA,1,12,"binary"
"289563D6BCAF43739083EEA3D931B2A4",1,"01990a9c-833a-7543-bf5b-71b6d4b38da5","01990a83-7673-7c0c-a792-bbd8fbbaf673","2025-09-02_08h49.03.738",NA,NA,205.3762,205.3763,205.3763,205.726,NA,NA,NA,NA,NA,NA,NA,TRUE,1,0.7829,202.3879,205.3758,0,12,12,75,1,90,40,NA,NA,NA,NA,NA,1,13,"binary"
"289563D6BCAF43739083EEA3D931B2A4",1,"01990a9c-833a-7543-bf5b-71b6d4b38da5","01990a83-7673-7c0c-a792-bbd8fbbaf673","2025-09-02_08h49.03.738",NA,NA,208.7183,208.7183,208.7183,209.069,NA,NA,NA,NA,NA,NA,NA,TRUE,1,0.7193,205.7386,208.7181,0,13,13,89,1,100,54,NA,NA,NA,NA,NA,1,14,"binary"
"289563D6BCAF43739083EEA3D931B2A4",1,"01990a9c-833a-7543-bf5b-71b6d4b38da5","01990a83-7673-7c0c-a792-bbd8fbbaf673","2025-09-02_08h49.03.738",NA,NA,212.0776,212.0777,212.0777,212.4269,NA,NA,NA,NA,NA,NA,NA,TRUE,1,0.8856,209.071,212.0771,0,14,14,107,1,200,54,NA,NA,NA,NA,NA,1,15,"binary"
"289563D6BCAF43739083EEA3D931B2A4",1,"01990a9c-833a-7543-bf5b-71b6d4b38da5","01990a83-7673-7c0c-a792-bbd8fbbaf673","2025-09-02_08h49.03.738",NA,NA,215.4193,215.4193,215.4194,215.7702,NA,NA,NA,NA,NA,NA,NA,TRUE,1,1.3403,212.4431,215.4188,0,15,15,91,1,150,33,NA,NA,NA,NA,NA,1,16,"binary"
"289563D6BCAF43739083EEA3D931B2A4",1,"01990a9c-833a-7543-bf5b-71b6d4b38da5","01990a83-7673-7c0c-a792-bbd8fbbaf673","2025-09-02_08h49.03.738",NA,NA,218.7784,218.7784,218.7785,219.1293,NA,NA,NA,NA,NA,NA,NA,TRUE,1,2.2651,215.7866,218.7783,0,16,16,59,1,45,46,NA,NA,NA,NA,NA,1,17,"binary"
"289563D6BCAF43739083EEA3D931B2A4",1,"01990a9c-833a-7543-bf5b-71b6d4b38da5","01990a83-7673-7c0c-a792-bbd8fbbaf673","2025-09-02_08h49.03.738",NA,NA,222.1211,222.1212,222.1212,222.471,NA,NA,NA,NA,NA,NA,NA,TRUE,1,2.0541,219.1316,222.1206,0,17,17,97,1,180,31,NA,NA,NA,NA,NA,1,18,"binary"
"289563D6BCAF43739083EEA3D931B2A4",1,"01990a9c-833a-7543-bf5b-71b6d4b38da5","01990a83-7673-7c0c-a792-bbd8fbbaf673","2025-09-02_08h49.03.738",NA,NA,225.4798,225.4799,225.4799,225.8294,NA,NA,NA,NA,NA,NA,NA,TRUE,2,1.8775,222.4872,225.4792,0,18,18,20,1,14,28,NA,NA,NA,NA,NA,1,19,"binary"
"289563D6BCAF43739083EEA3D931B2A4",1,"01990a9c-833a-7543-bf5b-71b6d4b38da5","01990a83-7673-7c0c-a792-bbd8fbbaf673","2025-09-02_08h49.03.738",NA,NA,228.8214,228.8214,228.8214,229.1735,NA,NA,NA,NA,NA,NA,NA,TRUE,1,1.7289,225.8456,228.8213,0,19,19,92,1,150,35,NA,NA,NA,NA,NA,1,20,"binary"
"289563D6BCAF43739083EEA3D931B2A4",1,"01990a9c-833a-7543-bf5b-71b6d4b38da5","01990a83-7673-7c0c-a792-bbd8fbbaf673","2025-09-02_08h49.03.738",NA,NA,232.1646,232.1646,232.1647,232.515,NA,NA,NA,NA,NA,NA,NA,TRUE,2,2.4054,229.1895,232.1641,0,20,20,6,1,10,25,NA,NA,NA,NA,NA,1,21,"binary"
"289563D6BCAF43739083EEA3D931B2A4",1,"01990a9c-833a-7543-bf5b-71b6d4b38da5","01990a83-7673-7c0c-a792-bbd8fbbaf673","2025-09-02_08h49.03.738",NA,NA,235.5236,235.7726,235.7726,235.8737,NA,NA,NA,NA,NA,NA,NA,FALSE,NA,NA,232.517,235.523,0,21,21,48,1,40,27,NA,NA,NA,NA,NA,1,22,"binary"
"289563D6BCAF43739083EEA3D931B2A4",1,"01990a9c-833a-7543-bf5b-71b6d4b38da5","01990a83-7673-7c0c-a792-bbd8fbbaf673","2025-09-02_08h49.03.738",NA,NA,238.8822,238.8822,238.8823,239.2149,NA,NA,NA,NA,NA,NA,NA,TRUE,1,2.0016,235.8852,238.8821,0,22,22,70,1,60,47,NA,NA,NA,NA,NA,1,23,"binary"
"289563D6BCAF43739083EEA3D931B2A4",1,"01990a9c-833a-7543-bf5b-71b6d4b38da5","01990a83-7673-7c0c-a792-bbd8fbbaf673","2025-09-02_08h49.03.738",NA,NA,242.2246,242.4747,242.4748,242.5749,NA,NA,NA,NA,NA,NA,NA,FALSE,NA,NA,239.2313,242.2241,0,23,23,21,1,14,32,NA,NA,NA,NA,NA,1,24,"binary"
"289563D6BCAF43739083EEA3D931B2A4",1,"01990a9c-833a-7543-bf5b-71b6d4b38da5","01990a83-7673-7c0c-a792-bbd8fbbaf673","2025-09-02_08h49.03.738",NA,NA,245.567,245.5671,245.5671,245.9175,NA,NA,NA,NA,NA,NA,NA,TRUE,2,1.3301,242.5763,245.5665,0,24,24,4,1,7,32,NA,NA,NA,NA,NA,1,25,"binary"
"289563D6BCAF43739083EEA3D931B2A4",1,"01990a9c-833a-7543-bf5b-71b6d4b38da5","01990a83-7673-7c0c-a792-bbd8fbbaf673","2025-09-02_08h49.03.738",NA,NA,248.9257,248.9257,248.9257,249.2764,NA,NA,NA,NA,NA,NA,NA,TRUE,1,2.766,245.9338,248.9255,0,25,25,82,1,95,47,NA,NA,NA,NA,NA,1,26,"binary"
"289563D6BCAF43739083EEA3D931B2A4",1,"01990a9c-833a-7543-bf5b-71b6d4b38da5","01990a83-7673-7c0c-a792-bbd8fbbaf673","2025-09-02_08h49.03.738",NA,NA,252.2673,252.2673,252.2673,252.6186,NA,NA,NA,NA,NA,NA,NA,TRUE,1,1.4235,249.2927,252.2667,0,26,26,55,1,45,29,NA,NA,NA,NA,NA,1,27,"binary"
"289563D6BCAF43739083EEA3D931B2A4",1,"01990a9c-833a-7543-bf5b-71b6d4b38da5","01990a83-7673-7c0c-a792-bbd8fbbaf673","2025-09-02_08h49.03.738",NA,NA,255.6272,255.6273,255.6273,255.9776,NA,NA,NA,NA,NA,NA,NA,TRUE,1,1.0433,252.6207,255.6267,0,27,27,57,1,45,35,NA,NA,NA,NA,NA,1,28,"binary"
"289563D6BCAF43739083EEA3D931B2A4",1,"01990a9c-833a-7543-bf5b-71b6d4b38da5","01990a83-7673-7c0c-a792-bbd8fbbaf673","2025-09-02_08h49.03.738",NA,NA,258.9692,258.9692,258.9692,259.3198,NA,NA,NA,NA,NA,NA,NA,TRUE,1,1.1359,255.994,258.969,0,28,28,104,1,200,35,NA,NA,NA,NA,NA,1,29,"binary"
"289563D6BCAF43739083EEA3D931B2A4",1,"01990a9c-833a-7543-bf5b-71b6d4b38da5","01990a83-7673-7c0c-a792-bbd8fbbaf673","2025-09-02_08h49.03.738",NA,NA,262.3284,262.3285,262.3285,262.6789,NA,NA,NA,NA,NA,NA,NA,TRUE,1,1.0496,259.3361,262.3279,0,29,29,52,1,40,47,NA,NA,NA,NA,NA,1,30,"binary"
"289563D6BCAF43739083EEA3D931B2A4",1,"01990a9c-833a-7543-bf5b-71b6d4b38da5","01990a83-7673-7c0c-a792-bbd8fbbaf673","2025-09-02_08h49.03.738",NA,NA,265.6701,265.6701,265.6702,266.0212,NA,NA,NA,NA,NA,NA,NA,TRUE,1,1.6409,262.6811,265.6695,0,30,30,54,1,45,26,NA,NA,NA,NA,NA,1,31,"binary"
"289563D6BCAF43739083EEA3D931B2A4",1,"01990a9c-833a-7543-bf5b-71b6d4b38da5","01990a83-7673-7c0c-a792-bbd8fbbaf673","2025-09-02_08h49.03.738",NA,NA,269.0294,269.0294,269.0294,269.3802,NA,NA,NA,NA,NA,NA,NA,TRUE,1,1.8784,266.0375,269.0292,0,31,31,25,1,21,27,NA,NA,NA,NA,NA,1,32,"binary"
"289563D6BCAF43739083EEA3D931B2A4",1,"01990a9c-833a-7543-bf5b-71b6d4b38da5","01990a83-7673-7c0c-a792-bbd8fbbaf673","2025-09-02_08h49.03.738",NA,NA,272.372,272.3721,272.3721,272.7224,NA,NA,NA,NA,NA,NA,NA,TRUE,1,2.0566,269.3965,272.3715,0,32,32,99,1,180,39,NA,NA,NA,NA,NA,1,33,"binary"
"289563D6BCAF43739083EEA3D931B2A4",1,"01990a9c-833a-7543-bf5b-71b6d4b38da5","01990a83-7673-7c0c-a792-bbd8fbbaf673","2025-09-02_08h49.03.738",NA,NA,275.7309,275.7311,275.7311,276.0813,NA,NA,NA,NA,NA,NA,NA,TRUE,1,1.8293,272.7246,275.7305,0,33,33,13,1,12,26,NA,NA,NA,NA,NA,1,34,"binary"
"289563D6BCAF43739083EEA3D931B2A4",1,"01990a9c-833a-7543-bf5b-71b6d4b38da5","01990a83-7673-7c0c-a792-bbd8fbbaf673","2025-09-02_08h49.03.738",NA,NA,279.0723,279.0723,279.0723,279.4235,NA,NA,NA,NA,NA,NA,NA,TRUE,1,2.3636,276.0976,279.0721,0,34,34,14,1,12,28,NA,NA,NA,NA,NA,1,35,"binary"
"289563D6BCAF43739083EEA3D931B2A4",1,"01990a9c-833a-7543-bf5b-71b6d4b38da5","01990a83-7673-7c0c-a792-bbd8fbbaf673","2025-09-02_08h49.03.738",NA,NA,282.4155,282.4155,282.4155,282.7659,NA,NA,NA,NA,NA,NA,NA,TRUE,1,1.2446,279.4397,282.415,0,35,35,62,1,50,35,NA,NA,NA,NA,NA,1,36,"binary"
"289563D6BCAF43739083EEA3D931B2A4",1,"01990a9c-833a-7543-bf5b-71b6d4b38da5","01990a83-7673-7c0c-a792-bbd8fbbaf673","2025-09-02_08h49.03.738",NA,NA,285.7744,285.7744,285.7744,286.1247,NA,NA,NA,NA,NA,NA,NA,TRUE,1,1.5232,282.7682,285.7738,0,36,36,43,1,30,27,NA,NA,NA,NA,NA,1,37,"binary"
"289563D6BCAF43739083EEA3D931B2A4",1,"01990a9c-833a-7543-bf5b-71b6d4b38da5","01990a83-7673-7c0c-a792-bbd8fbbaf673","2025-09-02_08h49.03.738",NA,NA,289.1163,289.1163,289.1163,289.4665,NA,NA,NA,NA,NA,NA,NA,TRUE,1,1.2955,286.1411,289.1161,0,37,37,24,1,21,26,NA,NA,NA,NA,NA,1,38,"binary"
"289563D6BCAF43739083EEA3D931B2A4",1,"01990a9c-833a-7543-bf5b-71b6d4b38da5","01990a83-7673-7c0c-a792-bbd8fbbaf673","2025-09-02_08h49.03.738",NA,NA,292.475,292.4751,292.4751,292.8261,NA,NA,NA,NA,NA,NA,NA,TRUE,1,1.544,289.483,292.4746,0,38,38,47,1,30,38,NA,NA,NA,NA,NA,1,39,"binary"
"289563D6BCAF43739083EEA3D931B2A4",1,"01990a9c-833a-7543-bf5b-71b6d4b38da5","01990a83-7673-7c0c-a792-bbd8fbbaf673","2025-09-02_08h49.03.738",NA,NA,295.818,295.818,295.818,296.1683,NA,NA,NA,NA,NA,NA,NA,TRUE,2,1.3417,292.8282,295.8174,0,39,39,11,1,10,32,NA,NA,NA,NA,NA,1,40,"binary"
"289563D6BCAF43739083EEA3D931B2A4",1,"01990a9c-833a-7543-bf5b-71b6d4b38da5","01990a83-7673-7c0c-a792-bbd8fbbaf673","2025-09-02_08h49.03.738",NA,NA,299.1768,299.1769,299.1769,299.5267,NA,NA,NA,NA,NA,NA,NA,TRUE,1,1.7124,296.1846,299.1767,0,40,40,1,1,7,26,NA,NA,NA,NA,NA,1,41,"binary"
"289563D6BCAF43739083EEA3D931B2A4",1,"01990a9c-833a-7543-bf5b-71b6d4b38da5","01990a83-7673-7c0c-a792-bbd8fbbaf673","2025-09-02_08h49.03.738",NA,NA,302.5181,302.5182,302.5182,302.8695,NA,NA,NA,NA,NA,NA,NA,TRUE,1,2.1421,299.5427,302.5176,0,41,41,102,1,200,26,NA,NA,NA,NA,NA,1,42,"binary"
"289563D6BCAF43739083EEA3D931B2A4",1,"01990a9c-833a-7543-bf5b-71b6d4b38da5","01990a83-7673-7c0c-a792-bbd8fbbaf673","2025-09-02_08h49.03.738",NA,NA,305.878,305.8781,305.8781,306.2289,NA,NA,NA,NA,NA,NA,NA,TRUE,1,1.1713,302.8714,305.8774,0,42,42,96,1,180,27,NA,NA,NA,NA,NA,1,43,"binary"
"289563D6BCAF43739083EEA3D931B2A4",1,"01990a9c-833a-7543-bf5b-71b6d4b38da5","01990a83-7673-7c0c-a792-bbd8fbbaf673","2025-09-02_08h49.03.738",NA,NA,309.2202,309.2202,309.2202,309.5709,NA,NA,NA,NA,NA,NA,NA,TRUE,1,1.4894,306.2442,309.2199,0,43,43,101,1,180,54,NA,NA,NA,NA,NA,1,44,"binary"
"289563D6BCAF43739083EEA3D931B2A4",1,"01990a9c-833a-7543-bf5b-71b6d4b38da5","01990a83-7673-7c0c-a792-bbd8fbbaf673","2025-09-02_08h49.03.738",NA,NA,312.5796,312.5796,312.5797,312.93,NA,NA,NA,NA,NA,NA,NA,TRUE,1,2.7399,309.5871,312.5791,0,44,44,38,1,28,32,NA,NA,NA,NA,NA,1,45,"binary"
"289563D6BCAF43739083EEA3D931B2A4",1,"01990a9c-833a-7543-bf5b-71b6d4b38da5","01990a83-7673-7c0c-a792-bbd8fbbaf673","2025-09-02_08h49.03.738",NA,NA,315.9206,315.9206,315.9206,316.2716,NA,NA,NA,NA,NA,NA,NA,TRUE,1,2.0687,312.932,315.9201,0,45,45,8,1,10,27,NA,NA,NA,NA,NA,1,46,"binary"
"289563D6BCAF43739083EEA3D931B2A4",1,"01990a9c-833a-7543-bf5b-71b6d4b38da5","01990a83-7673-7c0c-a792-bbd8fbbaf673","2025-09-02_08h49.03.738",NA,NA,319.2802,319.2802,319.2802,319.6144,NA,NA,NA,NA,NA,NA,NA,TRUE,1,1.2113,316.2882,319.28,0,46,46,45,1,30,30,NA,NA,NA,NA,NA,1,47,"binary"
"289563D6BCAF43739083EEA3D931B2A4",1,"01990a9c-833a-7543-bf5b-71b6d4b38da5","01990a83-7673-7c0c-a792-bbd8fbbaf673","2025-09-02_08h49.03.738",NA,NA,322.6019,322.6019,322.6019,322.9729,NA,NA,NA,NA,NA,NA,NA,TRUE,1,1.571,319.6308,322.5899,0,47,47,98,1,180,35,NA,NA,NA,NA,NA,1,48,"binary"
"289563D6BCAF43739083EEA3D931B2A4",1,"01990a9c-833a-7543-bf5b-71b6d4b38da5","01990a83-7673-7c0c-a792-bbd8fbbaf673","2025-09-02_08h49.03.738",NA,NA,325.9674,325.9674,325.9674,326.3148,NA,NA,NA,NA,NA,NA,NA,TRUE,1,1.1714,323.0072,325.9647,0,48,48,106,1,200,47,NA,NA,NA,NA,NA,1,49,"binary"
"289563D6BCAF43739083EEA3D931B2A4",1,"01990a9c-833a-7543-bf5b-71b6d4b38da5","01990a83-7673-7c0c-a792-bbd8fbbaf673","2025-09-02_08h49.03.738",NA,NA,329.3238,329.3238,329.3239,329.6745,NA,NA,NA,NA,NA,NA,NA,TRUE,1,1.7146,326.3393,329.3237,0,49,49,31,1,25,29,NA,NA,NA,NA,NA,1,50,"binary"
"289563D6BCAF43739083EEA3D931B2A4",1,"01990a9c-833a-7543-bf5b-71b6d4b38da5","01990a83-7673-7c0c-a792-bbd8fbbaf673","2025-09-02_08h49.03.738",NA,NA,332.6665,332.6665,332.6665,333.0168,NA,NA,NA,NA,NA,NA,NA,TRUE,1,1.2965,329.6908,332.6659,0,50,50,73,1,90,30,NA,NA,NA,NA,NA,1,51,"binary"
"289563D6BCAF43739083EEA3D931B2A4",1,"01990a9c-833a-7543-bf5b-71b6d4b38da5","01990a83-7673-7c0c-a792-bbd8fbbaf673","2025-09-02_08h49.03.738",NA,NA,336.0253,336.0253,336.0253,336.3758,NA,NA,NA,NA,NA,NA,NA,TRUE,1,1.0389,333.0188,336.0248,0,51,51,53,1,40,54,NA,NA,NA,NA,NA,1,52,"binary"
"289563D6BCAF43739083EEA3D931B2A4",1,"01990a9c-833a-7543-bf5b-71b6d4b38da5","01990a83-7673-7c0c-a792-bbd8fbbaf673","2025-09-02_08h49.03.738",NA,NA,339.3674,339.3674,339.3674,339.7172,NA,NA,NA,NA,NA,NA,NA,TRUE,2,2.2459,336.3919,339.3672,0,52,52,2,1,7,28,NA,NA,NA,NA,NA,1,53,"binary"
"289563D6BCAF43739083EEA3D931B2A4",1,"01990a9c-833a-7543-bf5b-71b6d4b38da5","01990a83-7673-7c0c-a792-bbd8fbbaf673","2025-09-02_08h49.03.738",NA,NA,342.726,342.7261,342.7261,343.077,NA,NA,NA,NA,NA,NA,NA,TRUE,2,2.978,339.7333,342.7255,0,53,53,9,1,10,29,NA,NA,NA,NA,NA,1,54,"binary"
"289563D6BCAF43739083EEA3D931B2A4",1,"01990a9c-833a-7543-bf5b-71b6d4b38da5","01990a83-7673-7c0c-a792-bbd8fbbaf673","2025-09-02_08h49.03.738",NA,NA,346.0689,346.0689,346.0689,346.4193,NA,NA,NA,NA,NA,NA,NA,TRUE,1,1.4898,343.0789,346.0683,0,54,54,32,1,25,31,NA,NA,NA,NA,NA,1,55,"binary"
"289563D6BCAF43739083EEA3D931B2A4",1,"01990a9c-833a-7543-bf5b-71b6d4b38da5","01990a83-7673-7c0c-a792-bbd8fbbaf673","2025-09-02_08h49.03.738",NA,NA,349.4274,349.4275,349.4276,349.7774,NA,NA,NA,NA,NA,NA,NA,TRUE,1,1.3028,346.4354,349.4272,0,55,55,83,1,95,54,NA,NA,NA,NA,NA,1,56,"binary"
"289563D6BCAF43739083EEA3D931B2A4",1,"01990a9c-833a-7543-bf5b-71b6d4b38da5","01990a83-7673-7c0c-a792-bbd8fbbaf673","2025-09-02_08h49.03.738",NA,NA,352.7702,352.7702,352.7703,353.1201,NA,NA,NA,NA,NA,NA,NA,TRUE,1,1.193,349.7936,352.7697,0,56,56,93,1,150,40,NA,NA,NA,NA,NA,1,57,"binary"
"289563D6BCAF43739083EEA3D931B2A4",1,"01990a9c-833a-7543-bf5b-71b6d4b38da5","01990a83-7673-7c0c-a792-bbd8fbbaf673","2025-09-02_08h49.03.738",NA,NA,356.1286,356.1286,356.1286,356.4795,NA,NA,NA,NA,NA,NA,NA,TRUE,1,1.3955,353.1223,356.128,0,57,57,36,1,28,26,NA,NA,NA,NA,NA,1,58,"binary"
"289563D6BCAF43739083EEA3D931B2A4",1,"01990a9c-833a-7543-bf5b-71b6d4b38da5","01990a83-7673-7c0c-a792-bbd8fbbaf673","2025-09-02_08h49.03.738",NA,NA,359.4714,359.4714,359.4714,359.8217,NA,NA,NA,NA,NA,NA,NA,TRUE,1,1.2721,356.4956,359.4708,0,58,58,19,1,14,26,NA,NA,NA,NA,NA,1,59,"binary"
"289563D6BCAF43739083EEA3D931B2A4",1,"01990a9c-833a-7543-bf5b-71b6d4b38da5","01990a83-7673-7c0c-a792-bbd8fbbaf673","2025-09-02_08h49.03.738",NA,NA,362.8299,362.83,362.83,363.1806,NA,NA,NA,NA,NA,NA,NA,TRUE,1,1.7884,359.8381,362.8298,0,59,59,12,1,12,25,NA,NA,NA,NA,NA,1,60,"binary"
"289563D6BCAF43739083EEA3D931B2A4",1,"01990a9c-833a-7543-bf5b-71b6d4b38da5","01990a83-7673-7c0c-a792-bbd8fbbaf673","2025-09-02_08h49.03.738",NA,NA,366.1714,366.1715,366.1715,366.5227,NA,NA,NA,NA,NA,NA,NA,TRUE,1,1.4724,363.1829,366.1709,0,60,60,35,1,25,46,NA,NA,NA,NA,NA,1,61,"binary"
"289563D6BCAF43739083EEA3D931B2A4",1,"01990a9c-833a-7543-bf5b-71b6d4b38da5","01990a83-7673-7c0c-a792-bbd8fbbaf673","2025-09-02_08h49.03.738",NA,NA,369.5147,369.5148,369.5148,369.8652,NA,NA,NA,NA,NA,NA,NA,TRUE,1,1.1532,366.5391,369.5143,0,61,61,30,1,25,27,NA,NA,NA,NA,NA,1,62,"binary"
"289563D6BCAF43739083EEA3D931B2A4",1,"01990a9c-833a-7543-bf5b-71b6d4b38da5","01990a83-7673-7c0c-a792-bbd8fbbaf673","2025-09-02_08h49.03.738",NA,NA,372.8728,372.8728,372.8728,373.2241,NA,NA,NA,NA,NA,NA,NA,TRUE,1,1.1251,369.8815,372.8727,0,62,62,105,1,200,39,NA,NA,NA,NA,NA,1,63,"binary"
"289563D6BCAF43739083EEA3D931B2A4",1,"01990a9c-833a-7543-bf5b-71b6d4b38da5","01990a83-7673-7c0c-a792-bbd8fbbaf673","2025-09-02_08h49.03.738",NA,NA,376.216,376.216,376.2161,376.5654,NA,NA,NA,NA,NA,NA,NA,TRUE,1,1.0274,373.2262,376.2155,0,63,63,29,1,21,38,NA,NA,NA,NA,NA,1,64,"binary"
"289563D6BCAF43739083EEA3D931B2A4",1,"01990a9c-833a-7543-bf5b-71b6d4b38da5","01990a83-7673-7c0c-a792-bbd8fbbaf673","2025-09-02_08h49.03.738",NA,NA,379.5741,379.5741,379.5741,379.9253,NA,NA,NA,NA,NA,NA,NA,TRUE,1,1.0608,376.5816,379.5735,0,64,64,84,1,100,26,NA,NA,NA,NA,NA,1,65,"binary"
"289563D6BCAF43739083EEA3D931B2A4",1,"01990a9c-833a-7543-bf5b-71b6d4b38da5","01990a83-7673-7c0c-a792-bbd8fbbaf673","2025-09-02_08h49.03.738",NA,NA,382.9169,382.9169,382.9169,383.2677,NA,NA,NA,NA,NA,NA,NA,TRUE,1,0.971,379.9417,382.9168,0,65,65,72,1,90,26,NA,NA,NA,NA,NA,1,66,"binary"
"289563D6BCAF43739083EEA3D931B2A4",1,"01990a9c-833a-7543-bf5b-71b6d4b38da5","01990a83-7673-7c0c-a792-bbd8fbbaf673","2025-09-02_08h49.03.738",NA,NA,386.2762,386.2762,386.2763,386.6265,NA,NA,NA,NA,NA,NA,NA,TRUE,1,1.019,383.2697,386.2757,0,66,66,100,1,180,46,NA,NA,NA,NA,NA,1,67,"binary"
"289563D6BCAF43739083EEA3D931B2A4",1,"01990a9c-833a-7543-bf5b-71b6d4b38da5","01990a83-7673-7c0c-a792-bbd8fbbaf673","2025-09-02_08h49.03.738",NA,NA,389.6184,389.6185,389.6185,389.9681,NA,NA,NA,NA,NA,NA,NA,TRUE,1,1.2197,386.6428,389.6179,0,67,67,49,1,40,33,NA,NA,NA,NA,NA,1,68,"binary"
"289563D6BCAF43739083EEA3D931B2A4",1,"01990a9c-833a-7543-bf5b-71b6d4b38da5","01990a83-7673-7c0c-a792-bbd8fbbaf673","2025-09-02_08h49.03.738",NA,NA,392.9763,392.9764,392.9764,393.3279,NA,NA,NA,NA,NA,NA,NA,TRUE,1,1.1262,389.9845,392.9761,0,68,68,7,1,10,26,NA,NA,NA,NA,NA,1,69,"binary"
"289563D6BCAF43739083EEA3D931B2A4",1,"01990a9c-833a-7543-bf5b-71b6d4b38da5","01990a83-7673-7c0c-a792-bbd8fbbaf673","2025-09-02_08h49.03.738",NA,NA,396.3197,396.3197,396.3197,396.6696,NA,NA,NA,NA,NA,NA,NA,TRUE,1,0.965,393.3299,396.3192,0,69,69,71,1,60,54,NA,NA,NA,NA,NA,1,70,"binary"
"289563D6BCAF43739083EEA3D931B2A4",1,"01990a9c-833a-7543-bf5b-71b6d4b38da5","01990a83-7673-7c0c-a792-bbd8fbbaf673","2025-09-02_08h49.03.738",NA,NA,399.6788,399.6788,399.6789,400.0291,NA,NA,NA,NA,NA,NA,NA,TRUE,1,1.0743,396.686,399.6782,0,70,70,58,1,45,40,NA,NA,NA,NA,NA,1,71,"binary"
"289563D6BCAF43739083EEA3D931B2A4",1,"01990a9c-833a-7543-bf5b-71b6d4b38da5","01990a83-7673-7c0c-a792-bbd8fbbaf673","2025-09-02_08h49.03.738",NA,NA,403.0206,403.0206,403.0206,403.3707,NA,NA,NA,NA,NA,NA,NA,TRUE,2,1.4444,400.0452,403.0204,0,71,71,16,1,12,33,NA,NA,NA,NA,NA,1,72,"binary"
"289563D6BCAF43739083EEA3D931B2A4",1,"01990a9c-833a-7543-bf5b-71b6d4b38da5","01990a83-7673-7c0c-a792-bbd8fbbaf673","2025-09-02_08h49.03.738",NA,NA,406.3787,406.3788,406.3788,406.7303,NA,NA,NA,NA,NA,NA,NA,TRUE,1,1.1571,403.3729,406.3782,0,72,72,77,1,90,54,NA,NA,NA,NA,NA,1,73,"binary"
"289563D6BCAF43739083EEA3D931B2A4",1,"01990a9c-833a-7543-bf5b-71b6d4b38da5","01990a83-7673-7c0c-a792-bbd8fbbaf673","2025-09-02_08h49.03.738",NA,NA,409.7223,409.7223,409.7223,410.0726,NA,NA,NA,NA,NA,NA,NA,TRUE,1,2.6757,406.7465,409.7217,0,73,73,0,1,7,25,NA,NA,NA,NA,NA,1,74,"binary"
"289563D6BCAF43739083EEA3D931B2A4",1,"01990a9c-833a-7543-bf5b-71b6d4b38da5","01990a83-7673-7c0c-a792-bbd8fbbaf673","2025-09-02_08h49.03.738",NA,NA,413.064,413.0641,413.0641,413.4149,NA,NA,NA,NA,NA,NA,NA,TRUE,1,1.6709,410.0888,413.0639,0,74,74,44,1,30,29,NA,NA,NA,NA,NA,1,75,"binary"
"289563D6BCAF43739083EEA3D931B2A4",1,"01990a9c-833a-7543-bf5b-71b6d4b38da5","01990a83-7673-7c0c-a792-bbd8fbbaf673","2025-09-02_08h49.03.738",NA,NA,416.4235,416.4235,416.4236,416.7734,NA,NA,NA,NA,NA,NA,NA,TRUE,1,1.0448,413.4171,416.4229,0,75,75,87,1,100,39,NA,NA,NA,NA,NA,1,76,"binary"
"289563D6BCAF43739083EEA3D931B2A4",1,"01990a9c-833a-7543-bf5b-71b6d4b38da5","01990a83-7673-7c0c-a792-bbd8fbbaf673","2025-09-02_08h49.03.738",NA,NA,419.7653,419.7653,419.7653,420.1162,NA,NA,NA,NA,NA,NA,NA,TRUE,1,2.0744,416.7894,419.765,0,76,76,78,1,95,31,NA,NA,NA,NA,NA,1,77,"binary"
"289563D6BCAF43739083EEA3D931B2A4",1,"01990a9c-833a-7543-bf5b-71b6d4b38da5","01990a83-7673-7c0c-a792-bbd8fbbaf673","2025-09-02_08h49.03.738",NA,NA,423.1243,423.1244,423.1244,423.4751,NA,NA,NA,NA,NA,NA,NA,TRUE,1,1.1405,420.1322,423.1242,0,77,77,90,1,150,31,NA,NA,NA,NA,NA,1,78,"binary"
"289563D6BCAF43739083EEA3D931B2A4",1,"01990a9c-833a-7543-bf5b-71b6d4b38da5","01990a83-7673-7c0c-a792-bbd8fbbaf673","2025-09-02_08h49.03.738",NA,NA,426.467,426.4671,426.4671,426.8162,NA,NA,NA,NA,NA,NA,NA,TRUE,1,1.1493,423.4772,426.4665,0,78,78,27,1,21,30,NA,NA,NA,NA,NA,1,79,"binary"
"289563D6BCAF43739083EEA3D931B2A4",1,"01990a9c-833a-7543-bf5b-71b6d4b38da5","01990a83-7673-7c0c-a792-bbd8fbbaf673","2025-09-02_08h49.03.738",NA,NA,429.8261,429.8261,429.8262,430.1761,NA,NA,NA,NA,NA,NA,NA,TRUE,2,1.3965,426.8324,429.8256,0,79,79,10,1,10,30,NA,NA,NA,NA,NA,1,80,"binary"
"289563D6BCAF43739083EEA3D931B2A4",1,"01990a9c-833a-7543-bf5b-71b6d4b38da5","01990a83-7673-7c0c-a792-bbd8fbbaf673","2025-09-02_08h49.03.738",NA,NA,433.168,433.168,433.168,433.5176,NA,NA,NA,NA,NA,NA,NA,TRUE,1,1.9444,430.1922,433.1678,0,80,80,79,1,95,33,NA,NA,NA,NA,NA,1,81,"binary"
"289563D6BCAF43739083EEA3D931B2A4",1,"01990a9c-833a-7543-bf5b-71b6d4b38da5","01990a83-7673-7c0c-a792-bbd8fbbaf673","2025-09-02_08h49.03.738",NA,NA,436.5275,436.5276,436.5277,436.8778,NA,NA,NA,NA,NA,NA,NA,TRUE,1,1.3615,433.5198,436.5268,0,81,81,65,1,50,54,NA,NA,NA,NA,NA,1,82,"binary"
"289563D6BCAF43739083EEA3D931B2A4",1,"01990a9c-833a-7543-bf5b-71b6d4b38da5","01990a83-7673-7c0c-a792-bbd8fbbaf673","2025-09-02_08h49.03.738",NA,NA,439.8697,439.8697,439.8697,440.2189,NA,NA,NA,NA,NA,NA,NA,TRUE,1,2.3145,436.894,439.8689,0,82,82,15,1,12,31,NA,NA,NA,NA,NA,1,83,"binary"
"289563D6BCAF43739083EEA3D931B2A4",1,"01990a9c-833a-7543-bf5b-71b6d4b38da5","01990a83-7673-7c0c-a792-bbd8fbbaf673","2025-09-02_08h49.03.738",NA,NA,443.2271,443.2272,443.2272,443.5787,NA,NA,NA,NA,NA,NA,NA,TRUE,1,1.7444,440.2352,443.227,0,83,83,80,1,95,35,NA,NA,NA,NA,NA,1,84,"binary"
"289563D6BCAF43739083EEA3D931B2A4",1,"01990a9c-833a-7543-bf5b-71b6d4b38da5","01990a83-7673-7c0c-a792-bbd8fbbaf673","2025-09-02_08h49.03.738",NA,NA,446.5708,446.5708,446.5708,446.9211,NA,NA,NA,NA,NA,NA,NA,TRUE,2,2.0255,443.5807,446.5703,0,84,84,22,1,14,35,NA,NA,NA,NA,NA,1,85,"binary"
"289563D6BCAF43739083EEA3D931B2A4",1,"01990a9c-833a-7543-bf5b-71b6d4b38da5","01990a83-7673-7c0c-a792-bbd8fbbaf673","2025-09-02_08h49.03.738",NA,NA,449.9298,449.9298,449.9299,450.28,NA,NA,NA,NA,NA,NA,NA,TRUE,1,0.9279,446.9377,449.9292,0,85,85,85,1,100,31,NA,NA,NA,NA,NA,1,86,"binary"
"289563D6BCAF43739083EEA3D931B2A4",1,"01990a9c-833a-7543-bf5b-71b6d4b38da5","01990a83-7673-7c0c-a792-bbd8fbbaf673","2025-09-02_08h49.03.738",NA,NA,453.2717,453.2718,453.2718,453.6214,NA,NA,NA,NA,NA,NA,NA,TRUE,1,1.201,450.2963,453.2713,0,86,86,94,1,150,47,NA,NA,NA,NA,NA,1,87,"binary"
"289563D6BCAF43739083EEA3D931B2A4",1,"01990a9c-833a-7543-bf5b-71b6d4b38da5","01990a83-7673-7c0c-a792-bbd8fbbaf673","2025-09-02_08h49.03.738",NA,NA,456.6301,456.6301,456.6301,456.9645,NA,NA,NA,NA,NA,NA,NA,TRUE,1,1.6069,453.6706,456.6295,0,87,87,40,1,28,39,NA,NA,NA,NA,NA,1,88,"binary"
"289563D6BCAF43739083EEA3D931B2A4",1,"01990a9c-833a-7543-bf5b-71b6d4b38da5","01990a83-7673-7c0c-a792-bbd8fbbaf673","2025-09-02_08h49.03.738",NA,NA,459.973,459.973,459.973,460.3234,NA,NA,NA,NA,NA,NA,NA,TRUE,1,1.2285,456.9807,459.9725,0,88,88,69,1,60,40,NA,NA,NA,NA,NA,1,89,"binary"
"289563D6BCAF43739083EEA3D931B2A4",1,"01990a9c-833a-7543-bf5b-71b6d4b38da5","01990a83-7673-7c0c-a792-bbd8fbbaf673","2025-09-02_08h49.03.738",NA,NA,463.315,463.315,463.315,463.6656,NA,NA,NA,NA,NA,NA,NA,TRUE,1,1.0838,460.3359,463.3148,0,89,89,60,1,50,27,NA,NA,NA,NA,NA,1,90,"binary"
"289563D6BCAF43739083EEA3D931B2A4",1,"01990a9c-833a-7543-bf5b-71b6d4b38da5","01990a83-7673-7c0c-a792-bbd8fbbaf673","2025-09-02_08h49.03.738",NA,NA,466.6744,466.6744,466.6744,467.0241,NA,NA,NA,NA,NA,NA,NA,TRUE,1,1.6634,463.6679,466.6738,0,90,90,61,1,50,30,NA,NA,NA,NA,NA,1,91,"binary"
"289563D6BCAF43739083EEA3D931B2A4",1,"01990a9c-833a-7543-bf5b-71b6d4b38da5","01990a83-7673-7c0c-a792-bbd8fbbaf673","2025-09-02_08h49.03.738",NA,NA,470.0165,470.0166,470.0166,470.367,NA,NA,NA,NA,NA,NA,NA,TRUE,1,1.545,467.0404,470.0159,0,91,91,50,1,40,35,NA,NA,NA,NA,NA,1,92,"binary"
"289563D6BCAF43739083EEA3D931B2A4",1,"01990a9c-833a-7543-bf5b-71b6d4b38da5","01990a83-7673-7c0c-a792-bbd8fbbaf673","2025-09-02_08h49.03.738",NA,NA,473.3752,473.3753,473.3753,473.7258,NA,NA,NA,NA,NA,NA,NA,TRUE,1,0.9419,470.3832,473.3752,0,92,92,56,1,45,31,NA,NA,NA,NA,NA,1,93,"binary"
"289563D6BCAF43739083EEA3D931B2A4",1,"01990a9c-833a-7543-bf5b-71b6d4b38da5","01990a83-7673-7c0c-a792-bbd8fbbaf673","2025-09-02_08h49.03.738",NA,NA,476.7177,476.7178,476.7178,477.0682,NA,NA,NA,NA,NA,NA,NA,TRUE,1,0.9056,473.728,476.7172,0,93,93,41,1,28,46,NA,NA,NA,NA,NA,1,94,"binary"
"289563D6BCAF43739083EEA3D931B2A4",1,"01990a9c-833a-7543-bf5b-71b6d4b38da5","01990a83-7673-7c0c-a792-bbd8fbbaf673","2025-09-02_08h49.03.738",NA,NA,480.0768,480.0768,480.0768,480.4267,NA,NA,NA,NA,NA,NA,NA,TRUE,2,1.6881,477.0856,480.0763,0,94,94,5,1,7,35,NA,NA,NA,NA,NA,1,95,"binary"
"289563D6BCAF43739083EEA3D931B2A4",1,"01990a9c-833a-7543-bf5b-71b6d4b38da5","01990a83-7673-7c0c-a792-bbd8fbbaf673","2025-09-02_08h49.03.738",NA,NA,483.4187,483.4187,483.4187,483.7694,NA,NA,NA,NA,NA,NA,NA,TRUE,1,2.3482,480.443,483.4185,0,95,95,95,1,150,54,NA,NA,NA,NA,NA,1,96,"binary"
"289563D6BCAF43739083EEA3D931B2A4",1,"01990a9c-833a-7543-bf5b-71b6d4b38da5","01990a83-7673-7c0c-a792-bbd8fbbaf673","2025-09-02_08h49.03.738",NA,NA,486.778,486.778,486.778,487.1284,NA,NA,NA,NA,NA,NA,NA,TRUE,1,2.5834,483.7714,486.7774,0,96,96,64,1,50,46,NA,NA,NA,NA,NA,1,97,"binary"
"289563D6BCAF43739083EEA3D931B2A4",1,"01990a9c-833a-7543-bf5b-71b6d4b38da5","01990a83-7673-7c0c-a792-bbd8fbbaf673","2025-09-02_08h49.03.738",NA,NA,490.1203,490.1203,490.1204,490.4706,NA,NA,NA,NA,NA,NA,NA,TRUE,1,2.831,487.142,490.1198,0,97,97,42,1,30,26,NA,NA,NA,NA,NA,1,98,"binary"
"289563D6BCAF43739083EEA3D931B2A4",1,"01990a9c-833a-7543-bf5b-71b6d4b38da5","01990a83-7673-7c0c-a792-bbd8fbbaf673","2025-09-02_08h49.03.738",NA,NA,493.4789,493.479,493.479,493.8292,NA,NA,NA,NA,NA,NA,NA,TRUE,1,2.3878,490.4875,493.4787,0,98,98,63,1,50,40,NA,NA,NA,NA,NA,1,99,"binary"
"289563D6BCAF43739083EEA3D931B2A4",1,"01990a9c-833a-7543-bf5b-71b6d4b38da5","01990a83-7673-7c0c-a792-bbd8fbbaf673","2025-09-02_08h49.03.738",NA,NA,496.8215,496.8215,496.8215,497.1708,NA,NA,NA,NA,NA,NA,NA,TRUE,1,1.5233,493.8314,496.821,0,99,99,18,1,14,25,NA,NA,NA,NA,NA,1,100,"binary"
"289563D6BCAF43739083EEA3D931B2A4",1,"01990a9c-833a-7543-bf5b-71b6d4b38da5","01990a83-7673-7c0c-a792-bbd8fbbaf673","2025-09-02_08h49.03.738",NA,NA,500.1806,500.1806,500.1806,500.5142,NA,NA,NA,NA,NA,NA,NA,TRUE,1,1.0813,497.1829,500.1801,0,100,100,66,1,60,29,NA,NA,NA,NA,NA,1,101,"binary"
"289563D6BCAF43739083EEA3D931B2A4",1,"01990a9c-833a-7543-bf5b-71b6d4b38da5","01990a83-7673-7c0c-a792-bbd8fbbaf673","2025-09-02_08h49.03.738",NA,NA,503.5223,503.5223,503.5223,503.872,NA,NA,NA,NA,NA,NA,NA,TRUE,1,0.9747,500.5304,503.5222,0,101,101,103,1,200,28,NA,NA,NA,NA,NA,1,102,"binary"
"289563D6BCAF43739083EEA3D931B2A4",1,"01990a9c-833a-7543-bf5b-71b6d4b38da5","01990a83-7673-7c0c-a792-bbd8fbbaf673","2025-09-02_08h49.03.738",NA,NA,506.8646,506.8646,506.8646,507.2153,NA,NA,NA,NA,NA,NA,NA,TRUE,1,0.9525,503.8742,506.864,0,102,102,88,1,100,46,NA,NA,NA,NA,NA,1,103,"binary"
"289563D6BCAF43739083EEA3D931B2A4",1,"01990a9c-833a-7543-bf5b-71b6d4b38da5","01990a83-7673-7c0c-a792-bbd8fbbaf673","2025-09-02_08h49.03.738",NA,NA,510.2239,510.224,510.224,510.5743,NA,NA,NA,NA,NA,NA,NA,TRUE,2,1.7044,507.2319,510.2234,0,103,103,3,1,7,30,NA,NA,NA,NA,NA,1,104,"binary"
"289563D6BCAF43739083EEA3D931B2A4",1,"01990a9c-833a-7543-bf5b-71b6d4b38da5","01990a83-7673-7c0c-a792-bbd8fbbaf673","2025-09-02_08h49.03.738",NA,NA,513.5658,513.5658,513.5658,513.9166,NA,NA,NA,NA,NA,NA,NA,TRUE,2,2.2897,510.5909,513.5657,0,104,104,39,1,28,35,NA,NA,NA,NA,NA,1,105,"binary"
"289563D6BCAF43739083EEA3D931B2A4",1,"01990a9c-833a-7543-bf5b-71b6d4b38da5","01990a83-7673-7c0c-a792-bbd8fbbaf673","2025-09-02_08h49.03.738",NA,NA,516.9251,516.9252,516.9252,517.2748,NA,NA,NA,NA,NA,NA,NA,TRUE,2,2.2019,513.9353,516.9246,0,105,105,17,1,12,35,NA,NA,NA,NA,NA,1,106,"binary"
"289563D6BCAF43739083EEA3D931B2A4",1,"01990a9c-833a-7543-bf5b-71b6d4b38da5","01990a83-7673-7c0c-a792-bbd8fbbaf673","2025-09-02_08h49.03.738",NA,NA,520.2674,520.5172,520.5173,520.6178,NA,NA,NA,NA,NA,NA,NA,FALSE,NA,NA,517.2769,520.2668,0,106,106,33,1,25,33,NA,NA,NA,NA,NA,1,107,"binary"
"289563D6BCAF43739083EEA3D931B2A4",1,"01990a9c-833a-7543-bf5b-71b6d4b38da5","01990a83-7673-7c0c-a792-bbd8fbbaf673","2025-09-02_08h49.03.738",NA,NA,523.6261,523.6261,523.6261,523.9768,NA,NA,NA,NA,NA,NA,NA,TRUE,1,1.0689,520.634,523.6258,0,107,107,81,1,95,40,NA,NA,NA,NA,NA,1,108,"binary"
"289563D6BCAF43739083EEA3D931B2A4",1,"01990a9c-833a-7543-bf5b-71b6d4b38da5","01990a83-7673-7c0c-a792-bbd8fbbaf673","2025-09-02_08h49.03.738",NA,NA,550.8327,550.8327,550.8327,551.1828,NA,NA,NA,NA,NA,NA,NA,TRUE,1,1.4791,547.8814,550.832,NA,NA,NA,NA,NA,95,31,0,0,0,78,1,2,1,"binary"
"289563D6BCAF43739083EEA3D931B2A4",1,"01990a9c-833a-7543-bf5b-71b6d4b38da5","01990a83-7673-7c0c-a792-bbd8fbbaf673","2025-09-02_08h49.03.738",NA,NA,554.1916,554.1917,554.1917,554.5422,NA,NA,NA,NA,NA,NA,NA,TRUE,1,1.3444,551.1992,554.191,NA,NA,NA,NA,NA,25,31,0,1,1,32,1,2,2,"binary"
"289563D6BCAF43739083EEA3D931B2A4",1,"01990a9c-833a-7543-bf5b-71b6d4b38da5","01990a83-7673-7c0c-a792-bbd8fbbaf673","2025-09-02_08h49.03.738",NA,NA,557.5335,557.5336,557.5336,557.8843,NA,NA,NA,NA,NA,NA,NA,TRUE,1,1.3943,554.5591,557.5334,NA,NA,NA,NA,NA,12,25,0,2,2,12,1,2,3,"binary"
"289563D6BCAF43739083EEA3D931B2A4",1,"01990a9c-833a-7543-bf5b-71b6d4b38da5","01990a83-7673-7c0c-a792-bbd8fbbaf673","2025-09-02_08h49.03.738",NA,NA,560.8928,560.8929,560.8929,561.2429,NA,NA,NA,NA,NA,NA,NA,TRUE,1,0.8393,557.8864,560.8923,NA,NA,NA,NA,NA,200,47,0,3,3,106,1,2,4,"binary"
"289563D6BCAF43739083EEA3D931B2A4",1,"01990a9c-833a-7543-bf5b-71b6d4b38da5","01990a83-7673-7c0c-a792-bbd8fbbaf673","2025-09-02_08h49.03.738",NA,NA,564.2499,564.25,564.25,564.5846,NA,NA,NA,NA,NA,NA,NA,TRUE,1,0.7113,561.259,564.2471,NA,NA,NA,NA,NA,100,46,0,4,4,88,1,2,5,"binary"
"289563D6BCAF43739083EEA3D931B2A4",1,"01990a9c-833a-7543-bf5b-71b6d4b38da5","01990a83-7673-7c0c-a792-bbd8fbbaf673","2025-09-02_08h49.03.738",NA,NA,567.5936,567.5936,567.5936,567.9442,NA,NA,NA,NA,NA,NA,NA,TRUE,1,1.0949,564.6084,567.5934,NA,NA,NA,NA,NA,60,47,0,5,5,70,1,2,6,"binary"
"289563D6BCAF43739083EEA3D931B2A4",1,"01990a9c-833a-7543-bf5b-71b6d4b38da5","01990a83-7673-7c0c-a792-bbd8fbbaf673","2025-09-02_08h49.03.738",NA,NA,570.9362,570.9363,570.9363,571.2864,NA,NA,NA,NA,NA,NA,NA,TRUE,1,0.939,567.9466,570.9356,NA,NA,NA,NA,NA,50,40,0,6,6,63,1,2,7,"binary"
"289563D6BCAF43739083EEA3D931B2A4",1,"01990a9c-833a-7543-bf5b-71b6d4b38da5","01990a83-7673-7c0c-a792-bbd8fbbaf673","2025-09-02_08h49.03.738",NA,NA,574.2952,574.2952,574.2952,574.6289,NA,NA,NA,NA,NA,NA,NA,TRUE,1,1.0933,571.3033,574.2946,NA,NA,NA,NA,NA,180,39,0,7,7,99,1,2,8,"binary"
"289563D6BCAF43739083EEA3D931B2A4",1,"01990a9c-833a-7543-bf5b-71b6d4b38da5","01990a83-7673-7c0c-a792-bbd8fbbaf673","2025-09-02_08h49.03.738",NA,NA,577.6369,577.6369,577.637,577.9877,NA,NA,NA,NA,NA,NA,NA,TRUE,1,1.4906,574.6452,577.6369,NA,NA,NA,NA,NA,95,33,0,8,8,79,1,2,9,"binary"
"289563D6BCAF43739083EEA3D931B2A4",1,"01990a9c-833a-7543-bf5b-71b6d4b38da5","01990a83-7673-7c0c-a792-bbd8fbbaf673","2025-09-02_08h49.03.738",NA,NA,580.9797,580.9797,580.9797,581.33,NA,NA,NA,NA,NA,NA,NA,TRUE,1,1.3781,578.004,580.9791,NA,NA,NA,NA,NA,25,35,0,9,9,34,1,2,10,"binary"
"289563D6BCAF43739083EEA3D931B2A4",1,"01990a9c-833a-7543-bf5b-71b6d4b38da5","01990a83-7673-7c0c-a792-bbd8fbbaf673","2025-09-02_08h49.03.738",NA,NA,584.3381,584.3382,584.3382,584.6879,NA,NA,NA,NA,NA,NA,NA,TRUE,1,1.6916,581.3321,584.3376,NA,NA,NA,NA,NA,28,35,0,10,10,39,1,2,11,"binary"
"289563D6BCAF43739083EEA3D931B2A4",1,"01990a9c-833a-7543-bf5b-71b6d4b38da5","01990a83-7673-7c0c-a792-bbd8fbbaf673","2025-09-02_08h49.03.738",NA,NA,587.6803,587.6803,587.6803,588.0313,NA,NA,NA,NA,NA,NA,NA,TRUE,1,1.0482,584.7041,587.6801,NA,NA,NA,NA,NA,95,47,0,11,11,82,1,2,12,"binary"
"289563D6BCAF43739083EEA3D931B2A4",1,"01990a9c-833a-7543-bf5b-71b6d4b38da5","01990a83-7673-7c0c-a792-bbd8fbbaf673","2025-09-02_08h49.03.738",NA,NA,591.0399,591.0399,591.04,591.3902,NA,NA,NA,NA,NA,NA,NA,TRUE,1,1.1271,588.0476,591.0392,NA,NA,NA,NA,NA,200,54,0,12,12,107,1,2,13,"binary"
"289563D6BCAF43739083EEA3D931B2A4",1,"01990a9c-833a-7543-bf5b-71b6d4b38da5","01990a83-7673-7c0c-a792-bbd8fbbaf673","2025-09-02_08h49.03.738",NA,NA,594.3821,594.3821,594.3822,594.7325,NA,NA,NA,NA,NA,NA,NA,TRUE,1,1.0574,591.3924,594.3815,NA,NA,NA,NA,NA,40,40,0,13,13,51,1,2,14,"binary"
"289563D6BCAF43739083EEA3D931B2A4",1,"01990a9c-833a-7543-bf5b-71b6d4b38da5","01990a83-7673-7c0c-a792-bbd8fbbaf673","2025-09-02_08h49.03.738",NA,NA,597.7407,597.7407,597.7407,598.0907,NA,NA,NA,NA,NA,NA,NA,TRUE,1,2.0256,594.7489,597.7405,NA,NA,NA,NA,NA,30,30,0,14,14,45,1,2,15,"binary"
"289563D6BCAF43739083EEA3D931B2A4",1,"01990a9c-833a-7543-bf5b-71b6d4b38da5","01990a83-7673-7c0c-a792-bbd8fbbaf673","2025-09-02_08h49.03.738",NA,NA,601.0833,601.0833,601.0833,601.4338,NA,NA,NA,NA,NA,NA,NA,TRUE,1,1.1566,598.1072,601.0827,NA,NA,NA,NA,NA,180,46,0,15,15,100,1,2,16,"binary"
"289563D6BCAF43739083EEA3D931B2A4",1,"01990a9c-833a-7543-bf5b-71b6d4b38da5","01990a83-7673-7c0c-a792-bbd8fbbaf673","2025-09-02_08h49.03.738",NA,NA,604.4421,604.4422,604.4422,604.7927,NA,NA,NA,NA,NA,NA,NA,TRUE,2,1.8305,601.436,604.4415,NA,NA,NA,NA,NA,7,35,0,16,16,5,1,2,17,"binary"
"289563D6BCAF43739083EEA3D931B2A4",1,"01990a9c-833a-7543-bf5b-71b6d4b38da5","01990a83-7673-7c0c-a792-bbd8fbbaf673","2025-09-02_08h49.03.738",NA,NA,607.7842,607.7842,607.7842,608.135,NA,NA,NA,NA,NA,NA,NA,TRUE,1,1.9043,604.8094,607.7841,NA,NA,NA,NA,NA,90,30,0,17,17,73,1,2,18,"binary"
"289563D6BCAF43739083EEA3D931B2A4",1,"01990a9c-833a-7543-bf5b-71b6d4b38da5","01990a83-7673-7c0c-a792-bbd8fbbaf673","2025-09-02_08h49.03.738",NA,NA,611.1435,611.1437,611.1437,611.4935,NA,NA,NA,NA,NA,NA,NA,TRUE,1,2.1467,608.1516,611.1429,NA,NA,NA,NA,NA,60,54,0,18,18,71,1,2,19,"binary"
"289563D6BCAF43739083EEA3D931B2A4",1,"01990a9c-833a-7543-bf5b-71b6d4b38da5","01990a83-7673-7c0c-a792-bbd8fbbaf673","2025-09-02_08h49.03.738",NA,NA,614.4858,614.4858,614.4859,614.8362,NA,NA,NA,NA,NA,NA,NA,TRUE,1,1.8549,611.4959,614.4852,NA,NA,NA,NA,NA,90,40,0,19,19,75,1,2,20,"binary"
"289563D6BCAF43739083EEA3D931B2A4",1,"01990a9c-833a-7543-bf5b-71b6d4b38da5","01990a83-7673-7c0c-a792-bbd8fbbaf673","2025-09-02_08h49.03.738",NA,NA,617.8434,618.0949,618.0949,618.1949,NA,NA,NA,NA,NA,NA,NA,FALSE,NA,NA,614.8523,617.8433,NA,NA,NA,NA,NA,14,26,0,20,20,19,1,2,21,"binary"
"289563D6BCAF43739083EEA3D931B2A4",1,"01990a9c-833a-7543-bf5b-71b6d4b38da5","01990a83-7673-7c0c-a792-bbd8fbbaf673","2025-09-02_08h49.03.738",NA,NA,621.1869,621.1869,621.1869,621.5373,NA,NA,NA,NA,NA,NA,NA,TRUE,1,1.0853,618.2058,621.1864,NA,NA,NA,NA,NA,40,54,0,21,21,53,1,2,22,"binary"
"289563D6BCAF43739083EEA3D931B2A4",1,"01990a9c-833a-7543-bf5b-71b6d4b38da5","01990a83-7673-7c0c-a792-bbd8fbbaf673","2025-09-02_08h49.03.738",NA,NA,624.5458,624.5459,624.546,624.8795,NA,NA,NA,NA,NA,NA,NA,TRUE,1,1.7805,621.5394,624.5453,NA,NA,NA,NA,NA,45,35,0,22,22,57,1,2,23,"binary"
"289563D6BCAF43739083EEA3D931B2A4",1,"01990a9c-833a-7543-bf5b-71b6d4b38da5","01990a83-7673-7c0c-a792-bbd8fbbaf673","2025-09-02_08h49.03.738",NA,NA,627.8869,627.8869,627.887,628.2387,NA,NA,NA,NA,NA,NA,NA,TRUE,1,2.9607,624.8958,627.8868,NA,NA,NA,NA,NA,12,26,0,23,23,13,1,2,24,"binary"
"289563D6BCAF43739083EEA3D931B2A4",1,"01990a9c-833a-7543-bf5b-71b6d4b38da5","01990a83-7673-7c0c-a792-bbd8fbbaf673","2025-09-02_08h49.03.738",NA,NA,631.2306,631.2306,631.2306,631.5808,NA,NA,NA,NA,NA,NA,NA,TRUE,1,1.3226,628.2544,631.2299,NA,NA,NA,NA,NA,180,54,0,24,24,101,1,2,25,"binary"
"289563D6BCAF43739083EEA3D931B2A4",1,"01990a9c-833a-7543-bf5b-71b6d4b38da5","01990a83-7673-7c0c-a792-bbd8fbbaf673","2025-09-02_08h49.03.738",NA,NA,634.5895,634.5895,634.5895,634.9507,NA,NA,NA,NA,NA,NA,NA,TRUE,2,2.5325,631.5832,634.5889,NA,NA,NA,NA,NA,14,39,0,25,25,23,1,2,26,"binary"
"289563D6BCAF43739083EEA3D931B2A4",1,"01990a9c-833a-7543-bf5b-71b6d4b38da5","01990a83-7673-7c0c-a792-bbd8fbbaf673","2025-09-02_08h49.03.738",NA,NA,637.931,637.931,637.931,638.2823,NA,NA,NA,NA,NA,NA,NA,TRUE,1,1.5679,634.962,637.9308,NA,NA,NA,NA,NA,60,35,0,26,26,68,1,2,27,"binary"
"289563D6BCAF43739083EEA3D931B2A4",1,"01990a9c-833a-7543-bf5b-71b6d4b38da5","01990a83-7673-7c0c-a792-bbd8fbbaf673","2025-09-02_08h49.03.738",NA,NA,641.2908,641.2909,641.2909,641.6413,NA,NA,NA,NA,NA,NA,NA,TRUE,1,2.1128,638.2986,641.2903,NA,NA,NA,NA,NA,90,54,0,27,27,77,1,2,28,"binary"
"289563D6BCAF43739083EEA3D931B2A4",1,"01990a9c-833a-7543-bf5b-71b6d4b38da5","01990a83-7673-7c0c-a792-bbd8fbbaf673","2025-09-02_08h49.03.738",NA,NA,644.6332,644.8833,644.8833,644.9835,NA,NA,NA,NA,NA,NA,NA,FALSE,NA,NA,641.6435,644.6326,NA,NA,NA,NA,NA,14,35,0,28,28,22,1,2,29,"binary"
"289563D6BCAF43739083EEA3D931B2A4",1,"01990a9c-833a-7543-bf5b-71b6d4b38da5","01990a83-7673-7c0c-a792-bbd8fbbaf673","2025-09-02_08h49.03.738",NA,NA,647.9917,647.9917,647.9917,648.3415,NA,NA,NA,NA,NA,NA,NA,TRUE,1,1.4443,644.9999,647.9916,NA,NA,NA,NA,NA,50,46,0,29,29,64,1,2,30,"binary"
"289563D6BCAF43739083EEA3D931B2A4",1,"01990a9c-833a-7543-bf5b-71b6d4b38da5","01990a83-7673-7c0c-a792-bbd8fbbaf673","2025-09-02_08h49.03.738",NA,NA,651.3344,651.3344,651.3344,651.6849,NA,NA,NA,NA,NA,NA,NA,TRUE,1,1.0381,648.3569,651.3337,NA,NA,NA,NA,NA,25,46,0,30,30,35,1,2,31,"binary"
"289563D6BCAF43739083EEA3D931B2A4",1,"01990a9c-833a-7543-bf5b-71b6d4b38da5","01990a83-7673-7c0c-a792-bbd8fbbaf673","2025-09-02_08h49.03.738",NA,NA,654.6935,654.6935,654.6935,655.0439,NA,NA,NA,NA,NA,NA,NA,TRUE,1,1.5207,651.6869,654.6929,NA,NA,NA,NA,NA,30,26,0,31,31,42,1,2,32,"binary"
"289563D6BCAF43739083EEA3D931B2A4",1,"01990a9c-833a-7543-bf5b-71b6d4b38da5","01990a83-7673-7c0c-a792-bbd8fbbaf673","2025-09-02_08h49.03.738",NA,NA,658.0353,658.0353,658.0353,658.3861,NA,NA,NA,NA,NA,NA,NA,TRUE,1,1.2556,655.0604,658.0352,NA,NA,NA,NA,NA,50,54,0,32,32,65,1,2,33,"binary"
"289563D6BCAF43739083EEA3D931B2A4",1,"01990a9c-833a-7543-bf5b-71b6d4b38da5","01990a83-7673-7c0c-a792-bbd8fbbaf673","2025-09-02_08h49.03.738",NA,NA,661.3944,661.3944,661.3945,661.7442,NA,NA,NA,NA,NA,NA,NA,TRUE,2,1.3899,658.4024,661.3939,NA,NA,NA,NA,NA,14,32,0,33,33,21,1,2,34,"binary"
"289563D6BCAF43739083EEA3D931B2A4",1,"01990a9c-833a-7543-bf5b-71b6d4b38da5","01990a83-7673-7c0c-a792-bbd8fbbaf673","2025-09-02_08h49.03.738",NA,NA,664.7367,664.7367,664.7367,665.0867,NA,NA,NA,NA,NA,NA,NA,TRUE,1,1.8093,661.7465,664.7361,NA,NA,NA,NA,NA,180,35,0,34,34,98,1,2,35,"binary"
"289563D6BCAF43739083EEA3D931B2A4",1,"01990a9c-833a-7543-bf5b-71b6d4b38da5","01990a83-7673-7c0c-a792-bbd8fbbaf673","2025-09-02_08h49.03.738",NA,NA,668.0788,668.0788,668.0788,668.4294,NA,NA,NA,NA,NA,NA,NA,TRUE,1,1.88,665.1034,668.0786,NA,NA,NA,NA,NA,40,33,0,35,35,49,1,2,36,"binary"
"289563D6BCAF43739083EEA3D931B2A4",1,"01990a9c-833a-7543-bf5b-71b6d4b38da5","01990a83-7673-7c0c-a792-bbd8fbbaf673","2025-09-02_08h49.03.738",NA,NA,671.4377,671.4378,671.4378,671.7884,NA,NA,NA,NA,NA,NA,NA,TRUE,1,1.2374,668.4457,671.437,NA,NA,NA,NA,NA,25,27,0,36,36,30,1,2,37,"binary"
"289563D6BCAF43739083EEA3D931B2A4",1,"01990a9c-833a-7543-bf5b-71b6d4b38da5","01990a83-7673-7c0c-a792-bbd8fbbaf673","2025-09-02_08h49.03.738",NA,NA,674.7794,674.7795,674.7795,675.1307,NA,NA,NA,NA,NA,NA,NA,TRUE,2,1.2182,671.7907,674.7787,NA,NA,NA,NA,NA,12,33,0,37,37,16,1,2,38,"binary"
"289563D6BCAF43739083EEA3D931B2A4",1,"01990a9c-833a-7543-bf5b-71b6d4b38da5","01990a83-7673-7c0c-a792-bbd8fbbaf673","2025-09-02_08h49.03.738",NA,NA,678.1394,678.1395,678.1395,678.4896,NA,NA,NA,NA,NA,NA,NA,TRUE,1,0.9428,675.1473,678.1389,NA,NA,NA,NA,NA,150,47,0,38,38,94,1,2,39,"binary"
"289563D6BCAF43739083EEA3D931B2A4",1,"01990a9c-833a-7543-bf5b-71b6d4b38da5","01990a83-7673-7c0c-a792-bbd8fbbaf673","2025-09-02_08h49.03.738",NA,NA,681.4812,681.4812,681.4812,681.832,NA,NA,NA,NA,NA,NA,NA,TRUE,1,1.7615,678.5058,681.481,NA,NA,NA,NA,NA,40,35,0,39,39,50,1,2,40,"binary"
"289563D6BCAF43739083EEA3D931B2A4",1,"01990a9c-833a-7543-bf5b-71b6d4b38da5","01990a83-7673-7c0c-a792-bbd8fbbaf673","2025-09-02_08h49.03.738",NA,NA,684.8408,684.8409,684.8409,685.3679,NA,NA,NA,NA,NA,NA,NA,TRUE,1,0.9708,681.8341,684.8402,NA,NA,NA,NA,NA,50,35,0,40,40,62,1,2,41,"binary"
"289563D6BCAF43739083EEA3D931B2A4",1,"01990a9c-833a-7543-bf5b-71b6d4b38da5","01990a83-7673-7c0c-a792-bbd8fbbaf673","2025-09-02_08h49.03.738",NA,NA,688.1822,688.1822,688.1822,688.5328,NA,NA,NA,NA,NA,NA,NA,TRUE,2,1.3175,685.4723,688.1816,NA,NA,NA,NA,NA,7,32,0,41,41,4,1,2,42,"binary"
"289563D6BCAF43739083EEA3D931B2A4",1,"01990a9c-833a-7543-bf5b-71b6d4b38da5","01990a83-7673-7c0c-a792-bbd8fbbaf673","2025-09-02_08h49.03.738",NA,NA,691.5412,691.5412,691.5412,691.8921,NA,NA,NA,NA,NA,NA,NA,TRUE,1,1.6195,688.5708,691.5411,NA,NA,NA,NA,NA,14,25,0,42,42,18,1,2,43,"binary"
"289563D6BCAF43739083EEA3D931B2A4",1,"01990a9c-833a-7543-bf5b-71b6d4b38da5","01990a83-7673-7c0c-a792-bbd8fbbaf673","2025-09-02_08h49.03.738",NA,NA,694.8834,694.8834,694.8834,695.2345,NA,NA,NA,NA,NA,NA,NA,TRUE,2,1.3745,691.8941,694.8829,NA,NA,NA,NA,NA,10,29,0,43,43,9,1,2,44,"binary"
"289563D6BCAF43739083EEA3D931B2A4",1,"01990a9c-833a-7543-bf5b-71b6d4b38da5","01990a83-7673-7c0c-a792-bbd8fbbaf673","2025-09-02_08h49.03.738",NA,NA,698.243,698.2431,698.2431,698.5934,NA,NA,NA,NA,NA,NA,NA,TRUE,1,1.8367,695.2511,698.2424,NA,NA,NA,NA,NA,7,26,0,44,44,1,1,2,45,"binary"
"289563D6BCAF43739083EEA3D931B2A4",1,"01990a9c-833a-7543-bf5b-71b6d4b38da5","01990a83-7673-7c0c-a792-bbd8fbbaf673","2025-09-02_08h49.03.738",NA,NA,701.5843,701.5844,701.5844,701.9355,NA,NA,NA,NA,NA,NA,NA,TRUE,1,1.0192,698.6098,701.5842,NA,NA,NA,NA,NA,150,40,0,45,45,93,1,2,46,"binary"
"289563D6BCAF43739083EEA3D931B2A4",1,"01990a9c-833a-7543-bf5b-71b6d4b38da5","01990a83-7673-7c0c-a792-bbd8fbbaf673","2025-09-02_08h49.03.738",NA,NA,704.9436,704.9437,704.9437,705.2945,NA,NA,NA,NA,NA,NA,NA,TRUE,1,1.2129,701.9376,704.9433,NA,NA,NA,NA,NA,40,47,0,46,46,52,1,2,47,"binary"
"289563D6BCAF43739083EEA3D931B2A4",1,"01990a9c-833a-7543-bf5b-71b6d4b38da5","01990a83-7673-7c0c-a792-bbd8fbbaf673","2025-09-02_08h49.03.738",NA,NA,708.2865,708.2865,708.2865,708.6369,NA,NA,NA,NA,NA,NA,NA,TRUE,1,0.7758,705.3108,708.286,NA,NA,NA,NA,NA,150,35,0,47,47,92,1,2,48,"binary"
"289563D6BCAF43739083EEA3D931B2A4",1,"01990a9c-833a-7543-bf5b-71b6d4b38da5","01990a83-7673-7c0c-a792-bbd8fbbaf673","2025-09-02_08h49.03.738",NA,NA,711.6451,711.6451,711.6451,711.9788,NA,NA,NA,NA,NA,NA,NA,TRUE,1,0.9253,708.653,711.6449,NA,NA,NA,NA,NA,95,40,0,48,48,81,1,2,49,"binary"
"289563D6BCAF43739083EEA3D931B2A4",1,"01990a9c-833a-7543-bf5b-71b6d4b38da5","01990a83-7673-7c0c-a792-bbd8fbbaf673","2025-09-02_08h49.03.738",NA,NA,714.9864,714.9864,714.9864,715.338,NA,NA,NA,NA,NA,NA,NA,TRUE,2,1.4972,711.981,714.986,NA,NA,NA,NA,NA,7,30,0,49,49,3,1,2,50,"binary"
"289563D6BCAF43739083EEA3D931B2A4",1,"01990a9c-833a-7543-bf5b-71b6d4b38da5","01990a83-7673-7c0c-a792-bbd8fbbaf673","2025-09-02_08h49.03.738",NA,NA,718.3301,718.3301,718.3301,718.6803,NA,NA,NA,NA,NA,NA,NA,TRUE,1,1.4247,715.3502,718.3295,NA,NA,NA,NA,NA,45,26,0,50,50,54,1,2,51,"binary"
"289563D6BCAF43739083EEA3D931B2A4",1,"01990a9c-833a-7543-bf5b-71b6d4b38da5","01990a83-7673-7c0c-a792-bbd8fbbaf673","2025-09-02_08h49.03.738",NA,NA,721.6886,721.6886,721.6886,722.0393,NA,NA,NA,NA,NA,NA,NA,TRUE,1,1.0052,718.6965,721.6885,NA,NA,NA,NA,NA,200,28,0,51,51,103,1,2,52,"binary"
"289563D6BCAF43739083EEA3D931B2A4",1,"01990a9c-833a-7543-bf5b-71b6d4b38da5","01990a83-7673-7c0c-a792-bbd8fbbaf673","2025-09-02_08h49.03.738",NA,NA,725.0315,725.0316,725.0316,725.3815,NA,NA,NA,NA,NA,NA,NA,TRUE,1,0.8729,722.0414,725.0308,NA,NA,NA,NA,NA,95,35,0,52,52,80,1,2,53,"binary"
"289563D6BCAF43739083EEA3D931B2A4",1,"01990a9c-833a-7543-bf5b-71b6d4b38da5","01990a83-7673-7c0c-a792-bbd8fbbaf673","2025-09-02_08h49.03.738",NA,NA,728.3901,728.3901,728.3901,728.7405,NA,NA,NA,NA,NA,NA,NA,TRUE,2,2.2583,725.3983,728.3895,NA,NA,NA,NA,NA,30,38,0,53,53,47,1,2,54,"binary"
"289563D6BCAF43739083EEA3D931B2A4",1,"01990a9c-833a-7543-bf5b-71b6d4b38da5","01990a83-7673-7c0c-a792-bbd8fbbaf673","2025-09-02_08h49.03.738",NA,NA,731.7322,731.7323,731.7323,732.0828,NA,NA,NA,NA,NA,NA,NA,TRUE,1,0.7354,728.7569,731.7321,NA,NA,NA,NA,NA,40,27,0,54,54,48,1,2,55,"binary"
"289563D6BCAF43739083EEA3D931B2A4",1,"01990a9c-833a-7543-bf5b-71b6d4b38da5","01990a83-7673-7c0c-a792-bbd8fbbaf673","2025-09-02_08h49.03.738",NA,NA,735.0913,735.0914,735.0915,735.4419,NA,NA,NA,NA,NA,NA,NA,TRUE,1,0.9727,732.085,735.0909,NA,NA,NA,NA,NA,150,31,0,55,55,90,1,2,56,"binary"
"289563D6BCAF43739083EEA3D931B2A4",1,"01990a9c-833a-7543-bf5b-71b6d4b38da5","01990a83-7673-7c0c-a792-bbd8fbbaf673","2025-09-02_08h49.03.738",NA,NA,738.4327,738.4327,738.4327,738.7841,NA,NA,NA,NA,NA,NA,NA,TRUE,1,1.858,735.458,738.4321,NA,NA,NA,NA,NA,30,27,0,56,56,43,1,2,57,"binary"
"289563D6BCAF43739083EEA3D931B2A4",1,"01990a9c-833a-7543-bf5b-71b6d4b38da5","01990a83-7673-7c0c-a792-bbd8fbbaf673","2025-09-02_08h49.03.738",NA,NA,741.7922,741.7923,741.7923,742.1419,NA,NA,NA,NA,NA,NA,NA,TRUE,1,2.0804,738.8004,741.7921,NA,NA,NA,NA,NA,30,29,0,57,57,44,1,2,58,"binary"
"289563D6BCAF43739083EEA3D931B2A4",1,"01990a9c-833a-7543-bf5b-71b6d4b38da5","01990a83-7673-7c0c-a792-bbd8fbbaf673","2025-09-02_08h49.03.738",NA,NA,745.1349,745.135,745.135,745.4855,NA,NA,NA,NA,NA,NA,NA,TRUE,1,2.2553,742.144,745.1344,NA,NA,NA,NA,NA,60,29,0,58,58,66,1,2,59,"binary"
"289563D6BCAF43739083EEA3D931B2A4",1,"01990a9c-833a-7543-bf5b-71b6d4b38da5","01990a83-7673-7c0c-a792-bbd8fbbaf673","2025-09-02_08h49.03.738",NA,NA,748.4939,748.7439,748.744,748.8438,NA,NA,NA,NA,NA,NA,NA,FALSE,NA,NA,745.5015,748.4932,NA,NA,NA,NA,NA,45,40,0,59,59,58,1,2,60,"binary"
"289563D6BCAF43739083EEA3D931B2A4",1,"01990a9c-833a-7543-bf5b-71b6d4b38da5","01990a83-7673-7c0c-a792-bbd8fbbaf673","2025-09-02_08h49.03.738",NA,NA,751.8352,751.8352,751.8352,752.1865,NA,NA,NA,NA,NA,NA,NA,TRUE,1,1.8733,748.8601,751.835,NA,NA,NA,NA,NA,21,30,0,60,60,27,1,2,61,"binary"
"289563D6BCAF43739083EEA3D931B2A4",1,"01990a9c-833a-7543-bf5b-71b6d4b38da5","01990a83-7673-7c0c-a792-bbd8fbbaf673","2025-09-02_08h49.03.738",NA,NA,755.195,755.195,755.1951,755.5288,NA,NA,NA,NA,NA,NA,NA,TRUE,1,0.8042,752.1885,755.1944,NA,NA,NA,NA,NA,100,26,0,61,61,84,1,2,62,"binary"
"289563D6BCAF43739083EEA3D931B2A4",1,"01990a9c-833a-7543-bf5b-71b6d4b38da5","01990a83-7673-7c0c-a792-bbd8fbbaf673","2025-09-02_08h49.03.738",NA,NA,758.5373,758.5373,758.5373,758.8877,NA,NA,NA,NA,NA,NA,NA,TRUE,2,1.3907,755.5451,758.5366,NA,NA,NA,NA,NA,12,35,0,62,62,17,1,2,63,"binary"
"289563D6BCAF43739083EEA3D931B2A4",1,"01990a9c-833a-7543-bf5b-71b6d4b38da5","01990a83-7673-7c0c-a792-bbd8fbbaf673","2025-09-02_08h49.03.738",NA,NA,761.8793,761.8794,761.8794,762.2296,NA,NA,NA,NA,NA,NA,NA,TRUE,1,1.2037,758.904,761.8792,NA,NA,NA,NA,NA,180,27,0,63,63,96,1,2,64,"binary"
"289563D6BCAF43739083EEA3D931B2A4",1,"01990a9c-833a-7543-bf5b-71b6d4b38da5","01990a83-7673-7c0c-a792-bbd8fbbaf673","2025-09-02_08h49.03.738",NA,NA,765.238,765.238,765.238,765.5889,NA,NA,NA,NA,NA,NA,NA,TRUE,2,1.0542,762.2317,765.2374,NA,NA,NA,NA,NA,21,38,0,64,64,29,1,2,65,"binary"
"289563D6BCAF43739083EEA3D931B2A4",1,"01990a9c-833a-7543-bf5b-71b6d4b38da5","01990a83-7673-7c0c-a792-bbd8fbbaf673","2025-09-02_08h49.03.738",NA,NA,768.5808,768.5809,768.5809,768.9311,NA,NA,NA,NA,NA,NA,NA,TRUE,1,2.3438,765.6023,768.5801,NA,NA,NA,NA,NA,28,28,0,65,65,37,1,2,66,"binary"
"289563D6BCAF43739083EEA3D931B2A4",1,"01990a9c-833a-7543-bf5b-71b6d4b38da5","01990a83-7673-7c0c-a792-bbd8fbbaf673","2025-09-02_08h49.03.738",NA,NA,771.9391,771.9391,771.9391,772.29,NA,NA,NA,NA,NA,NA,NA,TRUE,1,2.1889,768.9475,771.9389,NA,NA,NA,NA,NA,21,29,0,66,66,26,1,2,67,"binary"
"289563D6BCAF43739083EEA3D931B2A4",1,"01990a9c-833a-7543-bf5b-71b6d4b38da5","01990a83-7673-7c0c-a792-bbd8fbbaf673","2025-09-02_08h49.03.738",NA,NA,775.2821,775.5323,775.5323,775.6322,NA,NA,NA,NA,NA,NA,NA,FALSE,NA,NA,772.2917,775.2815,NA,NA,NA,NA,NA,12,28,0,67,67,14,1,2,68,"binary"
"289563D6BCAF43739083EEA3D931B2A4",1,"01990a9c-833a-7543-bf5b-71b6d4b38da5","01990a83-7673-7c0c-a792-bbd8fbbaf673","2025-09-02_08h49.03.738",NA,NA,778.6407,778.6407,778.6408,778.9914,NA,NA,NA,NA,NA,NA,NA,TRUE,2,2.3637,775.6485,778.6402,NA,NA,NA,NA,NA,7,28,0,68,68,2,1,2,69,"binary"
"289563D6BCAF43739083EEA3D931B2A4",1,"01990a9c-833a-7543-bf5b-71b6d4b38da5","01990a83-7673-7c0c-a792-bbd8fbbaf673","2025-09-02_08h49.03.738",NA,NA,781.983,781.983,781.983,782.3338,NA,NA,NA,NA,NA,NA,NA,TRUE,1,1.1219,779.0078,781.983,NA,NA,NA,NA,NA,21,26,0,69,69,24,1,2,70,"binary"
"289563D6BCAF43739083EEA3D931B2A4",1,"01990a9c-833a-7543-bf5b-71b6d4b38da5","01990a83-7673-7c0c-a792-bbd8fbbaf673","2025-09-02_08h49.03.738",NA,NA,785.3423,785.3423,785.3423,785.6927,NA,NA,NA,NA,NA,NA,NA,TRUE,1,1.6573,782.3498,785.3418,NA,NA,NA,NA,NA,28,46,0,70,70,41,1,2,71,"binary"
"289563D6BCAF43739083EEA3D931B2A4",1,"01990a9c-833a-7543-bf5b-71b6d4b38da5","01990a83-7673-7c0c-a792-bbd8fbbaf673","2025-09-02_08h49.03.738",NA,NA,788.6846,788.6847,788.6847,789.0348,NA,NA,NA,NA,NA,NA,NA,TRUE,1,1.0391,785.6947,788.6841,NA,NA,NA,NA,NA,50,27,0,71,71,60,1,2,72,"binary"
"289563D6BCAF43739083EEA3D931B2A4",1,"01990a9c-833a-7543-bf5b-71b6d4b38da5","01990a83-7673-7c0c-a792-bbd8fbbaf673","2025-09-02_08h49.03.738",NA,NA,792.0431,792.0432,792.0432,792.3939,NA,NA,NA,NA,NA,NA,NA,TRUE,1,1.2631,789.0509,792.0431,NA,NA,NA,NA,NA,45,46,0,72,72,59,1,2,73,"binary"
"289563D6BCAF43739083EEA3D931B2A4",1,"01990a9c-833a-7543-bf5b-71b6d4b38da5","01990a83-7673-7c0c-a792-bbd8fbbaf673","2025-09-02_08h49.03.738",NA,NA,795.386,795.386,795.386,795.7362,NA,NA,NA,NA,NA,NA,NA,TRUE,1,0.8017,792.4103,795.3854,NA,NA,NA,NA,NA,180,31,0,73,73,97,1,2,74,"binary"
"289563D6BCAF43739083EEA3D931B2A4",1,"01990a9c-833a-7543-bf5b-71b6d4b38da5","01990a83-7673-7c0c-a792-bbd8fbbaf673","2025-09-02_08h49.03.738",NA,NA,798.7447,798.7447,798.7448,799.0953,NA,NA,NA,NA,NA,NA,NA,TRUE,1,0.7929,795.7382,798.7442,NA,NA,NA,NA,NA,200,35,0,74,74,104,1,2,75,"binary"
"289563D6BCAF43739083EEA3D931B2A4",1,"01990a9c-833a-7543-bf5b-71b6d4b38da5","01990a83-7673-7c0c-a792-bbd8fbbaf673","2025-09-02_08h49.03.738",NA,NA,802.0856,802.0856,802.0856,802.4373,NA,NA,NA,NA,NA,NA,NA,TRUE,1,1.4564,799.1117,802.0854,NA,NA,NA,NA,NA,60,33,0,75,75,67,1,2,76,"binary"
"289563D6BCAF43739083EEA3D931B2A4",1,"01990a9c-833a-7543-bf5b-71b6d4b38da5","01990a83-7673-7c0c-a792-bbd8fbbaf673","2025-09-02_08h49.03.738",NA,NA,805.4293,805.4294,805.4294,805.7797,NA,NA,NA,NA,NA,NA,NA,TRUE,1,1.1713,802.4538,805.4288,NA,NA,NA,NA,NA,60,40,0,76,76,69,1,2,77,"binary"
"289563D6BCAF43739083EEA3D931B2A4",1,"01990a9c-833a-7543-bf5b-71b6d4b38da5","01990a83-7673-7c0c-a792-bbd8fbbaf673","2025-09-02_08h49.03.738",NA,NA,808.7903,808.7903,808.7903,809.1377,NA,NA,NA,NA,NA,NA,NA,TRUE,1,1.193,805.7818,808.7876,NA,NA,NA,NA,NA,90,26,0,77,77,72,1,2,78,"binary"
"289563D6BCAF43739083EEA3D931B2A4",1,"01990a9c-833a-7543-bf5b-71b6d4b38da5","01990a83-7673-7c0c-a792-bbd8fbbaf673","2025-09-02_08h49.03.738",NA,NA,812.1299,812.1299,812.1299,812.4801,NA,NA,NA,NA,NA,NA,NA,TRUE,1,2.0376,809.1774,812.1298,NA,NA,NA,NA,NA,200,26,0,78,78,102,1,2,79,"binary"
"289563D6BCAF43739083EEA3D931B2A4",1,"01990a9c-833a-7543-bf5b-71b6d4b38da5","01990a83-7673-7c0c-a792-bbd8fbbaf673","2025-09-02_08h49.03.738",NA,NA,815.4886,815.4887,815.4887,815.8397,NA,NA,NA,NA,NA,NA,NA,TRUE,1,2.2305,812.499,815.4882,NA,NA,NA,NA,NA,150,54,0,79,79,95,1,2,80,"binary"
"289563D6BCAF43739083EEA3D931B2A4",1,"01990a9c-833a-7543-bf5b-71b6d4b38da5","01990a83-7673-7c0c-a792-bbd8fbbaf673","2025-09-02_08h49.03.738",NA,NA,818.8316,818.8316,818.8317,819.1821,NA,NA,NA,NA,NA,NA,NA,TRUE,1,1.7004,815.8421,818.831,NA,NA,NA,NA,NA,30,32,0,80,80,46,1,2,81,"binary"
"289563D6BCAF43739083EEA3D931B2A4",1,"01990a9c-833a-7543-bf5b-71b6d4b38da5","01990a83-7673-7c0c-a792-bbd8fbbaf673","2025-09-02_08h49.03.738",NA,NA,822.1903,822.1903,822.1903,822.5408,NA,NA,NA,NA,NA,NA,NA,TRUE,1,2.0113,819.1983,822.1901,NA,NA,NA,NA,NA,28,32,0,81,81,38,1,2,82,"binary"
"289563D6BCAF43739083EEA3D931B2A4",1,"01990a9c-833a-7543-bf5b-71b6d4b38da5","01990a83-7673-7c0c-a792-bbd8fbbaf673","2025-09-02_08h49.03.738",NA,NA,825.533,825.533,825.533,825.883,NA,NA,NA,NA,NA,NA,NA,TRUE,1,0.8482,822.5528,825.5325,NA,NA,NA,NA,NA,90,46,0,82,82,76,1,2,83,"binary"
"289563D6BCAF43739083EEA3D931B2A4",1,"01990a9c-833a-7543-bf5b-71b6d4b38da5","01990a83-7673-7c0c-a792-bbd8fbbaf673","2025-09-02_08h49.03.738",NA,NA,828.8914,828.8915,828.8915,829.2423,NA,NA,NA,NA,NA,NA,NA,TRUE,1,0.9703,825.8852,828.8909,NA,NA,NA,NA,NA,200,39,0,83,83,105,1,2,84,"binary"
"289563D6BCAF43739083EEA3D931B2A4",1,"01990a9c-833a-7543-bf5b-71b6d4b38da5","01990a83-7673-7c0c-a792-bbd8fbbaf673","2025-09-02_08h49.03.738",NA,NA,832.2335,832.2335,832.2335,832.5845,NA,NA,NA,NA,NA,NA,NA,TRUE,2,2.149,829.2583,832.2334,NA,NA,NA,NA,NA,10,32,0,84,84,11,1,2,85,"binary"
"289563D6BCAF43739083EEA3D931B2A4",1,"01990a9c-833a-7543-bf5b-71b6d4b38da5","01990a83-7673-7c0c-a792-bbd8fbbaf673","2025-09-02_08h49.03.738",NA,NA,835.5935,835.5936,835.5936,835.9435,NA,NA,NA,NA,NA,NA,NA,TRUE,1,1.2729,832.6008,835.5927,NA,NA,NA,NA,NA,10,25,0,85,85,6,1,2,86,"binary"
"289563D6BCAF43739083EEA3D931B2A4",1,"01990a9c-833a-7543-bf5b-71b6d4b38da5","01990a83-7673-7c0c-a792-bbd8fbbaf673","2025-09-02_08h49.03.738",NA,NA,838.9354,838.9354,838.9354,839.2856,NA,NA,NA,NA,NA,NA,NA,TRUE,2,1.5087,835.9458,838.9349,NA,NA,NA,NA,NA,21,32,0,86,86,28,1,2,87,"binary"
"289563D6BCAF43739083EEA3D931B2A4",1,"01990a9c-833a-7543-bf5b-71b6d4b38da5","01990a83-7673-7c0c-a792-bbd8fbbaf673","2025-09-02_08h49.03.738",NA,NA,842.2938,842.2939,842.2939,842.6282,NA,NA,NA,NA,NA,NA,NA,TRUE,1,0.8355,839.3019,842.2937,NA,NA,NA,NA,NA,7,25,0,87,87,0,1,2,88,"binary"
"289563D6BCAF43739083EEA3D931B2A4",1,"01990a9c-833a-7543-bf5b-71b6d4b38da5","01990a83-7673-7c0c-a792-bbd8fbbaf673","2025-09-02_08h49.03.738",NA,NA,845.6368,845.6369,845.6369,845.987,NA,NA,NA,NA,NA,NA,NA,TRUE,1,1.0687,842.6444,845.6363,NA,NA,NA,NA,NA,10,27,0,88,88,8,1,2,89,"binary"
"289563D6BCAF43739083EEA3D931B2A4",1,"01990a9c-833a-7543-bf5b-71b6d4b38da5","01990a83-7673-7c0c-a792-bbd8fbbaf673","2025-09-02_08h49.03.738",NA,NA,848.9789,848.9789,848.9789,849.3459,NA,NA,NA,NA,NA,NA,NA,TRUE,1,1.6398,845.989,848.9783,NA,NA,NA,NA,NA,14,28,0,89,89,20,1,2,90,"binary"
"289563D6BCAF43739083EEA3D931B2A4",1,"01990a9c-833a-7543-bf5b-71b6d4b38da5","01990a83-7673-7c0c-a792-bbd8fbbaf673","2025-09-02_08h49.03.738",NA,NA,852.3376,852.3376,852.3376,852.6882,NA,NA,NA,NA,NA,NA,NA,TRUE,1,0.9279,849.3622,852.3374,NA,NA,NA,NA,NA,25,29,0,90,90,31,1,2,91,"binary"
"289563D6BCAF43739083EEA3D931B2A4",1,"01990a9c-833a-7543-bf5b-71b6d4b38da5","01990a83-7673-7c0c-a792-bbd8fbbaf673","2025-09-02_08h49.03.738",NA,NA,855.6797,855.6797,855.6797,856.0306,NA,NA,NA,NA,NA,NA,NA,TRUE,1,1.4776,852.7046,855.6791,NA,NA,NA,NA,NA,10,30,0,91,91,10,1,2,92,"binary"
"289563D6BCAF43739083EEA3D931B2A4",1,"01990a9c-833a-7543-bf5b-71b6d4b38da5","01990a83-7673-7c0c-a792-bbd8fbbaf673","2025-09-02_08h49.03.738",NA,NA,859.039,859.039,859.039,859.3895,NA,NA,NA,NA,NA,NA,NA,TRUE,1,1.3272,856.0328,859.0384,NA,NA,NA,NA,NA,150,33,0,92,92,91,1,2,93,"binary"
"289563D6BCAF43739083EEA3D931B2A4",1,"01990a9c-833a-7543-bf5b-71b6d4b38da5","01990a83-7673-7c0c-a792-bbd8fbbaf673","2025-09-02_08h49.03.738",NA,NA,862.381,862.381,862.381,862.7308,NA,NA,NA,NA,NA,NA,NA,TRUE,1,1.2239,859.4058,862.3808,NA,NA,NA,NA,NA,100,31,0,93,93,85,1,2,94,"binary"
"289563D6BCAF43739083EEA3D931B2A4",1,"01990a9c-833a-7543-bf5b-71b6d4b38da5","01990a83-7673-7c0c-a792-bbd8fbbaf673","2025-09-02_08h49.03.738",NA,NA,865.7393,865.7393,865.7394,866.0907,NA,NA,NA,NA,NA,NA,NA,TRUE,1,1.9995,862.7469,865.7388,NA,NA,NA,NA,NA,28,39,0,94,94,40,1,2,95,"binary"
"289563D6BCAF43739083EEA3D931B2A4",1,"01990a9c-833a-7543-bf5b-71b6d4b38da5","01990a83-7673-7c0c-a792-bbd8fbbaf673","2025-09-02_08h49.03.738",NA,NA,869.0826,869.0826,869.0826,869.433,NA,NA,NA,NA,NA,NA,NA,TRUE,1,1.7587,866.0927,869.0821,NA,NA,NA,NA,NA,45,29,0,95,95,55,1,2,96,"binary"
"289563D6BCAF43739083EEA3D931B2A4",1,"01990a9c-833a-7543-bf5b-71b6d4b38da5","01990a83-7673-7c0c-a792-bbd8fbbaf673","2025-09-02_08h49.03.738",NA,NA,872.4412,872.4412,872.4412,872.7921,NA,NA,NA,NA,NA,NA,NA,TRUE,1,1.1262,869.4495,872.441,NA,NA,NA,NA,NA,100,39,0,96,96,87,1,2,97,"binary"
"289563D6BCAF43739083EEA3D931B2A4",1,"01990a9c-833a-7543-bf5b-71b6d4b38da5","01990a83-7673-7c0c-a792-bbd8fbbaf673","2025-09-02_08h49.03.738",NA,NA,875.7841,875.7842,875.7842,876.1334,NA,NA,NA,NA,NA,NA,NA,TRUE,1,1.3118,872.8086,875.7834,NA,NA,NA,NA,NA,21,27,0,97,97,25,1,2,98,"binary"
"289563D6BCAF43739083EEA3D931B2A4",1,"01990a9c-833a-7543-bf5b-71b6d4b38da5","01990a83-7673-7c0c-a792-bbd8fbbaf673","2025-09-02_08h49.03.738",NA,NA,879.1423,879.1424,879.1424,879.4932,NA,NA,NA,NA,NA,NA,NA,TRUE,1,1.7126,876.1355,879.1417,NA,NA,NA,NA,NA,25,33,0,98,98,33,1,2,99,"binary"
"289563D6BCAF43739083EEA3D931B2A4",1,"01990a9c-833a-7543-bf5b-71b6d4b38da5","01990a83-7673-7c0c-a792-bbd8fbbaf673","2025-09-02_08h49.03.738",NA,NA,882.4846,882.4846,882.4847,882.8354,NA,NA,NA,NA,NA,NA,NA,TRUE,1,1.3398,879.5095,882.4846,NA,NA,NA,NA,NA,100,54,0,99,99,89,1,2,100,"binary"
"289563D6BCAF43739083EEA3D931B2A4",1,"01990a9c-833a-7543-bf5b-71b6d4b38da5","01990a83-7673-7c0c-a792-bbd8fbbaf673","2025-09-02_08h49.03.738",NA,NA,885.844,885.8441,885.8441,886.1945,NA,NA,NA,NA,NA,NA,NA,TRUE,1,1.0956,882.8536,885.8435,NA,NA,NA,NA,NA,100,38,0,100,100,86,1,2,101,"binary"
"289563D6BCAF43739083EEA3D931B2A4",1,"01990a9c-833a-7543-bf5b-71b6d4b38da5","01990a83-7673-7c0c-a792-bbd8fbbaf673","2025-09-02_08h49.03.738",NA,NA,889.1864,889.1864,889.1865,889.5362,NA,NA,NA,NA,NA,NA,NA,TRUE,1,1.2342,886.1965,889.1859,NA,NA,NA,NA,NA,10,26,0,101,101,7,1,2,102,"binary"
"289563D6BCAF43739083EEA3D931B2A4",1,"01990a9c-833a-7543-bf5b-71b6d4b38da5","01990a83-7673-7c0c-a792-bbd8fbbaf673","2025-09-02_08h49.03.738",NA,NA,892.5445,892.5445,892.5445,892.8788,NA,NA,NA,NA,NA,NA,NA,TRUE,1,1.3055,889.5524,892.5443,NA,NA,NA,NA,NA,90,33,0,102,102,74,1,2,103,"binary"
"289563D6BCAF43739083EEA3D931B2A4",1,"01990a9c-833a-7543-bf5b-71b6d4b38da5","01990a83-7673-7c0c-a792-bbd8fbbaf673","2025-09-02_08h49.03.738",NA,NA,895.8877,895.8877,895.8877,896.2379,NA,NA,NA,NA,NA,NA,NA,TRUE,1,1.9892,892.8953,895.887,NA,NA,NA,NA,NA,12,31,0,103,103,15,1,2,104,"binary"
"289563D6BCAF43739083EEA3D931B2A4",1,"01990a9c-833a-7543-bf5b-71b6d4b38da5","01990a83-7673-7c0c-a792-bbd8fbbaf673","2025-09-02_08h49.03.738",NA,NA,899.2299,899.2299,899.2299,899.5792,NA,NA,NA,NA,NA,NA,NA,TRUE,1,1.9495,896.2392,899.2294,NA,NA,NA,NA,NA,50,30,0,104,104,61,1,2,105,"binary"
"289563D6BCAF43739083EEA3D931B2A4",1,"01990a9c-833a-7543-bf5b-71b6d4b38da5","01990a83-7673-7c0c-a792-bbd8fbbaf673","2025-09-02_08h49.03.738",NA,NA,902.5885,902.5885,902.5885,902.9389,NA,NA,NA,NA,NA,NA,NA,TRUE,1,1.8085,899.5954,902.5883,NA,NA,NA,NA,NA,45,31,0,105,105,56,1,2,106,"binary"
"289563D6BCAF43739083EEA3D931B2A4",1,"01990a9c-833a-7543-bf5b-71b6d4b38da5","01990a83-7673-7c0c-a792-bbd8fbbaf673","2025-09-02_08h49.03.738",NA,NA,905.931,905.9311,905.9311,906.2814,NA,NA,NA,NA,NA,NA,NA,TRUE,1,0.8894,902.9555,905.9305,NA,NA,NA,NA,NA,28,26,0,106,106,36,1,2,107,"binary"
"289563D6BCAF43739083EEA3D931B2A4",1,"01990a9c-833a-7543-bf5b-71b6d4b38da5","01990a83-7673-7c0c-a792-bbd8fbbaf673","2025-09-02_08h49.03.738",NA,NA,909.2902,909.2903,909.2903,909.6404,NA,NA,NA,NA,NA,NA,NA,TRUE,1,1.6213,906.2834,909.2896,NA,NA,NA,NA,NA,95,54,0,107,107,83,1,2,108,"binary"
