"participant","session","assignmentId","projectId","date","practiceTrial.started","practiceTrial.stopped","tooLate.started","tooLate.stopped","blank.started","blank.stopped","trials_pract.thisRepN","trials_pract.thisTrialN","trials_pract.thisN","trials_pract.thisIndex","trials_pract.ran","delay_pract","amount_pract","responseMade","key","rt","trial.started","trial.stopped","trials.thisRepN","trials.thisTrialN","trials.thisN","trials.thisIndex","trials.ran","delay","amount","trials_2.thisRepN","trials_2.thisTrialN","trials_2.thisN","trials_2.thisIndex","trials_2.ran","block","trial","taskType"
"2A8E6D1EF21E480CA0183ABA60BA50D1",1,"01990a9b-9efd-7089-98ca-ab391e85414c","01990a83-7673-7c0c-a792-bbd8fbbaf673","2025-09-02_09h27.16.424",130.279,133.253,133.254,133.257,133.257,133.603,0,0,0,4,1,30,40,TRUE,2,1.645,NA,NA,NA,NA,NA,NA,NA,NA,NA,NA,NA,NA,NA,NA,0,1,"binary"
"2A8E6D1EF21E480CA0183ABA60BA50D1",1,"01990a9b-9efd-7089-98ca-ab391e85414c","01990a83-7673-7c0c-a792-bbd8fbbaf673","2025-09-02_09h27.16.424",133.607,136.603,136.603,136.603,136.603,136.953,0,1,1,0,1,7,30,TRUE,1,1.143,NA,NA,NA,NA,NA,NA,NA,NA,NA,NA,NA,NA,NA,NA,0,2,"binary"
"2A8E6D1EF21E480CA0183ABA60BA50D1",1,"01990a9b-9efd-7089-98ca-ab391e85414c","01990a83-7673-7c0c-a792-bbd8fbbaf673","2025-09-02_09h27.16.424",136.956,139.953,139.953,139.953,139.954,140.302,0,2,2,2,1,14,45,TRUE,2,1.059,NA,NA,NA,NA,NA,NA,NA,NA,NA,NA,NA,NA,NA,NA,0,3,"binary"
"2A8E6D1EF21E480CA0183ABA60BA50D1",1,"01990a9b-9efd-7089-98ca-ab391e85414c","01990a83-7673-7c0c-a792-bbd8fbbaf673","2025-09-02_09h27.16.424",140.306,143.303,143.303,143.303,143.303,143.652,0,3,3,1,1,100,50,TRUE,2,0.943,NA,NA,NA,NA,NA,NA,NA,NA,NA,NA,NA,NA,NA,NA,0,4,"binary"
"2A8E6D1EF21E480CA0183ABA60BA50D1",1,"01990a9b-9efd-7089-98ca-ab391e85414c","01990a83-7673-7c0c-a792-bbd8fbbaf673","2025-09-02_09h27.16.424",143.655,146.652,146.652,146.652,146.652,147.001,0,4,4,3,1,3,27,TRUE,1,1.298,NA,NA,NA,NA,NA,NA,NA,NA,NA,NA,NA,NA,NA,NA,0,5,"binary"
"2A8E6D1EF21E480CA0183ABA60BA50D1",1,"01990a9b-9efd-7089-98ca-ab391e85414c","01990a83-7673-7c0c-a792-bbd8fbbaf673","2025-09-02_09h27.16.424",NA,NA,335.72,335.721,335.721,336.069,NA,NA,NA,NA,NA,NA,NA,TRUE,1,1.38,332.737,335.719,0,0,0,56,1,45,31,NA,NA,NA,NA,NA,1,1,"binary"
"2A8E6D1EF21E480CA0183ABA60BA50D1",1,"01990a9b-9efd-7089-98ca-ab391e85414c","01990a83-7673-7c0c-a792-bbd8fbbaf673","2025-09-02_09h27.16.424",NA,NA,339.069,339.069,339.069,339.418,NA,NA,NA,NA,NA,NA,NA,TRUE,1,1.162,336.072,339.069,0,1,1,92,1,150,35,NA,NA,NA,NA,NA,1,2,"binary"
"2A8E6D1EF21E480CA0183ABA60BA50D1",1,"01990a9b-9efd-7089-98ca-ab391e85414c","01990a83-7673-7c0c-a792-bbd8fbbaf673","2025-09-02_09h27.16.424",NA,NA,342.419,342.419,342.419,342.768,NA,NA,NA,NA,NA,NA,NA,TRUE,1,1.335,339.421,342.419,0,2,2,81,1,95,40,NA,NA,NA,NA,NA,1,3,"binary"
"2A8E6D1EF21E480CA0183ABA60BA50D1",1,"01990a9b-9efd-7089-98ca-ab391e85414c","01990a83-7673-7c0c-a792-bbd8fbbaf673","2025-09-02_09h27.16.424",NA,NA,345.769,345.769,345.769,346.118,NA,NA,NA,NA,NA,NA,NA,TRUE,1,1.126,342.772,345.769,0,3,3,107,1,200,54,NA,NA,NA,NA,NA,1,4,"binary"
"2A8E6D1EF21E480CA0183ABA60BA50D1",1,"01990a9b-9efd-7089-98ca-ab391e85414c","01990a83-7673-7c0c-a792-bbd8fbbaf673","2025-09-02_09h27.16.424",NA,NA,349.119,349.119,349.119,349.468,NA,NA,NA,NA,NA,NA,NA,TRUE,1,1.047,346.121,349.118,0,4,4,40,1,28,39,NA,NA,NA,NA,NA,1,5,"binary"
"2A8E6D1EF21E480CA0183ABA60BA50D1",1,"01990a9b-9efd-7089-98ca-ab391e85414c","01990a83-7673-7c0c-a792-bbd8fbbaf673","2025-09-02_09h27.16.424",NA,NA,352.468,352.468,352.468,352.818,NA,NA,NA,NA,NA,NA,NA,TRUE,1,1.213,349.471,352.468,0,5,5,9,1,10,29,NA,NA,NA,NA,NA,1,6,"binary"
"2A8E6D1EF21E480CA0183ABA60BA50D1",1,"01990a9b-9efd-7089-98ca-ab391e85414c","01990a83-7673-7c0c-a792-bbd8fbbaf673","2025-09-02_09h27.16.424",NA,NA,355.819,355.819,355.819,356.168,NA,NA,NA,NA,NA,NA,NA,TRUE,1,1.093,352.821,355.818,0,6,6,46,1,30,32,NA,NA,NA,NA,NA,1,7,"binary"
"2A8E6D1EF21E480CA0183ABA60BA50D1",1,"01990a9b-9efd-7089-98ca-ab391e85414c","01990a83-7673-7c0c-a792-bbd8fbbaf673","2025-09-02_09h27.16.424",NA,NA,359.168,359.168,359.168,359.518,NA,NA,NA,NA,NA,NA,NA,TRUE,1,2.165,356.172,359.168,0,7,7,63,1,50,40,NA,NA,NA,NA,NA,1,8,"binary"
"2A8E6D1EF21E480CA0183ABA60BA50D1",1,"01990a9b-9efd-7089-98ca-ab391e85414c","01990a83-7673-7c0c-a792-bbd8fbbaf673","2025-09-02_09h27.16.424",NA,NA,362.519,362.519,362.519,362.868,NA,NA,NA,NA,NA,NA,NA,TRUE,2,1.715,359.521,362.519,0,8,8,2,1,7,28,NA,NA,NA,NA,NA,1,9,"binary"
"2A8E6D1EF21E480CA0183ABA60BA50D1",1,"01990a9b-9efd-7089-98ca-ab391e85414c","01990a83-7673-7c0c-a792-bbd8fbbaf673","2025-09-02_09h27.16.424",NA,NA,365.869,365.869,365.869,366.218,NA,NA,NA,NA,NA,NA,NA,TRUE,1,1.219,362.871,365.869,0,9,9,27,1,21,30,NA,NA,NA,NA,NA,1,10,"binary"
"2A8E6D1EF21E480CA0183ABA60BA50D1",1,"01990a9b-9efd-7089-98ca-ab391e85414c","01990a83-7673-7c0c-a792-bbd8fbbaf673","2025-09-02_09h27.16.424",NA,NA,369.219,369.219,369.219,369.568,NA,NA,NA,NA,NA,NA,NA,TRUE,1,1.08,366.222,369.218,0,10,10,82,1,95,47,NA,NA,NA,NA,NA,1,11,"binary"
"2A8E6D1EF21E480CA0183ABA60BA50D1",1,"01990a9b-9efd-7089-98ca-ab391e85414c","01990a83-7673-7c0c-a792-bbd8fbbaf673","2025-09-02_09h27.16.424",NA,NA,372.569,372.569,372.569,372.918,NA,NA,NA,NA,NA,NA,NA,TRUE,2,1.829,369.572,372.568,0,11,11,47,1,30,38,NA,NA,NA,NA,NA,1,12,"binary"
"2A8E6D1EF21E480CA0183ABA60BA50D1",1,"01990a9b-9efd-7089-98ca-ab391e85414c","01990a83-7673-7c0c-a792-bbd8fbbaf673","2025-09-02_09h27.16.424",NA,NA,375.919,375.919,375.919,376.267,NA,NA,NA,NA,NA,NA,NA,TRUE,1,1.259,372.921,375.918,0,12,12,68,1,60,35,NA,NA,NA,NA,NA,1,13,"binary"
"2A8E6D1EF21E480CA0183ABA60BA50D1",1,"01990a9b-9efd-7089-98ca-ab391e85414c","01990a83-7673-7c0c-a792-bbd8fbbaf673","2025-09-02_09h27.16.424",NA,NA,379.268,379.268,379.268,379.618,NA,NA,NA,NA,NA,NA,NA,TRUE,1,1.552,376.271,379.268,0,13,13,89,1,100,54,NA,NA,NA,NA,NA,1,14,"binary"
"2A8E6D1EF21E480CA0183ABA60BA50D1",1,"01990a9b-9efd-7089-98ca-ab391e85414c","01990a83-7673-7c0c-a792-bbd8fbbaf673","2025-09-02_09h27.16.424",NA,NA,382.619,382.619,382.619,382.968,NA,NA,NA,NA,NA,NA,NA,TRUE,1,1.432,379.621,382.619,0,14,14,60,1,50,27,NA,NA,NA,NA,NA,1,15,"binary"
"2A8E6D1EF21E480CA0183ABA60BA50D1",1,"01990a9b-9efd-7089-98ca-ab391e85414c","01990a83-7673-7c0c-a792-bbd8fbbaf673","2025-09-02_09h27.16.424",NA,NA,385.969,385.969,385.969,386.318,NA,NA,NA,NA,NA,NA,NA,TRUE,1,1.278,382.972,385.968,0,15,15,70,1,60,47,NA,NA,NA,NA,NA,1,16,"binary"
"2A8E6D1EF21E480CA0183ABA60BA50D1",1,"01990a9b-9efd-7089-98ca-ab391e85414c","01990a83-7673-7c0c-a792-bbd8fbbaf673","2025-09-02_09h27.16.424",NA,NA,389.318,389.319,389.319,389.667,NA,NA,NA,NA,NA,NA,NA,TRUE,1,0.945,386.321,389.318,0,16,16,53,1,40,54,NA,NA,NA,NA,NA,1,17,"binary"
"2A8E6D1EF21E480CA0183ABA60BA50D1",1,"01990a9b-9efd-7089-98ca-ab391e85414c","01990a83-7673-7c0c-a792-bbd8fbbaf673","2025-09-02_09h27.16.424",NA,NA,392.668,392.669,392.669,393.018,NA,NA,NA,NA,NA,NA,NA,TRUE,1,1.23,389.67,392.668,0,17,17,61,1,50,30,NA,NA,NA,NA,NA,1,18,"binary"
"2A8E6D1EF21E480CA0183ABA60BA50D1",1,"01990a9b-9efd-7089-98ca-ab391e85414c","01990a83-7673-7c0c-a792-bbd8fbbaf673","2025-09-02_09h27.16.424",NA,NA,396.018,396.018,396.018,396.368,NA,NA,NA,NA,NA,NA,NA,TRUE,1,1.486,393.021,396.018,0,18,18,59,1,45,46,NA,NA,NA,NA,NA,1,19,"binary"
"2A8E6D1EF21E480CA0183ABA60BA50D1",1,"01990a9b-9efd-7089-98ca-ab391e85414c","01990a83-7673-7c0c-a792-bbd8fbbaf673","2025-09-02_09h27.16.424",NA,NA,399.369,399.369,399.369,399.718,NA,NA,NA,NA,NA,NA,NA,TRUE,1,0.809,396.371,399.368,0,19,19,48,1,40,27,NA,NA,NA,NA,NA,1,20,"binary"
"2A8E6D1EF21E480CA0183ABA60BA50D1",1,"01990a9b-9efd-7089-98ca-ab391e85414c","01990a83-7673-7c0c-a792-bbd8fbbaf673","2025-09-02_09h27.16.424",NA,NA,402.718,402.718,402.718,403.068,NA,NA,NA,NA,NA,NA,NA,TRUE,1,0.848,399.721,402.718,0,20,20,90,1,150,31,NA,NA,NA,NA,NA,1,21,"binary"
"2A8E6D1EF21E480CA0183ABA60BA50D1",1,"01990a9b-9efd-7089-98ca-ab391e85414c","01990a83-7673-7c0c-a792-bbd8fbbaf673","2025-09-02_09h27.16.424",NA,NA,406.068,406.068,406.069,406.418,NA,NA,NA,NA,NA,NA,NA,TRUE,1,0.881,403.071,406.068,0,21,21,37,1,28,28,NA,NA,NA,NA,NA,1,22,"binary"
"2A8E6D1EF21E480CA0183ABA60BA50D1",1,"01990a9b-9efd-7089-98ca-ab391e85414c","01990a83-7673-7c0c-a792-bbd8fbbaf673","2025-09-02_09h27.16.424",NA,NA,409.419,409.419,409.419,409.768,NA,NA,NA,NA,NA,NA,NA,TRUE,1,1.102,406.421,409.418,0,22,22,71,1,60,54,NA,NA,NA,NA,NA,1,23,"binary"
"2A8E6D1EF21E480CA0183ABA60BA50D1",1,"01990a9b-9efd-7089-98ca-ab391e85414c","01990a83-7673-7c0c-a792-bbd8fbbaf673","2025-09-02_09h27.16.424",NA,NA,412.768,412.769,412.769,413.118,NA,NA,NA,NA,NA,NA,NA,TRUE,1,1.278,409.771,412.768,0,23,23,94,1,150,47,NA,NA,NA,NA,NA,1,24,"binary"
"2A8E6D1EF21E480CA0183ABA60BA50D1",1,"01990a9b-9efd-7089-98ca-ab391e85414c","01990a83-7673-7c0c-a792-bbd8fbbaf673","2025-09-02_09h27.16.424",NA,NA,416.118,416.118,416.118,416.468,NA,NA,NA,NA,NA,NA,NA,TRUE,1,1.128,413.121,416.118,0,24,24,38,1,28,32,NA,NA,NA,NA,NA,1,25,"binary"
"2A8E6D1EF21E480CA0183ABA60BA50D1",1,"01990a9b-9efd-7089-98ca-ab391e85414c","01990a83-7673-7c0c-a792-bbd8fbbaf673","2025-09-02_09h27.16.424",NA,NA,419.469,419.469,419.469,419.818,NA,NA,NA,NA,NA,NA,NA,TRUE,1,0.845,416.471,419.468,0,25,25,55,1,45,29,NA,NA,NA,NA,NA,1,26,"binary"
"2A8E6D1EF21E480CA0183ABA60BA50D1",1,"01990a9b-9efd-7089-98ca-ab391e85414c","01990a83-7673-7c0c-a792-bbd8fbbaf673","2025-09-02_09h27.16.424",NA,NA,422.818,422.819,422.819,423.169,NA,NA,NA,NA,NA,NA,NA,TRUE,1,0.819,419.822,422.818,0,26,26,26,1,21,29,NA,NA,NA,NA,NA,1,27,"binary"
"2A8E6D1EF21E480CA0183ABA60BA50D1",1,"01990a9b-9efd-7089-98ca-ab391e85414c","01990a83-7673-7c0c-a792-bbd8fbbaf673","2025-09-02_09h27.16.424",NA,NA,426.168,426.169,426.169,426.518,NA,NA,NA,NA,NA,NA,NA,TRUE,2,1.278,423.172,426.168,0,27,27,65,1,50,54,NA,NA,NA,NA,NA,1,28,"binary"
"2A8E6D1EF21E480CA0183ABA60BA50D1",1,"01990a9b-9efd-7089-98ca-ab391e85414c","01990a83-7673-7c0c-a792-bbd8fbbaf673","2025-09-02_09h27.16.424",NA,NA,429.519,429.519,429.519,429.868,NA,NA,NA,NA,NA,NA,NA,TRUE,1,1.429,426.522,429.518,0,28,28,76,1,90,46,NA,NA,NA,NA,NA,1,29,"binary"
"2A8E6D1EF21E480CA0183ABA60BA50D1",1,"01990a9b-9efd-7089-98ca-ab391e85414c","01990a83-7673-7c0c-a792-bbd8fbbaf673","2025-09-02_09h27.16.424",NA,NA,432.868,432.868,432.868,433.218,NA,NA,NA,NA,NA,NA,NA,TRUE,1,0.979,429.871,432.867,0,29,29,79,1,95,33,NA,NA,NA,NA,NA,1,30,"binary"
"2A8E6D1EF21E480CA0183ABA60BA50D1",1,"01990a9b-9efd-7089-98ca-ab391e85414c","01990a83-7673-7c0c-a792-bbd8fbbaf673","2025-09-02_09h27.16.424",NA,NA,436.218,436.218,436.218,436.568,NA,NA,NA,NA,NA,NA,NA,TRUE,1,0.67,433.221,436.218,0,30,30,44,1,30,29,NA,NA,NA,NA,NA,1,31,"binary"
"2A8E6D1EF21E480CA0183ABA60BA50D1",1,"01990a9b-9efd-7089-98ca-ab391e85414c","01990a83-7673-7c0c-a792-bbd8fbbaf673","2025-09-02_09h27.16.424",NA,NA,439.568,439.568,439.568,439.918,NA,NA,NA,NA,NA,NA,NA,TRUE,1,0.635,436.571,439.568,0,31,31,85,1,100,31,NA,NA,NA,NA,NA,1,32,"binary"
"2A8E6D1EF21E480CA0183ABA60BA50D1",1,"01990a9b-9efd-7089-98ca-ab391e85414c","01990a83-7673-7c0c-a792-bbd8fbbaf673","2025-09-02_09h27.16.424",NA,NA,442.918,442.918,442.918,443.268,NA,NA,NA,NA,NA,NA,NA,TRUE,1,0.675,439.921,442.918,0,32,32,96,1,180,27,NA,NA,NA,NA,NA,1,33,"binary"
"2A8E6D1EF21E480CA0183ABA60BA50D1",1,"01990a9b-9efd-7089-98ca-ab391e85414c","01990a83-7673-7c0c-a792-bbd8fbbaf673","2025-09-02_09h27.16.424",NA,NA,446.268,446.268,446.269,446.618,NA,NA,NA,NA,NA,NA,NA,TRUE,1,0.946,443.271,446.268,0,33,33,84,1,100,26,NA,NA,NA,NA,NA,1,34,"binary"
"2A8E6D1EF21E480CA0183ABA60BA50D1",1,"01990a9b-9efd-7089-98ca-ab391e85414c","01990a83-7673-7c0c-a792-bbd8fbbaf673","2025-09-02_09h27.16.424",NA,NA,449.618,449.618,449.618,449.968,NA,NA,NA,NA,NA,NA,NA,TRUE,1,0.91,446.621,449.618,0,34,34,83,1,95,54,NA,NA,NA,NA,NA,1,35,"binary"
"2A8E6D1EF21E480CA0183ABA60BA50D1",1,"01990a9b-9efd-7089-98ca-ab391e85414c","01990a83-7673-7c0c-a792-bbd8fbbaf673","2025-09-02_09h27.16.424",NA,NA,452.968,452.968,452.969,453.318,NA,NA,NA,NA,NA,NA,NA,TRUE,1,1.15,449.971,452.968,0,35,35,49,1,40,33,NA,NA,NA,NA,NA,1,36,"binary"
"2A8E6D1EF21E480CA0183ABA60BA50D1",1,"01990a9b-9efd-7089-98ca-ab391e85414c","01990a83-7673-7c0c-a792-bbd8fbbaf673","2025-09-02_09h27.16.424",NA,NA,456.318,456.318,456.318,456.668,NA,NA,NA,NA,NA,NA,NA,TRUE,1,1.152,453.321,456.318,0,36,36,4,1,7,32,NA,NA,NA,NA,NA,1,37,"binary"
"2A8E6D1EF21E480CA0183ABA60BA50D1",1,"01990a9b-9efd-7089-98ca-ab391e85414c","01990a83-7673-7c0c-a792-bbd8fbbaf673","2025-09-02_09h27.16.424",NA,NA,459.668,459.668,459.668,460.018,NA,NA,NA,NA,NA,NA,NA,TRUE,1,0.948,456.671,459.668,0,37,37,42,1,30,26,NA,NA,NA,NA,NA,1,38,"binary"
"2A8E6D1EF21E480CA0183ABA60BA50D1",1,"01990a9b-9efd-7089-98ca-ab391e85414c","01990a83-7673-7c0c-a792-bbd8fbbaf673","2025-09-02_09h27.16.424",NA,NA,463.018,463.018,463.018,463.368,NA,NA,NA,NA,NA,NA,NA,TRUE,1,1.045,460.021,463.018,0,38,38,58,1,45,40,NA,NA,NA,NA,NA,1,39,"binary"
"2A8E6D1EF21E480CA0183ABA60BA50D1",1,"01990a9b-9efd-7089-98ca-ab391e85414c","01990a83-7673-7c0c-a792-bbd8fbbaf673","2025-09-02_09h27.16.424",NA,NA,466.368,466.368,466.368,466.718,NA,NA,NA,NA,NA,NA,NA,TRUE,1,1.059,463.371,466.368,0,39,39,6,1,10,25,NA,NA,NA,NA,NA,1,40,"binary"
"2A8E6D1EF21E480CA0183ABA60BA50D1",1,"01990a9b-9efd-7089-98ca-ab391e85414c","01990a83-7673-7c0c-a792-bbd8fbbaf673","2025-09-02_09h27.16.424",NA,NA,469.718,469.718,469.718,470.068,NA,NA,NA,NA,NA,NA,NA,TRUE,1,1.134,466.721,469.718,0,40,40,98,1,180,35,NA,NA,NA,NA,NA,1,41,"binary"
"2A8E6D1EF21E480CA0183ABA60BA50D1",1,"01990a9b-9efd-7089-98ca-ab391e85414c","01990a83-7673-7c0c-a792-bbd8fbbaf673","2025-09-02_09h27.16.424",NA,NA,473.068,473.068,473.068,473.418,NA,NA,NA,NA,NA,NA,NA,TRUE,1,0.879,470.071,473.068,0,41,41,11,1,10,32,NA,NA,NA,NA,NA,1,42,"binary"
"2A8E6D1EF21E480CA0183ABA60BA50D1",1,"01990a9b-9efd-7089-98ca-ab391e85414c","01990a83-7673-7c0c-a792-bbd8fbbaf673","2025-09-02_09h27.16.424",NA,NA,476.418,476.418,476.418,476.768,NA,NA,NA,NA,NA,NA,NA,TRUE,1,1.175,473.421,476.418,0,42,42,10,1,10,30,NA,NA,NA,NA,NA,1,43,"binary"
"2A8E6D1EF21E480CA0183ABA60BA50D1",1,"01990a9b-9efd-7089-98ca-ab391e85414c","01990a83-7673-7c0c-a792-bbd8fbbaf673","2025-09-02_09h27.16.424",NA,NA,479.768,479.768,479.768,480.118,NA,NA,NA,NA,NA,NA,NA,TRUE,1,2.212,476.771,479.767,0,43,43,95,1,150,54,NA,NA,NA,NA,NA,1,44,"binary"
"2A8E6D1EF21E480CA0183ABA60BA50D1",1,"01990a9b-9efd-7089-98ca-ab391e85414c","01990a83-7673-7c0c-a792-bbd8fbbaf673","2025-09-02_09h27.16.424",NA,NA,483.118,483.118,483.118,483.468,NA,NA,NA,NA,NA,NA,NA,TRUE,1,1.853,480.121,483.118,0,44,44,67,1,60,33,NA,NA,NA,NA,NA,1,45,"binary"
"2A8E6D1EF21E480CA0183ABA60BA50D1",1,"01990a9b-9efd-7089-98ca-ab391e85414c","01990a83-7673-7c0c-a792-bbd8fbbaf673","2025-09-02_09h27.16.424",NA,NA,486.467,486.468,486.468,486.818,NA,NA,NA,NA,NA,NA,NA,TRUE,2,1.544,483.471,486.467,0,45,45,23,1,14,39,NA,NA,NA,NA,NA,1,46,"binary"
"2A8E6D1EF21E480CA0183ABA60BA50D1",1,"01990a9b-9efd-7089-98ca-ab391e85414c","01990a83-7673-7c0c-a792-bbd8fbbaf673","2025-09-02_09h27.16.424",NA,NA,489.818,489.818,489.818,490.168,NA,NA,NA,NA,NA,NA,NA,TRUE,1,1.1,486.821,489.818,0,46,46,77,1,90,54,NA,NA,NA,NA,NA,1,47,"binary"
"2A8E6D1EF21E480CA0183ABA60BA50D1",1,"01990a9b-9efd-7089-98ca-ab391e85414c","01990a83-7673-7c0c-a792-bbd8fbbaf673","2025-09-02_09h27.16.424",NA,NA,493.168,493.168,493.168,493.518,NA,NA,NA,NA,NA,NA,NA,TRUE,1,1.425,490.171,493.168,0,47,47,99,1,180,39,NA,NA,NA,NA,NA,1,48,"binary"
"2A8E6D1EF21E480CA0183ABA60BA50D1",1,"01990a9b-9efd-7089-98ca-ab391e85414c","01990a83-7673-7c0c-a792-bbd8fbbaf673","2025-09-02_09h27.16.424",NA,NA,496.518,496.518,496.518,496.867,NA,NA,NA,NA,NA,NA,NA,TRUE,2,1.115,493.521,496.518,0,48,48,5,1,7,35,NA,NA,NA,NA,NA,1,49,"binary"
"2A8E6D1EF21E480CA0183ABA60BA50D1",1,"01990a9b-9efd-7089-98ca-ab391e85414c","01990a83-7673-7c0c-a792-bbd8fbbaf673","2025-09-02_09h27.16.424",NA,NA,499.868,499.868,499.868,500.218,NA,NA,NA,NA,NA,NA,NA,TRUE,1,0.649,496.87,499.868,0,49,49,64,1,50,46,NA,NA,NA,NA,NA,1,50,"binary"
"2A8E6D1EF21E480CA0183ABA60BA50D1",1,"01990a9b-9efd-7089-98ca-ab391e85414c","01990a83-7673-7c0c-a792-bbd8fbbaf673","2025-09-02_09h27.16.424",NA,NA,503.218,503.218,503.218,503.568,NA,NA,NA,NA,NA,NA,NA,TRUE,1,1.448,500.221,503.218,0,50,50,97,1,180,31,NA,NA,NA,NA,NA,1,51,"binary"
"2A8E6D1EF21E480CA0183ABA60BA50D1",1,"01990a9b-9efd-7089-98ca-ab391e85414c","01990a83-7673-7c0c-a792-bbd8fbbaf673","2025-09-02_09h27.16.424",NA,NA,506.568,506.568,506.568,506.918,NA,NA,NA,NA,NA,NA,NA,TRUE,1,1.412,503.571,506.568,0,51,51,35,1,25,46,NA,NA,NA,NA,NA,1,52,"binary"
"2A8E6D1EF21E480CA0183ABA60BA50D1",1,"01990a9b-9efd-7089-98ca-ab391e85414c","01990a83-7673-7c0c-a792-bbd8fbbaf673","2025-09-02_09h27.16.424",NA,NA,509.918,509.918,509.918,510.267,NA,NA,NA,NA,NA,NA,NA,TRUE,1,2.982,506.921,509.918,0,52,52,32,1,25,31,NA,NA,NA,NA,NA,1,53,"binary"
"2A8E6D1EF21E480CA0183ABA60BA50D1",1,"01990a9b-9efd-7089-98ca-ab391e85414c","01990a83-7673-7c0c-a792-bbd8fbbaf673","2025-09-02_09h27.16.424",NA,NA,513.267,513.268,513.268,513.618,NA,NA,NA,NA,NA,NA,NA,TRUE,1,1.618,510.271,513.267,0,53,53,93,1,150,40,NA,NA,NA,NA,NA,1,54,"binary"
"2A8E6D1EF21E480CA0183ABA60BA50D1",1,"01990a9b-9efd-7089-98ca-ab391e85414c","01990a83-7673-7c0c-a792-bbd8fbbaf673","2025-09-02_09h27.16.424",NA,NA,516.618,516.618,516.618,516.968,NA,NA,NA,NA,NA,NA,NA,TRUE,1,2.179,513.621,516.618,0,54,54,73,1,90,30,NA,NA,NA,NA,NA,1,55,"binary"
"2A8E6D1EF21E480CA0183ABA60BA50D1",1,"01990a9b-9efd-7089-98ca-ab391e85414c","01990a83-7673-7c0c-a792-bbd8fbbaf673","2025-09-02_09h27.16.424",NA,NA,519.968,519.968,519.968,520.318,NA,NA,NA,NA,NA,NA,NA,TRUE,1,1.395,516.971,519.968,0,55,55,104,1,200,35,NA,NA,NA,NA,NA,1,56,"binary"
"2A8E6D1EF21E480CA0183ABA60BA50D1",1,"01990a9b-9efd-7089-98ca-ab391e85414c","01990a83-7673-7c0c-a792-bbd8fbbaf673","2025-09-02_09h27.16.424",NA,NA,523.318,523.319,523.319,523.668,NA,NA,NA,NA,NA,NA,NA,TRUE,1,0.895,520.321,523.318,0,56,56,45,1,30,30,NA,NA,NA,NA,NA,1,57,"binary"
"2A8E6D1EF21E480CA0183ABA60BA50D1",1,"01990a9b-9efd-7089-98ca-ab391e85414c","01990a83-7673-7c0c-a792-bbd8fbbaf673","2025-09-02_09h27.16.424",NA,NA,526.668,526.668,526.668,527.018,NA,NA,NA,NA,NA,NA,NA,TRUE,1,1.147,523.671,526.668,0,57,57,1,1,7,26,NA,NA,NA,NA,NA,1,58,"binary"
"2A8E6D1EF21E480CA0183ABA60BA50D1",1,"01990a9b-9efd-7089-98ca-ab391e85414c","01990a83-7673-7c0c-a792-bbd8fbbaf673","2025-09-02_09h27.16.424",NA,NA,530.018,530.018,530.018,530.368,NA,NA,NA,NA,NA,NA,NA,TRUE,1,0.993,527.021,530.018,0,58,58,106,1,200,47,NA,NA,NA,NA,NA,1,59,"binary"
"2A8E6D1EF21E480CA0183ABA60BA50D1",1,"01990a9b-9efd-7089-98ca-ab391e85414c","01990a83-7673-7c0c-a792-bbd8fbbaf673","2025-09-02_09h27.16.424",NA,NA,533.368,533.368,533.368,533.718,NA,NA,NA,NA,NA,NA,NA,TRUE,1,0.917,530.371,533.368,0,59,59,18,1,14,25,NA,NA,NA,NA,NA,1,60,"binary"
"2A8E6D1EF21E480CA0183ABA60BA50D1",1,"01990a9b-9efd-7089-98ca-ab391e85414c","01990a83-7673-7c0c-a792-bbd8fbbaf673","2025-09-02_09h27.16.424",NA,NA,536.718,536.718,536.718,537.068,NA,NA,NA,NA,NA,NA,NA,TRUE,1,1.013,533.721,536.718,0,60,60,51,1,40,40,NA,NA,NA,NA,NA,1,61,"binary"
"2A8E6D1EF21E480CA0183ABA60BA50D1",1,"01990a9b-9efd-7089-98ca-ab391e85414c","01990a83-7673-7c0c-a792-bbd8fbbaf673","2025-09-02_09h27.16.424",NA,NA,540.067,540.067,540.067,540.418,NA,NA,NA,NA,NA,NA,NA,TRUE,1,0.928,537.071,540.067,0,61,61,87,1,100,39,NA,NA,NA,NA,NA,1,62,"binary"
"2A8E6D1EF21E480CA0183ABA60BA50D1",1,"01990a9b-9efd-7089-98ca-ab391e85414c","01990a83-7673-7c0c-a792-bbd8fbbaf673","2025-09-02_09h27.16.424",NA,NA,543.418,543.418,543.418,543.768,NA,NA,NA,NA,NA,NA,NA,TRUE,1,1.409,540.421,543.418,0,62,62,57,1,45,35,NA,NA,NA,NA,NA,1,63,"binary"
"2A8E6D1EF21E480CA0183ABA60BA50D1",1,"01990a9b-9efd-7089-98ca-ab391e85414c","01990a83-7673-7c0c-a792-bbd8fbbaf673","2025-09-02_09h27.16.424",NA,NA,546.768,546.768,546.768,547.118,NA,NA,NA,NA,NA,NA,NA,TRUE,1,1.126,543.771,546.768,0,63,63,17,1,12,35,NA,NA,NA,NA,NA,1,64,"binary"
"2A8E6D1EF21E480CA0183ABA60BA50D1",1,"01990a9b-9efd-7089-98ca-ab391e85414c","01990a83-7673-7c0c-a792-bbd8fbbaf673","2025-09-02_09h27.16.424",NA,NA,550.118,550.118,550.118,550.468,NA,NA,NA,NA,NA,NA,NA,TRUE,1,0.933,547.121,550.118,0,64,64,72,1,90,26,NA,NA,NA,NA,NA,1,65,"binary"
"2A8E6D1EF21E480CA0183ABA60BA50D1",1,"01990a9b-9efd-7089-98ca-ab391e85414c","01990a83-7673-7c0c-a792-bbd8fbbaf673","2025-09-02_09h27.16.424",NA,NA,553.468,553.468,553.468,553.817,NA,NA,NA,NA,NA,NA,NA,TRUE,1,0.693,550.471,553.468,0,65,65,74,1,90,33,NA,NA,NA,NA,NA,1,66,"binary"
"2A8E6D1EF21E480CA0183ABA60BA50D1",1,"01990a9b-9efd-7089-98ca-ab391e85414c","01990a83-7673-7c0c-a792-bbd8fbbaf673","2025-09-02_09h27.16.424",NA,NA,556.818,556.818,556.818,557.168,NA,NA,NA,NA,NA,NA,NA,TRUE,1,2.248,553.82,556.818,0,66,66,20,1,14,28,NA,NA,NA,NA,NA,1,67,"binary"
"2A8E6D1EF21E480CA0183ABA60BA50D1",1,"01990a9b-9efd-7089-98ca-ab391e85414c","01990a83-7673-7c0c-a792-bbd8fbbaf673","2025-09-02_09h27.16.424",NA,NA,560.168,560.168,560.168,560.518,NA,NA,NA,NA,NA,NA,NA,TRUE,1,2.513,557.17,560.168,0,67,67,52,1,40,47,NA,NA,NA,NA,NA,1,68,"binary"
"2A8E6D1EF21E480CA0183ABA60BA50D1",1,"01990a9b-9efd-7089-98ca-ab391e85414c","01990a83-7673-7c0c-a792-bbd8fbbaf673","2025-09-02_09h27.16.424",NA,NA,563.518,563.518,563.518,563.867,NA,NA,NA,NA,NA,NA,NA,TRUE,2,2.078,560.52,563.518,0,68,68,22,1,14,35,NA,NA,NA,NA,NA,1,69,"binary"
"2A8E6D1EF21E480CA0183ABA60BA50D1",1,"01990a9b-9efd-7089-98ca-ab391e85414c","01990a83-7673-7c0c-a792-bbd8fbbaf673","2025-09-02_09h27.16.424",NA,NA,566.868,566.868,566.868,567.218,NA,NA,NA,NA,NA,NA,NA,TRUE,1,1.768,563.87,566.868,0,69,69,12,1,12,25,NA,NA,NA,NA,NA,1,70,"binary"
"2A8E6D1EF21E480CA0183ABA60BA50D1",1,"01990a9b-9efd-7089-98ca-ab391e85414c","01990a83-7673-7c0c-a792-bbd8fbbaf673","2025-09-02_09h27.16.424",NA,NA,570.218,570.218,570.218,570.568,NA,NA,NA,NA,NA,NA,NA,TRUE,1,1.519,567.221,570.218,0,70,70,7,1,10,26,NA,NA,NA,NA,NA,1,71,"binary"
"2A8E6D1EF21E480CA0183ABA60BA50D1",1,"01990a9b-9efd-7089-98ca-ab391e85414c","01990a83-7673-7c0c-a792-bbd8fbbaf673","2025-09-02_09h27.16.424",NA,NA,573.568,573.568,573.568,573.918,NA,NA,NA,NA,NA,NA,NA,TRUE,2,1.312,570.57,573.568,0,71,71,3,1,7,30,NA,NA,NA,NA,NA,1,72,"binary"
"2A8E6D1EF21E480CA0183ABA60BA50D1",1,"01990a9b-9efd-7089-98ca-ab391e85414c","01990a83-7673-7c0c-a792-bbd8fbbaf673","2025-09-02_09h27.16.424",NA,NA,576.918,576.918,576.918,577.268,NA,NA,NA,NA,NA,NA,NA,TRUE,1,1.511,573.92,576.918,0,72,72,31,1,25,29,NA,NA,NA,NA,NA,1,73,"binary"
"2A8E6D1EF21E480CA0183ABA60BA50D1",1,"01990a9b-9efd-7089-98ca-ab391e85414c","01990a83-7673-7c0c-a792-bbd8fbbaf673","2025-09-02_09h27.16.424",NA,NA,580.268,580.268,580.268,580.617,NA,NA,NA,NA,NA,NA,NA,TRUE,1,1.8,577.271,580.268,0,73,73,101,1,180,54,NA,NA,NA,NA,NA,1,74,"binary"
"2A8E6D1EF21E480CA0183ABA60BA50D1",1,"01990a9b-9efd-7089-98ca-ab391e85414c","01990a83-7673-7c0c-a792-bbd8fbbaf673","2025-09-02_09h27.16.424",NA,NA,583.618,583.618,583.618,583.968,NA,NA,NA,NA,NA,NA,NA,TRUE,1,1.964,580.62,583.618,0,74,74,43,1,30,27,NA,NA,NA,NA,NA,1,75,"binary"
"2A8E6D1EF21E480CA0183ABA60BA50D1",1,"01990a9b-9efd-7089-98ca-ab391e85414c","01990a83-7673-7c0c-a792-bbd8fbbaf673","2025-09-02_09h27.16.424",NA,NA,586.968,586.968,586.968,587.317,NA,NA,NA,NA,NA,NA,NA,TRUE,1,1.378,583.971,586.968,0,75,75,75,1,90,40,NA,NA,NA,NA,NA,1,76,"binary"
"2A8E6D1EF21E480CA0183ABA60BA50D1",1,"01990a9b-9efd-7089-98ca-ab391e85414c","01990a83-7673-7c0c-a792-bbd8fbbaf673","2025-09-02_09h27.16.424",NA,NA,590.318,590.318,590.318,590.668,NA,NA,NA,NA,NA,NA,NA,TRUE,2,1.647,587.32,590.318,0,76,76,15,1,12,31,NA,NA,NA,NA,NA,1,77,"binary"
"2A8E6D1EF21E480CA0183ABA60BA50D1",1,"01990a9b-9efd-7089-98ca-ab391e85414c","01990a83-7673-7c0c-a792-bbd8fbbaf673","2025-09-02_09h27.16.424",NA,NA,593.668,593.668,593.668,594.017,NA,NA,NA,NA,NA,NA,NA,TRUE,1,1.666,590.671,593.668,0,77,77,28,1,21,32,NA,NA,NA,NA,NA,1,78,"binary"
"2A8E6D1EF21E480CA0183ABA60BA50D1",1,"01990a9b-9efd-7089-98ca-ab391e85414c","01990a83-7673-7c0c-a792-bbd8fbbaf673","2025-09-02_09h27.16.424",NA,NA,597.018,597.018,597.018,597.367,NA,NA,NA,NA,NA,NA,NA,TRUE,1,1.062,594.02,597.018,0,78,78,13,1,12,26,NA,NA,NA,NA,NA,1,79,"binary"
"2A8E6D1EF21E480CA0183ABA60BA50D1",1,"01990a9b-9efd-7089-98ca-ab391e85414c","01990a83-7673-7c0c-a792-bbd8fbbaf673","2025-09-02_09h27.16.424",NA,NA,600.368,600.368,600.368,600.717,NA,NA,NA,NA,NA,NA,NA,TRUE,1,1.032,597.37,600.368,0,79,79,100,1,180,46,NA,NA,NA,NA,NA,1,80,"binary"
"2A8E6D1EF21E480CA0183ABA60BA50D1",1,"01990a9b-9efd-7089-98ca-ab391e85414c","01990a83-7673-7c0c-a792-bbd8fbbaf673","2025-09-02_09h27.16.424",NA,NA,603.718,603.718,603.718,604.068,NA,NA,NA,NA,NA,NA,NA,TRUE,1,0.745,600.72,603.718,0,80,80,30,1,25,27,NA,NA,NA,NA,NA,1,81,"binary"
"2A8E6D1EF21E480CA0183ABA60BA50D1",1,"01990a9b-9efd-7089-98ca-ab391e85414c","01990a83-7673-7c0c-a792-bbd8fbbaf673","2025-09-02_09h27.16.424",NA,NA,607.068,607.068,607.068,607.418,NA,NA,NA,NA,NA,NA,NA,TRUE,1,0.609,604.071,607.068,0,81,81,8,1,10,27,NA,NA,NA,NA,NA,1,82,"binary"
"2A8E6D1EF21E480CA0183ABA60BA50D1",1,"01990a9b-9efd-7089-98ca-ab391e85414c","01990a83-7673-7c0c-a792-bbd8fbbaf673","2025-09-02_09h27.16.424",NA,NA,610.418,610.418,610.418,610.767,NA,NA,NA,NA,NA,NA,NA,TRUE,1,0.962,607.421,610.418,0,82,82,33,1,25,33,NA,NA,NA,NA,NA,1,83,"binary"
"2A8E6D1EF21E480CA0183ABA60BA50D1",1,"01990a9b-9efd-7089-98ca-ab391e85414c","01990a83-7673-7c0c-a792-bbd8fbbaf673","2025-09-02_09h27.16.424",NA,NA,613.768,613.768,613.768,614.117,NA,NA,NA,NA,NA,NA,NA,TRUE,1,0.752,610.771,613.768,0,83,83,80,1,95,35,NA,NA,NA,NA,NA,1,84,"binary"
"2A8E6D1EF21E480CA0183ABA60BA50D1",1,"01990a9b-9efd-7089-98ca-ab391e85414c","01990a83-7673-7c0c-a792-bbd8fbbaf673","2025-09-02_09h27.16.424",NA,NA,617.118,617.118,617.118,617.467,NA,NA,NA,NA,NA,NA,NA,TRUE,1,0.795,614.12,617.118,0,84,84,91,1,150,33,NA,NA,NA,NA,NA,1,85,"binary"
"2A8E6D1EF21E480CA0183ABA60BA50D1",1,"01990a9b-9efd-7089-98ca-ab391e85414c","01990a83-7673-7c0c-a792-bbd8fbbaf673","2025-09-02_09h27.16.424",NA,NA,620.468,620.468,620.468,620.818,NA,NA,NA,NA,NA,NA,NA,TRUE,1,1.318,617.47,620.468,0,85,85,88,1,100,46,NA,NA,NA,NA,NA,1,86,"binary"
"2A8E6D1EF21E480CA0183ABA60BA50D1",1,"01990a9b-9efd-7089-98ca-ab391e85414c","01990a83-7673-7c0c-a792-bbd8fbbaf673","2025-09-02_09h27.16.424",NA,NA,623.818,623.818,623.818,624.167,NA,NA,NA,NA,NA,NA,NA,TRUE,1,1.199,620.82,623.818,0,86,86,16,1,12,33,NA,NA,NA,NA,NA,1,87,"binary"
"2A8E6D1EF21E480CA0183ABA60BA50D1",1,"01990a9b-9efd-7089-98ca-ab391e85414c","01990a83-7673-7c0c-a792-bbd8fbbaf673","2025-09-02_09h27.16.424",NA,NA,627.168,627.168,627.168,627.517,NA,NA,NA,NA,NA,NA,NA,TRUE,1,1.161,624.17,627.167,0,87,87,36,1,28,26,NA,NA,NA,NA,NA,1,88,"binary"
"2A8E6D1EF21E480CA0183ABA60BA50D1",1,"01990a9b-9efd-7089-98ca-ab391e85414c","01990a83-7673-7c0c-a792-bbd8fbbaf673","2025-09-02_09h27.16.424",NA,NA,630.518,630.518,630.518,630.867,NA,NA,NA,NA,NA,NA,NA,TRUE,1,1.314,627.52,630.517,0,88,88,25,1,21,27,NA,NA,NA,NA,NA,1,89,"binary"
"2A8E6D1EF21E480CA0183ABA60BA50D1",1,"01990a9b-9efd-7089-98ca-ab391e85414c","01990a83-7673-7c0c-a792-bbd8fbbaf673","2025-09-02_09h27.16.424",NA,NA,633.868,633.868,633.868,634.218,NA,NA,NA,NA,NA,NA,NA,TRUE,1,1.284,630.87,633.868,0,89,89,102,1,200,26,NA,NA,NA,NA,NA,1,90,"binary"
"2A8E6D1EF21E480CA0183ABA60BA50D1",1,"01990a9b-9efd-7089-98ca-ab391e85414c","01990a83-7673-7c0c-a792-bbd8fbbaf673","2025-09-02_09h27.16.424",NA,NA,637.218,637.218,637.218,637.568,NA,NA,NA,NA,NA,NA,NA,TRUE,1,1.094,634.22,637.218,0,90,90,14,1,12,28,NA,NA,NA,NA,NA,1,91,"binary"
"2A8E6D1EF21E480CA0183ABA60BA50D1",1,"01990a9b-9efd-7089-98ca-ab391e85414c","01990a83-7673-7c0c-a792-bbd8fbbaf673","2025-09-02_09h27.16.424",NA,NA,640.568,640.568,640.568,640.917,NA,NA,NA,NA,NA,NA,NA,TRUE,1,1.259,637.571,640.567,0,91,91,50,1,40,35,NA,NA,NA,NA,NA,1,92,"binary"
"2A8E6D1EF21E480CA0183ABA60BA50D1",1,"01990a9b-9efd-7089-98ca-ab391e85414c","01990a83-7673-7c0c-a792-bbd8fbbaf673","2025-09-02_09h27.16.424",NA,NA,643.918,643.918,643.918,644.267,NA,NA,NA,NA,NA,NA,NA,TRUE,1,1.287,640.92,643.917,0,92,92,41,1,28,46,NA,NA,NA,NA,NA,1,93,"binary"
"2A8E6D1EF21E480CA0183ABA60BA50D1",1,"01990a9b-9efd-7089-98ca-ab391e85414c","01990a83-7673-7c0c-a792-bbd8fbbaf673","2025-09-02_09h27.16.424",NA,NA,647.267,647.267,647.268,647.617,NA,NA,NA,NA,NA,NA,NA,TRUE,1,1.596,644.27,647.267,0,93,93,86,1,100,38,NA,NA,NA,NA,NA,1,94,"binary"
"2A8E6D1EF21E480CA0183ABA60BA50D1",1,"01990a9b-9efd-7089-98ca-ab391e85414c","01990a83-7673-7c0c-a792-bbd8fbbaf673","2025-09-02_09h27.16.424",NA,NA,650.617,650.618,650.618,650.967,NA,NA,NA,NA,NA,NA,NA,TRUE,1,1.012,647.62,650.617,0,94,94,29,1,21,38,NA,NA,NA,NA,NA,1,95,"binary"
"2A8E6D1EF21E480CA0183ABA60BA50D1",1,"01990a9b-9efd-7089-98ca-ab391e85414c","01990a83-7673-7c0c-a792-bbd8fbbaf673","2025-09-02_09h27.16.424",NA,NA,653.968,653.968,653.968,654.317,NA,NA,NA,NA,NA,NA,NA,TRUE,1,1.578,650.97,653.967,0,95,95,78,1,95,31,NA,NA,NA,NA,NA,1,96,"binary"
"2A8E6D1EF21E480CA0183ABA60BA50D1",1,"01990a9b-9efd-7089-98ca-ab391e85414c","01990a83-7673-7c0c-a792-bbd8fbbaf673","2025-09-02_09h27.16.424",NA,NA,657.318,657.318,657.318,657.667,NA,NA,NA,NA,NA,NA,NA,TRUE,1,1.315,654.32,657.317,0,96,96,69,1,60,40,NA,NA,NA,NA,NA,1,97,"binary"
"2A8E6D1EF21E480CA0183ABA60BA50D1",1,"01990a9b-9efd-7089-98ca-ab391e85414c","01990a83-7673-7c0c-a792-bbd8fbbaf673","2025-09-02_09h27.16.424",NA,NA,660.668,660.668,660.668,661.017,NA,NA,NA,NA,NA,NA,NA,TRUE,1,1.165,657.67,660.667,0,97,97,39,1,28,35,NA,NA,NA,NA,NA,1,98,"binary"
"2A8E6D1EF21E480CA0183ABA60BA50D1",1,"01990a9b-9efd-7089-98ca-ab391e85414c","01990a83-7673-7c0c-a792-bbd8fbbaf673","2025-09-02_09h27.16.424",NA,NA,664.018,664.018,664.018,664.367,NA,NA,NA,NA,NA,NA,NA,TRUE,1,0.996,661.02,664.017,0,98,98,66,1,60,29,NA,NA,NA,NA,NA,1,99,"binary"
"2A8E6D1EF21E480CA0183ABA60BA50D1",1,"01990a9b-9efd-7089-98ca-ab391e85414c","01990a83-7673-7c0c-a792-bbd8fbbaf673","2025-09-02_09h27.16.424",NA,NA,667.368,667.368,667.368,667.717,NA,NA,NA,NA,NA,NA,NA,TRUE,1,0.894,664.37,667.367,0,99,99,54,1,45,26,NA,NA,NA,NA,NA,1,100,"binary"
"2A8E6D1EF21E480CA0183ABA60BA50D1",1,"01990a9b-9efd-7089-98ca-ab391e85414c","01990a83-7673-7c0c-a792-bbd8fbbaf673","2025-09-02_09h27.16.424",NA,NA,670.718,670.718,670.718,671.067,NA,NA,NA,NA,NA,NA,NA,TRUE,1,1.046,667.72,670.717,0,100,100,19,1,14,26,NA,NA,NA,NA,NA,1,101,"binary"
"2A8E6D1EF21E480CA0183ABA60BA50D1",1,"01990a9b-9efd-7089-98ca-ab391e85414c","01990a83-7673-7c0c-a792-bbd8fbbaf673","2025-09-02_09h27.16.424",NA,NA,674.068,674.068,674.068,674.417,NA,NA,NA,NA,NA,NA,NA,TRUE,1,1.032,671.07,674.067,0,101,101,105,1,200,39,NA,NA,NA,NA,NA,1,102,"binary"
"2A8E6D1EF21E480CA0183ABA60BA50D1",1,"01990a9b-9efd-7089-98ca-ab391e85414c","01990a83-7673-7c0c-a792-bbd8fbbaf673","2025-09-02_09h27.16.424",NA,NA,677.418,677.418,677.418,677.767,NA,NA,NA,NA,NA,NA,NA,TRUE,2,1.228,674.42,677.417,0,102,102,21,1,14,32,NA,NA,NA,NA,NA,1,103,"binary"
"2A8E6D1EF21E480CA0183ABA60BA50D1",1,"01990a9b-9efd-7089-98ca-ab391e85414c","01990a83-7673-7c0c-a792-bbd8fbbaf673","2025-09-02_09h27.16.424",NA,NA,680.768,680.768,680.768,681.117,NA,NA,NA,NA,NA,NA,NA,TRUE,1,1.294,677.77,680.767,0,103,103,0,1,7,25,NA,NA,NA,NA,NA,1,104,"binary"
"2A8E6D1EF21E480CA0183ABA60BA50D1",1,"01990a9b-9efd-7089-98ca-ab391e85414c","01990a83-7673-7c0c-a792-bbd8fbbaf673","2025-09-02_09h27.16.424",NA,NA,684.117,684.117,684.117,684.467,NA,NA,NA,NA,NA,NA,NA,TRUE,1,1.912,681.12,684.117,0,104,104,103,1,200,28,NA,NA,NA,NA,NA,1,105,"binary"
"2A8E6D1EF21E480CA0183ABA60BA50D1",1,"01990a9b-9efd-7089-98ca-ab391e85414c","01990a83-7673-7c0c-a792-bbd8fbbaf673","2025-09-02_09h27.16.424",NA,NA,687.467,687.467,687.467,687.817,NA,NA,NA,NA,NA,NA,NA,TRUE,1,1.277,684.47,687.467,0,105,105,62,1,50,35,NA,NA,NA,NA,NA,1,106,"binary"
"2A8E6D1EF21E480CA0183ABA60BA50D1",1,"01990a9b-9efd-7089-98ca-ab391e85414c","01990a83-7673-7c0c-a792-bbd8fbbaf673","2025-09-02_09h27.16.424",NA,NA,690.817,690.817,690.817,691.167,NA,NA,NA,NA,NA,NA,NA,TRUE,1,2.143,687.82,690.817,0,106,106,24,1,21,26,NA,NA,NA,NA,NA,1,107,"binary"
"2A8E6D1EF21E480CA0183ABA60BA50D1",1,"01990a9b-9efd-7089-98ca-ab391e85414c","01990a83-7673-7c0c-a792-bbd8fbbaf673","2025-09-02_09h27.16.424",NA,NA,694.167,694.167,694.167,694.517,NA,NA,NA,NA,NA,NA,NA,TRUE,1,1.03,691.17,694.167,0,107,107,34,1,25,35,NA,NA,NA,NA,NA,1,108,"binary"
"2A8E6D1EF21E480CA0183ABA60BA50D1",1,"01990a9b-9efd-7089-98ca-ab391e85414c","01990a83-7673-7c0c-a792-bbd8fbbaf673","2025-09-02_09h27.16.424",NA,NA,732.234,732.234,732.234,732.584,NA,NA,NA,NA,NA,NA,NA,TRUE,1,1.232,729.249,732.234,NA,NA,NA,NA,NA,60,40,0,0,0,69,1,2,1,"binary"
"2A8E6D1EF21E480CA0183ABA60BA50D1",1,"01990a9b-9efd-7089-98ca-ab391e85414c","01990a83-7673-7c0c-a792-bbd8fbbaf673","2025-09-02_09h27.16.424",NA,NA,735.584,735.584,735.584,735.934,NA,NA,NA,NA,NA,NA,NA,TRUE,1,0.444,732.587,735.584,NA,NA,NA,NA,NA,200,47,0,1,1,106,1,2,2,"binary"
"2A8E6D1EF21E480CA0183ABA60BA50D1",1,"01990a9b-9efd-7089-98ca-ab391e85414c","01990a83-7673-7c0c-a792-bbd8fbbaf673","2025-09-02_09h27.16.424",NA,NA,738.934,738.934,738.934,739.284,NA,NA,NA,NA,NA,NA,NA,TRUE,2,1.579,735.937,738.934,NA,NA,NA,NA,NA,14,32,0,2,2,21,1,2,3,"binary"
"2A8E6D1EF21E480CA0183ABA60BA50D1",1,"01990a9b-9efd-7089-98ca-ab391e85414c","01990a83-7673-7c0c-a792-bbd8fbbaf673","2025-09-02_09h27.16.424",NA,NA,742.284,742.284,742.284,742.634,NA,NA,NA,NA,NA,NA,NA,TRUE,1,1.145,739.287,742.284,NA,NA,NA,NA,NA,25,31,0,3,3,32,1,2,4,"binary"
"2A8E6D1EF21E480CA0183ABA60BA50D1",1,"01990a9b-9efd-7089-98ca-ab391e85414c","01990a83-7673-7c0c-a792-bbd8fbbaf673","2025-09-02_09h27.16.424",NA,NA,745.634,745.634,745.634,745.984,NA,NA,NA,NA,NA,NA,NA,TRUE,1,0.977,742.636,745.634,NA,NA,NA,NA,NA,100,39,0,4,4,87,1,2,5,"binary"
"2A8E6D1EF21E480CA0183ABA60BA50D1",1,"01990a9b-9efd-7089-98ca-ab391e85414c","01990a83-7673-7c0c-a792-bbd8fbbaf673","2025-09-02_09h27.16.424",NA,NA,748.984,748.984,748.984,749.334,NA,NA,NA,NA,NA,NA,NA,TRUE,1,1.193,745.986,748.984,NA,NA,NA,NA,NA,25,33,0,5,5,33,1,2,6,"binary"
"2A8E6D1EF21E480CA0183ABA60BA50D1",1,"01990a9b-9efd-7089-98ca-ab391e85414c","01990a83-7673-7c0c-a792-bbd8fbbaf673","2025-09-02_09h27.16.424",NA,NA,752.334,752.334,752.334,752.684,NA,NA,NA,NA,NA,NA,NA,TRUE,1,0.928,749.336,752.334,NA,NA,NA,NA,NA,150,35,0,6,6,92,1,2,7,"binary"
"2A8E6D1EF21E480CA0183ABA60BA50D1",1,"01990a9b-9efd-7089-98ca-ab391e85414c","01990a83-7673-7c0c-a792-bbd8fbbaf673","2025-09-02_09h27.16.424",NA,NA,755.684,755.684,755.684,756.034,NA,NA,NA,NA,NA,NA,NA,TRUE,1,0.646,752.686,755.684,NA,NA,NA,NA,NA,14,39,0,7,7,23,1,2,8,"binary"
"2A8E6D1EF21E480CA0183ABA60BA50D1",1,"01990a9b-9efd-7089-98ca-ab391e85414c","01990a83-7673-7c0c-a792-bbd8fbbaf673","2025-09-02_09h27.16.424",NA,NA,759.034,759.034,759.034,759.384,NA,NA,NA,NA,NA,NA,NA,TRUE,1,1.827,756.037,759.034,NA,NA,NA,NA,NA,45,26,0,8,8,54,1,2,9,"binary"
"2A8E6D1EF21E480CA0183ABA60BA50D1",1,"01990a9b-9efd-7089-98ca-ab391e85414c","01990a83-7673-7c0c-a792-bbd8fbbaf673","2025-09-02_09h27.16.424",NA,NA,762.384,762.384,762.384,762.733,NA,NA,NA,NA,NA,NA,NA,TRUE,1,1.262,759.386,762.384,NA,NA,NA,NA,NA,50,40,0,9,9,63,1,2,10,"binary"
"2A8E6D1EF21E480CA0183ABA60BA50D1",1,"01990a9b-9efd-7089-98ca-ab391e85414c","01990a83-7673-7c0c-a792-bbd8fbbaf673","2025-09-02_09h27.16.424",NA,NA,765.733,765.733,765.733,766.083,NA,NA,NA,NA,NA,NA,NA,TRUE,1,1.26,762.736,765.733,NA,NA,NA,NA,NA,95,31,0,10,10,78,1,2,11,"binary"
"2A8E6D1EF21E480CA0183ABA60BA50D1",1,"01990a9b-9efd-7089-98ca-ab391e85414c","01990a83-7673-7c0c-a792-bbd8fbbaf673","2025-09-02_09h27.16.424",NA,NA,769.084,769.084,769.084,769.433,NA,NA,NA,NA,NA,NA,NA,TRUE,1,0.893,766.086,769.084,NA,NA,NA,NA,NA,10,25,0,11,11,6,1,2,12,"binary"
"2A8E6D1EF21E480CA0183ABA60BA50D1",1,"01990a9b-9efd-7089-98ca-ab391e85414c","01990a83-7673-7c0c-a792-bbd8fbbaf673","2025-09-02_09h27.16.424",NA,NA,772.434,772.434,772.434,772.784,NA,NA,NA,NA,NA,NA,NA,TRUE,1,1.209,769.435,772.434,NA,NA,NA,NA,NA,50,30,0,12,12,61,1,2,13,"binary"
"2A8E6D1EF21E480CA0183ABA60BA50D1",1,"01990a9b-9efd-7089-98ca-ab391e85414c","01990a83-7673-7c0c-a792-bbd8fbbaf673","2025-09-02_09h27.16.424",NA,NA,775.783,775.783,775.783,776.134,NA,NA,NA,NA,NA,NA,NA,TRUE,1,1.911,772.786,775.783,NA,NA,NA,NA,NA,28,35,0,13,13,39,1,2,14,"binary"
"2A8E6D1EF21E480CA0183ABA60BA50D1",1,"01990a9b-9efd-7089-98ca-ab391e85414c","01990a83-7673-7c0c-a792-bbd8fbbaf673","2025-09-02_09h27.16.424",NA,NA,779.134,779.134,779.134,779.484,NA,NA,NA,NA,NA,NA,NA,TRUE,1,1.469,776.136,779.134,NA,NA,NA,NA,NA,30,38,0,14,14,47,1,2,15,"binary"
"2A8E6D1EF21E480CA0183ABA60BA50D1",1,"01990a9b-9efd-7089-98ca-ab391e85414c","01990a83-7673-7c0c-a792-bbd8fbbaf673","2025-09-02_09h27.16.424",NA,NA,782.484,782.484,782.484,782.834,NA,NA,NA,NA,NA,NA,NA,TRUE,1,1.684,779.486,782.484,NA,NA,NA,NA,NA,100,38,0,15,15,86,1,2,16,"binary"
"2A8E6D1EF21E480CA0183ABA60BA50D1",1,"01990a9b-9efd-7089-98ca-ab391e85414c","01990a83-7673-7c0c-a792-bbd8fbbaf673","2025-09-02_09h27.16.424",NA,NA,785.834,785.834,785.834,786.184,NA,NA,NA,NA,NA,NA,NA,TRUE,1,2.651,782.836,785.834,NA,NA,NA,NA,NA,12,31,0,16,16,15,1,2,17,"binary"
"2A8E6D1EF21E480CA0183ABA60BA50D1",1,"01990a9b-9efd-7089-98ca-ab391e85414c","01990a83-7673-7c0c-a792-bbd8fbbaf673","2025-09-02_09h27.16.424",NA,NA,789.184,789.184,789.184,789.534,NA,NA,NA,NA,NA,NA,NA,TRUE,1,1.711,786.186,789.184,NA,NA,NA,NA,NA,45,29,0,17,17,55,1,2,18,"binary"
"2A8E6D1EF21E480CA0183ABA60BA50D1",1,"01990a9b-9efd-7089-98ca-ab391e85414c","01990a83-7673-7c0c-a792-bbd8fbbaf673","2025-09-02_09h27.16.424",NA,NA,792.534,792.534,792.534,792.884,NA,NA,NA,NA,NA,NA,NA,TRUE,1,1.548,789.536,792.534,NA,NA,NA,NA,NA,100,46,0,18,18,88,1,2,19,"binary"
"2A8E6D1EF21E480CA0183ABA60BA50D1",1,"01990a9b-9efd-7089-98ca-ab391e85414c","01990a83-7673-7c0c-a792-bbd8fbbaf673","2025-09-02_09h27.16.424",NA,NA,795.884,795.884,795.884,796.234,NA,NA,NA,NA,NA,NA,NA,TRUE,1,1.179,792.887,795.884,NA,NA,NA,NA,NA,28,26,0,19,19,36,1,2,20,"binary"
"2A8E6D1EF21E480CA0183ABA60BA50D1",1,"01990a9b-9efd-7089-98ca-ab391e85414c","01990a83-7673-7c0c-a792-bbd8fbbaf673","2025-09-02_09h27.16.424",NA,NA,799.234,799.234,799.234,799.584,NA,NA,NA,NA,NA,NA,NA,TRUE,1,1.247,796.237,799.234,NA,NA,NA,NA,NA,30,29,0,20,20,44,1,2,21,"binary"
"2A8E6D1EF21E480CA0183ABA60BA50D1",1,"01990a9b-9efd-7089-98ca-ab391e85414c","01990a83-7673-7c0c-a792-bbd8fbbaf673","2025-09-02_09h27.16.424",NA,NA,802.584,802.584,802.584,802.933,NA,NA,NA,NA,NA,NA,NA,TRUE,1,1.309,799.587,802.584,NA,NA,NA,NA,NA,50,27,0,21,21,60,1,2,22,"binary"
"2A8E6D1EF21E480CA0183ABA60BA50D1",1,"01990a9b-9efd-7089-98ca-ab391e85414c","01990a83-7673-7c0c-a792-bbd8fbbaf673","2025-09-02_09h27.16.424",NA,NA,805.933,805.933,805.933,806.284,NA,NA,NA,NA,NA,NA,NA,TRUE,1,0.971,802.936,805.933,NA,NA,NA,NA,NA,180,31,0,22,22,97,1,2,23,"binary"
"2A8E6D1EF21E480CA0183ABA60BA50D1",1,"01990a9b-9efd-7089-98ca-ab391e85414c","01990a83-7673-7c0c-a792-bbd8fbbaf673","2025-09-02_09h27.16.424",NA,NA,809.284,809.284,809.284,809.633,NA,NA,NA,NA,NA,NA,NA,TRUE,1,0.976,806.286,809.283,NA,NA,NA,NA,NA,200,26,0,23,23,102,1,2,24,"binary"
"2A8E6D1EF21E480CA0183ABA60BA50D1",1,"01990a9b-9efd-7089-98ca-ab391e85414c","01990a83-7673-7c0c-a792-bbd8fbbaf673","2025-09-02_09h27.16.424",NA,NA,812.634,812.634,812.634,812.984,NA,NA,NA,NA,NA,NA,NA,TRUE,1,1.18,809.636,812.634,NA,NA,NA,NA,NA,60,54,0,24,24,71,1,2,25,"binary"
"2A8E6D1EF21E480CA0183ABA60BA50D1",1,"01990a9b-9efd-7089-98ca-ab391e85414c","01990a83-7673-7c0c-a792-bbd8fbbaf673","2025-09-02_09h27.16.424",NA,NA,815.984,815.984,815.984,816.333,NA,NA,NA,NA,NA,NA,NA,TRUE,1,0.845,812.986,815.983,NA,NA,NA,NA,NA,12,35,0,25,25,17,1,2,26,"binary"
"2A8E6D1EF21E480CA0183ABA60BA50D1",1,"01990a9b-9efd-7089-98ca-ab391e85414c","01990a83-7673-7c0c-a792-bbd8fbbaf673","2025-09-02_09h27.16.424",NA,NA,819.334,819.334,819.334,819.683,NA,NA,NA,NA,NA,NA,NA,TRUE,1,0.91,816.336,819.334,NA,NA,NA,NA,NA,95,54,0,26,26,83,1,2,27,"binary"
"2A8E6D1EF21E480CA0183ABA60BA50D1",1,"01990a9b-9efd-7089-98ca-ab391e85414c","01990a83-7673-7c0c-a792-bbd8fbbaf673","2025-09-02_09h27.16.424",NA,NA,822.684,822.684,822.684,823.033,NA,NA,NA,NA,NA,NA,NA,TRUE,1,1.346,819.686,822.683,NA,NA,NA,NA,NA,40,47,0,27,27,52,1,2,28,"binary"
"2A8E6D1EF21E480CA0183ABA60BA50D1",1,"01990a9b-9efd-7089-98ca-ab391e85414c","01990a83-7673-7c0c-a792-bbd8fbbaf673","2025-09-02_09h27.16.424",NA,NA,826.034,826.034,826.034,826.383,NA,NA,NA,NA,NA,NA,NA,TRUE,1,1.46,823.036,826.033,NA,NA,NA,NA,NA,12,28,0,28,28,14,1,2,29,"binary"
"2A8E6D1EF21E480CA0183ABA60BA50D1",1,"01990a9b-9efd-7089-98ca-ab391e85414c","01990a83-7673-7c0c-a792-bbd8fbbaf673","2025-09-02_09h27.16.424",NA,NA,829.384,829.384,829.384,829.733,NA,NA,NA,NA,NA,NA,NA,TRUE,1,1.395,826.386,829.383,NA,NA,NA,NA,NA,100,54,0,29,29,89,1,2,30,"binary"
"2A8E6D1EF21E480CA0183ABA60BA50D1",1,"01990a9b-9efd-7089-98ca-ab391e85414c","01990a83-7673-7c0c-a792-bbd8fbbaf673","2025-09-02_09h27.16.424",NA,NA,832.734,832.734,832.734,833.084,NA,NA,NA,NA,NA,NA,NA,TRUE,1,1.06,829.736,832.733,NA,NA,NA,NA,NA,180,54,0,30,30,101,1,2,31,"binary"
"2A8E6D1EF21E480CA0183ABA60BA50D1",1,"01990a9b-9efd-7089-98ca-ab391e85414c","01990a83-7673-7c0c-a792-bbd8fbbaf673","2025-09-02_09h27.16.424",NA,NA,836.084,836.084,836.084,836.434,NA,NA,NA,NA,NA,NA,NA,TRUE,1,0.896,833.086,836.084,NA,NA,NA,NA,NA,95,47,0,31,31,82,1,2,32,"binary"
"2A8E6D1EF21E480CA0183ABA60BA50D1",1,"01990a9b-9efd-7089-98ca-ab391e85414c","01990a83-7673-7c0c-a792-bbd8fbbaf673","2025-09-02_09h27.16.424",NA,NA,839.434,839.434,839.434,839.783,NA,NA,NA,NA,NA,NA,NA,TRUE,1,1.4,836.435,839.434,NA,NA,NA,NA,NA,30,30,0,32,32,45,1,2,33,"binary"
"2A8E6D1EF21E480CA0183ABA60BA50D1",1,"01990a9b-9efd-7089-98ca-ab391e85414c","01990a83-7673-7c0c-a792-bbd8fbbaf673","2025-09-02_09h27.16.424",NA,NA,842.784,842.784,842.784,843.133,NA,NA,NA,NA,NA,NA,NA,TRUE,1,1.042,839.787,842.783,NA,NA,NA,NA,NA,90,54,0,33,33,77,1,2,34,"binary"
"2A8E6D1EF21E480CA0183ABA60BA50D1",1,"01990a9b-9efd-7089-98ca-ab391e85414c","01990a83-7673-7c0c-a792-bbd8fbbaf673","2025-09-02_09h27.16.424",NA,NA,846.134,846.134,846.134,846.483,NA,NA,NA,NA,NA,NA,NA,TRUE,1,0.811,843.136,846.133,NA,NA,NA,NA,NA,7,26,0,34,34,1,1,2,35,"binary"
"2A8E6D1EF21E480CA0183ABA60BA50D1",1,"01990a9b-9efd-7089-98ca-ab391e85414c","01990a83-7673-7c0c-a792-bbd8fbbaf673","2025-09-02_09h27.16.424",NA,NA,849.483,849.483,849.483,849.833,NA,NA,NA,NA,NA,NA,NA,TRUE,1,2.45,846.486,849.483,NA,NA,NA,NA,NA,40,54,0,35,35,53,1,2,36,"binary"
"2A8E6D1EF21E480CA0183ABA60BA50D1",1,"01990a9b-9efd-7089-98ca-ab391e85414c","01990a83-7673-7c0c-a792-bbd8fbbaf673","2025-09-02_09h27.16.424",NA,NA,852.834,852.834,852.834,853.183,NA,NA,NA,NA,NA,NA,NA,TRUE,1,0.895,849.836,852.833,NA,NA,NA,NA,NA,90,33,0,36,36,74,1,2,37,"binary"
"2A8E6D1EF21E480CA0183ABA60BA50D1",1,"01990a9b-9efd-7089-98ca-ab391e85414c","01990a83-7673-7c0c-a792-bbd8fbbaf673","2025-09-02_09h27.16.424",NA,NA,856.184,856.184,856.184,856.533,NA,NA,NA,NA,NA,NA,NA,TRUE,1,1.065,853.186,856.183,NA,NA,NA,NA,NA,7,32,0,37,37,4,1,2,38,"binary"
"2A8E6D1EF21E480CA0183ABA60BA50D1",1,"01990a9b-9efd-7089-98ca-ab391e85414c","01990a83-7673-7c0c-a792-bbd8fbbaf673","2025-09-02_09h27.16.424",NA,NA,859.534,859.534,859.534,859.883,NA,NA,NA,NA,NA,NA,NA,TRUE,1,1.009,856.535,859.533,NA,NA,NA,NA,NA,30,26,0,38,38,42,1,2,39,"binary"
"2A8E6D1EF21E480CA0183ABA60BA50D1",1,"01990a9b-9efd-7089-98ca-ab391e85414c","01990a83-7673-7c0c-a792-bbd8fbbaf673","2025-09-02_09h27.16.424",NA,NA,862.884,862.884,862.884,863.233,NA,NA,NA,NA,NA,NA,NA,TRUE,1,1.181,859.886,862.883,NA,NA,NA,NA,NA,25,29,0,39,39,31,1,2,40,"binary"
"2A8E6D1EF21E480CA0183ABA60BA50D1",1,"01990a9b-9efd-7089-98ca-ab391e85414c","01990a83-7673-7c0c-a792-bbd8fbbaf673","2025-09-02_09h27.16.424",NA,NA,866.234,866.234,866.234,866.583,NA,NA,NA,NA,NA,NA,NA,TRUE,1,1.111,863.236,866.233,NA,NA,NA,NA,NA,21,32,0,40,40,28,1,2,41,"binary"
"2A8E6D1EF21E480CA0183ABA60BA50D1",1,"01990a9b-9efd-7089-98ca-ab391e85414c","01990a83-7673-7c0c-a792-bbd8fbbaf673","2025-09-02_09h27.16.424",NA,NA,869.583,869.584,869.584,869.933,NA,NA,NA,NA,NA,NA,NA,TRUE,1,2.078,866.586,869.583,NA,NA,NA,NA,NA,60,29,0,41,41,66,1,2,42,"binary"
"2A8E6D1EF21E480CA0183ABA60BA50D1",1,"01990a9b-9efd-7089-98ca-ab391e85414c","01990a83-7673-7c0c-a792-bbd8fbbaf673","2025-09-02_09h27.16.424",NA,NA,872.934,872.934,872.934,873.283,NA,NA,NA,NA,NA,NA,NA,TRUE,1,0.896,869.936,872.934,NA,NA,NA,NA,NA,21,29,0,42,42,26,1,2,43,"binary"
"2A8E6D1EF21E480CA0183ABA60BA50D1",1,"01990a9b-9efd-7089-98ca-ab391e85414c","01990a83-7673-7c0c-a792-bbd8fbbaf673","2025-09-02_09h27.16.424",NA,NA,876.283,876.283,876.284,876.633,NA,NA,NA,NA,NA,NA,NA,TRUE,1,1.098,873.286,876.283,NA,NA,NA,NA,NA,150,47,0,43,43,94,1,2,44,"binary"
"2A8E6D1EF21E480CA0183ABA60BA50D1",1,"01990a9b-9efd-7089-98ca-ab391e85414c","01990a83-7673-7c0c-a792-bbd8fbbaf673","2025-09-02_09h27.16.424",NA,NA,879.634,879.634,879.634,879.983,NA,NA,NA,NA,NA,NA,NA,TRUE,1,1.965,876.636,879.634,NA,NA,NA,NA,NA,200,54,0,44,44,107,1,2,45,"binary"
"2A8E6D1EF21E480CA0183ABA60BA50D1",1,"01990a9b-9efd-7089-98ca-ab391e85414c","01990a83-7673-7c0c-a792-bbd8fbbaf673","2025-09-02_09h27.16.424",NA,NA,882.984,882.984,882.984,883.333,NA,NA,NA,NA,NA,NA,NA,TRUE,1,1.046,879.987,882.983,NA,NA,NA,NA,NA,200,28,0,45,45,103,1,2,46,"binary"
"2A8E6D1EF21E480CA0183ABA60BA50D1",1,"01990a9b-9efd-7089-98ca-ab391e85414c","01990a83-7673-7c0c-a792-bbd8fbbaf673","2025-09-02_09h27.16.424",NA,NA,886.333,886.334,886.334,886.683,NA,NA,NA,NA,NA,NA,NA,TRUE,1,1.566,883.336,886.333,NA,NA,NA,NA,NA,10,30,0,46,46,10,1,2,47,"binary"
"2A8E6D1EF21E480CA0183ABA60BA50D1",1,"01990a9b-9efd-7089-98ca-ab391e85414c","01990a83-7673-7c0c-a792-bbd8fbbaf673","2025-09-02_09h27.16.424",NA,NA,889.684,889.684,889.684,890.033,NA,NA,NA,NA,NA,NA,NA,TRUE,1,1.492,886.687,889.683,NA,NA,NA,NA,NA,100,26,0,47,47,84,1,2,48,"binary"
"2A8E6D1EF21E480CA0183ABA60BA50D1",1,"01990a9b-9efd-7089-98ca-ab391e85414c","01990a83-7673-7c0c-a792-bbd8fbbaf673","2025-09-02_09h27.16.424",NA,NA,893.033,893.034,893.034,893.383,NA,NA,NA,NA,NA,NA,NA,TRUE,1,1.312,890.036,893.033,NA,NA,NA,NA,NA,45,35,0,48,48,57,1,2,49,"binary"
"2A8E6D1EF21E480CA0183ABA60BA50D1",1,"01990a9b-9efd-7089-98ca-ab391e85414c","01990a83-7673-7c0c-a792-bbd8fbbaf673","2025-09-02_09h27.16.424",NA,NA,896.383,896.384,896.384,896.733,NA,NA,NA,NA,NA,NA,NA,TRUE,1,2.367,893.386,896.383,NA,NA,NA,NA,NA,150,31,0,49,49,90,1,2,50,"binary"
"2A8E6D1EF21E480CA0183ABA60BA50D1",1,"01990a9b-9efd-7089-98ca-ab391e85414c","01990a83-7673-7c0c-a792-bbd8fbbaf673","2025-09-02_09h27.16.424",NA,NA,899.733,899.734,899.734,900.083,NA,NA,NA,NA,NA,NA,NA,TRUE,1,1.897,896.736,899.733,NA,NA,NA,NA,NA,21,30,0,50,50,27,1,2,51,"binary"
"2A8E6D1EF21E480CA0183ABA60BA50D1",1,"01990a9b-9efd-7089-98ca-ab391e85414c","01990a83-7673-7c0c-a792-bbd8fbbaf673","2025-09-02_09h27.16.424",NA,NA,903.083,903.083,903.083,903.433,NA,NA,NA,NA,NA,NA,NA,TRUE,1,2.043,900.086,903.083,NA,NA,NA,NA,NA,200,35,0,51,51,104,1,2,52,"binary"
"2A8E6D1EF21E480CA0183ABA60BA50D1",1,"01990a9b-9efd-7089-98ca-ab391e85414c","01990a83-7673-7c0c-a792-bbd8fbbaf673","2025-09-02_09h27.16.424",NA,NA,906.433,906.433,906.433,906.783,NA,NA,NA,NA,NA,NA,NA,TRUE,1,2.013,903.436,906.433,NA,NA,NA,NA,NA,28,46,0,52,52,41,1,2,53,"binary"
"2A8E6D1EF21E480CA0183ABA60BA50D1",1,"01990a9b-9efd-7089-98ca-ab391e85414c","01990a83-7673-7c0c-a792-bbd8fbbaf673","2025-09-02_09h27.16.424",NA,NA,909.784,910.033,910.033,910.133,NA,NA,NA,NA,NA,NA,NA,FALSE,NA,NA,906.786,909.783,NA,NA,NA,NA,NA,95,40,0,53,53,81,1,2,54,"binary"
"2A8E6D1EF21E480CA0183ABA60BA50D1",1,"01990a9b-9efd-7089-98ca-ab391e85414c","01990a83-7673-7c0c-a792-bbd8fbbaf673","2025-09-02_09h27.16.424",NA,NA,913.133,913.133,913.133,913.483,NA,NA,NA,NA,NA,NA,NA,TRUE,1,0.944,910.136,913.133,NA,NA,NA,NA,NA,25,46,0,54,54,35,1,2,55,"binary"
"2A8E6D1EF21E480CA0183ABA60BA50D1",1,"01990a9b-9efd-7089-98ca-ab391e85414c","01990a83-7673-7c0c-a792-bbd8fbbaf673","2025-09-02_09h27.16.424",NA,NA,916.484,916.484,916.484,916.833,NA,NA,NA,NA,NA,NA,NA,TRUE,1,0.784,913.486,916.483,NA,NA,NA,NA,NA,180,27,0,55,55,96,1,2,56,"binary"
"2A8E6D1EF21E480CA0183ABA60BA50D1",1,"01990a9b-9efd-7089-98ca-ab391e85414c","01990a83-7673-7c0c-a792-bbd8fbbaf673","2025-09-02_09h27.16.424",NA,NA,919.833,919.834,919.834,920.183,NA,NA,NA,NA,NA,NA,NA,TRUE,1,0.919,916.836,919.833,NA,NA,NA,NA,NA,7,28,0,56,56,2,1,2,57,"binary"
"2A8E6D1EF21E480CA0183ABA60BA50D1",1,"01990a9b-9efd-7089-98ca-ab391e85414c","01990a83-7673-7c0c-a792-bbd8fbbaf673","2025-09-02_09h27.16.424",NA,NA,923.184,923.184,923.184,923.533,NA,NA,NA,NA,NA,NA,NA,TRUE,1,0.544,920.186,923.183,NA,NA,NA,NA,NA,90,46,0,57,57,76,1,2,58,"binary"
"2A8E6D1EF21E480CA0183ABA60BA50D1",1,"01990a9b-9efd-7089-98ca-ab391e85414c","01990a83-7673-7c0c-a792-bbd8fbbaf673","2025-09-02_09h27.16.424",NA,NA,926.534,926.534,926.534,926.883,NA,NA,NA,NA,NA,NA,NA,TRUE,1,0.684,923.537,926.533,NA,NA,NA,NA,NA,28,28,0,58,58,37,1,2,59,"binary"
"2A8E6D1EF21E480CA0183ABA60BA50D1",1,"01990a9b-9efd-7089-98ca-ab391e85414c","01990a83-7673-7c0c-a792-bbd8fbbaf673","2025-09-02_09h27.16.424",NA,NA,929.883,929.883,929.883,930.233,NA,NA,NA,NA,NA,NA,NA,TRUE,1,0.868,926.886,929.883,NA,NA,NA,NA,NA,14,28,0,59,59,20,1,2,60,"binary"
"2A8E6D1EF21E480CA0183ABA60BA50D1",1,"01990a9b-9efd-7089-98ca-ab391e85414c","01990a83-7673-7c0c-a792-bbd8fbbaf673","2025-09-02_09h27.16.424",NA,NA,933.233,933.233,933.233,933.583,NA,NA,NA,NA,NA,NA,NA,TRUE,1,0.914,930.236,933.233,NA,NA,NA,NA,NA,150,33,0,60,60,91,1,2,61,"binary"
"2A8E6D1EF21E480CA0183ABA60BA50D1",1,"01990a9b-9efd-7089-98ca-ab391e85414c","01990a83-7673-7c0c-a792-bbd8fbbaf673","2025-09-02_09h27.16.424",NA,NA,936.583,936.583,936.583,936.933,NA,NA,NA,NA,NA,NA,NA,TRUE,1,1.329,933.586,936.583,NA,NA,NA,NA,NA,180,39,0,61,61,99,1,2,62,"binary"
"2A8E6D1EF21E480CA0183ABA60BA50D1",1,"01990a9b-9efd-7089-98ca-ab391e85414c","01990a83-7673-7c0c-a792-bbd8fbbaf673","2025-09-02_09h27.16.424",NA,NA,939.933,939.933,939.933,940.283,NA,NA,NA,NA,NA,NA,NA,TRUE,1,1.233,936.936,939.933,NA,NA,NA,NA,NA,14,25,0,62,62,18,1,2,63,"binary"
"2A8E6D1EF21E480CA0183ABA60BA50D1",1,"01990a9b-9efd-7089-98ca-ab391e85414c","01990a83-7673-7c0c-a792-bbd8fbbaf673","2025-09-02_09h27.16.424",NA,NA,943.283,943.283,943.283,943.633,NA,NA,NA,NA,NA,NA,NA,TRUE,1,0.715,940.286,943.283,NA,NA,NA,NA,NA,21,27,0,63,63,25,1,2,64,"binary"
"2A8E6D1EF21E480CA0183ABA60BA50D1",1,"01990a9b-9efd-7089-98ca-ab391e85414c","01990a83-7673-7c0c-a792-bbd8fbbaf673","2025-09-02_09h27.16.424",NA,NA,946.633,946.633,946.633,946.983,NA,NA,NA,NA,NA,NA,NA,TRUE,1,1.046,943.636,946.633,NA,NA,NA,NA,NA,50,46,0,64,64,64,1,2,65,"binary"
"2A8E6D1EF21E480CA0183ABA60BA50D1",1,"01990a9b-9efd-7089-98ca-ab391e85414c","01990a83-7673-7c0c-a792-bbd8fbbaf673","2025-09-02_09h27.16.424",NA,NA,949.983,949.983,949.983,950.333,NA,NA,NA,NA,NA,NA,NA,TRUE,1,1.897,946.986,949.983,NA,NA,NA,NA,NA,21,38,0,65,65,29,1,2,66,"binary"
"2A8E6D1EF21E480CA0183ABA60BA50D1",1,"01990a9b-9efd-7089-98ca-ab391e85414c","01990a83-7673-7c0c-a792-bbd8fbbaf673","2025-09-02_09h27.16.424",NA,NA,953.333,953.333,953.333,953.683,NA,NA,NA,NA,NA,NA,NA,TRUE,1,0.829,950.336,953.333,NA,NA,NA,NA,NA,7,25,0,66,66,0,1,2,67,"binary"
"2A8E6D1EF21E480CA0183ABA60BA50D1",1,"01990a9b-9efd-7089-98ca-ab391e85414c","01990a83-7673-7c0c-a792-bbd8fbbaf673","2025-09-02_09h27.16.424",NA,NA,956.683,956.683,956.683,957.033,NA,NA,NA,NA,NA,NA,NA,TRUE,1,0.78,953.686,956.683,NA,NA,NA,NA,NA,30,27,0,67,67,43,1,2,68,"binary"
"2A8E6D1EF21E480CA0183ABA60BA50D1",1,"01990a9b-9efd-7089-98ca-ab391e85414c","01990a83-7673-7c0c-a792-bbd8fbbaf673","2025-09-02_09h27.16.424",NA,NA,960.033,960.033,960.033,960.383,NA,NA,NA,NA,NA,NA,NA,TRUE,1,1.142,957.036,960.033,NA,NA,NA,NA,NA,90,26,0,68,68,72,1,2,69,"binary"
"2A8E6D1EF21E480CA0183ABA60BA50D1",1,"01990a9b-9efd-7089-98ca-ab391e85414c","01990a83-7673-7c0c-a792-bbd8fbbaf673","2025-09-02_09h27.16.424",NA,NA,963.383,963.383,963.383,963.733,NA,NA,NA,NA,NA,NA,NA,TRUE,1,1.161,960.386,963.383,NA,NA,NA,NA,NA,50,35,0,69,69,62,1,2,70,"binary"
"2A8E6D1EF21E480CA0183ABA60BA50D1",1,"01990a9b-9efd-7089-98ca-ab391e85414c","01990a83-7673-7c0c-a792-bbd8fbbaf673","2025-09-02_09h27.16.424",NA,NA,966.733,966.733,966.733,967.083,NA,NA,NA,NA,NA,NA,NA,TRUE,1,0.829,963.736,966.733,NA,NA,NA,NA,NA,90,30,0,70,70,73,1,2,71,"binary"
"2A8E6D1EF21E480CA0183ABA60BA50D1",1,"01990a9b-9efd-7089-98ca-ab391e85414c","01990a83-7673-7c0c-a792-bbd8fbbaf673","2025-09-02_09h27.16.424",NA,NA,970.083,970.083,970.083,970.433,NA,NA,NA,NA,NA,NA,NA,TRUE,1,0.513,967.086,970.083,NA,NA,NA,NA,NA,95,35,0,71,71,80,1,2,72,"binary"
"2A8E6D1EF21E480CA0183ABA60BA50D1",1,"01990a9b-9efd-7089-98ca-ab391e85414c","01990a83-7673-7c0c-a792-bbd8fbbaf673","2025-09-02_09h27.16.424",NA,NA,973.433,973.433,973.433,973.783,NA,NA,NA,NA,NA,NA,NA,TRUE,1,0.579,970.436,973.433,NA,NA,NA,NA,NA,14,26,0,72,72,19,1,2,73,"binary"
"2A8E6D1EF21E480CA0183ABA60BA50D1",1,"01990a9b-9efd-7089-98ca-ab391e85414c","01990a83-7673-7c0c-a792-bbd8fbbaf673","2025-09-02_09h27.16.424",NA,NA,976.783,976.784,976.784,977.133,NA,NA,NA,NA,NA,NA,NA,TRUE,1,0.779,973.786,976.783,NA,NA,NA,NA,NA,25,35,0,73,73,34,1,2,74,"binary"
"2A8E6D1EF21E480CA0183ABA60BA50D1",1,"01990a9b-9efd-7089-98ca-ab391e85414c","01990a83-7673-7c0c-a792-bbd8fbbaf673","2025-09-02_09h27.16.424",NA,NA,980.133,980.134,980.134,980.483,NA,NA,NA,NA,NA,NA,NA,TRUE,1,1.843,977.136,980.133,NA,NA,NA,NA,NA,180,46,0,74,74,100,1,2,75,"binary"
"2A8E6D1EF21E480CA0183ABA60BA50D1",1,"01990a9b-9efd-7089-98ca-ab391e85414c","01990a83-7673-7c0c-a792-bbd8fbbaf673","2025-09-02_09h27.16.424",NA,NA,983.483,983.483,983.483,983.833,NA,NA,NA,NA,NA,NA,NA,TRUE,1,0.684,980.486,983.483,NA,NA,NA,NA,NA,40,33,0,75,75,49,1,2,76,"binary"
"2A8E6D1EF21E480CA0183ABA60BA50D1",1,"01990a9b-9efd-7089-98ca-ab391e85414c","01990a83-7673-7c0c-a792-bbd8fbbaf673","2025-09-02_09h27.16.424",NA,NA,986.833,986.833,986.833,987.183,NA,NA,NA,NA,NA,NA,NA,TRUE,2,1.788,983.835,986.833,NA,NA,NA,NA,NA,12,33,0,76,76,16,1,2,77,"binary"
"2A8E6D1EF21E480CA0183ABA60BA50D1",1,"01990a9b-9efd-7089-98ca-ab391e85414c","01990a83-7673-7c0c-a792-bbd8fbbaf673","2025-09-02_09h27.16.424",NA,NA,990.183,990.183,990.183,990.533,NA,NA,NA,NA,NA,NA,NA,TRUE,1,0.816,987.186,990.183,NA,NA,NA,NA,NA,95,33,0,77,77,79,1,2,78,"binary"
"2A8E6D1EF21E480CA0183ABA60BA50D1",1,"01990a9b-9efd-7089-98ca-ab391e85414c","01990a83-7673-7c0c-a792-bbd8fbbaf673","2025-09-02_09h27.16.424",NA,NA,993.533,993.533,993.533,993.883,NA,NA,NA,NA,NA,NA,NA,TRUE,1,0.61,990.536,993.533,NA,NA,NA,NA,NA,90,40,0,78,78,75,1,2,79,"binary"
"2A8E6D1EF21E480CA0183ABA60BA50D1",1,"01990a9b-9efd-7089-98ca-ab391e85414c","01990a83-7673-7c0c-a792-bbd8fbbaf673","2025-09-02_09h27.16.424",NA,NA,996.883,996.883,996.883,997.233,NA,NA,NA,NA,NA,NA,NA,TRUE,1,0.543,993.886,996.883,NA,NA,NA,NA,NA,200,39,0,79,79,105,1,2,80,"binary"
"2A8E6D1EF21E480CA0183ABA60BA50D1",1,"01990a9b-9efd-7089-98ca-ab391e85414c","01990a83-7673-7c0c-a792-bbd8fbbaf673","2025-09-02_09h27.16.424",NA,NA,1000.233,1000.233,1000.233,1000.583,NA,NA,NA,NA,NA,NA,NA,TRUE,1,0.625,997.235,1000.233,NA,NA,NA,NA,NA,40,35,0,80,80,50,1,2,81,"binary"
"2A8E6D1EF21E480CA0183ABA60BA50D1",1,"01990a9b-9efd-7089-98ca-ab391e85414c","01990a83-7673-7c0c-a792-bbd8fbbaf673","2025-09-02_09h27.16.424",NA,NA,1003.583,1003.583,1003.583,1003.933,NA,NA,NA,NA,NA,NA,NA,TRUE,1,1.169,1000.586,1003.583,NA,NA,NA,NA,NA,12,26,0,81,81,13,1,2,82,"binary"
"2A8E6D1EF21E480CA0183ABA60BA50D1",1,"01990a9b-9efd-7089-98ca-ab391e85414c","01990a83-7673-7c0c-a792-bbd8fbbaf673","2025-09-02_09h27.16.424",NA,NA,1006.933,1006.933,1006.933,1007.283,NA,NA,NA,NA,NA,NA,NA,TRUE,1,0.78,1003.936,1006.933,NA,NA,NA,NA,NA,28,32,0,82,82,38,1,2,83,"binary"
"2A8E6D1EF21E480CA0183ABA60BA50D1",1,"01990a9b-9efd-7089-98ca-ab391e85414c","01990a83-7673-7c0c-a792-bbd8fbbaf673","2025-09-02_09h27.16.424",NA,NA,1010.283,1010.283,1010.283,1010.633,NA,NA,NA,NA,NA,NA,NA,TRUE,1,0.762,1007.286,1010.283,NA,NA,NA,NA,NA,12,25,0,83,83,12,1,2,84,"binary"
"2A8E6D1EF21E480CA0183ABA60BA50D1",1,"01990a9b-9efd-7089-98ca-ab391e85414c","01990a83-7673-7c0c-a792-bbd8fbbaf673","2025-09-02_09h27.16.424",NA,NA,1013.633,1013.633,1013.633,1013.983,NA,NA,NA,NA,NA,NA,NA,TRUE,1,0.693,1010.636,1013.633,NA,NA,NA,NA,NA,45,31,0,84,84,56,1,2,85,"binary"
"2A8E6D1EF21E480CA0183ABA60BA50D1",1,"01990a9b-9efd-7089-98ca-ab391e85414c","01990a83-7673-7c0c-a792-bbd8fbbaf673","2025-09-02_09h27.16.424",NA,NA,1016.983,1016.983,1016.983,1017.333,NA,NA,NA,NA,NA,NA,NA,TRUE,1,0.721,1013.986,1016.983,NA,NA,NA,NA,NA,40,40,0,85,85,51,1,2,86,"binary"
"2A8E6D1EF21E480CA0183ABA60BA50D1",1,"01990a9b-9efd-7089-98ca-ab391e85414c","01990a83-7673-7c0c-a792-bbd8fbbaf673","2025-09-02_09h27.16.424",NA,NA,1020.333,1020.333,1020.333,1020.683,NA,NA,NA,NA,NA,NA,NA,TRUE,1,0.578,1017.336,1020.333,NA,NA,NA,NA,NA,150,54,0,86,86,95,1,2,87,"binary"
"2A8E6D1EF21E480CA0183ABA60BA50D1",1,"01990a9b-9efd-7089-98ca-ab391e85414c","01990a83-7673-7c0c-a792-bbd8fbbaf673","2025-09-02_09h27.16.424",NA,NA,1023.683,1023.683,1023.683,1024.033,NA,NA,NA,NA,NA,NA,NA,TRUE,1,0.777,1020.686,1023.683,NA,NA,NA,NA,NA,30,32,0,87,87,46,1,2,88,"binary"
"2A8E6D1EF21E480CA0183ABA60BA50D1",1,"01990a9b-9efd-7089-98ca-ab391e85414c","01990a83-7673-7c0c-a792-bbd8fbbaf673","2025-09-02_09h27.16.424",NA,NA,1027.033,1027.033,1027.033,1027.383,NA,NA,NA,NA,NA,NA,NA,TRUE,1,0.545,1024.036,1027.033,NA,NA,NA,NA,NA,45,40,0,88,88,58,1,2,89,"binary"
"2A8E6D1EF21E480CA0183ABA60BA50D1",1,"01990a9b-9efd-7089-98ca-ab391e85414c","01990a83-7673-7c0c-a792-bbd8fbbaf673","2025-09-02_09h27.16.424",NA,NA,1030.382,1030.382,1030.382,1030.733,NA,NA,NA,NA,NA,NA,NA,TRUE,1,0.763,1027.386,1030.382,NA,NA,NA,NA,NA,50,54,0,89,89,65,1,2,90,"binary"
"2A8E6D1EF21E480CA0183ABA60BA50D1",1,"01990a9b-9efd-7089-98ca-ab391e85414c","01990a83-7673-7c0c-a792-bbd8fbbaf673","2025-09-02_09h27.16.424",NA,NA,1033.733,1033.733,1033.733,1034.083,NA,NA,NA,NA,NA,NA,NA,TRUE,1,0.977,1030.736,1033.733,NA,NA,NA,NA,NA,10,29,0,90,90,9,1,2,91,"binary"
"2A8E6D1EF21E480CA0183ABA60BA50D1",1,"01990a9b-9efd-7089-98ca-ab391e85414c","01990a83-7673-7c0c-a792-bbd8fbbaf673","2025-09-02_09h27.16.424",NA,NA,1037.083,1037.084,1037.084,1037.433,NA,NA,NA,NA,NA,NA,NA,TRUE,1,0.861,1034.086,1037.083,NA,NA,NA,NA,NA,25,27,0,91,91,30,1,2,92,"binary"
"2A8E6D1EF21E480CA0183ABA60BA50D1",1,"01990a9b-9efd-7089-98ca-ab391e85414c","01990a83-7673-7c0c-a792-bbd8fbbaf673","2025-09-02_09h27.16.424",NA,NA,1040.433,1040.433,1040.433,1040.782,NA,NA,NA,NA,NA,NA,NA,TRUE,1,1.094,1037.436,1040.433,NA,NA,NA,NA,NA,60,47,0,92,92,70,1,2,93,"binary"
"2A8E6D1EF21E480CA0183ABA60BA50D1",1,"01990a9b-9efd-7089-98ca-ab391e85414c","01990a83-7673-7c0c-a792-bbd8fbbaf673","2025-09-02_09h27.16.424",NA,NA,1043.783,1043.783,1043.783,1044.133,NA,NA,NA,NA,NA,NA,NA,TRUE,1,0.855,1040.785,1043.783,NA,NA,NA,NA,NA,14,35,0,93,93,22,1,2,94,"binary"
"2A8E6D1EF21E480CA0183ABA60BA50D1",1,"01990a9b-9efd-7089-98ca-ab391e85414c","01990a83-7673-7c0c-a792-bbd8fbbaf673","2025-09-02_09h27.16.424",NA,NA,1047.133,1047.133,1047.133,1047.483,NA,NA,NA,NA,NA,NA,NA,TRUE,1,0.736,1044.135,1047.133,NA,NA,NA,NA,NA,100,31,0,94,94,85,1,2,95,"binary"
"2A8E6D1EF21E480CA0183ABA60BA50D1",1,"01990a9b-9efd-7089-98ca-ab391e85414c","01990a83-7673-7c0c-a792-bbd8fbbaf673","2025-09-02_09h27.16.424",NA,NA,1050.483,1050.483,1050.483,1050.833,NA,NA,NA,NA,NA,NA,NA,TRUE,1,0.795,1047.486,1050.483,NA,NA,NA,NA,NA,60,35,0,95,95,68,1,2,96,"binary"
"2A8E6D1EF21E480CA0183ABA60BA50D1",1,"01990a9b-9efd-7089-98ca-ab391e85414c","01990a83-7673-7c0c-a792-bbd8fbbaf673","2025-09-02_09h27.16.424",NA,NA,1053.833,1053.833,1053.833,1054.183,NA,NA,NA,NA,NA,NA,NA,TRUE,1,0.595,1050.836,1053.833,NA,NA,NA,NA,NA,180,35,0,96,96,98,1,2,97,"binary"
"2A8E6D1EF21E480CA0183ABA60BA50D1",1,"01990a9b-9efd-7089-98ca-ab391e85414c","01990a83-7673-7c0c-a792-bbd8fbbaf673","2025-09-02_09h27.16.424",NA,NA,1057.183,1057.183,1057.183,1057.533,NA,NA,NA,NA,NA,NA,NA,TRUE,1,1.134,1054.186,1057.183,NA,NA,NA,NA,NA,10,26,0,97,97,7,1,2,98,"binary"
"2A8E6D1EF21E480CA0183ABA60BA50D1",1,"01990a9b-9efd-7089-98ca-ab391e85414c","01990a83-7673-7c0c-a792-bbd8fbbaf673","2025-09-02_09h27.16.424",NA,NA,1060.533,1060.533,1060.533,1060.882,NA,NA,NA,NA,NA,NA,NA,TRUE,1,0.684,1057.536,1060.532,NA,NA,NA,NA,NA,150,40,0,98,98,93,1,2,99,"binary"
"2A8E6D1EF21E480CA0183ABA60BA50D1",1,"01990a9b-9efd-7089-98ca-ab391e85414c","01990a83-7673-7c0c-a792-bbd8fbbaf673","2025-09-02_09h27.16.424",NA,NA,1063.883,1063.883,1063.883,1064.233,NA,NA,NA,NA,NA,NA,NA,TRUE,1,0.787,1060.885,1063.883,NA,NA,NA,NA,NA,10,27,0,99,99,8,1,2,100,"binary"
"2A8E6D1EF21E480CA0183ABA60BA50D1",1,"01990a9b-9efd-7089-98ca-ab391e85414c","01990a83-7673-7c0c-a792-bbd8fbbaf673","2025-09-02_09h27.16.424",NA,NA,1067.233,1067.233,1067.233,1067.583,NA,NA,NA,NA,NA,NA,NA,TRUE,2,1.295,1064.236,1067.233,NA,NA,NA,NA,NA,10,32,0,100,100,11,1,2,101,"binary"
"2A8E6D1EF21E480CA0183ABA60BA50D1",1,"01990a9b-9efd-7089-98ca-ab391e85414c","01990a83-7673-7c0c-a792-bbd8fbbaf673","2025-09-02_09h27.16.424",NA,NA,1070.583,1070.583,1070.583,1070.933,NA,NA,NA,NA,NA,NA,NA,TRUE,1,1.201,1067.585,1070.583,NA,NA,NA,NA,NA,60,33,0,101,101,67,1,2,102,"binary"
"2A8E6D1EF21E480CA0183ABA60BA50D1",1,"01990a9b-9efd-7089-98ca-ab391e85414c","01990a83-7673-7c0c-a792-bbd8fbbaf673","2025-09-02_09h27.16.424",NA,NA,1073.933,1073.933,1073.933,1074.283,NA,NA,NA,NA,NA,NA,NA,TRUE,1,1.26,1070.936,1073.933,NA,NA,NA,NA,NA,21,26,0,102,102,24,1,2,103,"binary"
"2A8E6D1EF21E480CA0183ABA60BA50D1",1,"01990a9b-9efd-7089-98ca-ab391e85414c","01990a83-7673-7c0c-a792-bbd8fbbaf673","2025-09-02_09h27.16.424",NA,NA,1077.283,1077.283,1077.283,1077.633,NA,NA,NA,NA,NA,NA,NA,TRUE,2,1.358,1074.285,1077.283,NA,NA,NA,NA,NA,7,30,0,103,103,3,1,2,104,"binary"
"2A8E6D1EF21E480CA0183ABA60BA50D1",1,"01990a9b-9efd-7089-98ca-ab391e85414c","01990a83-7673-7c0c-a792-bbd8fbbaf673","2025-09-02_09h27.16.424",NA,NA,1080.633,1080.633,1080.633,1080.983,NA,NA,NA,NA,NA,NA,NA,TRUE,2,1.382,1077.636,1080.633,NA,NA,NA,NA,NA,7,35,0,104,104,5,1,2,105,"binary"
"2A8E6D1EF21E480CA0183ABA60BA50D1",1,"01990a9b-9efd-7089-98ca-ab391e85414c","01990a83-7673-7c0c-a792-bbd8fbbaf673","2025-09-02_09h27.16.424",NA,NA,1083.983,1083.983,1083.983,1084.333,NA,NA,NA,NA,NA,NA,NA,TRUE,1,0.815,1080.985,1083.983,NA,NA,NA,NA,NA,45,46,0,105,105,59,1,2,106,"binary"
"2A8E6D1EF21E480CA0183ABA60BA50D1",1,"01990a9b-9efd-7089-98ca-ab391e85414c","01990a83-7673-7c0c-a792-bbd8fbbaf673","2025-09-02_09h27.16.424",NA,NA,1087.333,1087.333,1087.333,1087.682,NA,NA,NA,NA,NA,NA,NA,TRUE,1,1.082,1084.335,1087.333,NA,NA,NA,NA,NA,40,27,0,106,106,48,1,2,107,"binary"
"2A8E6D1EF21E480CA0183ABA60BA50D1",1,"01990a9b-9efd-7089-98ca-ab391e85414c","01990a83-7673-7c0c-a792-bbd8fbbaf673","2025-09-02_09h27.16.424",NA,NA,1090.683,1090.683,1090.683,1091.033,NA,NA,NA,NA,NA,NA,NA,TRUE,1,0.813,1087.685,1090.683,NA,NA,NA,NA,NA,28,39,0,107,107,40,1,2,108,"binary"
