"participant","session","assignmentId","projectId","date","practiceTrial.started","practiceTrial.stopped","tooLate.started","tooLate.stopped","blank.started","blank.stopped","trials_pract.thisRepN","trials_pract.thisTrialN","trials_pract.thisN","trials_pract.thisIndex","trials_pract.ran","delay_pract","amount_pract","responseMade","key","rt","trial.started","trial.stopped","trials.thisRepN","trials.thisTrialN","trials.thisN","trials.thisIndex","trials.ran","delay","amount","trials_2.thisRepN","trials_2.thisTrialN","trials_2.thisN","trials_2.thisIndex","trials_2.ran","block","trial","taskType"
"2E319D06EEE0446A88296D9AF7592FCC",1,"01990a9a-945e-73e1-afbe-ccc83cd3cf42","01990a83-7673-7c0c-a792-bbd8fbbaf673","2025-09-02_08h27.11.250",93.1264,96.1159,96.1172,96.1362,96.1363,96.4657,0,0,0,4,1,30,40,TRUE,1,1.7744,NA,NA,NA,NA,NA,NA,NA,NA,NA,NA,NA,NA,NA,NA,0,1,"binary"
"2E319D06EEE0446A88296D9AF7592FCC",1,"01990a9a-945e-73e1-afbe-ccc83cd3cf42","01990a83-7673-7c0c-a792-bbd8fbbaf673","2025-09-02_08h27.11.250",96.4684,99.4656,99.4659,99.4661,99.4661,99.8155,0,1,1,1,1,100,50,TRUE,1,1.1171,NA,NA,NA,NA,NA,NA,NA,NA,NA,NA,NA,NA,NA,NA,0,2,"binary"
"2E319D06EEE0446A88296D9AF7592FCC",1,"01990a9a-945e-73e1-afbe-ccc83cd3cf42","01990a83-7673-7c0c-a792-bbd8fbbaf673","2025-09-02_08h27.11.250",99.8179,102.8155,102.8158,102.8159,102.8159,103.1656,0,2,2,2,1,14,45,TRUE,1,1.6511,NA,NA,NA,NA,NA,NA,NA,NA,NA,NA,NA,NA,NA,NA,0,3,"binary"
"2E319D06EEE0446A88296D9AF7592FCC",1,"01990a9a-945e-73e1-afbe-ccc83cd3cf42","01990a83-7673-7c0c-a792-bbd8fbbaf673","2025-09-02_08h27.11.250",103.1682,106.1655,106.1656,106.1656,106.1656,106.5155,0,3,3,3,1,3,27,TRUE,1,1.5662,NA,NA,NA,NA,NA,NA,NA,NA,NA,NA,NA,NA,NA,NA,0,4,"binary"
"2E319D06EEE0446A88296D9AF7592FCC",1,"01990a9a-945e-73e1-afbe-ccc83cd3cf42","01990a83-7673-7c0c-a792-bbd8fbbaf673","2025-09-02_08h27.11.250",106.5178,109.5157,109.516,109.7654,109.7655,109.8684,0,4,4,0,1,7,30,FALSE,NA,NA,NA,NA,NA,NA,NA,NA,NA,NA,NA,NA,NA,NA,NA,NA,0,5,"binary"
"2E319D06EEE0446A88296D9AF7592FCC",1,"01990a9a-945e-73e1-afbe-ccc83cd3cf42","01990a83-7673-7c0c-a792-bbd8fbbaf673","2025-09-02_08h27.11.250",NA,NA,149.5494,149.5496,149.5497,149.8989,NA,NA,NA,NA,NA,NA,NA,TRUE,1,1.3951,146.5577,149.5491,0,0,0,60,1,50,27,NA,NA,NA,NA,NA,1,1,"binary"
"2E319D06EEE0446A88296D9AF7592FCC",1,"01990a9a-945e-73e1-afbe-ccc83cd3cf42","01990a83-7673-7c0c-a792-bbd8fbbaf673","2025-09-02_08h27.11.250",NA,NA,152.8989,152.8989,152.8989,153.2487,NA,NA,NA,NA,NA,NA,NA,TRUE,1,1.5092,149.9011,152.8988,0,1,1,14,1,12,28,NA,NA,NA,NA,NA,1,2,"binary"
"2E319D06EEE0446A88296D9AF7592FCC",1,"01990a9a-945e-73e1-afbe-ccc83cd3cf42","01990a83-7673-7c0c-a792-bbd8fbbaf673","2025-09-02_08h27.11.250",NA,NA,156.249,156.249,156.249,156.5986,NA,NA,NA,NA,NA,NA,NA,TRUE,1,1.3921,153.2508,156.2487,0,2,2,83,1,95,54,NA,NA,NA,NA,NA,1,3,"binary"
"2E319D06EEE0446A88296D9AF7592FCC",1,"01990a9a-945e-73e1-afbe-ccc83cd3cf42","01990a83-7673-7c0c-a792-bbd8fbbaf673","2025-09-02_08h27.11.250",NA,NA,159.5988,159.5988,159.5988,159.9487,NA,NA,NA,NA,NA,NA,NA,TRUE,1,1.2979,156.6,159.5987,0,3,3,31,1,25,29,NA,NA,NA,NA,NA,1,4,"binary"
"2E319D06EEE0446A88296D9AF7592FCC",1,"01990a9a-945e-73e1-afbe-ccc83cd3cf42","01990a83-7673-7c0c-a792-bbd8fbbaf673","2025-09-02_08h27.11.250",NA,NA,162.949,162.9491,162.9492,163.2987,NA,NA,NA,NA,NA,NA,NA,TRUE,1,1.4296,159.9503,162.9489,0,4,4,53,1,40,54,NA,NA,NA,NA,NA,1,5,"binary"
"2E319D06EEE0446A88296D9AF7592FCC",1,"01990a9a-945e-73e1-afbe-ccc83cd3cf42","01990a83-7673-7c0c-a792-bbd8fbbaf673","2025-09-02_08h27.11.250",NA,NA,166.299,166.299,166.299,166.6488,NA,NA,NA,NA,NA,NA,NA,TRUE,1,0.8014,163.2999,166.2988,0,5,5,34,1,25,35,NA,NA,NA,NA,NA,1,6,"binary"
"2E319D06EEE0446A88296D9AF7592FCC",1,"01990a9a-945e-73e1-afbe-ccc83cd3cf42","01990a83-7673-7c0c-a792-bbd8fbbaf673","2025-09-02_08h27.11.250",NA,NA,169.6489,169.6489,169.6489,169.9987,NA,NA,NA,NA,NA,NA,NA,TRUE,2,1.2226,166.6502,169.6488,0,6,6,2,1,7,28,NA,NA,NA,NA,NA,1,7,"binary"
"2E319D06EEE0446A88296D9AF7592FCC",1,"01990a9a-945e-73e1-afbe-ccc83cd3cf42","01990a83-7673-7c0c-a792-bbd8fbbaf673","2025-09-02_08h27.11.250",NA,NA,172.999,172.9992,172.9992,173.3488,NA,NA,NA,NA,NA,NA,NA,TRUE,1,1.197,170.0001,172.9988,0,7,7,40,1,28,39,NA,NA,NA,NA,NA,1,8,"binary"
"2E319D06EEE0446A88296D9AF7592FCC",1,"01990a9a-945e-73e1-afbe-ccc83cd3cf42","01990a83-7673-7c0c-a792-bbd8fbbaf673","2025-09-02_08h27.11.250",NA,NA,176.3489,176.3489,176.349,176.6987,NA,NA,NA,NA,NA,NA,NA,TRUE,1,1.1075,173.3502,176.3487,0,8,8,11,1,10,32,NA,NA,NA,NA,NA,1,9,"binary"
"2E319D06EEE0446A88296D9AF7592FCC",1,"01990a9a-945e-73e1-afbe-ccc83cd3cf42","01990a83-7673-7c0c-a792-bbd8fbbaf673","2025-09-02_08h27.11.250",NA,NA,179.6989,179.699,179.699,180.0488,NA,NA,NA,NA,NA,NA,NA,TRUE,1,1.1252,176.7007,179.6987,0,9,9,82,1,95,47,NA,NA,NA,NA,NA,1,10,"binary"
"2E319D06EEE0446A88296D9AF7592FCC",1,"01990a9a-945e-73e1-afbe-ccc83cd3cf42","01990a83-7673-7c0c-a792-bbd8fbbaf673","2025-09-02_08h27.11.250",NA,NA,183.0488,183.0488,183.0488,183.3987,NA,NA,NA,NA,NA,NA,NA,TRUE,1,1.72,180.0508,183.0487,0,10,10,54,1,45,26,NA,NA,NA,NA,NA,1,11,"binary"
"2E319D06EEE0446A88296D9AF7592FCC",1,"01990a9a-945e-73e1-afbe-ccc83cd3cf42","01990a83-7673-7c0c-a792-bbd8fbbaf673","2025-09-02_08h27.11.250",NA,NA,186.3989,186.3989,186.399,186.7489,NA,NA,NA,NA,NA,NA,NA,TRUE,1,1.6712,183.4,186.3988,0,11,11,86,1,100,38,NA,NA,NA,NA,NA,1,12,"binary"
"2E319D06EEE0446A88296D9AF7592FCC",1,"01990a9a-945e-73e1-afbe-ccc83cd3cf42","01990a83-7673-7c0c-a792-bbd8fbbaf673","2025-09-02_08h27.11.250",NA,NA,189.7489,189.7489,189.7489,190.0986,NA,NA,NA,NA,NA,NA,NA,TRUE,1,0.9637,186.7507,189.7488,0,12,12,79,1,95,33,NA,NA,NA,NA,NA,1,13,"binary"
"2E319D06EEE0446A88296D9AF7592FCC",1,"01990a9a-945e-73e1-afbe-ccc83cd3cf42","01990a83-7673-7c0c-a792-bbd8fbbaf673","2025-09-02_08h27.11.250",NA,NA,193.0989,193.0989,193.0989,193.4486,NA,NA,NA,NA,NA,NA,NA,TRUE,1,0.9558,190.1004,193.0988,0,13,13,20,1,14,28,NA,NA,NA,NA,NA,1,14,"binary"
"2E319D06EEE0446A88296D9AF7592FCC",1,"01990a9a-945e-73e1-afbe-ccc83cd3cf42","01990a83-7673-7c0c-a792-bbd8fbbaf673","2025-09-02_08h27.11.250",NA,NA,196.4489,196.4489,196.4489,196.7987,NA,NA,NA,NA,NA,NA,NA,TRUE,1,1.0645,193.4495,196.4488,0,14,14,57,1,45,35,NA,NA,NA,NA,NA,1,15,"binary"
"2E319D06EEE0446A88296D9AF7592FCC",1,"01990a9a-945e-73e1-afbe-ccc83cd3cf42","01990a83-7673-7c0c-a792-bbd8fbbaf673","2025-09-02_08h27.11.250",NA,NA,199.7989,200.0487,200.0487,200.1488,NA,NA,NA,NA,NA,NA,NA,FALSE,NA,NA,196.8001,199.7987,0,15,15,39,1,28,35,NA,NA,NA,NA,NA,1,16,"binary"
"2E319D06EEE0446A88296D9AF7592FCC",1,"01990a9a-945e-73e1-afbe-ccc83cd3cf42","01990a83-7673-7c0c-a792-bbd8fbbaf673","2025-09-02_08h27.11.250",NA,NA,203.1489,203.1489,203.1491,203.4986,NA,NA,NA,NA,NA,NA,NA,TRUE,1,0.4225,200.1502,203.1488,0,16,16,19,1,14,26,NA,NA,NA,NA,NA,1,17,"binary"
"2E319D06EEE0446A88296D9AF7592FCC",1,"01990a9a-945e-73e1-afbe-ccc83cd3cf42","01990a83-7673-7c0c-a792-bbd8fbbaf673","2025-09-02_08h27.11.250",NA,NA,206.4988,206.4988,206.4988,206.8487,NA,NA,NA,NA,NA,NA,NA,TRUE,1,0.7705,203.4999,206.4987,0,17,17,58,1,45,40,NA,NA,NA,NA,NA,1,18,"binary"
"2E319D06EEE0446A88296D9AF7592FCC",1,"01990a9a-945e-73e1-afbe-ccc83cd3cf42","01990a83-7673-7c0c-a792-bbd8fbbaf673","2025-09-02_08h27.11.250",NA,NA,209.8488,209.8488,209.8488,210.1987,NA,NA,NA,NA,NA,NA,NA,TRUE,1,0.8474,206.8501,209.8487,0,18,18,5,1,7,35,NA,NA,NA,NA,NA,1,19,"binary"
"2E319D06EEE0446A88296D9AF7592FCC",1,"01990a9a-945e-73e1-afbe-ccc83cd3cf42","01990a83-7673-7c0c-a792-bbd8fbbaf673","2025-09-02_08h27.11.250",NA,NA,213.1988,213.1989,213.1989,213.5489,NA,NA,NA,NA,NA,NA,NA,TRUE,1,0.8877,210.2002,213.1987,0,19,19,96,1,180,27,NA,NA,NA,NA,NA,1,20,"binary"
"2E319D06EEE0446A88296D9AF7592FCC",1,"01990a9a-945e-73e1-afbe-ccc83cd3cf42","01990a83-7673-7c0c-a792-bbd8fbbaf673","2025-09-02_08h27.11.250",NA,NA,216.5489,216.5489,216.549,216.8986,NA,NA,NA,NA,NA,NA,NA,TRUE,1,1.1638,213.5501,216.5488,0,20,20,99,1,180,39,NA,NA,NA,NA,NA,1,21,"binary"
"2E319D06EEE0446A88296D9AF7592FCC",1,"01990a9a-945e-73e1-afbe-ccc83cd3cf42","01990a83-7673-7c0c-a792-bbd8fbbaf673","2025-09-02_08h27.11.250",NA,NA,219.8988,219.8988,219.8988,220.2486,NA,NA,NA,NA,NA,NA,NA,TRUE,1,1.7409,216.8998,219.8987,0,21,21,7,1,10,26,NA,NA,NA,NA,NA,1,22,"binary"
"2E319D06EEE0446A88296D9AF7592FCC",1,"01990a9a-945e-73e1-afbe-ccc83cd3cf42","01990a83-7673-7c0c-a792-bbd8fbbaf673","2025-09-02_08h27.11.250",NA,NA,223.2489,223.2489,223.2489,223.5987,NA,NA,NA,NA,NA,NA,NA,TRUE,1,1.6676,220.2499,223.2487,0,22,22,91,1,150,33,NA,NA,NA,NA,NA,1,23,"binary"
"2E319D06EEE0446A88296D9AF7592FCC",1,"01990a9a-945e-73e1-afbe-ccc83cd3cf42","01990a83-7673-7c0c-a792-bbd8fbbaf673","2025-09-02_08h27.11.250",NA,NA,226.599,226.5991,226.5991,226.9488,NA,NA,NA,NA,NA,NA,NA,TRUE,1,0.6356,223.5998,226.5988,0,23,23,65,1,50,54,NA,NA,NA,NA,NA,1,24,"binary"
"2E319D06EEE0446A88296D9AF7592FCC",1,"01990a9a-945e-73e1-afbe-ccc83cd3cf42","01990a83-7673-7c0c-a792-bbd8fbbaf673","2025-09-02_08h27.11.250",NA,NA,229.9487,229.9487,229.9487,230.2987,NA,NA,NA,NA,NA,NA,NA,TRUE,1,0.7508,226.9502,229.9486,0,24,24,63,1,50,40,NA,NA,NA,NA,NA,1,25,"binary"
"2E319D06EEE0446A88296D9AF7592FCC",1,"01990a9a-945e-73e1-afbe-ccc83cd3cf42","01990a83-7673-7c0c-a792-bbd8fbbaf673","2025-09-02_08h27.11.250",NA,NA,233.2989,233.2989,233.2989,233.6487,NA,NA,NA,NA,NA,NA,NA,TRUE,1,0.8137,230.3003,233.2987,0,25,25,81,1,95,40,NA,NA,NA,NA,NA,1,26,"binary"
"2E319D06EEE0446A88296D9AF7592FCC",1,"01990a9a-945e-73e1-afbe-ccc83cd3cf42","01990a83-7673-7c0c-a792-bbd8fbbaf673","2025-09-02_08h27.11.250",NA,NA,236.6488,236.6488,236.6488,236.9988,NA,NA,NA,NA,NA,NA,NA,TRUE,1,0.8646,233.6499,236.6486,0,26,26,22,1,14,35,NA,NA,NA,NA,NA,1,27,"binary"
"2E319D06EEE0446A88296D9AF7592FCC",1,"01990a9a-945e-73e1-afbe-ccc83cd3cf42","01990a83-7673-7c0c-a792-bbd8fbbaf673","2025-09-02_08h27.11.250",NA,NA,239.9986,239.9987,239.9987,240.3488,NA,NA,NA,NA,NA,NA,NA,TRUE,1,0.7578,236.9998,239.9986,0,27,27,30,1,25,27,NA,NA,NA,NA,NA,1,28,"binary"
"2E319D06EEE0446A88296D9AF7592FCC",1,"01990a9a-945e-73e1-afbe-ccc83cd3cf42","01990a83-7673-7c0c-a792-bbd8fbbaf673","2025-09-02_08h27.11.250",NA,NA,243.3488,243.5986,243.5987,243.6987,NA,NA,NA,NA,NA,NA,NA,FALSE,NA,NA,240.3498,243.3486,0,28,28,37,1,28,28,NA,NA,NA,NA,NA,1,29,"binary"
"2E319D06EEE0446A88296D9AF7592FCC",1,"01990a9a-945e-73e1-afbe-ccc83cd3cf42","01990a83-7673-7c0c-a792-bbd8fbbaf673","2025-09-02_08h27.11.250",NA,NA,246.6988,246.6988,246.6988,247.0486,NA,NA,NA,NA,NA,NA,NA,TRUE,1,1.1241,243.7,246.6987,0,29,29,6,1,10,25,NA,NA,NA,NA,NA,1,30,"binary"
"2E319D06EEE0446A88296D9AF7592FCC",1,"01990a9a-945e-73e1-afbe-ccc83cd3cf42","01990a83-7673-7c0c-a792-bbd8fbbaf673","2025-09-02_08h27.11.250",NA,NA,250.049,250.049,250.0491,250.3987,NA,NA,NA,NA,NA,NA,NA,TRUE,1,0.8804,247.0497,250.0489,0,30,30,0,1,7,25,NA,NA,NA,NA,NA,1,31,"binary"
"2E319D06EEE0446A88296D9AF7592FCC",1,"01990a9a-945e-73e1-afbe-ccc83cd3cf42","01990a83-7673-7c0c-a792-bbd8fbbaf673","2025-09-02_08h27.11.250",NA,NA,253.3987,253.3987,253.3987,253.7489,NA,NA,NA,NA,NA,NA,NA,TRUE,1,1.0987,250.3998,253.3986,0,31,31,85,1,100,31,NA,NA,NA,NA,NA,1,32,"binary"
"2E319D06EEE0446A88296D9AF7592FCC",1,"01990a9a-945e-73e1-afbe-ccc83cd3cf42","01990a83-7673-7c0c-a792-bbd8fbbaf673","2025-09-02_08h27.11.250",NA,NA,256.7488,256.7489,256.7489,257.0986,NA,NA,NA,NA,NA,NA,NA,TRUE,1,1.4637,253.7502,256.7487,0,32,32,64,1,50,46,NA,NA,NA,NA,NA,1,33,"binary"
"2E319D06EEE0446A88296D9AF7592FCC",1,"01990a9a-945e-73e1-afbe-ccc83cd3cf42","01990a83-7673-7c0c-a792-bbd8fbbaf673","2025-09-02_08h27.11.250",NA,NA,260.099,260.0991,260.0991,260.4486,NA,NA,NA,NA,NA,NA,NA,TRUE,1,0.9375,257.0999,260.099,0,33,33,84,1,100,26,NA,NA,NA,NA,NA,1,34,"binary"
"2E319D06EEE0446A88296D9AF7592FCC",1,"01990a9a-945e-73e1-afbe-ccc83cd3cf42","01990a83-7673-7c0c-a792-bbd8fbbaf673","2025-09-02_08h27.11.250",NA,NA,263.4488,263.4488,263.4488,263.7986,NA,NA,NA,NA,NA,NA,NA,TRUE,1,1.8402,260.4498,263.4487,0,34,34,88,1,100,46,NA,NA,NA,NA,NA,1,35,"binary"
"2E319D06EEE0446A88296D9AF7592FCC",1,"01990a9a-945e-73e1-afbe-ccc83cd3cf42","01990a83-7673-7c0c-a792-bbd8fbbaf673","2025-09-02_08h27.11.250",NA,NA,266.7987,266.7987,266.7987,267.1486,NA,NA,NA,NA,NA,NA,NA,TRUE,1,1.0638,263.8002,266.7986,0,35,35,100,1,180,46,NA,NA,NA,NA,NA,1,36,"binary"
"2E319D06EEE0446A88296D9AF7592FCC",1,"01990a9a-945e-73e1-afbe-ccc83cd3cf42","01990a83-7673-7c0c-a792-bbd8fbbaf673","2025-09-02_08h27.11.250",NA,NA,270.1491,270.1491,270.1491,270.4986,NA,NA,NA,NA,NA,NA,NA,TRUE,1,1.3505,267.1502,270.1489,0,36,36,43,1,30,27,NA,NA,NA,NA,NA,1,37,"binary"
"2E319D06EEE0446A88296D9AF7592FCC",1,"01990a9a-945e-73e1-afbe-ccc83cd3cf42","01990a83-7673-7c0c-a792-bbd8fbbaf673","2025-09-02_08h27.11.250",NA,NA,273.4988,273.7486,273.7486,273.8486,NA,NA,NA,NA,NA,NA,NA,FALSE,NA,NA,270.4999,273.4986,0,37,37,104,1,200,35,NA,NA,NA,NA,NA,1,38,"binary"
"2E319D06EEE0446A88296D9AF7592FCC",1,"01990a9a-945e-73e1-afbe-ccc83cd3cf42","01990a83-7673-7c0c-a792-bbd8fbbaf673","2025-09-02_08h27.11.250",NA,NA,276.8488,277.0986,277.0986,277.1987,NA,NA,NA,NA,NA,NA,NA,FALSE,NA,NA,273.8497,276.8487,0,38,38,56,1,45,31,NA,NA,NA,NA,NA,1,39,"binary"
"2E319D06EEE0446A88296D9AF7592FCC",1,"01990a9a-945e-73e1-afbe-ccc83cd3cf42","01990a83-7673-7c0c-a792-bbd8fbbaf673","2025-09-02_08h27.11.250",NA,NA,280.1988,280.1988,280.1988,280.5486,NA,NA,NA,NA,NA,NA,NA,TRUE,1,1.0298,277.2,280.1987,0,39,39,80,1,95,35,NA,NA,NA,NA,NA,1,40,"binary"
"2E319D06EEE0446A88296D9AF7592FCC",1,"01990a9a-945e-73e1-afbe-ccc83cd3cf42","01990a83-7673-7c0c-a792-bbd8fbbaf673","2025-09-02_08h27.11.250",NA,NA,283.5487,283.5487,283.5487,283.8987,NA,NA,NA,NA,NA,NA,NA,TRUE,1,0.9708,280.5494,283.5486,0,40,40,32,1,25,31,NA,NA,NA,NA,NA,1,41,"binary"
"2E319D06EEE0446A88296D9AF7592FCC",1,"01990a9a-945e-73e1-afbe-ccc83cd3cf42","01990a83-7673-7c0c-a792-bbd8fbbaf673","2025-09-02_08h27.11.250",NA,NA,286.8988,286.8988,286.8989,287.2487,NA,NA,NA,NA,NA,NA,NA,TRUE,1,1.6803,283.8996,286.8987,0,41,41,89,1,100,54,NA,NA,NA,NA,NA,1,42,"binary"
"2E319D06EEE0446A88296D9AF7592FCC",1,"01990a9a-945e-73e1-afbe-ccc83cd3cf42","01990a83-7673-7c0c-a792-bbd8fbbaf673","2025-09-02_08h27.11.250",NA,NA,290.2487,290.2487,290.2487,290.599,NA,NA,NA,NA,NA,NA,NA,TRUE,1,1.9585,287.2498,290.2486,0,42,42,90,1,150,31,NA,NA,NA,NA,NA,1,43,"binary"
"2E319D06EEE0446A88296D9AF7592FCC",1,"01990a9a-945e-73e1-afbe-ccc83cd3cf42","01990a83-7673-7c0c-a792-bbd8fbbaf673","2025-09-02_08h27.11.250",NA,NA,293.5988,293.8486,293.8487,293.9486,NA,NA,NA,NA,NA,NA,NA,FALSE,NA,NA,290.6004,293.5987,0,43,43,72,1,90,26,NA,NA,NA,NA,NA,1,44,"binary"
"2E319D06EEE0446A88296D9AF7592FCC",1,"01990a9a-945e-73e1-afbe-ccc83cd3cf42","01990a83-7673-7c0c-a792-bbd8fbbaf673","2025-09-02_08h27.11.250",NA,NA,296.9487,296.9487,296.9487,297.2986,NA,NA,NA,NA,NA,NA,NA,TRUE,1,0.9059,293.95,296.9486,0,44,44,68,1,60,35,NA,NA,NA,NA,NA,1,45,"binary"
"2E319D06EEE0446A88296D9AF7592FCC",1,"01990a9a-945e-73e1-afbe-ccc83cd3cf42","01990a83-7673-7c0c-a792-bbd8fbbaf673","2025-09-02_08h27.11.250",NA,NA,300.2988,300.5487,300.5487,300.6487,NA,NA,NA,NA,NA,NA,NA,FALSE,NA,NA,297.2997,300.2987,0,45,45,102,1,200,26,NA,NA,NA,NA,NA,1,46,"binary"
"2E319D06EEE0446A88296D9AF7592FCC",1,"01990a9a-945e-73e1-afbe-ccc83cd3cf42","01990a83-7673-7c0c-a792-bbd8fbbaf673","2025-09-02_08h27.11.250",NA,NA,303.6489,303.649,303.649,303.9986,NA,NA,NA,NA,NA,NA,NA,TRUE,1,0.671,300.6499,303.6487,0,46,46,28,1,21,32,NA,NA,NA,NA,NA,1,47,"binary"
"2E319D06EEE0446A88296D9AF7592FCC",1,"01990a9a-945e-73e1-afbe-ccc83cd3cf42","01990a83-7673-7c0c-a792-bbd8fbbaf673","2025-09-02_08h27.11.250",NA,NA,306.999,306.9991,306.9991,307.3487,NA,NA,NA,NA,NA,NA,NA,TRUE,1,0.531,304,306.9988,0,47,47,29,1,21,38,NA,NA,NA,NA,NA,1,48,"binary"
"2E319D06EEE0446A88296D9AF7592FCC",1,"01990a9a-945e-73e1-afbe-ccc83cd3cf42","01990a83-7673-7c0c-a792-bbd8fbbaf673","2025-09-02_08h27.11.250",NA,NA,310.3488,310.3488,310.3489,310.6987,NA,NA,NA,NA,NA,NA,NA,TRUE,1,0.6628,307.3501,310.3487,0,48,48,95,1,150,54,NA,NA,NA,NA,NA,1,49,"binary"
"2E319D06EEE0446A88296D9AF7592FCC",1,"01990a9a-945e-73e1-afbe-ccc83cd3cf42","01990a83-7673-7c0c-a792-bbd8fbbaf673","2025-09-02_08h27.11.250",NA,NA,313.6991,313.6993,313.6993,314.0488,NA,NA,NA,NA,NA,NA,NA,TRUE,1,1.0986,310.6998,313.6988,0,49,49,87,1,100,39,NA,NA,NA,NA,NA,1,50,"binary"
"2E319D06EEE0446A88296D9AF7592FCC",1,"01990a9a-945e-73e1-afbe-ccc83cd3cf42","01990a83-7673-7c0c-a792-bbd8fbbaf673","2025-09-02_08h27.11.250",NA,NA,317.0487,317.0488,317.0488,317.3988,NA,NA,NA,NA,NA,NA,NA,TRUE,1,0.9439,314.0505,317.0486,0,50,50,3,1,7,30,NA,NA,NA,NA,NA,1,51,"binary"
"2E319D06EEE0446A88296D9AF7592FCC",1,"01990a9a-945e-73e1-afbe-ccc83cd3cf42","01990a83-7673-7c0c-a792-bbd8fbbaf673","2025-09-02_08h27.11.250",NA,NA,320.399,320.3991,320.3991,320.7487,NA,NA,NA,NA,NA,NA,NA,TRUE,1,0.6388,317.3999,320.3989,0,51,51,92,1,150,35,NA,NA,NA,NA,NA,1,52,"binary"
"2E319D06EEE0446A88296D9AF7592FCC",1,"01990a9a-945e-73e1-afbe-ccc83cd3cf42","01990a83-7673-7c0c-a792-bbd8fbbaf673","2025-09-02_08h27.11.250",NA,NA,323.7488,323.7488,323.7488,324.0986,NA,NA,NA,NA,NA,NA,NA,TRUE,1,0.7989,320.75,323.7487,0,52,52,44,1,30,29,NA,NA,NA,NA,NA,1,53,"binary"
"2E319D06EEE0446A88296D9AF7592FCC",1,"01990a9a-945e-73e1-afbe-ccc83cd3cf42","01990a83-7673-7c0c-a792-bbd8fbbaf673","2025-09-02_08h27.11.250",NA,NA,327.0989,327.0989,327.0989,327.4486,NA,NA,NA,NA,NA,NA,NA,TRUE,1,1.0407,324.0996,327.0987,0,53,53,67,1,60,33,NA,NA,NA,NA,NA,1,54,"binary"
"2E319D06EEE0446A88296D9AF7592FCC",1,"01990a9a-945e-73e1-afbe-ccc83cd3cf42","01990a83-7673-7c0c-a792-bbd8fbbaf673","2025-09-02_08h27.11.250",NA,NA,330.4489,330.4489,330.4489,330.7986,NA,NA,NA,NA,NA,NA,NA,TRUE,1,0.5257,327.45,330.4487,0,54,54,93,1,150,40,NA,NA,NA,NA,NA,1,55,"binary"
"2E319D06EEE0446A88296D9AF7592FCC",1,"01990a9a-945e-73e1-afbe-ccc83cd3cf42","01990a83-7673-7c0c-a792-bbd8fbbaf673","2025-09-02_08h27.11.250",NA,NA,333.799,333.799,333.799,334.1487,NA,NA,NA,NA,NA,NA,NA,TRUE,2,1.0774,330.8001,333.7989,0,55,55,105,1,200,39,NA,NA,NA,NA,NA,1,56,"binary"
"2E319D06EEE0446A88296D9AF7592FCC",1,"01990a9a-945e-73e1-afbe-ccc83cd3cf42","01990a83-7673-7c0c-a792-bbd8fbbaf673","2025-09-02_08h27.11.250",NA,NA,337.1488,337.1488,337.1488,337.4986,NA,NA,NA,NA,NA,NA,NA,TRUE,1,1.8814,334.15,337.1487,0,56,56,55,1,45,29,NA,NA,NA,NA,NA,1,57,"binary"
"2E319D06EEE0446A88296D9AF7592FCC",1,"01990a9a-945e-73e1-afbe-ccc83cd3cf42","01990a83-7673-7c0c-a792-bbd8fbbaf673","2025-09-02_08h27.11.250",NA,NA,340.4988,340.4988,340.4988,340.8488,NA,NA,NA,NA,NA,NA,NA,TRUE,1,1.5169,337.4996,340.4986,0,57,57,24,1,21,26,NA,NA,NA,NA,NA,1,58,"binary"
"2E319D06EEE0446A88296D9AF7592FCC",1,"01990a9a-945e-73e1-afbe-ccc83cd3cf42","01990a83-7673-7c0c-a792-bbd8fbbaf673","2025-09-02_08h27.11.250",NA,NA,343.8491,343.8492,343.8492,344.1986,NA,NA,NA,NA,NA,NA,NA,TRUE,1,0.6797,340.8498,343.8489,0,58,58,51,1,40,40,NA,NA,NA,NA,NA,1,59,"binary"
"2E319D06EEE0446A88296D9AF7592FCC",1,"01990a9a-945e-73e1-afbe-ccc83cd3cf42","01990a83-7673-7c0c-a792-bbd8fbbaf673","2025-09-02_08h27.11.250",NA,NA,347.1987,347.1987,347.1987,347.5486,NA,NA,NA,NA,NA,NA,NA,TRUE,1,0.9143,344.2,347.1986,0,59,59,41,1,28,46,NA,NA,NA,NA,NA,1,60,"binary"
"2E319D06EEE0446A88296D9AF7592FCC",1,"01990a9a-945e-73e1-afbe-ccc83cd3cf42","01990a83-7673-7c0c-a792-bbd8fbbaf673","2025-09-02_08h27.11.250",NA,NA,350.5487,350.5487,350.5487,350.8987,NA,NA,NA,NA,NA,NA,NA,TRUE,1,0.6994,347.5495,350.5486,0,60,60,33,1,25,33,NA,NA,NA,NA,NA,1,61,"binary"
"2E319D06EEE0446A88296D9AF7592FCC",1,"01990a9a-945e-73e1-afbe-ccc83cd3cf42","01990a83-7673-7c0c-a792-bbd8fbbaf673","2025-09-02_08h27.11.250",NA,NA,353.8989,353.8989,353.899,354.2488,NA,NA,NA,NA,NA,NA,NA,TRUE,1,1.5866,350.9,353.8988,0,61,61,77,1,90,54,NA,NA,NA,NA,NA,1,62,"binary"
"2E319D06EEE0446A88296D9AF7592FCC",1,"01990a9a-945e-73e1-afbe-ccc83cd3cf42","01990a83-7673-7c0c-a792-bbd8fbbaf673","2025-09-02_08h27.11.250",NA,NA,357.2487,357.2487,357.2487,357.5986,NA,NA,NA,NA,NA,NA,NA,TRUE,1,2.9917,354.2504,357.2486,0,62,62,73,1,90,30,NA,NA,NA,NA,NA,1,63,"binary"
"2E319D06EEE0446A88296D9AF7592FCC",1,"01990a9a-945e-73e1-afbe-ccc83cd3cf42","01990a83-7673-7c0c-a792-bbd8fbbaf673","2025-09-02_08h27.11.250",NA,NA,360.5988,360.599,360.599,360.9487,NA,NA,NA,NA,NA,NA,NA,TRUE,1,1.1493,357.5997,360.5987,0,63,63,4,1,7,32,NA,NA,NA,NA,NA,1,64,"binary"
"2E319D06EEE0446A88296D9AF7592FCC",1,"01990a9a-945e-73e1-afbe-ccc83cd3cf42","01990a83-7673-7c0c-a792-bbd8fbbaf673","2025-09-02_08h27.11.250",NA,NA,363.9487,363.9487,363.9487,364.2988,NA,NA,NA,NA,NA,NA,NA,TRUE,1,0.9345,360.9496,363.9487,0,64,64,98,1,180,35,NA,NA,NA,NA,NA,1,65,"binary"
"2E319D06EEE0446A88296D9AF7592FCC",1,"01990a9a-945e-73e1-afbe-ccc83cd3cf42","01990a83-7673-7c0c-a792-bbd8fbbaf673","2025-09-02_08h27.11.250",NA,NA,374.9393,374.9394,374.9394,374.9395,NA,NA,NA,NA,NA,NA,NA,FALSE,NA,NA,364.3003,374.9392,0,65,65,42,1,30,26,NA,NA,NA,NA,NA,1,66,"binary"
"2E319D06EEE0446A88296D9AF7592FCC",1,"01990a9a-945e-73e1-afbe-ccc83cd3cf42","01990a83-7673-7c0c-a792-bbd8fbbaf673","2025-09-02_08h27.11.250",NA,NA,374.942,374.9421,374.9421,374.9421,NA,NA,NA,NA,NA,NA,NA,FALSE,NA,NA,374.9418,374.9418,0,66,66,25,1,21,27,NA,NA,NA,NA,NA,1,67,"binary"
"2E319D06EEE0446A88296D9AF7592FCC",1,"01990a9a-945e-73e1-afbe-ccc83cd3cf42","01990a83-7673-7c0c-a792-bbd8fbbaf673","2025-09-02_08h27.11.250",NA,NA,374.9437,374.9437,374.9438,374.9438,NA,NA,NA,NA,NA,NA,NA,FALSE,NA,NA,374.9435,374.9436,0,67,67,101,1,180,54,NA,NA,NA,NA,NA,1,68,"binary"
"2E319D06EEE0446A88296D9AF7592FCC",1,"01990a9a-945e-73e1-afbe-ccc83cd3cf42","01990a83-7673-7c0c-a792-bbd8fbbaf673","2025-09-02_08h27.11.250",NA,NA,374.9539,377.5988,377.5989,377.6988,NA,NA,NA,NA,NA,NA,NA,FALSE,NA,NA,374.9448,374.9538,0,68,68,70,1,60,47,NA,NA,NA,NA,NA,1,69,"binary"
"2E319D06EEE0446A88296D9AF7592FCC",1,"01990a9a-945e-73e1-afbe-ccc83cd3cf42","01990a83-7673-7c0c-a792-bbd8fbbaf673","2025-09-02_08h27.11.250",NA,NA,380.6989,380.6989,380.6989,381.0486,NA,NA,NA,NA,NA,NA,NA,TRUE,1,1.9005,377.6997,380.6988,0,69,69,13,1,12,26,NA,NA,NA,NA,NA,1,70,"binary"
"2E319D06EEE0446A88296D9AF7592FCC",1,"01990a9a-945e-73e1-afbe-ccc83cd3cf42","01990a83-7673-7c0c-a792-bbd8fbbaf673","2025-09-02_08h27.11.250",NA,NA,384.0488,384.0488,384.0488,384.3988,NA,NA,NA,NA,NA,NA,NA,TRUE,2,1.6693,381.05,384.0488,0,70,70,66,1,60,29,NA,NA,NA,NA,NA,1,71,"binary"
"2E319D06EEE0446A88296D9AF7592FCC",1,"01990a9a-945e-73e1-afbe-ccc83cd3cf42","01990a83-7673-7c0c-a792-bbd8fbbaf673","2025-09-02_08h27.11.250",NA,NA,387.3988,387.3989,387.3989,387.7486,NA,NA,NA,NA,NA,NA,NA,TRUE,2,1.247,384.3996,387.3988,0,71,71,69,1,60,40,NA,NA,NA,NA,NA,1,72,"binary"
"2E319D06EEE0446A88296D9AF7592FCC",1,"01990a9a-945e-73e1-afbe-ccc83cd3cf42","01990a83-7673-7c0c-a792-bbd8fbbaf673","2025-09-02_08h27.11.250",NA,NA,390.7488,390.7488,390.7488,391.0985,NA,NA,NA,NA,NA,NA,NA,TRUE,1,1.5331,387.7499,390.7487,0,72,72,75,1,90,40,NA,NA,NA,NA,NA,1,73,"binary"
"2E319D06EEE0446A88296D9AF7592FCC",1,"01990a9a-945e-73e1-afbe-ccc83cd3cf42","01990a83-7673-7c0c-a792-bbd8fbbaf673","2025-09-02_08h27.11.250",NA,NA,394.0988,394.0988,394.0988,394.4487,NA,NA,NA,NA,NA,NA,NA,TRUE,1,0.7398,391.0995,394.0987,0,73,73,1,1,7,26,NA,NA,NA,NA,NA,1,74,"binary"
"2E319D06EEE0446A88296D9AF7592FCC",1,"01990a9a-945e-73e1-afbe-ccc83cd3cf42","01990a83-7673-7c0c-a792-bbd8fbbaf673","2025-09-02_08h27.11.250",NA,NA,397.4489,397.449,397.4491,397.7988,NA,NA,NA,NA,NA,NA,NA,TRUE,1,1.0196,394.4498,397.4489,0,74,74,46,1,30,32,NA,NA,NA,NA,NA,1,75,"binary"
"2E319D06EEE0446A88296D9AF7592FCC",1,"01990a9a-945e-73e1-afbe-ccc83cd3cf42","01990a83-7673-7c0c-a792-bbd8fbbaf673","2025-09-02_08h27.11.250",NA,NA,400.7988,400.7988,400.7988,401.1487,NA,NA,NA,NA,NA,NA,NA,TRUE,1,0.7641,397.7999,400.7987,0,75,75,59,1,45,46,NA,NA,NA,NA,NA,1,76,"binary"
"2E319D06EEE0446A88296D9AF7592FCC",1,"01990a9a-945e-73e1-afbe-ccc83cd3cf42","01990a83-7673-7c0c-a792-bbd8fbbaf673","2025-09-02_08h27.11.250",NA,NA,404.1487,404.1487,404.1488,404.4986,NA,NA,NA,NA,NA,NA,NA,TRUE,1,0.4331,401.1496,404.1486,0,76,76,23,1,14,39,NA,NA,NA,NA,NA,1,77,"binary"
"2E319D06EEE0446A88296D9AF7592FCC",1,"01990a9a-945e-73e1-afbe-ccc83cd3cf42","01990a83-7673-7c0c-a792-bbd8fbbaf673","2025-09-02_08h27.11.250",NA,NA,407.4986,407.4987,407.4987,407.8486,NA,NA,NA,NA,NA,NA,NA,TRUE,1,1.4485,404.4995,407.4986,0,77,77,45,1,30,30,NA,NA,NA,NA,NA,1,78,"binary"
"2E319D06EEE0446A88296D9AF7592FCC",1,"01990a9a-945e-73e1-afbe-ccc83cd3cf42","01990a83-7673-7c0c-a792-bbd8fbbaf673","2025-09-02_08h27.11.250",NA,NA,410.8487,410.8488,410.8488,411.1986,NA,NA,NA,NA,NA,NA,NA,TRUE,2,1.4879,407.8501,410.8486,0,78,78,107,1,200,54,NA,NA,NA,NA,NA,1,79,"binary"
"2E319D06EEE0446A88296D9AF7592FCC",1,"01990a9a-945e-73e1-afbe-ccc83cd3cf42","01990a83-7673-7c0c-a792-bbd8fbbaf673","2025-09-02_08h27.11.250",NA,NA,414.1989,414.1989,414.199,414.5486,NA,NA,NA,NA,NA,NA,NA,TRUE,2,1.3928,411.1999,414.1988,0,79,79,71,1,60,54,NA,NA,NA,NA,NA,1,80,"binary"
"2E319D06EEE0446A88296D9AF7592FCC",1,"01990a9a-945e-73e1-afbe-ccc83cd3cf42","01990a83-7673-7c0c-a792-bbd8fbbaf673","2025-09-02_08h27.11.250",NA,NA,417.5488,417.5488,417.5489,417.8986,NA,NA,NA,NA,NA,NA,NA,TRUE,1,1.8913,414.5501,417.5487,0,80,80,97,1,180,31,NA,NA,NA,NA,NA,1,81,"binary"
"2E319D06EEE0446A88296D9AF7592FCC",1,"01990a9a-945e-73e1-afbe-ccc83cd3cf42","01990a83-7673-7c0c-a792-bbd8fbbaf673","2025-09-02_08h27.11.250",NA,NA,420.899,420.899,420.899,421.2486,NA,NA,NA,NA,NA,NA,NA,TRUE,1,0.7637,417.8997,420.8988,0,81,81,48,1,40,27,NA,NA,NA,NA,NA,1,82,"binary"
"2E319D06EEE0446A88296D9AF7592FCC",1,"01990a9a-945e-73e1-afbe-ccc83cd3cf42","01990a83-7673-7c0c-a792-bbd8fbbaf673","2025-09-02_08h27.11.250",NA,NA,424.2487,424.2488,424.2488,424.5987,NA,NA,NA,NA,NA,NA,NA,TRUE,1,0.7035,421.2498,424.2486,0,82,82,94,1,150,47,NA,NA,NA,NA,NA,1,83,"binary"
"2E319D06EEE0446A88296D9AF7592FCC",1,"01990a9a-945e-73e1-afbe-ccc83cd3cf42","01990a83-7673-7c0c-a792-bbd8fbbaf673","2025-09-02_08h27.11.250",NA,NA,427.5989,427.5989,427.5989,427.9485,NA,NA,NA,NA,NA,NA,NA,TRUE,1,0.8935,424.5998,427.5986,0,83,83,78,1,95,31,NA,NA,NA,NA,NA,1,84,"binary"
"2E319D06EEE0446A88296D9AF7592FCC",1,"01990a9a-945e-73e1-afbe-ccc83cd3cf42","01990a83-7673-7c0c-a792-bbd8fbbaf673","2025-09-02_08h27.11.250",NA,NA,430.9491,430.9491,430.9491,431.2987,NA,NA,NA,NA,NA,NA,NA,TRUE,1,1.2413,427.9494,430.949,0,84,84,106,1,200,47,NA,NA,NA,NA,NA,1,85,"binary"
"2E319D06EEE0446A88296D9AF7592FCC",1,"01990a9a-945e-73e1-afbe-ccc83cd3cf42","01990a83-7673-7c0c-a792-bbd8fbbaf673","2025-09-02_08h27.11.250",NA,NA,434.2988,434.2988,434.2988,434.6487,NA,NA,NA,NA,NA,NA,NA,TRUE,1,1.1313,431.2995,434.2987,0,85,85,35,1,25,46,NA,NA,NA,NA,NA,1,86,"binary"
"2E319D06EEE0446A88296D9AF7592FCC",1,"01990a9a-945e-73e1-afbe-ccc83cd3cf42","01990a83-7673-7c0c-a792-bbd8fbbaf673","2025-09-02_08h27.11.250",NA,NA,437.6487,437.6487,437.6487,437.9987,NA,NA,NA,NA,NA,NA,NA,TRUE,1,0.8335,434.6496,437.6486,0,86,86,38,1,28,32,NA,NA,NA,NA,NA,1,87,"binary"
"2E319D06EEE0446A88296D9AF7592FCC",1,"01990a9a-945e-73e1-afbe-ccc83cd3cf42","01990a83-7673-7c0c-a792-bbd8fbbaf673","2025-09-02_08h27.11.250",NA,NA,440.9988,440.9988,440.9988,441.3487,NA,NA,NA,NA,NA,NA,NA,TRUE,1,0.747,437.9999,440.9987,0,87,87,49,1,40,33,NA,NA,NA,NA,NA,1,88,"binary"
"2E319D06EEE0446A88296D9AF7592FCC",1,"01990a9a-945e-73e1-afbe-ccc83cd3cf42","01990a83-7673-7c0c-a792-bbd8fbbaf673","2025-09-02_08h27.11.250",NA,NA,444.3487,444.3487,444.3488,444.6986,NA,NA,NA,NA,NA,NA,NA,TRUE,1,0.5385,441.3499,444.3487,0,88,88,21,1,14,32,NA,NA,NA,NA,NA,1,89,"binary"
"2E319D06EEE0446A88296D9AF7592FCC",1,"01990a9a-945e-73e1-afbe-ccc83cd3cf42","01990a83-7673-7c0c-a792-bbd8fbbaf673","2025-09-02_08h27.11.250",NA,NA,447.6987,447.6987,447.6987,448.0486,NA,NA,NA,NA,NA,NA,NA,TRUE,2,0.8711,444.6995,447.6986,0,89,89,10,1,10,30,NA,NA,NA,NA,NA,1,90,"binary"
"2E319D06EEE0446A88296D9AF7592FCC",1,"01990a9a-945e-73e1-afbe-ccc83cd3cf42","01990a83-7673-7c0c-a792-bbd8fbbaf673","2025-09-02_08h27.11.250",NA,NA,451.0488,451.0488,451.0488,451.3986,NA,NA,NA,NA,NA,NA,NA,TRUE,1,1.5416,448.0497,451.0487,0,90,90,8,1,10,27,NA,NA,NA,NA,NA,1,91,"binary"
"2E319D06EEE0446A88296D9AF7592FCC",1,"01990a9a-945e-73e1-afbe-ccc83cd3cf42","01990a83-7673-7c0c-a792-bbd8fbbaf673","2025-09-02_08h27.11.250",NA,NA,454.3987,454.3987,454.3987,454.7487,NA,NA,NA,NA,NA,NA,NA,TRUE,1,1.4908,451.3998,454.3986,0,91,91,74,1,90,33,NA,NA,NA,NA,NA,1,92,"binary"
"2E319D06EEE0446A88296D9AF7592FCC",1,"01990a9a-945e-73e1-afbe-ccc83cd3cf42","01990a83-7673-7c0c-a792-bbd8fbbaf673","2025-09-02_08h27.11.250",NA,NA,457.7487,457.7488,457.7488,458.0986,NA,NA,NA,NA,NA,NA,NA,TRUE,1,0.6762,454.7499,457.7487,0,92,92,15,1,12,31,NA,NA,NA,NA,NA,1,93,"binary"
"2E319D06EEE0446A88296D9AF7592FCC",1,"01990a9a-945e-73e1-afbe-ccc83cd3cf42","01990a83-7673-7c0c-a792-bbd8fbbaf673","2025-09-02_08h27.11.250",NA,NA,461.0989,461.0989,461.0989,461.4487,NA,NA,NA,NA,NA,NA,NA,TRUE,1,0.597,458.0996,461.0987,0,93,93,50,1,40,35,NA,NA,NA,NA,NA,1,94,"binary"
"2E319D06EEE0446A88296D9AF7592FCC",1,"01990a9a-945e-73e1-afbe-ccc83cd3cf42","01990a83-7673-7c0c-a792-bbd8fbbaf673","2025-09-02_08h27.11.250",NA,NA,464.4487,464.4487,464.4488,464.7986,NA,NA,NA,NA,NA,NA,NA,TRUE,1,0.6591,461.4496,464.4486,0,94,94,76,1,90,46,NA,NA,NA,NA,NA,1,95,"binary"
"2E319D06EEE0446A88296D9AF7592FCC",1,"01990a9a-945e-73e1-afbe-ccc83cd3cf42","01990a83-7673-7c0c-a792-bbd8fbbaf673","2025-09-02_08h27.11.250",NA,NA,467.7988,468.0487,468.0487,468.1487,NA,NA,NA,NA,NA,NA,NA,FALSE,NA,NA,464.7998,467.7986,0,95,95,62,1,50,35,NA,NA,NA,NA,NA,1,96,"binary"
"2E319D06EEE0446A88296D9AF7592FCC",1,"01990a9a-945e-73e1-afbe-ccc83cd3cf42","01990a83-7673-7c0c-a792-bbd8fbbaf673","2025-09-02_08h27.11.250",NA,NA,471.1487,471.1488,471.1488,471.4986,NA,NA,NA,NA,NA,NA,NA,TRUE,1,1.0637,468.1499,471.1486,0,96,96,52,1,40,47,NA,NA,NA,NA,NA,1,97,"binary"
"2E319D06EEE0446A88296D9AF7592FCC",1,"01990a9a-945e-73e1-afbe-ccc83cd3cf42","01990a83-7673-7c0c-a792-bbd8fbbaf673","2025-09-02_08h27.11.250",NA,NA,474.4988,474.4988,474.4988,474.8487,NA,NA,NA,NA,NA,NA,NA,TRUE,2,1.5515,471.4997,474.4986,0,97,97,26,1,21,29,NA,NA,NA,NA,NA,1,98,"binary"
"2E319D06EEE0446A88296D9AF7592FCC",1,"01990a9a-945e-73e1-afbe-ccc83cd3cf42","01990a83-7673-7c0c-a792-bbd8fbbaf673","2025-09-02_08h27.11.250",NA,NA,477.8488,477.8488,477.8488,478.1986,NA,NA,NA,NA,NA,NA,NA,TRUE,1,0.7304,474.8499,477.8486,0,98,98,18,1,14,25,NA,NA,NA,NA,NA,1,99,"binary"
"2E319D06EEE0446A88296D9AF7592FCC",1,"01990a9a-945e-73e1-afbe-ccc83cd3cf42","01990a83-7673-7c0c-a792-bbd8fbbaf673","2025-09-02_08h27.11.250",NA,NA,481.1987,481.4486,481.4486,481.5486,NA,NA,NA,NA,NA,NA,NA,FALSE,NA,NA,478.1997,481.1986,0,99,99,17,1,12,35,NA,NA,NA,NA,NA,1,100,"binary"
"2E319D06EEE0446A88296D9AF7592FCC",1,"01990a9a-945e-73e1-afbe-ccc83cd3cf42","01990a83-7673-7c0c-a792-bbd8fbbaf673","2025-09-02_08h27.11.250",NA,NA,484.5487,484.5487,484.5488,484.8986,NA,NA,NA,NA,NA,NA,NA,TRUE,1,0.3888,481.5496,484.5486,0,100,100,103,1,200,28,NA,NA,NA,NA,NA,1,101,"binary"
"2E319D06EEE0446A88296D9AF7592FCC",1,"01990a9a-945e-73e1-afbe-ccc83cd3cf42","01990a83-7673-7c0c-a792-bbd8fbbaf673","2025-09-02_08h27.11.250",NA,NA,487.8989,487.8989,487.8989,488.2486,NA,NA,NA,NA,NA,NA,NA,TRUE,1,1.2767,484.9,487.8987,0,101,101,16,1,12,33,NA,NA,NA,NA,NA,1,102,"binary"
"2E319D06EEE0446A88296D9AF7592FCC",1,"01990a9a-945e-73e1-afbe-ccc83cd3cf42","01990a83-7673-7c0c-a792-bbd8fbbaf673","2025-09-02_08h27.11.250",NA,NA,491.2488,491.4986,491.4986,491.5986,NA,NA,NA,NA,NA,NA,NA,FALSE,NA,NA,488.2495,491.2487,0,102,102,61,1,50,30,NA,NA,NA,NA,NA,1,103,"binary"
"2E319D06EEE0446A88296D9AF7592FCC",1,"01990a9a-945e-73e1-afbe-ccc83cd3cf42","01990a83-7673-7c0c-a792-bbd8fbbaf673","2025-09-02_08h27.11.250",NA,NA,494.5988,494.5988,494.5988,494.9488,NA,NA,NA,NA,NA,NA,NA,TRUE,1,2.0917,491.5995,494.5987,0,103,103,12,1,12,25,NA,NA,NA,NA,NA,1,104,"binary"
"2E319D06EEE0446A88296D9AF7592FCC",1,"01990a9a-945e-73e1-afbe-ccc83cd3cf42","01990a83-7673-7c0c-a792-bbd8fbbaf673","2025-09-02_08h27.11.250",NA,NA,497.9487,497.9487,497.9488,498.2986,NA,NA,NA,NA,NA,NA,NA,TRUE,2,1.4569,494.95,497.9487,0,104,104,9,1,10,29,NA,NA,NA,NA,NA,1,105,"binary"
"2E319D06EEE0446A88296D9AF7592FCC",1,"01990a9a-945e-73e1-afbe-ccc83cd3cf42","01990a83-7673-7c0c-a792-bbd8fbbaf673","2025-09-02_08h27.11.250",NA,NA,501.2991,501.2992,501.2992,501.6488,NA,NA,NA,NA,NA,NA,NA,TRUE,1,2.4407,498.2999,501.2989,0,105,105,36,1,28,26,NA,NA,NA,NA,NA,1,106,"binary"
"2E319D06EEE0446A88296D9AF7592FCC",1,"01990a9a-945e-73e1-afbe-ccc83cd3cf42","01990a83-7673-7c0c-a792-bbd8fbbaf673","2025-09-02_08h27.11.250",NA,NA,504.6486,504.6487,504.6487,504.9986,NA,NA,NA,NA,NA,NA,NA,TRUE,1,1.4905,501.6502,504.6486,0,106,106,47,1,30,38,NA,NA,NA,NA,NA,1,107,"binary"
"2E319D06EEE0446A88296D9AF7592FCC",1,"01990a9a-945e-73e1-afbe-ccc83cd3cf42","01990a83-7673-7c0c-a792-bbd8fbbaf673","2025-09-02_08h27.11.250",NA,NA,507.9986,507.9986,507.9987,508.3486,NA,NA,NA,NA,NA,NA,NA,TRUE,1,2.371,504.9997,507.9986,0,107,107,27,1,21,30,NA,NA,NA,NA,NA,1,108,"binary"
"2E319D06EEE0446A88296D9AF7592FCC",1,"01990a9a-945e-73e1-afbe-ccc83cd3cf42","01990a83-7673-7c0c-a792-bbd8fbbaf673","2025-09-02_08h27.11.250",NA,NA,515.3487,515.3488,515.3488,515.6986,NA,NA,NA,NA,NA,NA,NA,TRUE,1,1.5721,512.3544,515.3486,NA,NA,NA,NA,NA,200,26,0,0,0,102,1,2,1,"binary"
"2E319D06EEE0446A88296D9AF7592FCC",1,"01990a9a-945e-73e1-afbe-ccc83cd3cf42","01990a83-7673-7c0c-a792-bbd8fbbaf673","2025-09-02_08h27.11.250",NA,NA,518.6987,518.6987,518.6987,519.0487,NA,NA,NA,NA,NA,NA,NA,TRUE,1,0.8356,515.6997,518.6986,NA,NA,NA,NA,NA,10,30,0,1,1,10,1,2,2,"binary"
"2E319D06EEE0446A88296D9AF7592FCC",1,"01990a9a-945e-73e1-afbe-ccc83cd3cf42","01990a83-7673-7c0c-a792-bbd8fbbaf673","2025-09-02_08h27.11.250",NA,NA,522.0488,522.0488,522.0488,522.3985,NA,NA,NA,NA,NA,NA,NA,TRUE,1,0.4492,519.0498,522.0486,NA,NA,NA,NA,NA,25,27,0,2,2,30,1,2,3,"binary"
"2E319D06EEE0446A88296D9AF7592FCC",1,"01990a9a-945e-73e1-afbe-ccc83cd3cf42","01990a83-7673-7c0c-a792-bbd8fbbaf673","2025-09-02_08h27.11.250",NA,NA,525.399,525.399,525.399,525.7486,NA,NA,NA,NA,NA,NA,NA,TRUE,1,0.4505,522.3997,525.3988,NA,NA,NA,NA,NA,40,54,0,3,3,53,1,2,4,"binary"
"2E319D06EEE0446A88296D9AF7592FCC",1,"01990a9a-945e-73e1-afbe-ccc83cd3cf42","01990a83-7673-7c0c-a792-bbd8fbbaf673","2025-09-02_08h27.11.250",NA,NA,528.7488,528.7488,528.7488,529.0987,NA,NA,NA,NA,NA,NA,NA,TRUE,1,0.5056,525.7497,528.7487,NA,NA,NA,NA,NA,200,54,0,4,4,107,1,2,5,"binary"
"2E319D06EEE0446A88296D9AF7592FCC",1,"01990a9a-945e-73e1-afbe-ccc83cd3cf42","01990a83-7673-7c0c-a792-bbd8fbbaf673","2025-09-02_08h27.11.250",NA,NA,532.0988,532.0988,532.0988,532.4486,NA,NA,NA,NA,NA,NA,NA,TRUE,1,0.3736,529.0999,532.0987,NA,NA,NA,NA,NA,95,31,0,5,5,78,1,2,6,"binary"
"2E319D06EEE0446A88296D9AF7592FCC",1,"01990a9a-945e-73e1-afbe-ccc83cd3cf42","01990a83-7673-7c0c-a792-bbd8fbbaf673","2025-09-02_08h27.11.250",NA,NA,535.4488,535.4488,535.4488,535.7987,NA,NA,NA,NA,NA,NA,NA,TRUE,1,0.7887,532.4499,535.4487,NA,NA,NA,NA,NA,180,31,0,6,6,97,1,2,7,"binary"
"2E319D06EEE0446A88296D9AF7592FCC",1,"01990a9a-945e-73e1-afbe-ccc83cd3cf42","01990a83-7673-7c0c-a792-bbd8fbbaf673","2025-09-02_08h27.11.250",NA,NA,538.7986,538.7987,538.7987,539.1486,NA,NA,NA,NA,NA,NA,NA,TRUE,1,0.8584,535.8001,538.7986,NA,NA,NA,NA,NA,10,29,0,7,7,9,1,2,8,"binary"
"2E319D06EEE0446A88296D9AF7592FCC",1,"01990a9a-945e-73e1-afbe-ccc83cd3cf42","01990a83-7673-7c0c-a792-bbd8fbbaf673","2025-09-02_08h27.11.250",NA,NA,542.1487,542.1487,542.1487,542.4986,NA,NA,NA,NA,NA,NA,NA,TRUE,1,1.4086,539.1496,542.1486,NA,NA,NA,NA,NA,40,27,0,8,8,48,1,2,9,"binary"
"2E319D06EEE0446A88296D9AF7592FCC",1,"01990a9a-945e-73e1-afbe-ccc83cd3cf42","01990a83-7673-7c0c-a792-bbd8fbbaf673","2025-09-02_08h27.11.250",NA,NA,545.4988,545.4988,545.4989,545.8486,NA,NA,NA,NA,NA,NA,NA,TRUE,1,1.2993,542.4998,545.4987,NA,NA,NA,NA,NA,7,30,0,9,9,3,1,2,10,"binary"
"2E319D06EEE0446A88296D9AF7592FCC",1,"01990a9a-945e-73e1-afbe-ccc83cd3cf42","01990a83-7673-7c0c-a792-bbd8fbbaf673","2025-09-02_08h27.11.250",NA,NA,548.8486,548.8487,548.8487,549.1986,NA,NA,NA,NA,NA,NA,NA,TRUE,1,0.4387,545.8498,548.8486,NA,NA,NA,NA,NA,30,32,0,10,10,46,1,2,11,"binary"
"2E319D06EEE0446A88296D9AF7592FCC",1,"01990a9a-945e-73e1-afbe-ccc83cd3cf42","01990a83-7673-7c0c-a792-bbd8fbbaf673","2025-09-02_08h27.11.250",NA,NA,552.1987,552.1988,552.1988,552.5486,NA,NA,NA,NA,NA,NA,NA,TRUE,1,0.6358,549.2,552.1986,NA,NA,NA,NA,NA,10,32,0,11,11,11,1,2,12,"binary"
"2E319D06EEE0446A88296D9AF7592FCC",1,"01990a9a-945e-73e1-afbe-ccc83cd3cf42","01990a83-7673-7c0c-a792-bbd8fbbaf673","2025-09-02_08h27.11.250",NA,NA,555.5487,555.5487,555.5487,555.8986,NA,NA,NA,NA,NA,NA,NA,TRUE,1,0.5178,552.5499,555.5486,NA,NA,NA,NA,NA,100,31,0,12,12,85,1,2,13,"binary"
"2E319D06EEE0446A88296D9AF7592FCC",1,"01990a9a-945e-73e1-afbe-ccc83cd3cf42","01990a83-7673-7c0c-a792-bbd8fbbaf673","2025-09-02_08h27.11.250",NA,NA,558.8986,558.8987,558.8987,559.2488,NA,NA,NA,NA,NA,NA,NA,TRUE,1,1.5709,555.8995,558.8986,NA,NA,NA,NA,NA,60,54,0,13,13,71,1,2,14,"binary"
"2E319D06EEE0446A88296D9AF7592FCC",1,"01990a9a-945e-73e1-afbe-ccc83cd3cf42","01990a83-7673-7c0c-a792-bbd8fbbaf673","2025-09-02_08h27.11.250",NA,NA,562.2489,562.4987,562.4987,562.5988,NA,NA,NA,NA,NA,NA,NA,FALSE,NA,NA,559.2497,562.2487,NA,NA,NA,NA,NA,45,26,0,14,14,54,1,2,15,"binary"
"2E319D06EEE0446A88296D9AF7592FCC",1,"01990a9a-945e-73e1-afbe-ccc83cd3cf42","01990a83-7673-7c0c-a792-bbd8fbbaf673","2025-09-02_08h27.11.250",NA,NA,565.5987,565.5987,565.5988,565.9488,NA,NA,NA,NA,NA,NA,NA,TRUE,1,0.1585,562.5998,565.5986,NA,NA,NA,NA,NA,12,31,0,15,15,15,1,2,16,"binary"
"2E319D06EEE0446A88296D9AF7592FCC",1,"01990a9a-945e-73e1-afbe-ccc83cd3cf42","01990a83-7673-7c0c-a792-bbd8fbbaf673","2025-09-02_08h27.11.250",NA,NA,568.9487,568.9487,568.9487,569.2987,NA,NA,NA,NA,NA,NA,NA,TRUE,1,2.2089,565.9501,568.9486,NA,NA,NA,NA,NA,60,33,0,16,16,67,1,2,17,"binary"
"2E319D06EEE0446A88296D9AF7592FCC",1,"01990a9a-945e-73e1-afbe-ccc83cd3cf42","01990a83-7673-7c0c-a792-bbd8fbbaf673","2025-09-02_08h27.11.250",NA,NA,572.2987,572.2987,572.2987,572.6486,NA,NA,NA,NA,NA,NA,NA,TRUE,2,2.5801,569.2999,572.2986,NA,NA,NA,NA,NA,14,25,0,17,17,18,1,2,18,"binary"
"2E319D06EEE0446A88296D9AF7592FCC",1,"01990a9a-945e-73e1-afbe-ccc83cd3cf42","01990a83-7673-7c0c-a792-bbd8fbbaf673","2025-09-02_08h27.11.250",NA,NA,575.6488,575.6488,575.6488,575.9986,NA,NA,NA,NA,NA,NA,NA,TRUE,1,0.6006,572.6499,575.6486,NA,NA,NA,NA,NA,60,40,0,18,18,69,1,2,19,"binary"
"2E319D06EEE0446A88296D9AF7592FCC",1,"01990a9a-945e-73e1-afbe-ccc83cd3cf42","01990a83-7673-7c0c-a792-bbd8fbbaf673","2025-09-02_08h27.11.250",NA,NA,578.9987,578.9988,578.9988,579.3486,NA,NA,NA,NA,NA,NA,NA,TRUE,1,1.4356,575.9999,578.9986,NA,NA,NA,NA,NA,95,47,0,19,19,82,1,2,20,"binary"
"2E319D06EEE0446A88296D9AF7592FCC",1,"01990a9a-945e-73e1-afbe-ccc83cd3cf42","01990a83-7673-7c0c-a792-bbd8fbbaf673","2025-09-02_08h27.11.250",NA,NA,582.3487,582.3487,582.3487,582.6987,NA,NA,NA,NA,NA,NA,NA,TRUE,1,1.5308,579.3499,582.3486,NA,NA,NA,NA,NA,21,26,0,20,20,24,1,2,21,"binary"
"2E319D06EEE0446A88296D9AF7592FCC",1,"01990a9a-945e-73e1-afbe-ccc83cd3cf42","01990a83-7673-7c0c-a792-bbd8fbbaf673","2025-09-02_08h27.11.250",NA,NA,585.6988,585.9487,585.9487,586.0487,NA,NA,NA,NA,NA,NA,NA,FALSE,NA,NA,582.6999,585.6986,NA,NA,NA,NA,NA,90,54,0,21,21,77,1,2,22,"binary"
"2E319D06EEE0446A88296D9AF7592FCC",1,"01990a9a-945e-73e1-afbe-ccc83cd3cf42","01990a83-7673-7c0c-a792-bbd8fbbaf673","2025-09-02_08h27.11.250",NA,NA,589.0488,589.0489,589.0489,589.3986,NA,NA,NA,NA,NA,NA,NA,TRUE,1,1.2802,586.0495,589.0487,NA,NA,NA,NA,NA,150,33,0,22,22,91,1,2,23,"binary"
"2E319D06EEE0446A88296D9AF7592FCC",1,"01990a9a-945e-73e1-afbe-ccc83cd3cf42","01990a83-7673-7c0c-a792-bbd8fbbaf673","2025-09-02_08h27.11.250",NA,NA,592.3987,592.6486,592.6486,592.7489,NA,NA,NA,NA,NA,NA,NA,FALSE,NA,NA,589.3999,592.3987,NA,NA,NA,NA,NA,30,26,0,23,23,42,1,2,24,"binary"
"2E319D06EEE0446A88296D9AF7592FCC",1,"01990a9a-945e-73e1-afbe-ccc83cd3cf42","01990a83-7673-7c0c-a792-bbd8fbbaf673","2025-09-02_08h27.11.250",NA,NA,595.7489,595.7489,595.749,596.0986,NA,NA,NA,NA,NA,NA,NA,TRUE,1,0.9165,592.7502,595.7487,NA,NA,NA,NA,NA,95,35,0,24,24,80,1,2,25,"binary"
"2E319D06EEE0446A88296D9AF7592FCC",1,"01990a9a-945e-73e1-afbe-ccc83cd3cf42","01990a83-7673-7c0c-a792-bbd8fbbaf673","2025-09-02_08h27.11.250",NA,NA,599.0989,599.0989,599.0989,599.4486,NA,NA,NA,NA,NA,NA,NA,TRUE,1,2.0359,596.1,599.0987,NA,NA,NA,NA,NA,100,39,0,25,25,87,1,2,26,"binary"
"2E319D06EEE0446A88296D9AF7592FCC",1,"01990a9a-945e-73e1-afbe-ccc83cd3cf42","01990a83-7673-7c0c-a792-bbd8fbbaf673","2025-09-02_08h27.11.250",NA,NA,602.4486,602.4486,602.4486,602.7986,NA,NA,NA,NA,NA,NA,NA,TRUE,1,1.5982,599.4503,602.4485,NA,NA,NA,NA,NA,28,46,0,26,26,41,1,2,27,"binary"
"2E319D06EEE0446A88296D9AF7592FCC",1,"01990a9a-945e-73e1-afbe-ccc83cd3cf42","01990a83-7673-7c0c-a792-bbd8fbbaf673","2025-09-02_08h27.11.250",NA,NA,605.7987,605.7987,605.7987,606.1486,NA,NA,NA,NA,NA,NA,NA,TRUE,1,0.5925,602.8,605.7987,NA,NA,NA,NA,NA,14,35,0,27,27,22,1,2,28,"binary"
"2E319D06EEE0446A88296D9AF7592FCC",1,"01990a9a-945e-73e1-afbe-ccc83cd3cf42","01990a83-7673-7c0c-a792-bbd8fbbaf673","2025-09-02_08h27.11.250",NA,NA,609.1489,609.1489,609.149,609.4986,NA,NA,NA,NA,NA,NA,NA,TRUE,1,0.8212,606.1497,609.1488,NA,NA,NA,NA,NA,180,35,0,28,28,98,1,2,29,"binary"
"2E319D06EEE0446A88296D9AF7592FCC",1,"01990a9a-945e-73e1-afbe-ccc83cd3cf42","01990a83-7673-7c0c-a792-bbd8fbbaf673","2025-09-02_08h27.11.250",NA,NA,612.4987,612.4987,612.4987,612.8486,NA,NA,NA,NA,NA,NA,NA,TRUE,1,0.5676,609.4999,612.4986,NA,NA,NA,NA,NA,25,33,0,29,29,33,1,2,30,"binary"
"2E319D06EEE0446A88296D9AF7592FCC",1,"01990a9a-945e-73e1-afbe-ccc83cd3cf42","01990a83-7673-7c0c-a792-bbd8fbbaf673","2025-09-02_08h27.11.250",NA,NA,615.8487,615.8487,615.8487,616.1986,NA,NA,NA,NA,NA,NA,NA,TRUE,1,0.3161,612.8497,615.8486,NA,NA,NA,NA,NA,25,31,0,30,30,32,1,2,31,"binary"
"2E319D06EEE0446A88296D9AF7592FCC",1,"01990a9a-945e-73e1-afbe-ccc83cd3cf42","01990a83-7673-7c0c-a792-bbd8fbbaf673","2025-09-02_08h27.11.250",NA,NA,619.1987,619.1987,619.1988,619.5486,NA,NA,NA,NA,NA,NA,NA,TRUE,1,0.8663,616.1999,619.1986,NA,NA,NA,NA,NA,150,54,0,31,31,95,1,2,32,"binary"
"2E319D06EEE0446A88296D9AF7592FCC",1,"01990a9a-945e-73e1-afbe-ccc83cd3cf42","01990a83-7673-7c0c-a792-bbd8fbbaf673","2025-09-02_08h27.11.250",NA,NA,622.5488,622.5489,622.5489,622.8986,NA,NA,NA,NA,NA,NA,NA,TRUE,1,0.4557,619.5499,622.5488,NA,NA,NA,NA,NA,28,32,0,32,32,38,1,2,33,"binary"
"2E319D06EEE0446A88296D9AF7592FCC",1,"01990a9a-945e-73e1-afbe-ccc83cd3cf42","01990a83-7673-7c0c-a792-bbd8fbbaf673","2025-09-02_08h27.11.250",NA,NA,625.8987,625.8987,625.8988,626.2486,NA,NA,NA,NA,NA,NA,NA,TRUE,1,0.5492,622.9,625.8986,NA,NA,NA,NA,NA,60,35,0,33,33,68,1,2,34,"binary"
"2E319D06EEE0446A88296D9AF7592FCC",1,"01990a9a-945e-73e1-afbe-ccc83cd3cf42","01990a83-7673-7c0c-a792-bbd8fbbaf673","2025-09-02_08h27.11.250",NA,NA,629.2487,629.2487,629.2487,629.5986,NA,NA,NA,NA,NA,NA,NA,TRUE,2,1.2037,626.2498,629.2486,NA,NA,NA,NA,NA,14,28,0,34,34,20,1,2,35,"binary"
"2E319D06EEE0446A88296D9AF7592FCC",1,"01990a9a-945e-73e1-afbe-ccc83cd3cf42","01990a83-7673-7c0c-a792-bbd8fbbaf673","2025-09-02_08h27.11.250",NA,NA,632.599,632.5991,632.5991,632.9487,NA,NA,NA,NA,NA,NA,NA,TRUE,1,0.8238,629.5999,632.5989,NA,NA,NA,NA,NA,30,38,0,35,35,47,1,2,36,"binary"
"2E319D06EEE0446A88296D9AF7592FCC",1,"01990a9a-945e-73e1-afbe-ccc83cd3cf42","01990a83-7673-7c0c-a792-bbd8fbbaf673","2025-09-02_08h27.11.250",NA,NA,635.9487,635.9487,635.9487,636.2987,NA,NA,NA,NA,NA,NA,NA,TRUE,1,0.2945,632.9496,635.9486,NA,NA,NA,NA,NA,150,40,0,36,36,93,1,2,37,"binary"
"2E319D06EEE0446A88296D9AF7592FCC",1,"01990a9a-945e-73e1-afbe-ccc83cd3cf42","01990a83-7673-7c0c-a792-bbd8fbbaf673","2025-09-02_08h27.11.250",NA,NA,639.2988,639.2988,639.2988,639.6486,NA,NA,NA,NA,NA,NA,NA,TRUE,1,1.2407,636.3006,639.2986,NA,NA,NA,NA,NA,25,35,0,37,37,34,1,2,38,"binary"
"2E319D06EEE0446A88296D9AF7592FCC",1,"01990a9a-945e-73e1-afbe-ccc83cd3cf42","01990a83-7673-7c0c-a792-bbd8fbbaf673","2025-09-02_08h27.11.250",NA,NA,642.6488,642.8987,642.8987,642.9987,NA,NA,NA,NA,NA,NA,NA,FALSE,NA,NA,639.6497,642.6487,NA,NA,NA,NA,NA,95,54,0,38,38,83,1,2,39,"binary"
"2E319D06EEE0446A88296D9AF7592FCC",1,"01990a9a-945e-73e1-afbe-ccc83cd3cf42","01990a83-7673-7c0c-a792-bbd8fbbaf673","2025-09-02_08h27.11.250",NA,NA,645.9986,645.9986,645.9986,646.3485,NA,NA,NA,NA,NA,NA,NA,TRUE,1,0.7587,642.9994,645.9985,NA,NA,NA,NA,NA,100,46,0,39,39,88,1,2,40,"binary"
"2E319D06EEE0446A88296D9AF7592FCC",1,"01990a9a-945e-73e1-afbe-ccc83cd3cf42","01990a83-7673-7c0c-a792-bbd8fbbaf673","2025-09-02_08h27.11.250",NA,NA,649.3487,649.3487,649.3487,649.6986,NA,NA,NA,NA,NA,NA,NA,TRUE,1,0.6188,646.3494,649.3486,NA,NA,NA,NA,NA,14,32,0,40,40,21,1,2,41,"binary"
"2E319D06EEE0446A88296D9AF7592FCC",1,"01990a9a-945e-73e1-afbe-ccc83cd3cf42","01990a83-7673-7c0c-a792-bbd8fbbaf673","2025-09-02_08h27.11.250",NA,NA,652.6988,652.6988,652.6988,653.0486,NA,NA,NA,NA,NA,NA,NA,TRUE,1,0.5006,649.6996,652.6987,NA,NA,NA,NA,NA,7,28,0,41,41,2,1,2,42,"binary"
"2E319D06EEE0446A88296D9AF7592FCC",1,"01990a9a-945e-73e1-afbe-ccc83cd3cf42","01990a83-7673-7c0c-a792-bbd8fbbaf673","2025-09-02_08h27.11.250",NA,NA,656.0487,656.0487,656.0487,656.3985,NA,NA,NA,NA,NA,NA,NA,TRUE,1,2.6035,653.0499,656.0486,NA,NA,NA,NA,NA,25,46,0,42,42,35,1,2,43,"binary"
"2E319D06EEE0446A88296D9AF7592FCC",1,"01990a9a-945e-73e1-afbe-ccc83cd3cf42","01990a83-7673-7c0c-a792-bbd8fbbaf673","2025-09-02_08h27.11.250",NA,NA,659.3987,659.3987,659.3987,659.7486,NA,NA,NA,NA,NA,NA,NA,TRUE,2,1.2939,656.3995,659.3986,NA,NA,NA,NA,NA,21,32,0,43,43,28,1,2,44,"binary"
"2E319D06EEE0446A88296D9AF7592FCC",1,"01990a9a-945e-73e1-afbe-ccc83cd3cf42","01990a83-7673-7c0c-a792-bbd8fbbaf673","2025-09-02_08h27.11.250",NA,NA,662.7487,662.7487,662.7487,663.0986,NA,NA,NA,NA,NA,NA,NA,TRUE,1,0.0309,659.7495,662.7487,NA,NA,NA,NA,NA,21,29,0,44,44,26,1,2,45,"binary"
"2E319D06EEE0446A88296D9AF7592FCC",1,"01990a9a-945e-73e1-afbe-ccc83cd3cf42","01990a83-7673-7c0c-a792-bbd8fbbaf673","2025-09-02_08h27.11.250",NA,NA,666.0987,666.0988,666.0988,666.4485,NA,NA,NA,NA,NA,NA,NA,TRUE,1,0.4663,663.0995,666.0986,NA,NA,NA,NA,NA,90,26,0,45,45,72,1,2,46,"binary"
"2E319D06EEE0446A88296D9AF7592FCC",1,"01990a9a-945e-73e1-afbe-ccc83cd3cf42","01990a83-7673-7c0c-a792-bbd8fbbaf673","2025-09-02_08h27.11.250",NA,NA,669.4487,669.4487,669.4487,669.7986,NA,NA,NA,NA,NA,NA,NA,TRUE,1,0.6138,666.4499,669.4486,NA,NA,NA,NA,NA,50,27,0,46,46,60,1,2,47,"binary"
"2E319D06EEE0446A88296D9AF7592FCC",1,"01990a9a-945e-73e1-afbe-ccc83cd3cf42","01990a83-7673-7c0c-a792-bbd8fbbaf673","2025-09-02_08h27.11.250",NA,NA,672.7987,672.7988,672.7988,673.1486,NA,NA,NA,NA,NA,NA,NA,TRUE,1,0.3594,669.7998,672.7986,NA,NA,NA,NA,NA,180,46,0,47,47,100,1,2,48,"binary"
"2E319D06EEE0446A88296D9AF7592FCC",1,"01990a9a-945e-73e1-afbe-ccc83cd3cf42","01990a83-7673-7c0c-a792-bbd8fbbaf673","2025-09-02_08h27.11.250",NA,NA,676.1486,676.1487,676.1487,676.4986,NA,NA,NA,NA,NA,NA,NA,TRUE,1,0.6539,673.1498,676.1486,NA,NA,NA,NA,NA,40,33,0,48,48,49,1,2,49,"binary"
"2E319D06EEE0446A88296D9AF7592FCC",1,"01990a9a-945e-73e1-afbe-ccc83cd3cf42","01990a83-7673-7c0c-a792-bbd8fbbaf673","2025-09-02_08h27.11.250",NA,NA,679.4991,679.4991,679.4991,679.849,NA,NA,NA,NA,NA,NA,NA,TRUE,1,0.7469,676.4998,679.499,NA,NA,NA,NA,NA,28,28,0,49,49,37,1,2,50,"binary"
"2E319D06EEE0446A88296D9AF7592FCC",1,"01990a9a-945e-73e1-afbe-ccc83cd3cf42","01990a83-7673-7c0c-a792-bbd8fbbaf673","2025-09-02_08h27.11.250",NA,NA,682.8487,682.8487,682.8487,683.1986,NA,NA,NA,NA,NA,NA,NA,TRUE,1,0.3303,679.8502,682.8486,NA,NA,NA,NA,NA,40,35,0,50,50,50,1,2,51,"binary"
"2E319D06EEE0446A88296D9AF7592FCC",1,"01990a9a-945e-73e1-afbe-ccc83cd3cf42","01990a83-7673-7c0c-a792-bbd8fbbaf673","2025-09-02_08h27.11.250",NA,NA,686.1987,686.1987,686.1987,686.5486,NA,NA,NA,NA,NA,NA,NA,TRUE,1,1.0368,683.1995,686.1986,NA,NA,NA,NA,NA,30,30,0,51,51,45,1,2,52,"binary"
"2E319D06EEE0446A88296D9AF7592FCC",1,"01990a9a-945e-73e1-afbe-ccc83cd3cf42","01990a83-7673-7c0c-a792-bbd8fbbaf673","2025-09-02_08h27.11.250",NA,NA,689.5488,689.5488,689.5488,689.8987,NA,NA,NA,NA,NA,NA,NA,TRUE,1,0.5819,686.5497,689.5486,NA,NA,NA,NA,NA,7,35,0,52,52,5,1,2,53,"binary"
"2E319D06EEE0446A88296D9AF7592FCC",1,"01990a9a-945e-73e1-afbe-ccc83cd3cf42","01990a83-7673-7c0c-a792-bbd8fbbaf673","2025-09-02_08h27.11.250",NA,NA,692.8988,692.8989,692.8989,693.2486,NA,NA,NA,NA,NA,NA,NA,TRUE,1,1.4917,689.8999,692.8987,NA,NA,NA,NA,NA,150,47,0,53,53,94,1,2,54,"binary"
"2E319D06EEE0446A88296D9AF7592FCC",1,"01990a9a-945e-73e1-afbe-ccc83cd3cf42","01990a83-7673-7c0c-a792-bbd8fbbaf673","2025-09-02_08h27.11.250",NA,NA,696.2488,696.4986,696.4986,696.5987,NA,NA,NA,NA,NA,NA,NA,FALSE,NA,NA,693.2493,696.2487,NA,NA,NA,NA,NA,28,39,0,54,54,40,1,2,55,"binary"
"2E319D06EEE0446A88296D9AF7592FCC",1,"01990a9a-945e-73e1-afbe-ccc83cd3cf42","01990a83-7673-7c0c-a792-bbd8fbbaf673","2025-09-02_08h27.11.250",NA,NA,699.5987,699.5987,699.5988,699.9487,NA,NA,NA,NA,NA,NA,NA,TRUE,1,0.9865,696.5998,699.5987,NA,NA,NA,NA,NA,100,26,0,55,55,84,1,2,56,"binary"
"2E319D06EEE0446A88296D9AF7592FCC",1,"01990a9a-945e-73e1-afbe-ccc83cd3cf42","01990a83-7673-7c0c-a792-bbd8fbbaf673","2025-09-02_08h27.11.250",NA,NA,702.9488,702.9488,702.9488,703.2985,NA,NA,NA,NA,NA,NA,NA,TRUE,1,0.6515,699.9496,702.9487,NA,NA,NA,NA,NA,50,35,0,56,56,62,1,2,57,"binary"
"2E319D06EEE0446A88296D9AF7592FCC",1,"01990a9a-945e-73e1-afbe-ccc83cd3cf42","01990a83-7673-7c0c-a792-bbd8fbbaf673","2025-09-02_08h27.11.250",NA,NA,706.2988,706.2989,706.2989,706.6486,NA,NA,NA,NA,NA,NA,NA,TRUE,1,2.4387,703.2993,706.2988,NA,NA,NA,NA,NA,10,27,0,57,57,8,1,2,58,"binary"
"2E319D06EEE0446A88296D9AF7592FCC",1,"01990a9a-945e-73e1-afbe-ccc83cd3cf42","01990a83-7673-7c0c-a792-bbd8fbbaf673","2025-09-02_08h27.11.250",NA,NA,709.6488,709.6488,709.6488,709.9988,NA,NA,NA,NA,NA,NA,NA,TRUE,1,0.4917,706.6498,709.6487,NA,NA,NA,NA,NA,60,47,0,58,58,70,1,2,59,"binary"
"2E319D06EEE0446A88296D9AF7592FCC",1,"01990a9a-945e-73e1-afbe-ccc83cd3cf42","01990a83-7673-7c0c-a792-bbd8fbbaf673","2025-09-02_08h27.11.250",NA,NA,712.9987,712.9987,712.9987,713.3485,NA,NA,NA,NA,NA,NA,NA,TRUE,1,2.88,709.9999,712.9986,NA,NA,NA,NA,NA,40,40,0,59,59,51,1,2,60,"binary"
"2E319D06EEE0446A88296D9AF7592FCC",1,"01990a9a-945e-73e1-afbe-ccc83cd3cf42","01990a83-7673-7c0c-a792-bbd8fbbaf673","2025-09-02_08h27.11.250",NA,NA,716.3487,716.3487,716.3487,716.6987,NA,NA,NA,NA,NA,NA,NA,TRUE,1,0.9238,713.3495,716.3486,NA,NA,NA,NA,NA,150,31,0,60,60,90,1,2,61,"binary"
"2E319D06EEE0446A88296D9AF7592FCC",1,"01990a9a-945e-73e1-afbe-ccc83cd3cf42","01990a83-7673-7c0c-a792-bbd8fbbaf673","2025-09-02_08h27.11.250",NA,NA,719.6987,719.6988,719.6988,720.0486,NA,NA,NA,NA,NA,NA,NA,TRUE,1,0.3273,716.6999,719.6986,NA,NA,NA,NA,NA,7,25,0,61,61,0,1,2,62,"binary"
"2E319D06EEE0446A88296D9AF7592FCC",1,"01990a9a-945e-73e1-afbe-ccc83cd3cf42","01990a83-7673-7c0c-a792-bbd8fbbaf673","2025-09-02_08h27.11.250",NA,NA,723.0488,723.0488,723.0488,723.3986,NA,NA,NA,NA,NA,NA,NA,TRUE,1,0.7861,720.0498,723.0486,NA,NA,NA,NA,NA,45,46,0,62,62,59,1,2,63,"binary"
"2E319D06EEE0446A88296D9AF7592FCC",1,"01990a9a-945e-73e1-afbe-ccc83cd3cf42","01990a83-7673-7c0c-a792-bbd8fbbaf673","2025-09-02_08h27.11.250",NA,NA,726.3988,726.3988,726.3988,726.7487,NA,NA,NA,NA,NA,NA,NA,TRUE,1,0.7733,723.3997,726.3987,NA,NA,NA,NA,NA,100,54,0,63,63,89,1,2,64,"binary"
"2E319D06EEE0446A88296D9AF7592FCC",1,"01990a9a-945e-73e1-afbe-ccc83cd3cf42","01990a83-7673-7c0c-a792-bbd8fbbaf673","2025-09-02_08h27.11.250",NA,NA,729.7487,729.7487,729.7488,730.0986,NA,NA,NA,NA,NA,NA,NA,TRUE,1,0.7639,726.7499,729.7486,NA,NA,NA,NA,NA,21,27,0,64,64,25,1,2,65,"binary"
"2E319D06EEE0446A88296D9AF7592FCC",1,"01990a9a-945e-73e1-afbe-ccc83cd3cf42","01990a83-7673-7c0c-a792-bbd8fbbaf673","2025-09-02_08h27.11.250",NA,NA,733.0989,733.0989,733.0989,733.4487,NA,NA,NA,NA,NA,NA,NA,TRUE,1,0.7713,730.0999,733.0988,NA,NA,NA,NA,NA,95,33,0,65,65,79,1,2,66,"binary"
"2E319D06EEE0446A88296D9AF7592FCC",1,"01990a9a-945e-73e1-afbe-ccc83cd3cf42","01990a83-7673-7c0c-a792-bbd8fbbaf673","2025-09-02_08h27.11.250",NA,NA,736.4487,736.4488,736.4488,736.7986,NA,NA,NA,NA,NA,NA,NA,TRUE,1,0.9237,733.4499,736.4486,NA,NA,NA,NA,NA,45,31,0,66,66,56,1,2,67,"binary"
"2E319D06EEE0446A88296D9AF7592FCC",1,"01990a9a-945e-73e1-afbe-ccc83cd3cf42","01990a83-7673-7c0c-a792-bbd8fbbaf673","2025-09-02_08h27.11.250",NA,NA,739.7987,740.0486,740.0486,740.1486,NA,NA,NA,NA,NA,NA,NA,FALSE,NA,NA,736.7998,739.7986,NA,NA,NA,NA,NA,10,25,0,67,67,6,1,2,68,"binary"
"2E319D06EEE0446A88296D9AF7592FCC",1,"01990a9a-945e-73e1-afbe-ccc83cd3cf42","01990a83-7673-7c0c-a792-bbd8fbbaf673","2025-09-02_08h27.11.250",NA,NA,743.1487,743.3986,743.3986,743.4986,NA,NA,NA,NA,NA,NA,NA,FALSE,NA,NA,740.1498,743.1486,NA,NA,NA,NA,NA,25,29,0,68,68,31,1,2,69,"binary"
"2E319D06EEE0446A88296D9AF7592FCC",1,"01990a9a-945e-73e1-afbe-ccc83cd3cf42","01990a83-7673-7c0c-a792-bbd8fbbaf673","2025-09-02_08h27.11.250",NA,NA,746.4989,746.4989,746.4989,746.8486,NA,NA,NA,NA,NA,NA,NA,TRUE,1,0.3637,743.4998,746.4987,NA,NA,NA,NA,NA,90,30,0,69,69,73,1,2,70,"binary"
"2E319D06EEE0446A88296D9AF7592FCC",1,"01990a9a-945e-73e1-afbe-ccc83cd3cf42","01990a83-7673-7c0c-a792-bbd8fbbaf673","2025-09-02_08h27.11.250",NA,NA,749.8491,749.8492,749.8492,750.1986,NA,NA,NA,NA,NA,NA,NA,TRUE,2,0.9719,746.8496,749.849,NA,NA,NA,NA,NA,14,26,0,70,70,19,1,2,71,"binary"
"2E319D06EEE0446A88296D9AF7592FCC",1,"01990a9a-945e-73e1-afbe-ccc83cd3cf42","01990a83-7673-7c0c-a792-bbd8fbbaf673","2025-09-02_08h27.11.250",NA,NA,753.1988,753.4485,753.4486,753.5486,NA,NA,NA,NA,NA,NA,NA,FALSE,NA,NA,750.1999,753.1987,NA,NA,NA,NA,NA,12,26,0,71,71,13,1,2,72,"binary"
"2E319D06EEE0446A88296D9AF7592FCC",1,"01990a9a-945e-73e1-afbe-ccc83cd3cf42","01990a83-7673-7c0c-a792-bbd8fbbaf673","2025-09-02_08h27.11.250",NA,NA,756.5487,756.5488,756.5488,756.8986,NA,NA,NA,NA,NA,NA,NA,TRUE,1,2.8977,753.5496,756.5486,NA,NA,NA,NA,NA,45,29,0,72,72,55,1,2,73,"binary"
"2E319D06EEE0446A88296D9AF7592FCC",1,"01990a9a-945e-73e1-afbe-ccc83cd3cf42","01990a83-7673-7c0c-a792-bbd8fbbaf673","2025-09-02_08h27.11.250",NA,NA,759.8987,759.8987,759.8987,760.2486,NA,NA,NA,NA,NA,NA,NA,TRUE,1,2.7802,756.8998,759.8986,NA,NA,NA,NA,NA,10,26,0,73,73,7,1,2,74,"binary"
"2E319D06EEE0446A88296D9AF7592FCC",1,"01990a9a-945e-73e1-afbe-ccc83cd3cf42","01990a83-7673-7c0c-a792-bbd8fbbaf673","2025-09-02_08h27.11.250",NA,NA,763.2488,763.2488,763.2488,763.5986,NA,NA,NA,NA,NA,NA,NA,TRUE,1,0.6666,760.2497,763.2486,NA,NA,NA,NA,NA,60,29,0,74,74,66,1,2,75,"binary"
"2E319D06EEE0446A88296D9AF7592FCC",1,"01990a9a-945e-73e1-afbe-ccc83cd3cf42","01990a83-7673-7c0c-a792-bbd8fbbaf673","2025-09-02_08h27.11.250",NA,NA,766.5988,766.8486,766.8486,766.9488,NA,NA,NA,NA,NA,NA,NA,FALSE,NA,NA,763.5998,766.5986,NA,NA,NA,NA,NA,50,30,0,75,75,61,1,2,76,"binary"
"2E319D06EEE0446A88296D9AF7592FCC",1,"01990a9a-945e-73e1-afbe-ccc83cd3cf42","01990a83-7673-7c0c-a792-bbd8fbbaf673","2025-09-02_08h27.11.250",NA,NA,769.9487,769.9488,769.9488,770.2986,NA,NA,NA,NA,NA,NA,NA,TRUE,1,0.5901,766.9495,769.9487,NA,NA,NA,NA,NA,90,40,0,76,76,75,1,2,77,"binary"
"2E319D06EEE0446A88296D9AF7592FCC",1,"01990a9a-945e-73e1-afbe-ccc83cd3cf42","01990a83-7673-7c0c-a792-bbd8fbbaf673","2025-09-02_08h27.11.250",NA,NA,773.2987,773.2987,773.2987,773.6486,NA,NA,NA,NA,NA,NA,NA,TRUE,1,0.5245,770.2999,773.2986,NA,NA,NA,NA,NA,150,35,0,77,77,92,1,2,78,"binary"
"2E319D06EEE0446A88296D9AF7592FCC",1,"01990a9a-945e-73e1-afbe-ccc83cd3cf42","01990a83-7673-7c0c-a792-bbd8fbbaf673","2025-09-02_08h27.11.250",NA,NA,776.6486,776.6486,776.6487,776.9985,NA,NA,NA,NA,NA,NA,NA,TRUE,1,2.9867,773.6498,776.6486,NA,NA,NA,NA,NA,12,25,0,78,78,12,1,2,79,"binary"
"2E319D06EEE0446A88296D9AF7592FCC",1,"01990a9a-945e-73e1-afbe-ccc83cd3cf42","01990a83-7673-7c0c-a792-bbd8fbbaf673","2025-09-02_08h27.11.250",NA,NA,779.9989,780.2486,780.2486,780.3486,NA,NA,NA,NA,NA,NA,NA,FALSE,NA,NA,776.9995,779.9988,NA,NA,NA,NA,NA,21,30,0,79,79,27,1,2,80,"binary"
"2E319D06EEE0446A88296D9AF7592FCC",1,"01990a9a-945e-73e1-afbe-ccc83cd3cf42","01990a83-7673-7c0c-a792-bbd8fbbaf673","2025-09-02_08h27.11.250",NA,NA,783.3488,783.3488,783.3489,783.6986,NA,NA,NA,NA,NA,NA,NA,TRUE,1,0.2099,780.3495,783.3487,NA,NA,NA,NA,NA,50,54,0,80,80,65,1,2,81,"binary"
"2E319D06EEE0446A88296D9AF7592FCC",1,"01990a9a-945e-73e1-afbe-ccc83cd3cf42","01990a83-7673-7c0c-a792-bbd8fbbaf673","2025-09-02_08h27.11.250",NA,NA,786.6987,786.6988,786.6988,787.0486,NA,NA,NA,NA,NA,NA,NA,TRUE,1,0.3469,783.7,786.6987,NA,NA,NA,NA,NA,7,32,0,81,81,4,1,2,82,"binary"
"2E319D06EEE0446A88296D9AF7592FCC",1,"01990a9a-945e-73e1-afbe-ccc83cd3cf42","01990a83-7673-7c0c-a792-bbd8fbbaf673","2025-09-02_08h27.11.250",NA,NA,790.0487,790.0487,790.0487,790.3987,NA,NA,NA,NA,NA,NA,NA,TRUE,1,0.7769,787.0493,790.0486,NA,NA,NA,NA,NA,180,54,0,82,82,101,1,2,83,"binary"
"2E319D06EEE0446A88296D9AF7592FCC",1,"01990a9a-945e-73e1-afbe-ccc83cd3cf42","01990a83-7673-7c0c-a792-bbd8fbbaf673","2025-09-02_08h27.11.250",NA,NA,793.3987,793.3988,793.3988,793.7488,NA,NA,NA,NA,NA,NA,NA,TRUE,1,0.6969,790.4002,793.3987,NA,NA,NA,NA,NA,200,47,0,83,83,106,1,2,84,"binary"
"2E319D06EEE0446A88296D9AF7592FCC",1,"01990a9a-945e-73e1-afbe-ccc83cd3cf42","01990a83-7673-7c0c-a792-bbd8fbbaf673","2025-09-02_08h27.11.250",NA,NA,796.7487,796.7487,796.7487,797.0986,NA,NA,NA,NA,NA,NA,NA,TRUE,1,0.5859,793.7498,796.7487,NA,NA,NA,NA,NA,180,27,0,84,84,96,1,2,85,"binary"
"2E319D06EEE0446A88296D9AF7592FCC",1,"01990a9a-945e-73e1-afbe-ccc83cd3cf42","01990a83-7673-7c0c-a792-bbd8fbbaf673","2025-09-02_08h27.11.250",NA,NA,800.0987,800.0988,800.0988,800.4486,NA,NA,NA,NA,NA,NA,NA,TRUE,1,1.9917,797.0997,800.0987,NA,NA,NA,NA,NA,200,28,0,85,85,103,1,2,86,"binary"
"2E319D06EEE0446A88296D9AF7592FCC",1,"01990a9a-945e-73e1-afbe-ccc83cd3cf42","01990a83-7673-7c0c-a792-bbd8fbbaf673","2025-09-02_08h27.11.250",NA,NA,803.4488,803.6989,803.6989,803.7986,NA,NA,NA,NA,NA,NA,NA,FALSE,NA,NA,800.4498,803.4487,NA,NA,NA,NA,NA,95,40,0,86,86,81,1,2,87,"binary"
"2E319D06EEE0446A88296D9AF7592FCC",1,"01990a9a-945e-73e1-afbe-ccc83cd3cf42","01990a83-7673-7c0c-a792-bbd8fbbaf673","2025-09-02_08h27.11.250",NA,NA,806.7987,806.7988,806.7988,807.1487,NA,NA,NA,NA,NA,NA,NA,TRUE,1,0.5807,803.7997,806.7986,NA,NA,NA,NA,NA,90,46,0,87,87,76,1,2,88,"binary"
"2E319D06EEE0446A88296D9AF7592FCC",1,"01990a9a-945e-73e1-afbe-ccc83cd3cf42","01990a83-7673-7c0c-a792-bbd8fbbaf673","2025-09-02_08h27.11.250",NA,NA,810.1489,810.1489,810.1489,810.4986,NA,NA,NA,NA,NA,NA,NA,TRUE,1,0.3048,807.1499,810.1488,NA,NA,NA,NA,NA,90,33,0,88,88,74,1,2,89,"binary"
"2E319D06EEE0446A88296D9AF7592FCC",1,"01990a9a-945e-73e1-afbe-ccc83cd3cf42","01990a83-7673-7c0c-a792-bbd8fbbaf673","2025-09-02_08h27.11.250",NA,NA,813.4987,813.4987,813.4987,813.8486,NA,NA,NA,NA,NA,NA,NA,TRUE,1,0.2844,810.4998,813.4985,NA,NA,NA,NA,NA,45,40,0,89,89,58,1,2,90,"binary"
"2E319D06EEE0446A88296D9AF7592FCC",1,"01990a9a-945e-73e1-afbe-ccc83cd3cf42","01990a83-7673-7c0c-a792-bbd8fbbaf673","2025-09-02_08h27.11.250",NA,NA,816.849,816.849,816.849,817.1986,NA,NA,NA,NA,NA,NA,NA,TRUE,1,0.3476,813.8493,816.8489,NA,NA,NA,NA,NA,200,39,0,90,90,105,1,2,91,"binary"
"2E319D06EEE0446A88296D9AF7592FCC",1,"01990a9a-945e-73e1-afbe-ccc83cd3cf42","01990a83-7673-7c0c-a792-bbd8fbbaf673","2025-09-02_08h27.11.250",NA,NA,820.1987,820.1988,820.1988,820.5486,NA,NA,NA,NA,NA,NA,NA,TRUE,1,0.2673,817.1997,820.1987,NA,NA,NA,NA,NA,28,26,0,91,91,36,1,2,92,"binary"
"2E319D06EEE0446A88296D9AF7592FCC",1,"01990a9a-945e-73e1-afbe-ccc83cd3cf42","01990a83-7673-7c0c-a792-bbd8fbbaf673","2025-09-02_08h27.11.250",NA,NA,823.5488,823.5488,823.5488,823.8986,NA,NA,NA,NA,NA,NA,NA,TRUE,1,2.8197,820.5496,823.5486,NA,NA,NA,NA,NA,200,35,0,92,92,104,1,2,93,"binary"
"2E319D06EEE0446A88296D9AF7592FCC",1,"01990a9a-945e-73e1-afbe-ccc83cd3cf42","01990a83-7673-7c0c-a792-bbd8fbbaf673","2025-09-02_08h27.11.250",NA,NA,826.8987,827.1485,827.1486,827.2486,NA,NA,NA,NA,NA,NA,NA,FALSE,NA,NA,823.8999,826.8986,NA,NA,NA,NA,NA,14,39,0,93,93,23,1,2,94,"binary"
"2E319D06EEE0446A88296D9AF7592FCC",1,"01990a9a-945e-73e1-afbe-ccc83cd3cf42","01990a83-7673-7c0c-a792-bbd8fbbaf673","2025-09-02_08h27.11.250",NA,NA,830.2488,830.2488,830.2488,830.5986,NA,NA,NA,NA,NA,NA,NA,TRUE,1,1.4475,827.2499,830.2487,NA,NA,NA,NA,NA,28,35,0,94,94,39,1,2,95,"binary"
"2E319D06EEE0446A88296D9AF7592FCC",1,"01990a9a-945e-73e1-afbe-ccc83cd3cf42","01990a83-7673-7c0c-a792-bbd8fbbaf673","2025-09-02_08h27.11.250",NA,NA,833.5986,833.8486,833.8486,833.9486,NA,NA,NA,NA,NA,NA,NA,FALSE,NA,NA,830.5997,833.5985,NA,NA,NA,NA,NA,100,38,0,95,95,86,1,2,96,"binary"
"2E319D06EEE0446A88296D9AF7592FCC",1,"01990a9a-945e-73e1-afbe-ccc83cd3cf42","01990a83-7673-7c0c-a792-bbd8fbbaf673","2025-09-02_08h27.11.250",NA,NA,836.9486,836.9487,836.9487,837.2986,NA,NA,NA,NA,NA,NA,NA,TRUE,1,0.8308,833.9497,836.9486,NA,NA,NA,NA,NA,12,28,0,96,96,14,1,2,97,"binary"
"2E319D06EEE0446A88296D9AF7592FCC",1,"01990a9a-945e-73e1-afbe-ccc83cd3cf42","01990a83-7673-7c0c-a792-bbd8fbbaf673","2025-09-02_08h27.11.250",NA,NA,840.2987,840.2987,840.2987,840.6487,NA,NA,NA,NA,NA,NA,NA,TRUE,1,2.1348,837.3004,840.2986,NA,NA,NA,NA,NA,7,26,0,97,97,1,1,2,98,"binary"
"2E319D06EEE0446A88296D9AF7592FCC",1,"01990a9a-945e-73e1-afbe-ccc83cd3cf42","01990a83-7673-7c0c-a792-bbd8fbbaf673","2025-09-02_08h27.11.250",NA,NA,843.6487,843.6487,843.6487,843.9987,NA,NA,NA,NA,NA,NA,NA,TRUE,1,2.9173,840.6504,843.6485,NA,NA,NA,NA,NA,40,47,0,98,98,52,1,2,99,"binary"
"2E319D06EEE0446A88296D9AF7592FCC",1,"01990a9a-945e-73e1-afbe-ccc83cd3cf42","01990a83-7673-7c0c-a792-bbd8fbbaf673","2025-09-02_08h27.11.250",NA,NA,846.9989,846.999,846.999,847.3488,NA,NA,NA,NA,NA,NA,NA,TRUE,1,2.1248,844.0001,846.9988,NA,NA,NA,NA,NA,12,35,0,99,99,17,1,2,100,"binary"
"2E319D06EEE0446A88296D9AF7592FCC",1,"01990a9a-945e-73e1-afbe-ccc83cd3cf42","01990a83-7673-7c0c-a792-bbd8fbbaf673","2025-09-02_08h27.11.250",NA,NA,850.3487,850.3487,850.3487,850.6987,NA,NA,NA,NA,NA,NA,NA,TRUE,1,0.4328,847.3499,850.3486,NA,NA,NA,NA,NA,12,33,0,100,100,16,1,2,101,"binary"
"2E319D06EEE0446A88296D9AF7592FCC",1,"01990a9a-945e-73e1-afbe-ccc83cd3cf42","01990a83-7673-7c0c-a792-bbd8fbbaf673","2025-09-02_08h27.11.250",NA,NA,853.6987,853.6987,853.6987,854.0488,NA,NA,NA,NA,NA,NA,NA,TRUE,1,0.098,850.6995,853.6986,NA,NA,NA,NA,NA,21,38,0,101,101,29,1,2,102,"binary"
"2E319D06EEE0446A88296D9AF7592FCC",1,"01990a9a-945e-73e1-afbe-ccc83cd3cf42","01990a83-7673-7c0c-a792-bbd8fbbaf673","2025-09-02_08h27.11.250",NA,NA,857.0486,857.0487,857.0487,857.3986,NA,NA,NA,NA,NA,NA,NA,TRUE,1,1.8806,854.0497,857.0485,NA,NA,NA,NA,NA,45,35,0,102,102,57,1,2,103,"binary"
"2E319D06EEE0446A88296D9AF7592FCC",1,"01990a9a-945e-73e1-afbe-ccc83cd3cf42","01990a83-7673-7c0c-a792-bbd8fbbaf673","2025-09-02_08h27.11.250",NA,NA,860.3987,860.3987,860.3988,860.7487,NA,NA,NA,NA,NA,NA,NA,TRUE,1,1.8969,857.3996,860.3986,NA,NA,NA,NA,NA,50,46,0,103,103,64,1,2,104,"binary"
"2E319D06EEE0446A88296D9AF7592FCC",1,"01990a9a-945e-73e1-afbe-ccc83cd3cf42","01990a83-7673-7c0c-a792-bbd8fbbaf673","2025-09-02_08h27.11.250",NA,NA,863.7486,863.7486,863.7487,864.0986,NA,NA,NA,NA,NA,NA,NA,TRUE,1,2.0857,860.7501,863.7486,NA,NA,NA,NA,NA,180,39,0,104,104,99,1,2,105,"binary"
"2E319D06EEE0446A88296D9AF7592FCC",1,"01990a9a-945e-73e1-afbe-ccc83cd3cf42","01990a83-7673-7c0c-a792-bbd8fbbaf673","2025-09-02_08h27.11.250",NA,NA,867.0987,867.0987,867.0987,867.4487,NA,NA,NA,NA,NA,NA,NA,TRUE,1,0.5662,864.0995,867.0986,NA,NA,NA,NA,NA,50,40,0,105,105,63,1,2,106,"binary"
"2E319D06EEE0446A88296D9AF7592FCC",1,"01990a9a-945e-73e1-afbe-ccc83cd3cf42","01990a83-7673-7c0c-a792-bbd8fbbaf673","2025-09-02_08h27.11.250",NA,NA,870.4487,870.4487,870.4488,870.7987,NA,NA,NA,NA,NA,NA,NA,TRUE,1,0.3196,867.4499,870.4487,NA,NA,NA,NA,NA,30,29,0,106,106,44,1,2,107,"binary"
"2E319D06EEE0446A88296D9AF7592FCC",1,"01990a9a-945e-73e1-afbe-ccc83cd3cf42","01990a83-7673-7c0c-a792-bbd8fbbaf673","2025-09-02_08h27.11.250",NA,NA,873.7987,873.7987,873.7987,874.1486,NA,NA,NA,NA,NA,NA,NA,TRUE,1,0.3299,870.7996,873.7986,NA,NA,NA,NA,NA,30,27,0,107,107,43,1,2,108,"binary"
