"participant","session","assignmentId","projectId","date","practiceTrial.started","practiceTrial.stopped","tooLate.started","tooLate.stopped","blank.started","blank.stopped","trials_pract.thisRepN","trials_pract.thisTrialN","trials_pract.thisN","trials_pract.thisIndex","trials_pract.ran","delay_pract","amount_pract","responseMade","key","rt","trial.started","trial.stopped","trials.thisRepN","trials.thisTrialN","trials.thisN","trials.thisIndex","trials.ran","delay","amount","trials_2.thisRepN","trials_2.thisTrialN","trials_2.thisN","trials_2.thisIndex","trials_2.ran","block","trial","taskType"
"33FCE3ABA3FB4238B7C94E6ACED38599",1,"01990adb-cbc1-7084-bee2-c6591f112c2d","01990a83-7673-7c0c-a792-bbd8fbbaf673","2025-09-02_09h49.08.755",50.6824,53.6559,53.6564,53.9063,53.9065,54.0065,0,0,0,0,1,7,30,FALSE,NA,NA,NA,NA,NA,NA,NA,NA,NA,NA,NA,NA,NA,NA,NA,NA,0,1,"binary"
"33FCE3ABA3FB4238B7C94E6ACED38599",1,"01990adb-cbc1-7084-bee2-c6591f112c2d","01990a83-7673-7c0c-a792-bbd8fbbaf673","2025-09-02_09h49.08.755",54.0118,57.0062,57.0065,57.0066,57.0066,57.3561,0,1,1,4,1,30,40,TRUE,2,2.9334,NA,NA,NA,NA,NA,NA,NA,NA,NA,NA,NA,NA,NA,NA,0,2,"binary"
"33FCE3ABA3FB4238B7C94E6ACED38599",1,"01990adb-cbc1-7084-bee2-c6591f112c2d","01990a83-7673-7c0c-a792-bbd8fbbaf673","2025-09-02_09h49.08.755",57.3582,60.3556,60.3558,60.3558,60.3559,60.7064,0,2,2,3,1,3,27,TRUE,1,2.817,NA,NA,NA,NA,NA,NA,NA,NA,NA,NA,NA,NA,NA,NA,0,3,"binary"
"33FCE3ABA3FB4238B7C94E6ACED38599",1,"01990adb-cbc1-7084-bee2-c6591f112c2d","01990a83-7673-7c0c-a792-bbd8fbbaf673","2025-09-02_09h49.08.755",60.7093,63.7062,63.7065,63.7065,63.7065,64.0556,0,3,3,2,1,14,45,TRUE,2,2.2819,NA,NA,NA,NA,NA,NA,NA,NA,NA,NA,NA,NA,NA,NA,0,4,"binary"
"33FCE3ABA3FB4238B7C94E6ACED38599",1,"01990adb-cbc1-7084-bee2-c6591f112c2d","01990a83-7673-7c0c-a792-bbd8fbbaf673","2025-09-02_09h49.08.755",64.0571,67.0555,67.0556,67.0556,67.0556,67.4056,0,4,4,1,1,100,50,TRUE,1,1.8795,NA,NA,NA,NA,NA,NA,NA,NA,NA,NA,NA,NA,NA,NA,0,5,"binary"
"33FCE3ABA3FB4238B7C94E6ACED38599",1,"01990adb-cbc1-7084-bee2-c6591f112c2d","01990a83-7673-7c0c-a792-bbd8fbbaf673","2025-09-02_09h49.08.755",NA,NA,98.7231,98.7232,98.7233,99.0722,NA,NA,NA,NA,NA,NA,NA,TRUE,1,2.0953,95.7483,98.7227,0,0,0,11,1,10,32,NA,NA,NA,NA,NA,1,1,"binary"
"33FCE3ABA3FB4238B7C94E6ACED38599",1,"01990adb-cbc1-7084-bee2-c6591f112c2d","01990a83-7673-7c0c-a792-bbd8fbbaf673","2025-09-02_09h49.08.755",NA,NA,102.0723,102.0724,102.0724,102.4222,NA,NA,NA,NA,NA,NA,NA,TRUE,1,2.5986,99.0754,102.0722,0,1,1,44,1,30,29,NA,NA,NA,NA,NA,1,2,"binary"
"33FCE3ABA3FB4238B7C94E6ACED38599",1,"01990adb-cbc1-7084-bee2-c6591f112c2d","01990a83-7673-7c0c-a792-bbd8fbbaf673","2025-09-02_09h49.08.755",NA,NA,105.4224,105.4225,105.4225,105.7722,NA,NA,NA,NA,NA,NA,NA,TRUE,1,1.6926,102.4236,105.4222,0,2,2,27,1,21,30,NA,NA,NA,NA,NA,1,3,"binary"
"33FCE3ABA3FB4238B7C94E6ACED38599",1,"01990adb-cbc1-7084-bee2-c6591f112c2d","01990a83-7673-7c0c-a792-bbd8fbbaf673","2025-09-02_09h49.08.755",NA,NA,108.7727,108.7727,108.7727,109.1224,NA,NA,NA,NA,NA,NA,NA,TRUE,1,1.3567,105.7735,108.7726,0,3,3,58,1,45,40,NA,NA,NA,NA,NA,1,4,"binary"
"33FCE3ABA3FB4238B7C94E6ACED38599",1,"01990adb-cbc1-7084-bee2-c6591f112c2d","01990a83-7673-7c0c-a792-bbd8fbbaf673","2025-09-02_09h49.08.755",NA,NA,112.1222,112.1222,112.1222,112.4729,NA,NA,NA,NA,NA,NA,NA,TRUE,1,2.7862,109.1243,112.1221,0,4,4,106,1,200,47,NA,NA,NA,NA,NA,1,5,"binary"
"33FCE3ABA3FB4238B7C94E6ACED38599",1,"01990adb-cbc1-7084-bee2-c6591f112c2d","01990a83-7673-7c0c-a792-bbd8fbbaf673","2025-09-02_09h49.08.755",NA,NA,115.4731,115.4731,115.4732,115.822,NA,NA,NA,NA,NA,NA,NA,TRUE,1,1.7673,112.4756,115.4728,0,5,5,74,1,90,33,NA,NA,NA,NA,NA,1,6,"binary"
"33FCE3ABA3FB4238B7C94E6ACED38599",1,"01990adb-cbc1-7084-bee2-c6591f112c2d","01990a83-7673-7c0c-a792-bbd8fbbaf673","2025-09-02_09h49.08.755",NA,NA,118.8229,118.8229,118.823,119.1727,NA,NA,NA,NA,NA,NA,NA,TRUE,1,1.6723,115.8233,118.8227,0,6,6,32,1,25,31,NA,NA,NA,NA,NA,1,7,"binary"
"33FCE3ABA3FB4238B7C94E6ACED38599",1,"01990adb-cbc1-7084-bee2-c6591f112c2d","01990a83-7673-7c0c-a792-bbd8fbbaf673","2025-09-02_09h49.08.755",NA,NA,122.1734,122.4219,122.422,122.5221,NA,NA,NA,NA,NA,NA,NA,FALSE,NA,NA,119.1752,122.1732,0,7,7,30,1,25,27,NA,NA,NA,NA,NA,1,8,"binary"
"33FCE3ABA3FB4238B7C94E6ACED38599",1,"01990adb-cbc1-7084-bee2-c6591f112c2d","01990a83-7673-7c0c-a792-bbd8fbbaf673","2025-09-02_09h49.08.755",NA,NA,125.5224,125.5224,125.5224,125.8724,NA,NA,NA,NA,NA,NA,NA,TRUE,1,1.2762,122.5239,125.5221,0,8,8,56,1,45,31,NA,NA,NA,NA,NA,1,9,"binary"
"33FCE3ABA3FB4238B7C94E6ACED38599",1,"01990adb-cbc1-7084-bee2-c6591f112c2d","01990a83-7673-7c0c-a792-bbd8fbbaf673","2025-09-02_09h49.08.755",NA,NA,128.8721,128.8722,128.8722,129.2222,NA,NA,NA,NA,NA,NA,NA,TRUE,1,1.1921,125.8767,128.872,0,9,9,42,1,30,26,NA,NA,NA,NA,NA,1,10,"binary"
"33FCE3ABA3FB4238B7C94E6ACED38599",1,"01990adb-cbc1-7084-bee2-c6591f112c2d","01990a83-7673-7c0c-a792-bbd8fbbaf673","2025-09-02_09h49.08.755",NA,NA,132.2228,132.2228,132.2228,132.572,NA,NA,NA,NA,NA,NA,NA,TRUE,1,1.1734,129.2235,132.2226,0,10,10,91,1,150,33,NA,NA,NA,NA,NA,1,11,"binary"
"33FCE3ABA3FB4238B7C94E6ACED38599",1,"01990adb-cbc1-7084-bee2-c6591f112c2d","01990a83-7673-7c0c-a792-bbd8fbbaf673","2025-09-02_09h49.08.755",NA,NA,135.5726,135.5726,135.5727,135.9226,NA,NA,NA,NA,NA,NA,NA,TRUE,1,1.1349,132.5733,135.5725,0,11,11,95,1,150,54,NA,NA,NA,NA,NA,1,12,"binary"
"33FCE3ABA3FB4238B7C94E6ACED38599",1,"01990adb-cbc1-7084-bee2-c6591f112c2d","01990a83-7673-7c0c-a792-bbd8fbbaf673","2025-09-02_09h49.08.755",NA,NA,138.9221,138.9221,138.9221,139.2725,NA,NA,NA,NA,NA,NA,NA,TRUE,1,1.1617,135.9251,138.9219,0,12,12,93,1,150,40,NA,NA,NA,NA,NA,1,13,"binary"
"33FCE3ABA3FB4238B7C94E6ACED38599",1,"01990adb-cbc1-7084-bee2-c6591f112c2d","01990a83-7673-7c0c-a792-bbd8fbbaf673","2025-09-02_09h49.08.755",NA,NA,142.2729,142.2729,142.2729,142.622,NA,NA,NA,NA,NA,NA,NA,TRUE,1,1.2655,139.2765,142.2727,0,13,13,57,1,45,35,NA,NA,NA,NA,NA,1,14,"binary"
"33FCE3ABA3FB4238B7C94E6ACED38599",1,"01990adb-cbc1-7084-bee2-c6591f112c2d","01990a83-7673-7c0c-a792-bbd8fbbaf673","2025-09-02_09h49.08.755",NA,NA,145.6223,145.6224,145.6224,145.9719,NA,NA,NA,NA,NA,NA,NA,TRUE,1,1.6656,142.6235,145.6222,0,14,14,53,1,40,54,NA,NA,NA,NA,NA,1,15,"binary"
"33FCE3ABA3FB4238B7C94E6ACED38599",1,"01990adb-cbc1-7084-bee2-c6591f112c2d","01990a83-7673-7c0c-a792-bbd8fbbaf673","2025-09-02_09h49.08.755",NA,NA,148.9719,148.9719,148.9719,149.3221,NA,NA,NA,NA,NA,NA,NA,TRUE,1,0.9215,145.9731,148.9718,0,15,15,67,1,60,33,NA,NA,NA,NA,NA,1,16,"binary"
"33FCE3ABA3FB4238B7C94E6ACED38599",1,"01990adb-cbc1-7084-bee2-c6591f112c2d","01990a83-7673-7c0c-a792-bbd8fbbaf673","2025-09-02_09h49.08.755",NA,NA,152.322,152.322,152.322,152.6725,NA,NA,NA,NA,NA,NA,NA,TRUE,1,0.9502,149.3232,152.3219,0,16,16,92,1,150,35,NA,NA,NA,NA,NA,1,17,"binary"
"33FCE3ABA3FB4238B7C94E6ACED38599",1,"01990adb-cbc1-7084-bee2-c6591f112c2d","01990a83-7673-7c0c-a792-bbd8fbbaf673","2025-09-02_09h49.08.755",NA,NA,155.6721,155.6721,155.6721,156.0219,NA,NA,NA,NA,NA,NA,NA,TRUE,1,0.9606,152.6751,155.672,0,17,17,84,1,100,26,NA,NA,NA,NA,NA,1,18,"binary"
"33FCE3ABA3FB4238B7C94E6ACED38599",1,"01990adb-cbc1-7084-bee2-c6591f112c2d","01990a83-7673-7c0c-a792-bbd8fbbaf673","2025-09-02_09h49.08.755",NA,NA,159.022,159.022,159.022,159.3718,NA,NA,NA,NA,NA,NA,NA,TRUE,1,0.8728,156.0232,159.0219,0,18,18,78,1,95,31,NA,NA,NA,NA,NA,1,19,"binary"
"33FCE3ABA3FB4238B7C94E6ACED38599",1,"01990adb-cbc1-7084-bee2-c6591f112c2d","01990a83-7673-7c0c-a792-bbd8fbbaf673","2025-09-02_09h49.08.755",NA,NA,162.3721,162.3721,162.3721,162.7218,NA,NA,NA,NA,NA,NA,NA,TRUE,1,1.3784,159.3729,162.372,0,19,19,4,1,7,32,NA,NA,NA,NA,NA,1,20,"binary"
"33FCE3ABA3FB4238B7C94E6ACED38599",1,"01990adb-cbc1-7084-bee2-c6591f112c2d","01990a83-7673-7c0c-a792-bbd8fbbaf673","2025-09-02_09h49.08.755",NA,NA,165.7228,165.7229,165.7229,166.0725,NA,NA,NA,NA,NA,NA,NA,TRUE,1,1.4866,162.7231,165.7227,0,20,20,26,1,21,29,NA,NA,NA,NA,NA,1,21,"binary"
"33FCE3ABA3FB4238B7C94E6ACED38599",1,"01990adb-cbc1-7084-bee2-c6591f112c2d","01990a83-7673-7c0c-a792-bbd8fbbaf673","2025-09-02_09h49.08.755",NA,NA,169.0725,169.0726,169.0726,169.4219,NA,NA,NA,NA,NA,NA,NA,TRUE,1,2.0269,166.075,169.0723,0,21,21,16,1,12,33,NA,NA,NA,NA,NA,1,22,"binary"
"33FCE3ABA3FB4238B7C94E6ACED38599",1,"01990adb-cbc1-7084-bee2-c6591f112c2d","01990a83-7673-7c0c-a792-bbd8fbbaf673","2025-09-02_09h49.08.755",NA,NA,172.4223,172.4223,172.4223,172.7727,NA,NA,NA,NA,NA,NA,NA,TRUE,1,1.2878,169.4228,172.422,0,22,22,90,1,150,31,NA,NA,NA,NA,NA,1,23,"binary"
"33FCE3ABA3FB4238B7C94E6ACED38599",1,"01990adb-cbc1-7084-bee2-c6591f112c2d","01990a83-7673-7c0c-a792-bbd8fbbaf673","2025-09-02_09h49.08.755",NA,NA,175.7725,175.7726,175.7726,176.1218,NA,NA,NA,NA,NA,NA,NA,TRUE,1,0.9467,172.7765,175.7723,0,23,23,69,1,60,40,NA,NA,NA,NA,NA,1,24,"binary"
"33FCE3ABA3FB4238B7C94E6ACED38599",1,"01990adb-cbc1-7084-bee2-c6591f112c2d","01990a83-7673-7c0c-a792-bbd8fbbaf673","2025-09-02_09h49.08.755",NA,NA,179.122,179.1221,179.1221,179.4718,NA,NA,NA,NA,NA,NA,NA,TRUE,1,1.7077,176.1232,179.1219,0,24,24,0,1,7,25,NA,NA,NA,NA,NA,1,25,"binary"
"33FCE3ABA3FB4238B7C94E6ACED38599",1,"01990adb-cbc1-7084-bee2-c6591f112c2d","01990a83-7673-7c0c-a792-bbd8fbbaf673","2025-09-02_09h49.08.755",NA,NA,182.4718,182.4719,182.4719,182.8218,NA,NA,NA,NA,NA,NA,NA,TRUE,1,1.1077,179.4733,182.4717,0,25,25,17,1,12,35,NA,NA,NA,NA,NA,1,26,"binary"
"33FCE3ABA3FB4238B7C94E6ACED38599",1,"01990adb-cbc1-7084-bee2-c6591f112c2d","01990a83-7673-7c0c-a792-bbd8fbbaf673","2025-09-02_09h49.08.755",NA,NA,185.822,185.822,185.8221,186.172,NA,NA,NA,NA,NA,NA,NA,TRUE,1,1.05,182.8234,185.822,0,26,26,22,1,14,35,NA,NA,NA,NA,NA,1,27,"binary"
"33FCE3ABA3FB4238B7C94E6ACED38599",1,"01990adb-cbc1-7084-bee2-c6591f112c2d","01990a83-7673-7c0c-a792-bbd8fbbaf673","2025-09-02_09h49.08.755",NA,NA,189.1718,189.1719,189.1719,189.5225,NA,NA,NA,NA,NA,NA,NA,TRUE,1,1.1525,186.1738,189.1717,0,27,27,47,1,30,38,NA,NA,NA,NA,NA,1,28,"binary"
"33FCE3ABA3FB4238B7C94E6ACED38599",1,"01990adb-cbc1-7084-bee2-c6591f112c2d","01990a83-7673-7c0c-a792-bbd8fbbaf673","2025-09-02_09h49.08.755",NA,NA,192.5226,192.5226,192.5226,192.8723,NA,NA,NA,NA,NA,NA,NA,TRUE,1,1.3829,189.5257,192.5224,0,28,28,49,1,40,33,NA,NA,NA,NA,NA,1,29,"binary"
"33FCE3ABA3FB4238B7C94E6ACED38599",1,"01990adb-cbc1-7084-bee2-c6591f112c2d","01990a83-7673-7c0c-a792-bbd8fbbaf673","2025-09-02_09h49.08.755",NA,NA,195.8727,195.8728,195.8728,196.2217,NA,NA,NA,NA,NA,NA,NA,TRUE,1,0.9176,192.8749,195.8726,0,29,29,21,1,14,32,NA,NA,NA,NA,NA,1,30,"binary"
"33FCE3ABA3FB4238B7C94E6ACED38599",1,"01990adb-cbc1-7084-bee2-c6591f112c2d","01990a83-7673-7c0c-a792-bbd8fbbaf673","2025-09-02_09h49.08.755",NA,NA,199.2229,199.223,199.223,199.5717,NA,NA,NA,NA,NA,NA,NA,TRUE,1,1.8028,196.2231,199.2228,0,30,30,9,1,10,29,NA,NA,NA,NA,NA,1,31,"binary"
"33FCE3ABA3FB4238B7C94E6ACED38599",1,"01990adb-cbc1-7084-bee2-c6591f112c2d","01990a83-7673-7c0c-a792-bbd8fbbaf673","2025-09-02_09h49.08.755",NA,NA,202.5719,202.5719,202.5719,202.9216,NA,NA,NA,NA,NA,NA,NA,TRUE,1,2.7383,199.5732,202.5717,0,31,31,71,1,60,54,NA,NA,NA,NA,NA,1,32,"binary"
"33FCE3ABA3FB4238B7C94E6ACED38599",1,"01990adb-cbc1-7084-bee2-c6591f112c2d","01990a83-7673-7c0c-a792-bbd8fbbaf673","2025-09-02_09h49.08.755",NA,NA,205.9218,205.9218,205.9218,206.272,NA,NA,NA,NA,NA,NA,NA,TRUE,1,1.734,202.9228,205.9216,0,32,32,15,1,12,31,NA,NA,NA,NA,NA,1,33,"binary"
"33FCE3ABA3FB4238B7C94E6ACED38599",1,"01990adb-cbc1-7084-bee2-c6591f112c2d","01990a83-7673-7c0c-a792-bbd8fbbaf673","2025-09-02_09h49.08.755",NA,NA,209.2732,209.2732,209.2733,209.6217,NA,NA,NA,NA,NA,NA,NA,TRUE,1,0.9545,206.273,209.2728,0,33,33,50,1,40,35,NA,NA,NA,NA,NA,1,34,"binary"
"33FCE3ABA3FB4238B7C94E6ACED38599",1,"01990adb-cbc1-7084-bee2-c6591f112c2d","01990a83-7673-7c0c-a792-bbd8fbbaf673","2025-09-02_09h49.08.755",NA,NA,212.6218,212.6218,212.6218,212.9716,NA,NA,NA,NA,NA,NA,NA,TRUE,1,1.0938,209.626,212.6216,0,34,34,83,1,95,54,NA,NA,NA,NA,NA,1,35,"binary"
"33FCE3ABA3FB4238B7C94E6ACED38599",1,"01990adb-cbc1-7084-bee2-c6591f112c2d","01990a83-7673-7c0c-a792-bbd8fbbaf673","2025-09-02_09h49.08.755",NA,NA,215.972,215.9721,215.9721,216.3217,NA,NA,NA,NA,NA,NA,NA,TRUE,1,1.2788,212.9743,215.9718,0,35,35,18,1,14,25,NA,NA,NA,NA,NA,1,36,"binary"
"33FCE3ABA3FB4238B7C94E6ACED38599",1,"01990adb-cbc1-7084-bee2-c6591f112c2d","01990a83-7673-7c0c-a792-bbd8fbbaf673","2025-09-02_09h49.08.755",NA,NA,219.322,219.322,219.322,219.6717,NA,NA,NA,NA,NA,NA,NA,TRUE,1,1.4512,216.3231,219.3219,0,36,36,38,1,28,32,NA,NA,NA,NA,NA,1,37,"binary"
"33FCE3ABA3FB4238B7C94E6ACED38599",1,"01990adb-cbc1-7084-bee2-c6591f112c2d","01990a83-7673-7c0c-a792-bbd8fbbaf673","2025-09-02_09h49.08.755",NA,NA,222.6717,222.6718,222.6718,223.0224,NA,NA,NA,NA,NA,NA,NA,TRUE,1,1.2179,219.6731,222.6717,0,37,37,76,1,90,46,NA,NA,NA,NA,NA,1,38,"binary"
"33FCE3ABA3FB4238B7C94E6ACED38599",1,"01990adb-cbc1-7084-bee2-c6591f112c2d","01990a83-7673-7c0c-a792-bbd8fbbaf673","2025-09-02_09h49.08.755",NA,NA,226.0219,226.0219,226.0219,226.3719,NA,NA,NA,NA,NA,NA,NA,TRUE,1,1.4787,223.0248,226.0218,0,38,38,31,1,25,29,NA,NA,NA,NA,NA,1,39,"binary"
"33FCE3ABA3FB4238B7C94E6ACED38599",1,"01990adb-cbc1-7084-bee2-c6591f112c2d","01990a83-7673-7c0c-a792-bbd8fbbaf673","2025-09-02_09h49.08.755",NA,NA,229.3719,229.3719,229.3719,229.7218,NA,NA,NA,NA,NA,NA,NA,TRUE,1,1.8339,226.3737,229.3718,0,39,39,24,1,21,26,NA,NA,NA,NA,NA,1,40,"binary"
"33FCE3ABA3FB4238B7C94E6ACED38599",1,"01990adb-cbc1-7084-bee2-c6591f112c2d","01990a83-7673-7c0c-a792-bbd8fbbaf673","2025-09-02_09h49.08.755",NA,NA,232.7223,232.7224,232.7224,233.0716,NA,NA,NA,NA,NA,NA,NA,TRUE,1,1.0004,229.723,232.7222,0,40,40,68,1,60,35,NA,NA,NA,NA,NA,1,41,"binary"
"33FCE3ABA3FB4238B7C94E6ACED38599",1,"01990adb-cbc1-7084-bee2-c6591f112c2d","01990a83-7673-7c0c-a792-bbd8fbbaf673","2025-09-02_09h49.08.755",NA,NA,236.0723,236.0724,236.0724,236.4216,NA,NA,NA,NA,NA,NA,NA,TRUE,1,1.117,233.0728,236.0721,0,41,41,60,1,50,27,NA,NA,NA,NA,NA,1,42,"binary"
"33FCE3ABA3FB4238B7C94E6ACED38599",1,"01990adb-cbc1-7084-bee2-c6591f112c2d","01990a83-7673-7c0c-a792-bbd8fbbaf673","2025-09-02_09h49.08.755",NA,NA,239.4222,239.4223,239.4223,239.7721,NA,NA,NA,NA,NA,NA,NA,TRUE,1,1.4344,236.4227,239.422,0,42,42,39,1,28,35,NA,NA,NA,NA,NA,1,43,"binary"
"33FCE3ABA3FB4238B7C94E6ACED38599",1,"01990adb-cbc1-7084-bee2-c6591f112c2d","01990a83-7673-7c0c-a792-bbd8fbbaf673","2025-09-02_09h49.08.755",NA,NA,242.7735,242.7736,242.7736,243.1214,NA,NA,NA,NA,NA,NA,NA,TRUE,1,1.0416,239.775,242.7734,0,43,43,43,1,30,27,NA,NA,NA,NA,NA,1,44,"binary"
"33FCE3ABA3FB4238B7C94E6ACED38599",1,"01990adb-cbc1-7084-bee2-c6591f112c2d","01990a83-7673-7c0c-a792-bbd8fbbaf673","2025-09-02_09h49.08.755",NA,NA,246.122,246.1221,246.1221,246.4716,NA,NA,NA,NA,NA,NA,NA,TRUE,1,1.5004,243.1228,246.1218,0,44,44,8,1,10,27,NA,NA,NA,NA,NA,1,45,"binary"
"33FCE3ABA3FB4238B7C94E6ACED38599",1,"01990adb-cbc1-7084-bee2-c6591f112c2d","01990a83-7673-7c0c-a792-bbd8fbbaf673","2025-09-02_09h49.08.755",NA,NA,249.472,249.472,249.472,249.8216,NA,NA,NA,NA,NA,NA,NA,TRUE,1,0.9659,246.473,249.4718,0,45,45,41,1,28,46,NA,NA,NA,NA,NA,1,46,"binary"
"33FCE3ABA3FB4238B7C94E6ACED38599",1,"01990adb-cbc1-7084-bee2-c6591f112c2d","01990a83-7673-7c0c-a792-bbd8fbbaf673","2025-09-02_09h49.08.755",NA,NA,252.8221,252.8222,252.8222,253.1737,NA,NA,NA,NA,NA,NA,NA,TRUE,1,1.1673,249.824,252.8218,0,46,46,48,1,40,27,NA,NA,NA,NA,NA,1,47,"binary"
"33FCE3ABA3FB4238B7C94E6ACED38599",1,"01990adb-cbc1-7084-bee2-c6591f112c2d","01990a83-7673-7c0c-a792-bbd8fbbaf673","2025-09-02_09h49.08.755",NA,NA,256.1717,256.1718,256.1718,256.5216,NA,NA,NA,NA,NA,NA,NA,TRUE,1,1.5914,253.177,256.1716,0,47,47,6,1,10,25,NA,NA,NA,NA,NA,1,48,"binary"
"33FCE3ABA3FB4238B7C94E6ACED38599",1,"01990adb-cbc1-7084-bee2-c6591f112c2d","01990a83-7673-7c0c-a792-bbd8fbbaf673","2025-09-02_09h49.08.755",NA,NA,259.5224,259.5225,259.5225,259.8715,NA,NA,NA,NA,NA,NA,NA,TRUE,1,1.151,256.5237,259.5223,0,48,48,102,1,200,26,NA,NA,NA,NA,NA,1,49,"binary"
"33FCE3ABA3FB4238B7C94E6ACED38599",1,"01990adb-cbc1-7084-bee2-c6591f112c2d","01990a83-7673-7c0c-a792-bbd8fbbaf673","2025-09-02_09h49.08.755",NA,NA,262.8725,262.8725,262.8726,263.2221,NA,NA,NA,NA,NA,NA,NA,TRUE,1,1.8512,259.8727,262.8723,0,49,49,100,1,180,46,NA,NA,NA,NA,NA,1,50,"binary"
"33FCE3ABA3FB4238B7C94E6ACED38599",1,"01990adb-cbc1-7084-bee2-c6591f112c2d","01990a83-7673-7c0c-a792-bbd8fbbaf673","2025-09-02_09h49.08.755",NA,NA,266.2216,266.2216,266.2216,266.5722,NA,NA,NA,NA,NA,NA,NA,TRUE,1,1.6409,263.2249,266.2215,0,50,50,72,1,90,26,NA,NA,NA,NA,NA,1,51,"binary"
"33FCE3ABA3FB4238B7C94E6ACED38599",1,"01990adb-cbc1-7084-bee2-c6591f112c2d","01990a83-7673-7c0c-a792-bbd8fbbaf673","2025-09-02_09h49.08.755",NA,NA,269.5721,269.5722,269.5722,269.922,NA,NA,NA,NA,NA,NA,NA,TRUE,1,1.3982,266.5745,269.572,0,51,51,7,1,10,26,NA,NA,NA,NA,NA,1,52,"binary"
"33FCE3ABA3FB4238B7C94E6ACED38599",1,"01990adb-cbc1-7084-bee2-c6591f112c2d","01990a83-7673-7c0c-a792-bbd8fbbaf673","2025-09-02_09h49.08.755",NA,NA,272.9225,272.9225,272.9225,273.2715,NA,NA,NA,NA,NA,NA,NA,TRUE,1,1.0844,269.9245,272.9223,0,52,52,55,1,45,29,NA,NA,NA,NA,NA,1,53,"binary"
"33FCE3ABA3FB4238B7C94E6ACED38599",1,"01990adb-cbc1-7084-bee2-c6591f112c2d","01990a83-7673-7c0c-a792-bbd8fbbaf673","2025-09-02_09h49.08.755",NA,NA,276.2715,276.2715,276.2715,276.6214,NA,NA,NA,NA,NA,NA,NA,TRUE,1,1.6223,273.2732,276.2713,0,53,53,14,1,12,28,NA,NA,NA,NA,NA,1,54,"binary"
"33FCE3ABA3FB4238B7C94E6ACED38599",1,"01990adb-cbc1-7084-bee2-c6591f112c2d","01990a83-7673-7c0c-a792-bbd8fbbaf673","2025-09-02_09h49.08.755",NA,NA,279.622,279.622,279.622,279.9718,NA,NA,NA,NA,NA,NA,NA,TRUE,1,0.885,276.6229,279.6218,0,54,54,20,1,14,28,NA,NA,NA,NA,NA,1,55,"binary"
"33FCE3ABA3FB4238B7C94E6ACED38599",1,"01990adb-cbc1-7084-bee2-c6591f112c2d","01990a83-7673-7c0c-a792-bbd8fbbaf673","2025-09-02_09h49.08.755",NA,NA,282.9715,282.9715,282.9715,283.322,NA,NA,NA,NA,NA,NA,NA,TRUE,1,1.7372,279.9732,282.9715,0,55,55,45,1,30,30,NA,NA,NA,NA,NA,1,56,"binary"
"33FCE3ABA3FB4238B7C94E6ACED38599",1,"01990adb-cbc1-7084-bee2-c6591f112c2d","01990a83-7673-7c0c-a792-bbd8fbbaf673","2025-09-02_09h49.08.755",NA,NA,286.3222,286.3222,286.3222,286.6721,NA,NA,NA,NA,NA,NA,NA,TRUE,1,1.495,283.3244,286.322,0,56,56,62,1,50,35,NA,NA,NA,NA,NA,1,57,"binary"
"33FCE3ABA3FB4238B7C94E6ACED38599",1,"01990adb-cbc1-7084-bee2-c6591f112c2d","01990a83-7673-7c0c-a792-bbd8fbbaf673","2025-09-02_09h49.08.755",NA,NA,289.6719,289.6719,289.6719,290.0219,NA,NA,NA,NA,NA,NA,NA,TRUE,1,1.6823,286.6745,289.6718,0,57,57,79,1,95,33,NA,NA,NA,NA,NA,1,58,"binary"
"33FCE3ABA3FB4238B7C94E6ACED38599",1,"01990adb-cbc1-7084-bee2-c6591f112c2d","01990a83-7673-7c0c-a792-bbd8fbbaf673","2025-09-02_09h49.08.755",NA,NA,293.0224,293.0224,293.0224,293.3716,NA,NA,NA,NA,NA,NA,NA,TRUE,1,1.4512,290.0242,293.0221,0,58,58,40,1,28,39,NA,NA,NA,NA,NA,1,59,"binary"
"33FCE3ABA3FB4238B7C94E6ACED38599",1,"01990adb-cbc1-7084-bee2-c6591f112c2d","01990a83-7673-7c0c-a792-bbd8fbbaf673","2025-09-02_09h49.08.755",NA,NA,296.3723,296.3724,296.3724,296.7211,NA,NA,NA,NA,NA,NA,NA,TRUE,1,1.0121,293.375,296.3721,0,59,59,88,1,100,46,NA,NA,NA,NA,NA,1,60,"binary"
"33FCE3ABA3FB4238B7C94E6ACED38599",1,"01990adb-cbc1-7084-bee2-c6591f112c2d","01990a83-7673-7c0c-a792-bbd8fbbaf673","2025-09-02_09h49.08.755",NA,NA,299.7213,299.7213,299.7213,300.0714,NA,NA,NA,NA,NA,NA,NA,TRUE,1,1.2844,296.7226,299.7212,0,60,60,87,1,100,39,NA,NA,NA,NA,NA,1,61,"binary"
"33FCE3ABA3FB4238B7C94E6ACED38599",1,"01990adb-cbc1-7084-bee2-c6591f112c2d","01990a83-7673-7c0c-a792-bbd8fbbaf673","2025-09-02_09h49.08.755",NA,NA,303.0714,303.0714,303.0714,303.4216,NA,NA,NA,NA,NA,NA,NA,TRUE,1,1.6573,300.0731,303.0713,0,61,61,66,1,60,29,NA,NA,NA,NA,NA,1,62,"binary"
"33FCE3ABA3FB4238B7C94E6ACED38599",1,"01990adb-cbc1-7084-bee2-c6591f112c2d","01990a83-7673-7c0c-a792-bbd8fbbaf673","2025-09-02_09h49.08.755",NA,NA,306.4215,306.4215,306.4215,306.7712,NA,NA,NA,NA,NA,NA,NA,TRUE,1,1.8716,303.4228,306.4214,0,62,62,107,1,200,54,NA,NA,NA,NA,NA,1,63,"binary"
"33FCE3ABA3FB4238B7C94E6ACED38599",1,"01990adb-cbc1-7084-bee2-c6591f112c2d","01990a83-7673-7c0c-a792-bbd8fbbaf673","2025-09-02_09h49.08.755",NA,NA,309.7721,309.7721,309.7721,310.1219,NA,NA,NA,NA,NA,NA,NA,TRUE,1,1.4223,306.7724,309.772,0,63,63,13,1,12,26,NA,NA,NA,NA,NA,1,64,"binary"
"33FCE3ABA3FB4238B7C94E6ACED38599",1,"01990adb-cbc1-7084-bee2-c6591f112c2d","01990a83-7673-7c0c-a792-bbd8fbbaf673","2025-09-02_09h49.08.755",NA,NA,313.1218,313.1218,313.1218,313.4718,NA,NA,NA,NA,NA,NA,NA,TRUE,1,2.3773,310.1242,313.1217,0,64,64,12,1,12,25,NA,NA,NA,NA,NA,1,65,"binary"
"33FCE3ABA3FB4238B7C94E6ACED38599",1,"01990adb-cbc1-7084-bee2-c6591f112c2d","01990a83-7673-7c0c-a792-bbd8fbbaf673","2025-09-02_09h49.08.755",NA,NA,316.4721,316.4722,316.4722,316.8213,NA,NA,NA,NA,NA,NA,NA,TRUE,1,2.1664,313.4743,316.4719,0,65,65,2,1,7,28,NA,NA,NA,NA,NA,1,66,"binary"
"33FCE3ABA3FB4238B7C94E6ACED38599",1,"01990adb-cbc1-7084-bee2-c6591f112c2d","01990a83-7673-7c0c-a792-bbd8fbbaf673","2025-09-02_09h49.08.755",NA,NA,319.8219,319.8219,319.822,320.1714,NA,NA,NA,NA,NA,NA,NA,TRUE,2,2.0221,316.8228,319.8218,0,66,66,3,1,7,30,NA,NA,NA,NA,NA,1,67,"binary"
"33FCE3ABA3FB4238B7C94E6ACED38599",1,"01990adb-cbc1-7084-bee2-c6591f112c2d","01990a83-7673-7c0c-a792-bbd8fbbaf673","2025-09-02_09h49.08.755",NA,NA,323.1713,323.1713,323.1713,323.5212,NA,NA,NA,NA,NA,NA,NA,TRUE,1,1.5226,320.1729,323.1712,0,67,67,25,1,21,27,NA,NA,NA,NA,NA,1,68,"binary"
"33FCE3ABA3FB4238B7C94E6ACED38599",1,"01990adb-cbc1-7084-bee2-c6591f112c2d","01990a83-7673-7c0c-a792-bbd8fbbaf673","2025-09-02_09h49.08.755",NA,NA,326.5214,326.5214,326.5214,326.8714,NA,NA,NA,NA,NA,NA,NA,TRUE,1,1.2925,323.5229,326.5212,0,68,68,52,1,40,47,NA,NA,NA,NA,NA,1,69,"binary"
"33FCE3ABA3FB4238B7C94E6ACED38599",1,"01990adb-cbc1-7084-bee2-c6591f112c2d","01990a83-7673-7c0c-a792-bbd8fbbaf673","2025-09-02_09h49.08.755",NA,NA,329.8716,329.8717,329.8717,330.2218,NA,NA,NA,NA,NA,NA,NA,TRUE,1,1.2211,326.8729,329.8716,0,69,69,94,1,150,47,NA,NA,NA,NA,NA,1,70,"binary"
"33FCE3ABA3FB4238B7C94E6ACED38599",1,"01990adb-cbc1-7084-bee2-c6591f112c2d","01990a83-7673-7c0c-a792-bbd8fbbaf673","2025-09-02_09h49.08.755",NA,NA,333.2221,333.2222,333.2222,333.5712,NA,NA,NA,NA,NA,NA,NA,TRUE,1,1.0327,330.2241,333.2219,0,70,70,64,1,50,46,NA,NA,NA,NA,NA,1,71,"binary"
"33FCE3ABA3FB4238B7C94E6ACED38599",1,"01990adb-cbc1-7084-bee2-c6591f112c2d","01990a83-7673-7c0c-a792-bbd8fbbaf673","2025-09-02_09h49.08.755",NA,NA,336.5717,336.5718,336.5718,336.9218,NA,NA,NA,NA,NA,NA,NA,TRUE,1,0.7242,333.5725,336.5716,0,71,71,97,1,180,31,NA,NA,NA,NA,NA,1,72,"binary"
"33FCE3ABA3FB4238B7C94E6ACED38599",1,"01990adb-cbc1-7084-bee2-c6591f112c2d","01990a83-7673-7c0c-a792-bbd8fbbaf673","2025-09-02_09h49.08.755",NA,NA,339.9212,339.9213,339.9213,340.2714,NA,NA,NA,NA,NA,NA,NA,TRUE,1,0.9685,336.9243,339.9212,0,72,72,73,1,90,30,NA,NA,NA,NA,NA,1,73,"binary"
"33FCE3ABA3FB4238B7C94E6ACED38599",1,"01990adb-cbc1-7084-bee2-c6591f112c2d","01990a83-7673-7c0c-a792-bbd8fbbaf673","2025-09-02_09h49.08.755",NA,NA,343.2714,343.2714,343.2714,343.621,NA,NA,NA,NA,NA,NA,NA,TRUE,1,1.6385,340.2736,343.2713,0,73,73,51,1,40,40,NA,NA,NA,NA,NA,1,74,"binary"
"33FCE3ABA3FB4238B7C94E6ACED38599",1,"01990adb-cbc1-7084-bee2-c6591f112c2d","01990a83-7673-7c0c-a792-bbd8fbbaf673","2025-09-02_09h49.08.755",NA,NA,346.6212,346.6212,346.6212,346.9712,NA,NA,NA,NA,NA,NA,NA,TRUE,1,1.2391,343.6225,346.6211,0,74,74,28,1,21,32,NA,NA,NA,NA,NA,1,75,"binary"
"33FCE3ABA3FB4238B7C94E6ACED38599",1,"01990adb-cbc1-7084-bee2-c6591f112c2d","01990a83-7673-7c0c-a792-bbd8fbbaf673","2025-09-02_09h49.08.755",NA,NA,349.9715,349.9715,349.9715,350.3213,NA,NA,NA,NA,NA,NA,NA,TRUE,1,0.7675,346.9725,349.9714,0,75,75,86,1,100,38,NA,NA,NA,NA,NA,1,76,"binary"
"33FCE3ABA3FB4238B7C94E6ACED38599",1,"01990adb-cbc1-7084-bee2-c6591f112c2d","01990a83-7673-7c0c-a792-bbd8fbbaf673","2025-09-02_09h49.08.755",NA,NA,353.3216,353.3217,353.3217,353.6718,NA,NA,NA,NA,NA,NA,NA,TRUE,1,2.2004,350.3227,353.3214,0,76,76,23,1,14,39,NA,NA,NA,NA,NA,1,77,"binary"
"33FCE3ABA3FB4238B7C94E6ACED38599",1,"01990adb-cbc1-7084-bee2-c6591f112c2d","01990a83-7673-7c0c-a792-bbd8fbbaf673","2025-09-02_09h49.08.755",NA,NA,356.6711,356.6712,356.6712,357.0218,NA,NA,NA,NA,NA,NA,NA,TRUE,1,1.0264,353.6746,356.6711,0,77,77,99,1,180,39,NA,NA,NA,NA,NA,1,78,"binary"
"33FCE3ABA3FB4238B7C94E6ACED38599",1,"01990adb-cbc1-7084-bee2-c6591f112c2d","01990a83-7673-7c0c-a792-bbd8fbbaf673","2025-09-02_09h49.08.755",NA,NA,360.0218,360.0219,360.0219,360.3712,NA,NA,NA,NA,NA,NA,NA,TRUE,1,1.7152,357.0241,360.0217,0,78,78,34,1,25,35,NA,NA,NA,NA,NA,1,79,"binary"
"33FCE3ABA3FB4238B7C94E6ACED38599",1,"01990adb-cbc1-7084-bee2-c6591f112c2d","01990a83-7673-7c0c-a792-bbd8fbbaf673","2025-09-02_09h49.08.755",NA,NA,363.3712,363.3712,363.3712,363.7219,NA,NA,NA,NA,NA,NA,NA,TRUE,1,1.068,360.3724,363.371,0,79,79,80,1,95,35,NA,NA,NA,NA,NA,1,80,"binary"
"33FCE3ABA3FB4238B7C94E6ACED38599",1,"01990adb-cbc1-7084-bee2-c6591f112c2d","01990a83-7673-7c0c-a792-bbd8fbbaf673","2025-09-02_09h49.08.755",NA,NA,366.7228,366.7228,366.7229,367.0711,NA,NA,NA,NA,NA,NA,NA,TRUE,1,1.6286,363.7251,366.7226,0,80,80,36,1,28,26,NA,NA,NA,NA,NA,1,81,"binary"
"33FCE3ABA3FB4238B7C94E6ACED38599",1,"01990adb-cbc1-7084-bee2-c6591f112c2d","01990a83-7673-7c0c-a792-bbd8fbbaf673","2025-09-02_09h49.08.755",NA,NA,370.0712,370.0713,370.0713,370.4209,NA,NA,NA,NA,NA,NA,NA,TRUE,1,1.2588,367.0733,370.0711,0,81,81,101,1,180,54,NA,NA,NA,NA,NA,1,82,"binary"
"33FCE3ABA3FB4238B7C94E6ACED38599",1,"01990adb-cbc1-7084-bee2-c6591f112c2d","01990a83-7673-7c0c-a792-bbd8fbbaf673","2025-09-02_09h49.08.755",NA,NA,373.4214,373.4215,373.4215,373.7712,NA,NA,NA,NA,NA,NA,NA,TRUE,1,1.2193,370.4221,373.4212,0,82,82,81,1,95,40,NA,NA,NA,NA,NA,1,83,"binary"
"33FCE3ABA3FB4238B7C94E6ACED38599",1,"01990adb-cbc1-7084-bee2-c6591f112c2d","01990a83-7673-7c0c-a792-bbd8fbbaf673","2025-09-02_09h49.08.755",NA,NA,376.7712,376.7712,376.7712,377.121,NA,NA,NA,NA,NA,NA,NA,TRUE,1,0.7167,373.7725,376.7711,0,83,83,75,1,90,40,NA,NA,NA,NA,NA,1,84,"binary"
"33FCE3ABA3FB4238B7C94E6ACED38599",1,"01990adb-cbc1-7084-bee2-c6591f112c2d","01990a83-7673-7c0c-a792-bbd8fbbaf673","2025-09-02_09h49.08.755",NA,NA,380.1213,380.1213,380.1213,380.4711,NA,NA,NA,NA,NA,NA,NA,TRUE,1,0.4687,377.1223,380.1211,0,84,84,96,1,180,27,NA,NA,NA,NA,NA,1,85,"binary"
"33FCE3ABA3FB4238B7C94E6ACED38599",1,"01990adb-cbc1-7084-bee2-c6591f112c2d","01990a83-7673-7c0c-a792-bbd8fbbaf673","2025-09-02_09h49.08.755",NA,NA,383.4717,383.4717,383.4718,383.8211,NA,NA,NA,NA,NA,NA,NA,TRUE,1,1.9746,380.4722,383.4715,0,85,85,33,1,25,33,NA,NA,NA,NA,NA,1,86,"binary"
"33FCE3ABA3FB4238B7C94E6ACED38599",1,"01990adb-cbc1-7084-bee2-c6591f112c2d","01990a83-7673-7c0c-a792-bbd8fbbaf673","2025-09-02_09h49.08.755",NA,NA,386.8213,386.8213,386.8213,387.1712,NA,NA,NA,NA,NA,NA,NA,TRUE,1,1.5046,383.8223,386.8212,0,86,86,104,1,200,35,NA,NA,NA,NA,NA,1,87,"binary"
"33FCE3ABA3FB4238B7C94E6ACED38599",1,"01990adb-cbc1-7084-bee2-c6591f112c2d","01990a83-7673-7c0c-a792-bbd8fbbaf673","2025-09-02_09h49.08.755",NA,NA,390.1711,390.1711,390.1711,390.5211,NA,NA,NA,NA,NA,NA,NA,TRUE,1,1.9507,387.1723,390.1711,0,87,87,70,1,60,47,NA,NA,NA,NA,NA,1,88,"binary"
"33FCE3ABA3FB4238B7C94E6ACED38599",1,"01990adb-cbc1-7084-bee2-c6591f112c2d","01990a83-7673-7c0c-a792-bbd8fbbaf673","2025-09-02_09h49.08.755",NA,NA,393.5215,393.5215,393.5215,393.8712,NA,NA,NA,NA,NA,NA,NA,TRUE,2,2.3401,390.5229,393.5214,0,88,88,5,1,7,35,NA,NA,NA,NA,NA,1,89,"binary"
"33FCE3ABA3FB4238B7C94E6ACED38599",1,"01990adb-cbc1-7084-bee2-c6591f112c2d","01990a83-7673-7c0c-a792-bbd8fbbaf673","2025-09-02_09h49.08.755",NA,NA,396.871,396.8711,396.8711,397.2209,NA,NA,NA,NA,NA,NA,NA,TRUE,1,1.1519,393.8725,396.8709,0,89,89,105,1,200,39,NA,NA,NA,NA,NA,1,90,"binary"
"33FCE3ABA3FB4238B7C94E6ACED38599",1,"01990adb-cbc1-7084-bee2-c6591f112c2d","01990a83-7673-7c0c-a792-bbd8fbbaf673","2025-09-02_09h49.08.755",NA,NA,400.221,400.2211,400.2211,400.5714,NA,NA,NA,NA,NA,NA,NA,TRUE,1,1.7407,397.2221,400.221,0,90,90,82,1,95,47,NA,NA,NA,NA,NA,1,91,"binary"
"33FCE3ABA3FB4238B7C94E6ACED38599",1,"01990adb-cbc1-7084-bee2-c6591f112c2d","01990a83-7673-7c0c-a792-bbd8fbbaf673","2025-09-02_09h49.08.755",NA,NA,403.5719,403.5719,403.5719,403.9217,NA,NA,NA,NA,NA,NA,NA,TRUE,1,1.7347,400.5736,403.5717,0,91,91,61,1,50,30,NA,NA,NA,NA,NA,1,92,"binary"
"33FCE3ABA3FB4238B7C94E6ACED38599",1,"01990adb-cbc1-7084-bee2-c6591f112c2d","01990a83-7673-7c0c-a792-bbd8fbbaf673","2025-09-02_09h49.08.755",NA,NA,406.9217,406.9217,406.9217,407.2715,NA,NA,NA,NA,NA,NA,NA,TRUE,1,0.8168,403.9241,406.9214,0,92,92,85,1,100,31,NA,NA,NA,NA,NA,1,93,"binary"
"33FCE3ABA3FB4238B7C94E6ACED38599",1,"01990adb-cbc1-7084-bee2-c6591f112c2d","01990a83-7673-7c0c-a792-bbd8fbbaf673","2025-09-02_09h49.08.755",NA,NA,410.2714,410.2714,410.2714,410.6211,NA,NA,NA,NA,NA,NA,NA,TRUE,1,1.2901,407.2737,410.2712,0,93,93,89,1,100,54,NA,NA,NA,NA,NA,1,94,"binary"
"33FCE3ABA3FB4238B7C94E6ACED38599",1,"01990adb-cbc1-7084-bee2-c6591f112c2d","01990a83-7673-7c0c-a792-bbd8fbbaf673","2025-09-02_09h49.08.755",NA,NA,413.6216,413.6216,413.6216,413.971,NA,NA,NA,NA,NA,NA,NA,TRUE,1,1.5182,410.6224,413.6215,0,94,94,98,1,180,35,NA,NA,NA,NA,NA,1,95,"binary"
"33FCE3ABA3FB4238B7C94E6ACED38599",1,"01990adb-cbc1-7084-bee2-c6591f112c2d","01990a83-7673-7c0c-a792-bbd8fbbaf673","2025-09-02_09h49.08.755",NA,NA,416.9712,416.9712,416.9712,417.3211,NA,NA,NA,NA,NA,NA,NA,TRUE,1,1.7372,413.9725,416.971,0,95,95,10,1,10,30,NA,NA,NA,NA,NA,1,96,"binary"
"33FCE3ABA3FB4238B7C94E6ACED38599",1,"01990adb-cbc1-7084-bee2-c6591f112c2d","01990a83-7673-7c0c-a792-bbd8fbbaf673","2025-09-02_09h49.08.755",NA,NA,420.3209,420.3209,420.3209,420.6714,NA,NA,NA,NA,NA,NA,NA,TRUE,1,0.8696,417.3227,420.3207,0,96,96,37,1,28,28,NA,NA,NA,NA,NA,1,97,"binary"
"33FCE3ABA3FB4238B7C94E6ACED38599",1,"01990adb-cbc1-7084-bee2-c6591f112c2d","01990a83-7673-7c0c-a792-bbd8fbbaf673","2025-09-02_09h49.08.755",NA,NA,423.6715,423.6715,423.6716,424.0209,NA,NA,NA,NA,NA,NA,NA,TRUE,1,0.934,420.6733,423.6712,0,97,97,29,1,21,38,NA,NA,NA,NA,NA,1,98,"binary"
"33FCE3ABA3FB4238B7C94E6ACED38599",1,"01990adb-cbc1-7084-bee2-c6591f112c2d","01990a83-7673-7c0c-a792-bbd8fbbaf673","2025-09-02_09h49.08.755",NA,NA,427.021,427.021,427.021,427.3709,NA,NA,NA,NA,NA,NA,NA,TRUE,1,0.9021,424.022,427.0209,0,98,98,35,1,25,46,NA,NA,NA,NA,NA,1,99,"binary"
"33FCE3ABA3FB4238B7C94E6ACED38599",1,"01990adb-cbc1-7084-bee2-c6591f112c2d","01990a83-7673-7c0c-a792-bbd8fbbaf673","2025-09-02_09h49.08.755",NA,NA,430.3716,430.3717,430.3717,430.7208,NA,NA,NA,NA,NA,NA,NA,TRUE,1,0.805,427.372,430.3714,0,99,99,103,1,200,28,NA,NA,NA,NA,NA,1,100,"binary"
"33FCE3ABA3FB4238B7C94E6ACED38599",1,"01990adb-cbc1-7084-bee2-c6591f112c2d","01990a83-7673-7c0c-a792-bbd8fbbaf673","2025-09-02_09h49.08.755",NA,NA,433.7215,433.7216,433.7216,434.0714,NA,NA,NA,NA,NA,NA,NA,TRUE,1,0.8093,430.722,433.7213,0,100,100,65,1,50,54,NA,NA,NA,NA,NA,1,101,"binary"
"33FCE3ABA3FB4238B7C94E6ACED38599",1,"01990adb-cbc1-7084-bee2-c6591f112c2d","01990a83-7673-7c0c-a792-bbd8fbbaf673","2025-09-02_09h49.08.755",NA,NA,437.0708,437.0708,437.0708,437.4214,NA,NA,NA,NA,NA,NA,NA,TRUE,1,1.2338,434.0737,437.0708,0,101,101,46,1,30,32,NA,NA,NA,NA,NA,1,102,"binary"
"33FCE3ABA3FB4238B7C94E6ACED38599",1,"01990adb-cbc1-7084-bee2-c6591f112c2d","01990a83-7673-7c0c-a792-bbd8fbbaf673","2025-09-02_09h49.08.755",NA,NA,440.4215,440.4215,440.4215,440.7707,NA,NA,NA,NA,NA,NA,NA,TRUE,1,1.0437,437.4243,440.4212,0,102,102,77,1,90,54,NA,NA,NA,NA,NA,1,103,"binary"
"33FCE3ABA3FB4238B7C94E6ACED38599",1,"01990adb-cbc1-7084-bee2-c6591f112c2d","01990a83-7673-7c0c-a792-bbd8fbbaf673","2025-09-02_09h49.08.755",NA,NA,443.7707,443.7707,443.7708,444.1207,NA,NA,NA,NA,NA,NA,NA,TRUE,1,0.9337,440.7719,443.7706,0,103,103,59,1,45,46,NA,NA,NA,NA,NA,1,104,"binary"
"33FCE3ABA3FB4238B7C94E6ACED38599",1,"01990adb-cbc1-7084-bee2-c6591f112c2d","01990a83-7673-7c0c-a792-bbd8fbbaf673","2025-09-02_09h49.08.755",NA,NA,447.1223,447.1223,447.1223,447.4715,NA,NA,NA,NA,NA,NA,NA,TRUE,1,1.4059,444.1219,447.1218,0,104,104,1,1,7,26,NA,NA,NA,NA,NA,1,105,"binary"
"33FCE3ABA3FB4238B7C94E6ACED38599",1,"01990adb-cbc1-7084-bee2-c6591f112c2d","01990a83-7673-7c0c-a792-bbd8fbbaf673","2025-09-02_09h49.08.755",NA,NA,450.4715,450.4715,450.4715,450.8214,NA,NA,NA,NA,NA,NA,NA,TRUE,1,0.8843,447.4738,450.4713,0,105,105,63,1,50,40,NA,NA,NA,NA,NA,1,106,"binary"
"33FCE3ABA3FB4238B7C94E6ACED38599",1,"01990adb-cbc1-7084-bee2-c6591f112c2d","01990a83-7673-7c0c-a792-bbd8fbbaf673","2025-09-02_09h49.08.755",NA,NA,453.8212,453.8212,453.8212,454.1713,NA,NA,NA,NA,NA,NA,NA,TRUE,1,1.4324,450.8239,453.8211,0,106,106,19,1,14,26,NA,NA,NA,NA,NA,1,107,"binary"
"33FCE3ABA3FB4238B7C94E6ACED38599",1,"01990adb-cbc1-7084-bee2-c6591f112c2d","01990a83-7673-7c0c-a792-bbd8fbbaf673","2025-09-02_09h49.08.755",NA,NA,457.1709,457.171,457.171,457.5207,NA,NA,NA,NA,NA,NA,NA,TRUE,1,1.5161,454.1738,457.1708,0,107,107,54,1,45,26,NA,NA,NA,NA,NA,1,108,"binary"
"33FCE3ABA3FB4238B7C94E6ACED38599",1,"01990adb-cbc1-7084-bee2-c6591f112c2d","01990a83-7673-7c0c-a792-bbd8fbbaf673","2025-09-02_09h49.08.755",NA,NA,471.2041,471.2041,471.2042,471.5545,NA,NA,NA,NA,NA,NA,NA,TRUE,1,1.9521,468.2201,471.204,NA,NA,NA,NA,NA,180,46,0,0,0,100,1,2,1,"binary"
"33FCE3ABA3FB4238B7C94E6ACED38599",1,"01990adb-cbc1-7084-bee2-c6591f112c2d","01990a83-7673-7c0c-a792-bbd8fbbaf673","2025-09-02_09h49.08.755",NA,NA,474.5543,474.5543,474.5543,474.9046,NA,NA,NA,NA,NA,NA,NA,TRUE,1,1.2756,471.558,474.5543,NA,NA,NA,NA,NA,21,29,0,1,1,26,1,2,2,"binary"
"33FCE3ABA3FB4238B7C94E6ACED38599",1,"01990adb-cbc1-7084-bee2-c6591f112c2d","01990a83-7673-7c0c-a792-bbd8fbbaf673","2025-09-02_09h49.08.755",NA,NA,477.9047,477.9047,477.9047,478.2543,NA,NA,NA,NA,NA,NA,NA,TRUE,1,1.5007,474.9069,477.9045,NA,NA,NA,NA,NA,28,35,0,2,2,39,1,2,3,"binary"
"33FCE3ABA3FB4238B7C94E6ACED38599",1,"01990adb-cbc1-7084-bee2-c6591f112c2d","01990a83-7673-7c0c-a792-bbd8fbbaf673","2025-09-02_09h49.08.755",NA,NA,481.2548,481.2548,481.2548,481.604,NA,NA,NA,NA,NA,NA,NA,TRUE,1,1.6131,478.2565,481.2546,NA,NA,NA,NA,NA,40,35,0,3,3,50,1,2,4,"binary"
"33FCE3ABA3FB4238B7C94E6ACED38599",1,"01990adb-cbc1-7084-bee2-c6591f112c2d","01990a83-7673-7c0c-a792-bbd8fbbaf673","2025-09-02_09h49.08.755",NA,NA,484.6042,484.6042,484.6042,484.9539,NA,NA,NA,NA,NA,NA,NA,TRUE,1,0.9635,481.605,484.6041,NA,NA,NA,NA,NA,7,26,0,4,4,1,1,2,5,"binary"
"33FCE3ABA3FB4238B7C94E6ACED38599",1,"01990adb-cbc1-7084-bee2-c6591f112c2d","01990a83-7673-7c0c-a792-bbd8fbbaf673","2025-09-02_09h49.08.755",NA,NA,487.9543,487.9543,487.9543,488.3043,NA,NA,NA,NA,NA,NA,NA,TRUE,1,0.73,484.9552,487.9541,NA,NA,NA,NA,NA,21,26,0,5,5,24,1,2,6,"binary"
"33FCE3ABA3FB4238B7C94E6ACED38599",1,"01990adb-cbc1-7084-bee2-c6591f112c2d","01990a83-7673-7c0c-a792-bbd8fbbaf673","2025-09-02_09h49.08.755",NA,NA,491.3045,491.3045,491.3045,491.6541,NA,NA,NA,NA,NA,NA,NA,TRUE,1,1.0134,488.3078,491.3043,NA,NA,NA,NA,NA,30,32,0,6,6,46,1,2,7,"binary"
"33FCE3ABA3FB4238B7C94E6ACED38599",1,"01990adb-cbc1-7084-bee2-c6591f112c2d","01990a83-7673-7c0c-a792-bbd8fbbaf673","2025-09-02_09h49.08.755",NA,NA,494.6544,494.6544,494.6544,495.0038,NA,NA,NA,NA,NA,NA,NA,TRUE,1,1.6925,491.6567,494.6542,NA,NA,NA,NA,NA,12,25,0,7,7,12,1,2,8,"binary"
"33FCE3ABA3FB4238B7C94E6ACED38599",1,"01990adb-cbc1-7084-bee2-c6591f112c2d","01990a83-7673-7c0c-a792-bbd8fbbaf673","2025-09-02_09h49.08.755",NA,NA,498.0039,498.0039,498.0039,498.3538,NA,NA,NA,NA,NA,NA,NA,TRUE,1,1.1466,495.0052,498.0038,NA,NA,NA,NA,NA,14,32,0,8,8,21,1,2,9,"binary"
"33FCE3ABA3FB4238B7C94E6ACED38599",1,"01990adb-cbc1-7084-bee2-c6591f112c2d","01990a83-7673-7c0c-a792-bbd8fbbaf673","2025-09-02_09h49.08.755",NA,NA,501.354,501.354,501.354,501.7041,NA,NA,NA,NA,NA,NA,NA,TRUE,1,0.9344,498.3551,501.3538,NA,NA,NA,NA,NA,90,54,0,9,9,77,1,2,10,"binary"
"33FCE3ABA3FB4238B7C94E6ACED38599",1,"01990adb-cbc1-7084-bee2-c6591f112c2d","01990a83-7673-7c0c-a792-bbd8fbbaf673","2025-09-02_09h49.08.755",NA,NA,504.7041,504.7041,504.7041,505.0538,NA,NA,NA,NA,NA,NA,NA,TRUE,1,2.5188,501.7052,504.704,NA,NA,NA,NA,NA,200,47,0,10,10,106,1,2,11,"binary"
"33FCE3ABA3FB4238B7C94E6ACED38599",1,"01990adb-cbc1-7084-bee2-c6591f112c2d","01990a83-7673-7c0c-a792-bbd8fbbaf673","2025-09-02_09h49.08.755",NA,NA,508.0543,508.0543,508.0543,508.4041,NA,NA,NA,NA,NA,NA,NA,TRUE,1,0.985,505.0549,508.0542,NA,NA,NA,NA,NA,100,31,0,11,11,85,1,2,12,"binary"
"33FCE3ABA3FB4238B7C94E6ACED38599",1,"01990adb-cbc1-7084-bee2-c6591f112c2d","01990a83-7673-7c0c-a792-bbd8fbbaf673","2025-09-02_09h49.08.755",NA,NA,511.4042,511.4042,511.4043,511.7546,NA,NA,NA,NA,NA,NA,NA,TRUE,1,1.2651,508.4053,511.404,NA,NA,NA,NA,NA,14,39,0,12,12,23,1,2,13,"binary"
"33FCE3ABA3FB4238B7C94E6ACED38599",1,"01990adb-cbc1-7084-bee2-c6591f112c2d","01990a83-7673-7c0c-a792-bbd8fbbaf673","2025-09-02_09h49.08.755",NA,NA,514.7543,514.7543,514.7543,515.1037,NA,NA,NA,NA,NA,NA,NA,TRUE,1,0.8128,511.7571,514.7541,NA,NA,NA,NA,NA,200,54,0,13,13,107,1,2,14,"binary"
"33FCE3ABA3FB4238B7C94E6ACED38599",1,"01990adb-cbc1-7084-bee2-c6591f112c2d","01990a83-7673-7c0c-a792-bbd8fbbaf673","2025-09-02_09h49.08.755",NA,NA,518.1041,518.1042,518.1042,518.454,NA,NA,NA,NA,NA,NA,NA,TRUE,1,1.0555,515.105,518.104,NA,NA,NA,NA,NA,40,27,0,14,14,48,1,2,15,"binary"
"33FCE3ABA3FB4238B7C94E6ACED38599",1,"01990adb-cbc1-7084-bee2-c6591f112c2d","01990a83-7673-7c0c-a792-bbd8fbbaf673","2025-09-02_09h49.08.755",NA,NA,521.4541,521.4541,521.4541,521.8038,NA,NA,NA,NA,NA,NA,NA,TRUE,1,0.8433,518.4562,521.454,NA,NA,NA,NA,NA,90,30,0,15,15,73,1,2,16,"binary"
"33FCE3ABA3FB4238B7C94E6ACED38599",1,"01990adb-cbc1-7084-bee2-c6591f112c2d","01990a83-7673-7c0c-a792-bbd8fbbaf673","2025-09-02_09h49.08.755",NA,NA,524.8039,524.8039,524.8039,525.1538,NA,NA,NA,NA,NA,NA,NA,TRUE,1,0.7505,521.8052,524.8038,NA,NA,NA,NA,NA,100,39,0,16,16,87,1,2,17,"binary"
"33FCE3ABA3FB4238B7C94E6ACED38599",1,"01990adb-cbc1-7084-bee2-c6591f112c2d","01990a83-7673-7c0c-a792-bbd8fbbaf673","2025-09-02_09h49.08.755",NA,NA,528.1547,528.1547,528.1547,528.5036,NA,NA,NA,NA,NA,NA,NA,TRUE,1,1.686,525.155,528.1545,NA,NA,NA,NA,NA,12,33,0,17,17,16,1,2,18,"binary"
"33FCE3ABA3FB4238B7C94E6ACED38599",1,"01990adb-cbc1-7084-bee2-c6591f112c2d","01990a83-7673-7c0c-a792-bbd8fbbaf673","2025-09-02_09h49.08.755",NA,NA,531.5044,531.5044,531.5044,531.8542,NA,NA,NA,NA,NA,NA,NA,TRUE,1,0.8987,528.5048,531.5042,NA,NA,NA,NA,NA,45,40,0,18,18,58,1,2,19,"binary"
"33FCE3ABA3FB4238B7C94E6ACED38599",1,"01990adb-cbc1-7084-bee2-c6591f112c2d","01990a83-7673-7c0c-a792-bbd8fbbaf673","2025-09-02_09h49.08.755",NA,NA,534.8542,534.8543,534.8543,535.2042,NA,NA,NA,NA,NA,NA,NA,TRUE,1,1.1797,531.8566,534.8541,NA,NA,NA,NA,NA,21,32,0,19,19,28,1,2,20,"binary"
"33FCE3ABA3FB4238B7C94E6ACED38599",1,"01990adb-cbc1-7084-bee2-c6591f112c2d","01990a83-7673-7c0c-a792-bbd8fbbaf673","2025-09-02_09h49.08.755",NA,NA,538.2039,538.2039,538.2039,538.5537,NA,NA,NA,NA,NA,NA,NA,TRUE,1,0.833,535.2066,538.2037,NA,NA,NA,NA,NA,45,26,0,20,20,54,1,2,21,"binary"
"33FCE3ABA3FB4238B7C94E6ACED38599",1,"01990adb-cbc1-7084-bee2-c6591f112c2d","01990a83-7673-7c0c-a792-bbd8fbbaf673","2025-09-02_09h49.08.755",NA,NA,541.5544,541.5544,541.5544,541.9038,NA,NA,NA,NA,NA,NA,NA,TRUE,1,0.7303,538.5549,541.5542,NA,NA,NA,NA,NA,40,47,0,21,21,52,1,2,22,"binary"
"33FCE3ABA3FB4238B7C94E6ACED38599",1,"01990adb-cbc1-7084-bee2-c6591f112c2d","01990a83-7673-7c0c-a792-bbd8fbbaf673","2025-09-02_09h49.08.755",NA,NA,544.9039,544.9039,544.9039,545.2536,NA,NA,NA,NA,NA,NA,NA,TRUE,1,0.9321,541.9055,544.9037,NA,NA,NA,NA,NA,14,26,0,22,22,19,1,2,23,"binary"
"33FCE3ABA3FB4238B7C94E6ACED38599",1,"01990adb-cbc1-7084-bee2-c6591f112c2d","01990a83-7673-7c0c-a792-bbd8fbbaf673","2025-09-02_09h49.08.755",NA,NA,548.2538,548.2538,548.2538,548.6038,NA,NA,NA,NA,NA,NA,NA,TRUE,1,1.301,545.2549,548.2537,NA,NA,NA,NA,NA,14,28,0,23,23,20,1,2,24,"binary"
"33FCE3ABA3FB4238B7C94E6ACED38599",1,"01990adb-cbc1-7084-bee2-c6591f112c2d","01990a83-7673-7c0c-a792-bbd8fbbaf673","2025-09-02_09h49.08.755",NA,NA,551.6041,551.6041,551.6041,551.9537,NA,NA,NA,NA,NA,NA,NA,TRUE,1,0.8818,548.6049,551.6039,NA,NA,NA,NA,NA,150,31,0,24,24,90,1,2,25,"binary"
"33FCE3ABA3FB4238B7C94E6ACED38599",1,"01990adb-cbc1-7084-bee2-c6591f112c2d","01990a83-7673-7c0c-a792-bbd8fbbaf673","2025-09-02_09h49.08.755",NA,NA,554.9538,554.9538,554.9538,555.3038,NA,NA,NA,NA,NA,NA,NA,TRUE,1,0.7306,551.955,554.9537,NA,NA,NA,NA,NA,90,46,0,25,25,76,1,2,26,"binary"
"33FCE3ABA3FB4238B7C94E6ACED38599",1,"01990adb-cbc1-7084-bee2-c6591f112c2d","01990a83-7673-7c0c-a792-bbd8fbbaf673","2025-09-02_09h49.08.755",NA,NA,558.304,558.304,558.304,558.6541,NA,NA,NA,NA,NA,NA,NA,TRUE,1,1.182,555.3051,558.3039,NA,NA,NA,NA,NA,180,31,0,26,26,97,1,2,27,"binary"
"33FCE3ABA3FB4238B7C94E6ACED38599",1,"01990adb-cbc1-7084-bee2-c6591f112c2d","01990a83-7673-7c0c-a792-bbd8fbbaf673","2025-09-02_09h49.08.755",NA,NA,561.6546,561.6547,561.6547,562.0036,NA,NA,NA,NA,NA,NA,NA,TRUE,1,1.1109,558.6568,561.6544,NA,NA,NA,NA,NA,28,28,0,27,27,37,1,2,28,"binary"
"33FCE3ABA3FB4238B7C94E6ACED38599",1,"01990adb-cbc1-7084-bee2-c6591f112c2d","01990a83-7673-7c0c-a792-bbd8fbbaf673","2025-09-02_09h49.08.755",NA,NA,565.0046,565.0047,565.0047,565.3536,NA,NA,NA,NA,NA,NA,NA,TRUE,1,0.997,562.0048,565.0044,NA,NA,NA,NA,NA,60,35,0,28,28,68,1,2,29,"binary"
"33FCE3ABA3FB4238B7C94E6ACED38599",1,"01990adb-cbc1-7084-bee2-c6591f112c2d","01990a83-7673-7c0c-a792-bbd8fbbaf673","2025-09-02_09h49.08.755",NA,NA,568.3538,568.3538,568.3539,568.7035,NA,NA,NA,NA,NA,NA,NA,TRUE,1,2.1443,565.3551,568.3537,NA,NA,NA,NA,NA,30,29,0,29,29,44,1,2,30,"binary"
"33FCE3ABA3FB4238B7C94E6ACED38599",1,"01990adb-cbc1-7084-bee2-c6591f112c2d","01990a83-7673-7c0c-a792-bbd8fbbaf673","2025-09-02_09h49.08.755",NA,NA,571.7037,571.7037,571.7037,572.0544,NA,NA,NA,NA,NA,NA,NA,TRUE,1,1.2463,568.7047,571.7035,NA,NA,NA,NA,NA,12,26,0,30,30,13,1,2,31,"binary"
"33FCE3ABA3FB4238B7C94E6ACED38599",1,"01990adb-cbc1-7084-bee2-c6591f112c2d","01990a83-7673-7c0c-a792-bbd8fbbaf673","2025-09-02_09h49.08.755",NA,NA,575.0543,575.0544,575.0544,575.4042,NA,NA,NA,NA,NA,NA,NA,TRUE,1,0.879,572.0569,575.0542,NA,NA,NA,NA,NA,60,54,0,31,31,71,1,2,32,"binary"
"33FCE3ABA3FB4238B7C94E6ACED38599",1,"01990adb-cbc1-7084-bee2-c6591f112c2d","01990a83-7673-7c0c-a792-bbd8fbbaf673","2025-09-02_09h49.08.755",NA,NA,578.4045,578.4046,578.4047,578.7546,NA,NA,NA,NA,NA,NA,NA,TRUE,1,0.8289,575.4062,578.4044,NA,NA,NA,NA,NA,50,46,0,32,32,64,1,2,33,"binary"
"33FCE3ABA3FB4238B7C94E6ACED38599",1,"01990adb-cbc1-7084-bee2-c6591f112c2d","01990a83-7673-7c0c-a792-bbd8fbbaf673","2025-09-02_09h49.08.755",NA,NA,581.7539,581.754,581.754,582.104,NA,NA,NA,NA,NA,NA,NA,TRUE,1,1.6024,578.7557,581.7538,NA,NA,NA,NA,NA,30,30,0,33,33,45,1,2,34,"binary"
"33FCE3ABA3FB4238B7C94E6ACED38599",1,"01990adb-cbc1-7084-bee2-c6591f112c2d","01990a83-7673-7c0c-a792-bbd8fbbaf673","2025-09-02_09h49.08.755",NA,NA,585.1044,585.1044,585.1044,585.4544,NA,NA,NA,NA,NA,NA,NA,TRUE,1,0.829,582.1061,585.1042,NA,NA,NA,NA,NA,90,40,0,34,34,75,1,2,35,"binary"
"33FCE3ABA3FB4238B7C94E6ACED38599",1,"01990adb-cbc1-7084-bee2-c6591f112c2d","01990a83-7673-7c0c-a792-bbd8fbbaf673","2025-09-02_09h49.08.755",NA,NA,588.4543,588.4544,588.4544,588.8034,NA,NA,NA,NA,NA,NA,NA,TRUE,1,0.9609,585.4568,588.4542,NA,NA,NA,NA,NA,30,27,0,35,35,43,1,2,36,"binary"
"33FCE3ABA3FB4238B7C94E6ACED38599",1,"01990adb-cbc1-7084-bee2-c6591f112c2d","01990a83-7673-7c0c-a792-bbd8fbbaf673","2025-09-02_09h49.08.755",NA,NA,591.8035,591.8035,591.8035,592.1534,NA,NA,NA,NA,NA,NA,NA,TRUE,1,0.9624,588.8048,591.8034,NA,NA,NA,NA,NA,25,46,0,36,36,35,1,2,37,"binary"
"33FCE3ABA3FB4238B7C94E6ACED38599",1,"01990adb-cbc1-7084-bee2-c6591f112c2d","01990a83-7673-7c0c-a792-bbd8fbbaf673","2025-09-02_09h49.08.755",NA,NA,595.1536,595.1536,595.1536,595.5036,NA,NA,NA,NA,NA,NA,NA,TRUE,1,0.8357,592.155,595.1534,NA,NA,NA,NA,NA,150,35,0,37,37,92,1,2,38,"binary"
"33FCE3ABA3FB4238B7C94E6ACED38599",1,"01990adb-cbc1-7084-bee2-c6591f112c2d","01990a83-7673-7c0c-a792-bbd8fbbaf673","2025-09-02_09h49.08.755",NA,NA,598.5036,598.5037,598.5037,598.8537,NA,NA,NA,NA,NA,NA,NA,TRUE,1,0.5893,595.5047,598.5036,NA,NA,NA,NA,NA,180,27,0,38,38,96,1,2,39,"binary"
"33FCE3ABA3FB4238B7C94E6ACED38599",1,"01990adb-cbc1-7084-bee2-c6591f112c2d","01990a83-7673-7c0c-a792-bbd8fbbaf673","2025-09-02_09h49.08.755",NA,NA,601.8537,601.8537,601.8537,602.2033,NA,NA,NA,NA,NA,NA,NA,TRUE,1,1.3519,598.8549,601.8536,NA,NA,NA,NA,NA,30,38,0,39,39,47,1,2,40,"binary"
"33FCE3ABA3FB4238B7C94E6ACED38599",1,"01990adb-cbc1-7084-bee2-c6591f112c2d","01990a83-7673-7c0c-a792-bbd8fbbaf673","2025-09-02_09h49.08.755",NA,NA,605.2045,605.2045,605.2046,605.5538,NA,NA,NA,NA,NA,NA,NA,TRUE,1,1.6399,602.2046,605.2044,NA,NA,NA,NA,NA,25,33,0,40,40,33,1,2,41,"binary"
"33FCE3ABA3FB4238B7C94E6ACED38599",1,"01990adb-cbc1-7084-bee2-c6591f112c2d","01990a83-7673-7c0c-a792-bbd8fbbaf673","2025-09-02_09h49.08.755",NA,NA,608.5536,608.5536,608.5536,608.9036,NA,NA,NA,NA,NA,NA,NA,TRUE,1,0.7451,605.5561,608.5535,NA,NA,NA,NA,NA,50,35,0,41,41,62,1,2,42,"binary"
"33FCE3ABA3FB4238B7C94E6ACED38599",1,"01990adb-cbc1-7084-bee2-c6591f112c2d","01990a83-7673-7c0c-a792-bbd8fbbaf673","2025-09-02_09h49.08.755",NA,NA,611.904,611.904,611.904,612.2536,NA,NA,NA,NA,NA,NA,NA,TRUE,1,1.3466,608.9048,611.9038,NA,NA,NA,NA,NA,14,35,0,42,42,22,1,2,43,"binary"
"33FCE3ABA3FB4238B7C94E6ACED38599",1,"01990adb-cbc1-7084-bee2-c6591f112c2d","01990a83-7673-7c0c-a792-bbd8fbbaf673","2025-09-02_09h49.08.755",NA,NA,615.2543,615.2543,615.2543,615.6041,NA,NA,NA,NA,NA,NA,NA,TRUE,1,0.9545,612.2548,615.2541,NA,NA,NA,NA,NA,90,26,0,43,43,72,1,2,44,"binary"
"33FCE3ABA3FB4238B7C94E6ACED38599",1,"01990adb-cbc1-7084-bee2-c6591f112c2d","01990a83-7673-7c0c-a792-bbd8fbbaf673","2025-09-02_09h49.08.755",NA,NA,618.6035,618.6035,618.6035,618.9534,NA,NA,NA,NA,NA,NA,NA,TRUE,1,0.6834,615.6065,618.6034,NA,NA,NA,NA,NA,45,29,0,44,44,55,1,2,45,"binary"
"33FCE3ABA3FB4238B7C94E6ACED38599",1,"01990adb-cbc1-7084-bee2-c6591f112c2d","01990a83-7673-7c0c-a792-bbd8fbbaf673","2025-09-02_09h49.08.755",NA,NA,621.9538,621.9538,621.9539,622.3035,NA,NA,NA,NA,NA,NA,NA,TRUE,1,0.7445,618.955,621.9537,NA,NA,NA,NA,NA,90,33,0,45,45,74,1,2,46,"binary"
"33FCE3ABA3FB4238B7C94E6ACED38599",1,"01990adb-cbc1-7084-bee2-c6591f112c2d","01990a83-7673-7c0c-a792-bbd8fbbaf673","2025-09-02_09h49.08.755",NA,NA,625.3035,625.5533,625.5533,625.6533,NA,NA,NA,NA,NA,NA,NA,FALSE,NA,NA,622.3049,625.3033,NA,NA,NA,NA,NA,12,31,0,46,46,15,1,2,47,"binary"
"33FCE3ABA3FB4238B7C94E6ACED38599",1,"01990adb-cbc1-7084-bee2-c6591f112c2d","01990a83-7673-7c0c-a792-bbd8fbbaf673","2025-09-02_09h49.08.755",NA,NA,628.6533,628.6534,628.6534,629.004,NA,NA,NA,NA,NA,NA,NA,TRUE,1,1.5688,625.6547,628.6533,NA,NA,NA,NA,NA,150,47,0,47,47,94,1,2,48,"binary"
"33FCE3ABA3FB4238B7C94E6ACED38599",1,"01990adb-cbc1-7084-bee2-c6591f112c2d","01990a83-7673-7c0c-a792-bbd8fbbaf673","2025-09-02_09h49.08.755",NA,NA,632.0044,632.0044,632.0044,632.3541,NA,NA,NA,NA,NA,NA,NA,TRUE,1,1.0006,629.0067,632.0042,NA,NA,NA,NA,NA,60,33,0,48,48,67,1,2,49,"binary"
"33FCE3ABA3FB4238B7C94E6ACED38599",1,"01990adb-cbc1-7084-bee2-c6591f112c2d","01990a83-7673-7c0c-a792-bbd8fbbaf673","2025-09-02_09h49.08.755",NA,NA,635.3542,635.3543,635.3543,635.7034,NA,NA,NA,NA,NA,NA,NA,TRUE,1,0.8942,632.3567,635.3541,NA,NA,NA,NA,NA,200,28,0,49,49,103,1,2,50,"binary"
"33FCE3ABA3FB4238B7C94E6ACED38599",1,"01990adb-cbc1-7084-bee2-c6591f112c2d","01990a83-7673-7c0c-a792-bbd8fbbaf673","2025-09-02_09h49.08.755",NA,NA,638.7039,638.7039,638.7039,639.0538,NA,NA,NA,NA,NA,NA,NA,TRUE,1,0.7963,635.7047,638.7037,NA,NA,NA,NA,NA,150,33,0,50,50,91,1,2,51,"binary"
"33FCE3ABA3FB4238B7C94E6ACED38599",1,"01990adb-cbc1-7084-bee2-c6591f112c2d","01990a83-7673-7c0c-a792-bbd8fbbaf673","2025-09-02_09h49.08.755",NA,NA,642.0538,642.0538,642.0538,642.4047,NA,NA,NA,NA,NA,NA,NA,TRUE,1,0.6794,639.0559,642.0537,NA,NA,NA,NA,NA,100,46,0,51,51,88,1,2,52,"binary"
"33FCE3ABA3FB4238B7C94E6ACED38599",1,"01990adb-cbc1-7084-bee2-c6591f112c2d","01990a83-7673-7c0c-a792-bbd8fbbaf673","2025-09-02_09h49.08.755",NA,NA,645.404,645.404,645.404,645.7533,NA,NA,NA,NA,NA,NA,NA,TRUE,1,0.6298,642.4084,645.4038,NA,NA,NA,NA,NA,95,35,0,52,52,80,1,2,53,"binary"
"33FCE3ABA3FB4238B7C94E6ACED38599",1,"01990adb-cbc1-7084-bee2-c6591f112c2d","01990a83-7673-7c0c-a792-bbd8fbbaf673","2025-09-02_09h49.08.755",NA,NA,648.7533,648.7534,648.7534,649.1033,NA,NA,NA,NA,NA,NA,NA,TRUE,1,0.737,645.7545,648.7532,NA,NA,NA,NA,NA,45,35,0,53,53,57,1,2,54,"binary"
"33FCE3ABA3FB4238B7C94E6ACED38599",1,"01990adb-cbc1-7084-bee2-c6591f112c2d","01990a83-7673-7c0c-a792-bbd8fbbaf673","2025-09-02_09h49.08.755",NA,NA,652.1034,652.1034,652.1034,652.4538,NA,NA,NA,NA,NA,NA,NA,TRUE,1,0.7464,649.105,652.1033,NA,NA,NA,NA,NA,150,40,0,54,54,93,1,2,55,"binary"
"33FCE3ABA3FB4238B7C94E6ACED38599",1,"01990adb-cbc1-7084-bee2-c6591f112c2d","01990a83-7673-7c0c-a792-bbd8fbbaf673","2025-09-02_09h49.08.755",NA,NA,655.4541,655.4541,655.4541,655.8035,NA,NA,NA,NA,NA,NA,NA,TRUE,1,0.8268,652.4563,655.454,NA,NA,NA,NA,NA,25,29,0,55,55,31,1,2,56,"binary"
"33FCE3ABA3FB4238B7C94E6ACED38599",1,"01990adb-cbc1-7084-bee2-c6591f112c2d","01990a83-7673-7c0c-a792-bbd8fbbaf673","2025-09-02_09h49.08.755",NA,NA,658.8035,658.8035,658.8035,659.1541,NA,NA,NA,NA,NA,NA,NA,TRUE,1,1.7036,655.8047,658.8033,NA,NA,NA,NA,NA,25,27,0,56,56,30,1,2,57,"binary"
"33FCE3ABA3FB4238B7C94E6ACED38599",1,"01990adb-cbc1-7084-bee2-c6591f112c2d","01990a83-7673-7c0c-a792-bbd8fbbaf673","2025-09-02_09h49.08.755",NA,NA,662.1542,662.1543,662.1543,662.5038,NA,NA,NA,NA,NA,NA,NA,TRUE,1,1.1694,659.1568,662.154,NA,NA,NA,NA,NA,10,30,0,57,57,10,1,2,58,"binary"
"33FCE3ABA3FB4238B7C94E6ACED38599",1,"01990adb-cbc1-7084-bee2-c6591f112c2d","01990a83-7673-7c0c-a792-bbd8fbbaf673","2025-09-02_09h49.08.755",NA,NA,665.504,665.504,665.5041,665.8533,NA,NA,NA,NA,NA,NA,NA,TRUE,1,0.7789,662.5055,665.5039,NA,NA,NA,NA,NA,95,31,0,58,58,78,1,2,59,"binary"
"33FCE3ABA3FB4238B7C94E6ACED38599",1,"01990adb-cbc1-7084-bee2-c6591f112c2d","01990a83-7673-7c0c-a792-bbd8fbbaf673","2025-09-02_09h49.08.755",NA,NA,668.8535,668.8535,668.8535,669.2031,NA,NA,NA,NA,NA,NA,NA,TRUE,1,0.7826,665.8549,668.8533,NA,NA,NA,NA,NA,50,54,0,59,59,65,1,2,60,"binary"
"33FCE3ABA3FB4238B7C94E6ACED38599",1,"01990adb-cbc1-7084-bee2-c6591f112c2d","01990a83-7673-7c0c-a792-bbd8fbbaf673","2025-09-02_09h49.08.755",NA,NA,672.2035,672.2036,672.2036,672.5531,NA,NA,NA,NA,NA,NA,NA,TRUE,1,1.5028,669.2046,672.2034,NA,NA,NA,NA,NA,7,25,0,60,60,0,1,2,61,"binary"
"33FCE3ABA3FB4238B7C94E6ACED38599",1,"01990adb-cbc1-7084-bee2-c6591f112c2d","01990a83-7673-7c0c-a792-bbd8fbbaf673","2025-09-02_09h49.08.755",NA,NA,675.5534,675.5535,675.5535,675.904,NA,NA,NA,NA,NA,NA,NA,TRUE,1,0.8673,672.5543,675.5534,NA,NA,NA,NA,NA,40,54,0,61,61,53,1,2,62,"binary"
"33FCE3ABA3FB4238B7C94E6ACED38599",1,"01990adb-cbc1-7084-bee2-c6591f112c2d","01990a83-7673-7c0c-a792-bbd8fbbaf673","2025-09-02_09h49.08.755",NA,NA,678.9035,678.9035,678.9035,679.2535,NA,NA,NA,NA,NA,NA,NA,TRUE,1,0.8957,675.9067,678.9033,NA,NA,NA,NA,NA,150,54,0,62,62,95,1,2,63,"binary"
"33FCE3ABA3FB4238B7C94E6ACED38599",1,"01990adb-cbc1-7084-bee2-c6591f112c2d","01990a83-7673-7c0c-a792-bbd8fbbaf673","2025-09-02_09h49.08.755",NA,NA,682.254,682.254,682.2541,682.604,NA,NA,NA,NA,NA,NA,NA,TRUE,1,0.7671,679.2547,682.2537,NA,NA,NA,NA,NA,60,40,0,63,63,69,1,2,64,"binary"
"33FCE3ABA3FB4238B7C94E6ACED38599",1,"01990adb-cbc1-7084-bee2-c6591f112c2d","01990a83-7673-7c0c-a792-bbd8fbbaf673","2025-09-02_09h49.08.755",NA,NA,685.6041,685.6041,685.6042,685.9539,NA,NA,NA,NA,NA,NA,NA,TRUE,1,0.6601,682.6065,685.604,NA,NA,NA,NA,NA,45,46,0,64,64,59,1,2,65,"binary"
"33FCE3ABA3FB4238B7C94E6ACED38599",1,"01990adb-cbc1-7084-bee2-c6591f112c2d","01990a83-7673-7c0c-a792-bbd8fbbaf673","2025-09-02_09h49.08.755",NA,NA,688.9542,688.9542,688.9542,689.3032,NA,NA,NA,NA,NA,NA,NA,TRUE,1,0.9159,685.9564,688.954,NA,NA,NA,NA,NA,10,32,0,65,65,11,1,2,66,"binary"
"33FCE3ABA3FB4238B7C94E6ACED38599",1,"01990adb-cbc1-7084-bee2-c6591f112c2d","01990a83-7673-7c0c-a792-bbd8fbbaf673","2025-09-02_09h49.08.755",NA,NA,692.3033,692.3033,692.3033,692.653,NA,NA,NA,NA,NA,NA,NA,TRUE,1,0.6766,689.305,692.3031,NA,NA,NA,NA,NA,200,26,0,66,66,102,1,2,67,"binary"
"33FCE3ABA3FB4238B7C94E6ACED38599",1,"01990adb-cbc1-7084-bee2-c6591f112c2d","01990a83-7673-7c0c-a792-bbd8fbbaf673","2025-09-02_09h49.08.755",NA,NA,695.6532,695.6532,695.6532,696.0033,NA,NA,NA,NA,NA,NA,NA,TRUE,2,1.4196,692.6544,695.6531,NA,NA,NA,NA,NA,7,35,0,67,67,5,1,2,68,"binary"
"33FCE3ABA3FB4238B7C94E6ACED38599",1,"01990adb-cbc1-7084-bee2-c6591f112c2d","01990a83-7673-7c0c-a792-bbd8fbbaf673","2025-09-02_09h49.08.755",NA,NA,699.0037,699.0037,699.0038,699.3539,NA,NA,NA,NA,NA,NA,NA,TRUE,1,1.2812,696.0046,699.0035,NA,NA,NA,NA,NA,12,35,0,68,68,17,1,2,69,"binary"
"33FCE3ABA3FB4238B7C94E6ACED38599",1,"01990adb-cbc1-7084-bee2-c6591f112c2d","01990a83-7673-7c0c-a792-bbd8fbbaf673","2025-09-02_09h49.08.755",NA,NA,702.3538,702.3538,702.3538,702.7035,NA,NA,NA,NA,NA,NA,NA,TRUE,1,1.3313,699.3562,702.3536,NA,NA,NA,NA,NA,25,35,0,69,69,34,1,2,70,"binary"
"33FCE3ABA3FB4238B7C94E6ACED38599",1,"01990adb-cbc1-7084-bee2-c6591f112c2d","01990a83-7673-7c0c-a792-bbd8fbbaf673","2025-09-02_09h49.08.755",NA,NA,705.704,705.704,705.7041,706.0537,NA,NA,NA,NA,NA,NA,NA,TRUE,1,0.745,702.7053,705.7038,NA,NA,NA,NA,NA,60,47,0,70,70,70,1,2,71,"binary"
"33FCE3ABA3FB4238B7C94E6ACED38599",1,"01990adb-cbc1-7084-bee2-c6591f112c2d","01990a83-7673-7c0c-a792-bbd8fbbaf673","2025-09-02_09h49.08.755",NA,NA,709.0537,709.0537,709.0538,709.4034,NA,NA,NA,NA,NA,NA,NA,TRUE,1,0.8451,706.0562,709.0535,NA,NA,NA,NA,NA,95,47,0,71,71,82,1,2,72,"binary"
"33FCE3ABA3FB4238B7C94E6ACED38599",1,"01990adb-cbc1-7084-bee2-c6591f112c2d","01990a83-7673-7c0c-a792-bbd8fbbaf673","2025-09-02_09h49.08.755",NA,NA,712.4039,712.404,712.404,712.7532,NA,NA,NA,NA,NA,NA,NA,TRUE,1,0.5324,709.4047,712.4038,NA,NA,NA,NA,NA,200,35,0,72,72,104,1,2,73,"binary"
"33FCE3ABA3FB4238B7C94E6ACED38599",1,"01990adb-cbc1-7084-bee2-c6591f112c2d","01990a83-7673-7c0c-a792-bbd8fbbaf673","2025-09-02_09h49.08.755",NA,NA,715.7534,715.7534,715.7534,716.1035,NA,NA,NA,NA,NA,NA,NA,TRUE,1,0.4898,712.7544,715.7533,NA,NA,NA,NA,NA,50,27,0,73,73,60,1,2,74,"binary"
"33FCE3ABA3FB4238B7C94E6ACED38599",1,"01990adb-cbc1-7084-bee2-c6591f112c2d","01990a83-7673-7c0c-a792-bbd8fbbaf673","2025-09-02_09h49.08.755",NA,NA,719.1046,719.1047,719.1047,719.453,NA,NA,NA,NA,NA,NA,NA,TRUE,1,1.235,716.1058,719.1043,NA,NA,NA,NA,NA,7,32,0,74,74,4,1,2,75,"binary"
"33FCE3ABA3FB4238B7C94E6ACED38599",1,"01990adb-cbc1-7084-bee2-c6591f112c2d","01990a83-7673-7c0c-a792-bbd8fbbaf673","2025-09-02_09h49.08.755",NA,NA,722.4531,722.4531,722.4531,722.8029,NA,NA,NA,NA,NA,NA,NA,TRUE,1,0.8455,719.4543,722.453,NA,NA,NA,NA,NA,28,39,0,75,75,40,1,2,76,"binary"
"33FCE3ABA3FB4238B7C94E6ACED38599",1,"01990adb-cbc1-7084-bee2-c6591f112c2d","01990a83-7673-7c0c-a792-bbd8fbbaf673","2025-09-02_09h49.08.755",NA,NA,725.8031,725.8031,725.8031,726.1534,NA,NA,NA,NA,NA,NA,NA,TRUE,1,0.7895,722.804,725.8031,NA,NA,NA,NA,NA,60,29,0,76,76,66,1,2,77,"binary"
"33FCE3ABA3FB4238B7C94E6ACED38599",1,"01990adb-cbc1-7084-bee2-c6591f112c2d","01990a83-7673-7c0c-a792-bbd8fbbaf673","2025-09-02_09h49.08.755",NA,NA,729.1533,729.1533,729.1533,729.5032,NA,NA,NA,NA,NA,NA,NA,TRUE,1,1.1002,726.1552,729.1532,NA,NA,NA,NA,NA,28,26,0,77,77,36,1,2,78,"binary"
"33FCE3ABA3FB4238B7C94E6ACED38599",1,"01990adb-cbc1-7084-bee2-c6591f112c2d","01990a83-7673-7c0c-a792-bbd8fbbaf673","2025-09-02_09h49.08.755",NA,NA,732.5031,732.5032,732.5032,732.853,NA,NA,NA,NA,NA,NA,NA,TRUE,1,1.0306,729.5044,732.503,NA,NA,NA,NA,NA,28,32,0,78,78,38,1,2,79,"binary"
"33FCE3ABA3FB4238B7C94E6ACED38599",1,"01990adb-cbc1-7084-bee2-c6591f112c2d","01990a83-7673-7c0c-a792-bbd8fbbaf673","2025-09-02_09h49.08.755",NA,NA,735.8532,735.8532,735.8532,736.2035,NA,NA,NA,NA,NA,NA,NA,TRUE,1,0.9052,732.8541,735.853,NA,NA,NA,NA,NA,28,46,0,79,79,41,1,2,80,"binary"
"33FCE3ABA3FB4238B7C94E6ACED38599",1,"01990adb-cbc1-7084-bee2-c6591f112c2d","01990a83-7673-7c0c-a792-bbd8fbbaf673","2025-09-02_09h49.08.755",NA,NA,739.2038,739.2038,739.2038,739.5531,NA,NA,NA,NA,NA,NA,NA,TRUE,1,0.5614,736.2063,739.2037,NA,NA,NA,NA,NA,95,40,0,80,80,81,1,2,81,"binary"
"33FCE3ABA3FB4238B7C94E6ACED38599",1,"01990adb-cbc1-7084-bee2-c6591f112c2d","01990a83-7673-7c0c-a792-bbd8fbbaf673","2025-09-02_09h49.08.755",NA,NA,742.5531,742.5531,742.5531,742.9029,NA,NA,NA,NA,NA,NA,NA,TRUE,1,0.4151,739.5551,742.553,NA,NA,NA,NA,NA,12,28,0,81,81,14,1,2,82,"binary"
"33FCE3ABA3FB4238B7C94E6ACED38599",1,"01990adb-cbc1-7084-bee2-c6591f112c2d","01990a83-7673-7c0c-a792-bbd8fbbaf673","2025-09-02_09h49.08.755",NA,NA,745.9031,745.9031,745.9031,746.2533,NA,NA,NA,NA,NA,NA,NA,TRUE,1,1.9547,742.9043,745.9029,NA,NA,NA,NA,NA,10,29,0,82,82,9,1,2,83,"binary"
"33FCE3ABA3FB4238B7C94E6ACED38599",1,"01990adb-cbc1-7084-bee2-c6591f112c2d","01990a83-7673-7c0c-a792-bbd8fbbaf673","2025-09-02_09h49.08.755",NA,NA,749.2533,749.2533,749.2533,749.6035,NA,NA,NA,NA,NA,NA,NA,TRUE,1,1.3121,746.2551,749.2532,NA,NA,NA,NA,NA,10,25,0,83,83,6,1,2,84,"binary"
"33FCE3ABA3FB4238B7C94E6ACED38599",1,"01990adb-cbc1-7084-bee2-c6591f112c2d","01990a83-7673-7c0c-a792-bbd8fbbaf673","2025-09-02_09h49.08.755",NA,NA,752.604,752.604,752.604,752.9531,NA,NA,NA,NA,NA,NA,NA,TRUE,1,0.9163,749.6056,752.6037,NA,NA,NA,NA,NA,100,54,0,84,84,89,1,2,85,"binary"
"33FCE3ABA3FB4238B7C94E6ACED38599",1,"01990adb-cbc1-7084-bee2-c6591f112c2d","01990a83-7673-7c0c-a792-bbd8fbbaf673","2025-09-02_09h49.08.755",NA,NA,755.954,755.954,755.954,756.3034,NA,NA,NA,NA,NA,NA,NA,TRUE,1,0.6995,752.9549,755.9537,NA,NA,NA,NA,NA,100,38,0,85,85,86,1,2,86,"binary"
"33FCE3ABA3FB4238B7C94E6ACED38599",1,"01990adb-cbc1-7084-bee2-c6591f112c2d","01990a83-7673-7c0c-a792-bbd8fbbaf673","2025-09-02_09h49.08.755",NA,NA,759.303,759.3031,759.3031,759.6536,NA,NA,NA,NA,NA,NA,NA,TRUE,1,0.759,756.306,759.303,NA,NA,NA,NA,NA,95,54,0,86,86,83,1,2,87,"binary"
"33FCE3ABA3FB4238B7C94E6ACED38599",1,"01990adb-cbc1-7084-bee2-c6591f112c2d","01990a83-7673-7c0c-a792-bbd8fbbaf673","2025-09-02_09h49.08.755",NA,NA,762.6539,762.6539,762.6539,763.0036,NA,NA,NA,NA,NA,NA,NA,TRUE,1,0.718,759.6559,762.6537,NA,NA,NA,NA,NA,21,38,0,87,87,29,1,2,88,"binary"
"33FCE3ABA3FB4238B7C94E6ACED38599",1,"01990adb-cbc1-7084-bee2-c6591f112c2d","01990a83-7673-7c0c-a792-bbd8fbbaf673","2025-09-02_09h49.08.755",NA,NA,766.0036,766.0036,766.0037,766.3529,NA,NA,NA,NA,NA,NA,NA,TRUE,1,1.9332,763.0062,766.0034,NA,NA,NA,NA,NA,7,28,0,88,88,2,1,2,89,"binary"
"33FCE3ABA3FB4238B7C94E6ACED38599",1,"01990adb-cbc1-7084-bee2-c6591f112c2d","01990a83-7673-7c0c-a792-bbd8fbbaf673","2025-09-02_09h49.08.755",NA,NA,769.3529,769.3529,769.3529,769.7028,NA,NA,NA,NA,NA,NA,NA,TRUE,1,0.9346,766.3547,769.3528,NA,NA,NA,NA,NA,50,40,0,89,89,63,1,2,90,"binary"
"33FCE3ABA3FB4238B7C94E6ACED38599",1,"01990adb-cbc1-7084-bee2-c6591f112c2d","01990a83-7673-7c0c-a792-bbd8fbbaf673","2025-09-02_09h49.08.755",NA,NA,772.7032,772.7033,772.7033,773.0532,NA,NA,NA,NA,NA,NA,NA,TRUE,1,0.6531,769.7046,772.703,NA,NA,NA,NA,NA,100,26,0,90,90,84,1,2,91,"binary"
"33FCE3ABA3FB4238B7C94E6ACED38599",1,"01990adb-cbc1-7084-bee2-c6591f112c2d","01990a83-7673-7c0c-a792-bbd8fbbaf673","2025-09-02_09h49.08.755",NA,NA,776.0532,776.0532,776.0532,776.4036,NA,NA,NA,NA,NA,NA,NA,TRUE,1,0.5924,773.0558,776.053,NA,NA,NA,NA,NA,200,39,0,91,91,105,1,2,92,"binary"
"33FCE3ABA3FB4238B7C94E6ACED38599",1,"01990adb-cbc1-7084-bee2-c6591f112c2d","01990a83-7673-7c0c-a792-bbd8fbbaf673","2025-09-02_09h49.08.755",NA,NA,779.4029,779.4029,779.4029,779.7527,NA,NA,NA,NA,NA,NA,NA,TRUE,1,0.9597,776.4063,779.4028,NA,NA,NA,NA,NA,14,25,0,92,92,18,1,2,93,"binary"
"33FCE3ABA3FB4238B7C94E6ACED38599",1,"01990adb-cbc1-7084-bee2-c6591f112c2d","01990a83-7673-7c0c-a792-bbd8fbbaf673","2025-09-02_09h49.08.755",NA,NA,782.7529,782.7529,782.7529,783.1028,NA,NA,NA,NA,NA,NA,NA,TRUE,2,2.6683,779.754,782.7528,NA,NA,NA,NA,NA,7,30,0,93,93,3,1,2,94,"binary"
"33FCE3ABA3FB4238B7C94E6ACED38599",1,"01990adb-cbc1-7084-bee2-c6591f112c2d","01990a83-7673-7c0c-a792-bbd8fbbaf673","2025-09-02_09h49.08.755",NA,NA,786.1028,786.1029,786.1029,786.4529,NA,NA,NA,NA,NA,NA,NA,TRUE,1,0.9546,783.1041,786.1028,NA,NA,NA,NA,NA,180,54,0,94,94,101,1,2,95,"binary"
"33FCE3ABA3FB4238B7C94E6ACED38599",1,"01990adb-cbc1-7084-bee2-c6591f112c2d","01990a83-7673-7c0c-a792-bbd8fbbaf673","2025-09-02_09h49.08.755",NA,NA,789.4537,789.4537,789.4538,789.8027,NA,NA,NA,NA,NA,NA,NA,TRUE,1,1.022,786.4541,789.4534,NA,NA,NA,NA,NA,10,26,0,95,95,7,1,2,96,"binary"
"33FCE3ABA3FB4238B7C94E6ACED38599",1,"01990adb-cbc1-7084-bee2-c6591f112c2d","01990a83-7673-7c0c-a792-bbd8fbbaf673","2025-09-02_09h49.08.755",NA,NA,792.8028,792.8028,792.8028,793.1535,NA,NA,NA,NA,NA,NA,NA,TRUE,1,0.5401,789.8041,792.8027,NA,NA,NA,NA,NA,50,30,0,96,96,61,1,2,97,"binary"
"33FCE3ABA3FB4238B7C94E6ACED38599",1,"01990adb-cbc1-7084-bee2-c6591f112c2d","01990a83-7673-7c0c-a792-bbd8fbbaf673","2025-09-02_09h49.08.755",NA,NA,796.1529,796.1529,796.1529,796.5026,NA,NA,NA,NA,NA,NA,NA,TRUE,1,0.9891,793.1565,796.1528,NA,NA,NA,NA,NA,25,31,0,97,97,32,1,2,98,"binary"
"33FCE3ABA3FB4238B7C94E6ACED38599",1,"01990adb-cbc1-7084-bee2-c6591f112c2d","01990a83-7673-7c0c-a792-bbd8fbbaf673","2025-09-02_09h49.08.755",NA,NA,799.5027,799.5027,799.5027,799.8533,NA,NA,NA,NA,NA,NA,NA,TRUE,1,0.7338,796.504,799.5027,NA,NA,NA,NA,NA,40,33,0,98,98,49,1,2,99,"binary"
"33FCE3ABA3FB4238B7C94E6ACED38599",1,"01990adb-cbc1-7084-bee2-c6591f112c2d","01990a83-7673-7c0c-a792-bbd8fbbaf673","2025-09-02_09h49.08.755",NA,NA,802.8535,802.8535,802.8536,803.2033,NA,NA,NA,NA,NA,NA,NA,TRUE,1,0.7488,799.8557,802.8534,NA,NA,NA,NA,NA,45,31,0,99,99,56,1,2,100,"binary"
"33FCE3ABA3FB4238B7C94E6ACED38599",1,"01990adb-cbc1-7084-bee2-c6591f112c2d","01990a83-7673-7c0c-a792-bbd8fbbaf673","2025-09-02_09h49.08.755",NA,NA,806.2028,806.2028,806.2028,806.5533,NA,NA,NA,NA,NA,NA,NA,TRUE,1,0.462,803.2057,806.2027,NA,NA,NA,NA,NA,30,26,0,100,100,42,1,2,101,"binary"
"33FCE3ABA3FB4238B7C94E6ACED38599",1,"01990adb-cbc1-7084-bee2-c6591f112c2d","01990a83-7673-7c0c-a792-bbd8fbbaf673","2025-09-02_09h49.08.755",NA,NA,809.5538,809.5538,809.5539,809.9031,NA,NA,NA,NA,NA,NA,NA,TRUE,1,0.6501,806.5556,809.5536,NA,NA,NA,NA,NA,95,33,0,101,101,79,1,2,102,"binary"
"33FCE3ABA3FB4238B7C94E6ACED38599",1,"01990adb-cbc1-7084-bee2-c6591f112c2d","01990a83-7673-7c0c-a792-bbd8fbbaf673","2025-09-02_09h49.08.755",NA,NA,812.9029,812.9029,812.9029,813.2529,NA,NA,NA,NA,NA,NA,NA,TRUE,1,1.5898,809.9076,812.9027,NA,NA,NA,NA,NA,180,35,0,102,102,98,1,2,103,"binary"
"33FCE3ABA3FB4238B7C94E6ACED38599",1,"01990adb-cbc1-7084-bee2-c6591f112c2d","01990a83-7673-7c0c-a792-bbd8fbbaf673","2025-09-02_09h49.08.755",NA,NA,816.2528,816.2528,816.2528,816.6027,NA,NA,NA,NA,NA,NA,NA,TRUE,1,0.7311,813.2545,816.2526,NA,NA,NA,NA,NA,40,40,0,103,103,51,1,2,104,"binary"
"33FCE3ABA3FB4238B7C94E6ACED38599",1,"01990adb-cbc1-7084-bee2-c6591f112c2d","01990a83-7673-7c0c-a792-bbd8fbbaf673","2025-09-02_09h49.08.755",NA,NA,819.6029,819.6029,819.6029,819.9529,NA,NA,NA,NA,NA,NA,NA,TRUE,1,0.8446,816.6044,819.6028,NA,NA,NA,NA,NA,21,30,0,104,104,27,1,2,105,"binary"
"33FCE3ABA3FB4238B7C94E6ACED38599",1,"01990adb-cbc1-7084-bee2-c6591f112c2d","01990a83-7673-7c0c-a792-bbd8fbbaf673","2025-09-02_09h49.08.755",NA,NA,822.9531,822.9531,822.9531,823.3029,NA,NA,NA,NA,NA,NA,NA,TRUE,1,0.4624,819.9544,822.9529,NA,NA,NA,NA,NA,10,27,0,105,105,8,1,2,106,"binary"
"33FCE3ABA3FB4238B7C94E6ACED38599",1,"01990adb-cbc1-7084-bee2-c6591f112c2d","01990a83-7673-7c0c-a792-bbd8fbbaf673","2025-09-02_09h49.08.755",NA,NA,826.3034,826.3034,826.3034,826.6531,NA,NA,NA,NA,NA,NA,NA,TRUE,1,0.9451,823.3055,826.3032,NA,NA,NA,NA,NA,180,39,0,106,106,99,1,2,107,"binary"
"33FCE3ABA3FB4238B7C94E6ACED38599",1,"01990adb-cbc1-7084-bee2-c6591f112c2d","01990a83-7673-7c0c-a792-bbd8fbbaf673","2025-09-02_09h49.08.755",NA,NA,829.653,829.653,829.653,830.0042,NA,NA,NA,NA,NA,NA,NA,TRUE,1,1.0349,826.6554,829.6529,NA,NA,NA,NA,NA,21,27,0,107,107,25,1,2,108,"binary"
