"participant","session","assignmentId","projectId","date","practiceTrial.started","practiceTrial.stopped","tooLate.started","tooLate.stopped","blank.started","blank.stopped","trials_pract.thisRepN","trials_pract.thisTrialN","trials_pract.thisN","trials_pract.thisIndex","trials_pract.ran","delay_pract","amount_pract","responseMade","key","rt","trial.started","trial.stopped","trials.thisRepN","trials.thisTrialN","trials.thisN","trials.thisIndex","trials.ran","delay","amount","trials_2.thisRepN","trials_2.thisTrialN","trials_2.thisN","trials_2.thisIndex","trials_2.ran","block","trial","taskType"
"3C62EA6425BE4FD0B43020D786F4BB4B",1,"0198f77e-441e-7977-bbe0-77f91ba5eda9","0198f767-55c9-7875-8d21-563b3c0b86ed","2025-08-29_13h26.24.034",16.0275,18.9981,18.9994,19.0008,19.0009,19.3481,0,0,0,3,1,3,27,TRUE,1,2.6342,NA,NA,NA,NA,NA,NA,NA,NA,NA,NA,NA,NA,NA,NA,0,1,"binary"
"3C62EA6425BE4FD0B43020D786F4BB4B",1,"0198f77e-441e-7977-bbe0-77f91ba5eda9","0198f767-55c9-7875-8d21-563b3c0b86ed","2025-08-29_13h26.24.034",19.3514,22.3471,22.3475,22.3478,22.348,22.6975,0,1,1,1,1,100,50,TRUE,2,1.2119,NA,NA,NA,NA,NA,NA,NA,NA,NA,NA,NA,NA,NA,NA,0,2,"binary"
"3C62EA6425BE4FD0B43020D786F4BB4B",1,"0198f77e-441e-7977-bbe0-77f91ba5eda9","0198f767-55c9-7875-8d21-563b3c0b86ed","2025-08-29_13h26.24.034",22.7017,25.6972,25.6978,25.698,25.6982,26.047,0,2,2,4,1,30,40,TRUE,2,0.6929,NA,NA,NA,NA,NA,NA,NA,NA,NA,NA,NA,NA,NA,NA,0,3,"binary"
"3C62EA6425BE4FD0B43020D786F4BB4B",1,"0198f77e-441e-7977-bbe0-77f91ba5eda9","0198f767-55c9-7875-8d21-563b3c0b86ed","2025-08-29_13h26.24.034",26.0504,29.047,29.0474,29.0477,29.0478,29.3971,0,3,3,2,1,14,45,TRUE,2,0.9258,NA,NA,NA,NA,NA,NA,NA,NA,NA,NA,NA,NA,NA,NA,0,4,"binary"
"3C62EA6425BE4FD0B43020D786F4BB4B",1,"0198f77e-441e-7977-bbe0-77f91ba5eda9","0198f767-55c9-7875-8d21-563b3c0b86ed","2025-08-29_13h26.24.034",29.4024,32.3966,32.3968,32.3968,32.3968,32.7465,0,4,4,0,1,7,30,TRUE,2,0.8835,NA,NA,NA,NA,NA,NA,NA,NA,NA,NA,NA,NA,NA,NA,0,5,"binary"
"3C62EA6425BE4FD0B43020D786F4BB4B",1,"0198f77e-441e-7977-bbe0-77f91ba5eda9","0198f767-55c9-7875-8d21-563b3c0b86ed","2025-08-29_13h26.24.034",NA,NA,47.2967,47.2971,47.2972,47.6455,NA,NA,NA,NA,NA,NA,NA,TRUE,2,1.0539,44.324,47.2957,0,0,0,38,1,28,32,NA,NA,NA,NA,NA,1,1,"binary"
"3C62EA6425BE4FD0B43020D786F4BB4B",1,"0198f77e-441e-7977-bbe0-77f91ba5eda9","0198f767-55c9-7875-8d21-563b3c0b86ed","2025-08-29_13h26.24.034",NA,NA,50.6452,50.6453,50.6453,50.9948,NA,NA,NA,NA,NA,NA,NA,TRUE,1,0.9811,47.6479,50.645,0,1,1,104,1,200,35,NA,NA,NA,NA,NA,1,2,"binary"
"3C62EA6425BE4FD0B43020D786F4BB4B",1,"0198f77e-441e-7977-bbe0-77f91ba5eda9","0198f767-55c9-7875-8d21-563b3c0b86ed","2025-08-29_13h26.24.034",NA,NA,53.9956,53.9958,53.9958,54.3442,NA,NA,NA,NA,NA,NA,NA,TRUE,1,1.2266,50.999,53.9955,0,2,2,97,1,180,31,NA,NA,NA,NA,NA,1,3,"binary"
"3C62EA6425BE4FD0B43020D786F4BB4B",1,"0198f77e-441e-7977-bbe0-77f91ba5eda9","0198f767-55c9-7875-8d21-563b3c0b86ed","2025-08-29_13h26.24.034",NA,NA,57.3449,57.3451,57.3452,57.6948,NA,NA,NA,NA,NA,NA,NA,TRUE,2,0.9465,54.3462,57.3447,0,3,3,0,1,7,25,NA,NA,NA,NA,NA,1,4,"binary"
"3C62EA6425BE4FD0B43020D786F4BB4B",1,"0198f77e-441e-7977-bbe0-77f91ba5eda9","0198f767-55c9-7875-8d21-563b3c0b86ed","2025-08-29_13h26.24.034",NA,NA,60.6949,60.695,60.695,61.0445,NA,NA,NA,NA,NA,NA,NA,TRUE,2,0.5463,57.6972,60.6947,0,4,4,21,1,14,32,NA,NA,NA,NA,NA,1,5,"binary"
"3C62EA6425BE4FD0B43020D786F4BB4B",1,"0198f77e-441e-7977-bbe0-77f91ba5eda9","0198f767-55c9-7875-8d21-563b3c0b86ed","2025-08-29_13h26.24.034",NA,NA,64.0446,64.0448,64.0448,64.3941,NA,NA,NA,NA,NA,NA,NA,TRUE,2,1.1645,61.0481,64.0442,0,5,5,81,1,95,40,NA,NA,NA,NA,NA,1,6,"binary"
"3C62EA6425BE4FD0B43020D786F4BB4B",1,"0198f77e-441e-7977-bbe0-77f91ba5eda9","0198f767-55c9-7875-8d21-563b3c0b86ed","2025-08-29_13h26.24.034",NA,NA,67.3948,67.395,67.3953,67.7431,NA,NA,NA,NA,NA,NA,NA,TRUE,2,0.476,64.3972,67.3945,0,6,6,35,1,25,46,NA,NA,NA,NA,NA,1,7,"binary"
"3C62EA6425BE4FD0B43020D786F4BB4B",1,"0198f77e-441e-7977-bbe0-77f91ba5eda9","0198f767-55c9-7875-8d21-563b3c0b86ed","2025-08-29_13h26.24.034",NA,NA,70.7445,70.7448,70.7449,71.0941,NA,NA,NA,NA,NA,NA,NA,TRUE,2,1.1628,67.7438,70.7443,0,7,7,95,1,150,54,NA,NA,NA,NA,NA,1,8,"binary"
"3C62EA6425BE4FD0B43020D786F4BB4B",1,"0198f77e-441e-7977-bbe0-77f91ba5eda9","0198f767-55c9-7875-8d21-563b3c0b86ed","2025-08-29_13h26.24.034",NA,NA,74.0952,74.0953,74.0954,74.4441,NA,NA,NA,NA,NA,NA,NA,TRUE,2,0.5785,71.0964,74.0948,0,8,8,46,1,30,32,NA,NA,NA,NA,NA,1,9,"binary"
"3C62EA6425BE4FD0B43020D786F4BB4B",1,"0198f77e-441e-7977-bbe0-77f91ba5eda9","0198f767-55c9-7875-8d21-563b3c0b86ed","2025-08-29_13h26.24.034",NA,NA,77.4442,77.4443,77.4443,77.7937,NA,NA,NA,NA,NA,NA,NA,TRUE,1,0.7775,74.447,77.4437,0,9,9,59,1,45,46,NA,NA,NA,NA,NA,1,10,"binary"
"3C62EA6425BE4FD0B43020D786F4BB4B",1,"0198f77e-441e-7977-bbe0-77f91ba5eda9","0198f767-55c9-7875-8d21-563b3c0b86ed","2025-08-29_13h26.24.034",NA,NA,80.7936,80.7938,80.7939,81.1432,NA,NA,NA,NA,NA,NA,NA,TRUE,1,2.126,77.7972,80.7931,0,10,10,25,1,21,27,NA,NA,NA,NA,NA,1,11,"binary"
"3C62EA6425BE4FD0B43020D786F4BB4B",1,"0198f77e-441e-7977-bbe0-77f91ba5eda9","0198f767-55c9-7875-8d21-563b3c0b86ed","2025-08-29_13h26.24.034",NA,NA,84.1434,84.1435,84.1435,84.493,NA,NA,NA,NA,NA,NA,NA,TRUE,2,0.9997,81.1456,84.143,0,11,11,74,1,90,33,NA,NA,NA,NA,NA,1,12,"binary"
"3C62EA6425BE4FD0B43020D786F4BB4B",1,"0198f77e-441e-7977-bbe0-77f91ba5eda9","0198f767-55c9-7875-8d21-563b3c0b86ed","2025-08-29_13h26.24.034",NA,NA,87.4941,87.4941,87.4941,87.8427,NA,NA,NA,NA,NA,NA,NA,TRUE,1,0.9635,84.4968,87.4936,0,12,12,98,1,180,35,NA,NA,NA,NA,NA,1,13,"binary"
"3C62EA6425BE4FD0B43020D786F4BB4B",1,"0198f77e-441e-7977-bbe0-77f91ba5eda9","0198f767-55c9-7875-8d21-563b3c0b86ed","2025-08-29_13h26.24.034",NA,NA,90.8435,90.8436,90.8436,91.1925,NA,NA,NA,NA,NA,NA,NA,TRUE,1,0.8096,87.8475,90.8434,0,13,13,99,1,180,39,NA,NA,NA,NA,NA,1,14,"binary"
"3C62EA6425BE4FD0B43020D786F4BB4B",1,"0198f77e-441e-7977-bbe0-77f91ba5eda9","0198f767-55c9-7875-8d21-563b3c0b86ed","2025-08-29_13h26.24.034",NA,NA,94.1929,94.1933,94.1933,94.5425,NA,NA,NA,NA,NA,NA,NA,TRUE,2,1.1618,91.1962,94.1923,0,14,14,34,1,25,35,NA,NA,NA,NA,NA,1,15,"binary"
"3C62EA6425BE4FD0B43020D786F4BB4B",1,"0198f77e-441e-7977-bbe0-77f91ba5eda9","0198f767-55c9-7875-8d21-563b3c0b86ed","2025-08-29_13h26.24.034",NA,NA,97.5423,97.5425,97.5425,97.8922,NA,NA,NA,NA,NA,NA,NA,TRUE,1,0.9161,94.5464,97.5421,0,15,15,85,1,100,31,NA,NA,NA,NA,NA,1,16,"binary"
"3C62EA6425BE4FD0B43020D786F4BB4B",1,"0198f77e-441e-7977-bbe0-77f91ba5eda9","0198f767-55c9-7875-8d21-563b3c0b86ed","2025-08-29_13h26.24.034",NA,NA,100.8922,100.8922,100.8922,101.2423,NA,NA,NA,NA,NA,NA,NA,TRUE,1,0.8367,97.894,100.8917,0,16,16,82,1,95,47,NA,NA,NA,NA,NA,1,17,"binary"
"3C62EA6425BE4FD0B43020D786F4BB4B",1,"0198f77e-441e-7977-bbe0-77f91ba5eda9","0198f767-55c9-7875-8d21-563b3c0b86ed","2025-08-29_13h26.24.034",NA,NA,104.2421,104.2423,104.2424,104.5914,NA,NA,NA,NA,NA,NA,NA,TRUE,1,0.7465,101.2454,104.2418,0,17,17,107,1,200,54,NA,NA,NA,NA,NA,1,18,"binary"
"3C62EA6425BE4FD0B43020D786F4BB4B",1,"0198f77e-441e-7977-bbe0-77f91ba5eda9","0198f767-55c9-7875-8d21-563b3c0b86ed","2025-08-29_13h26.24.034",NA,NA,107.5915,107.5915,107.5915,107.942,NA,NA,NA,NA,NA,NA,NA,TRUE,1,0.523,104.5944,107.5913,0,18,18,88,1,100,46,NA,NA,NA,NA,NA,1,19,"binary"
"3C62EA6425BE4FD0B43020D786F4BB4B",1,"0198f77e-441e-7977-bbe0-77f91ba5eda9","0198f767-55c9-7875-8d21-563b3c0b86ed","2025-08-29_13h26.24.034",NA,NA,110.9419,110.9419,110.942,111.2922,NA,NA,NA,NA,NA,NA,NA,TRUE,1,2.7642,107.9458,110.9413,0,19,19,69,1,60,40,NA,NA,NA,NA,NA,1,20,"binary"
"3C62EA6425BE4FD0B43020D786F4BB4B",1,"0198f77e-441e-7977-bbe0-77f91ba5eda9","0198f767-55c9-7875-8d21-563b3c0b86ed","2025-08-29_13h26.24.034",NA,NA,114.2917,114.2917,114.2917,114.6411,NA,NA,NA,NA,NA,NA,NA,TRUE,2,1.3452,111.2952,114.2915,0,20,20,32,1,25,31,NA,NA,NA,NA,NA,1,21,"binary"
"3C62EA6425BE4FD0B43020D786F4BB4B",1,"0198f77e-441e-7977-bbe0-77f91ba5eda9","0198f767-55c9-7875-8d21-563b3c0b86ed","2025-08-29_13h26.24.034",NA,NA,117.6413,117.6413,117.6413,117.9907,NA,NA,NA,NA,NA,NA,NA,TRUE,1,1.7942,114.6436,117.6411,0,21,21,71,1,60,54,NA,NA,NA,NA,NA,1,22,"binary"
"3C62EA6425BE4FD0B43020D786F4BB4B",1,"0198f77e-441e-7977-bbe0-77f91ba5eda9","0198f767-55c9-7875-8d21-563b3c0b86ed","2025-08-29_13h26.24.034",NA,NA,120.9909,120.9911,120.9912,121.3446,NA,NA,NA,NA,NA,NA,NA,TRUE,2,0.6558,117.9943,120.9907,0,22,22,19,1,14,26,NA,NA,NA,NA,NA,1,23,"binary"
"3C62EA6425BE4FD0B43020D786F4BB4B",1,"0198f77e-441e-7977-bbe0-77f91ba5eda9","0198f767-55c9-7875-8d21-563b3c0b86ed","2025-08-29_13h26.24.034",NA,NA,124.341,124.341,124.3411,124.6902,NA,NA,NA,NA,NA,NA,NA,TRUE,2,0.6769,121.3473,124.3405,0,23,23,93,1,150,40,NA,NA,NA,NA,NA,1,24,"binary"
"3C62EA6425BE4FD0B43020D786F4BB4B",1,"0198f77e-441e-7977-bbe0-77f91ba5eda9","0198f767-55c9-7875-8d21-563b3c0b86ed","2025-08-29_13h26.24.034",NA,NA,127.6899,127.69,127.69,128.0401,NA,NA,NA,NA,NA,NA,NA,TRUE,1,0.698,124.693,127.6897,0,24,24,84,1,100,26,NA,NA,NA,NA,NA,1,25,"binary"
"3C62EA6425BE4FD0B43020D786F4BB4B",1,"0198f77e-441e-7977-bbe0-77f91ba5eda9","0198f767-55c9-7875-8d21-563b3c0b86ed","2025-08-29_13h26.24.034",NA,NA,131.0453,131.0454,131.0454,131.3957,NA,NA,NA,NA,NA,NA,NA,TRUE,1,1.5109,128.0436,131.0451,0,25,25,83,1,95,54,NA,NA,NA,NA,NA,1,26,"binary"
"3C62EA6425BE4FD0B43020D786F4BB4B",1,"0198f77e-441e-7977-bbe0-77f91ba5eda9","0198f767-55c9-7875-8d21-563b3c0b86ed","2025-08-29_13h26.24.034",NA,NA,134.3907,134.3908,134.3909,134.7404,NA,NA,NA,NA,NA,NA,NA,TRUE,1,1.0989,131.3984,134.3902,0,26,26,89,1,100,54,NA,NA,NA,NA,NA,1,27,"binary"
"3C62EA6425BE4FD0B43020D786F4BB4B",1,"0198f77e-441e-7977-bbe0-77f91ba5eda9","0198f767-55c9-7875-8d21-563b3c0b86ed","2025-08-29_13h26.24.034",NA,NA,137.7402,137.7403,137.7404,138.0903,NA,NA,NA,NA,NA,NA,NA,TRUE,1,1.103,134.7429,137.7398,0,27,27,43,1,30,27,NA,NA,NA,NA,NA,1,28,"binary"
"3C62EA6425BE4FD0B43020D786F4BB4B",1,"0198f77e-441e-7977-bbe0-77f91ba5eda9","0198f767-55c9-7875-8d21-563b3c0b86ed","2025-08-29_13h26.24.034",NA,NA,141.0902,141.0903,141.0903,141.44,NA,NA,NA,NA,NA,NA,NA,TRUE,2,0.9987,138.093,141.0898,0,28,28,51,1,40,40,NA,NA,NA,NA,NA,1,29,"binary"
"3C62EA6425BE4FD0B43020D786F4BB4B",1,"0198f77e-441e-7977-bbe0-77f91ba5eda9","0198f767-55c9-7875-8d21-563b3c0b86ed","2025-08-29_13h26.24.034",NA,NA,144.4398,144.4398,144.4398,144.7898,NA,NA,NA,NA,NA,NA,NA,TRUE,1,0.9485,141.4437,144.4396,0,29,29,1,1,7,26,NA,NA,NA,NA,NA,1,30,"binary"
"3C62EA6425BE4FD0B43020D786F4BB4B",1,"0198f77e-441e-7977-bbe0-77f91ba5eda9","0198f767-55c9-7875-8d21-563b3c0b86ed","2025-08-29_13h26.24.034",NA,NA,147.795,147.7951,147.7951,148.1397,NA,NA,NA,NA,NA,NA,NA,TRUE,1,1.3339,144.7936,147.7948,0,30,30,90,1,150,31,NA,NA,NA,NA,NA,1,31,"binary"
"3C62EA6425BE4FD0B43020D786F4BB4B",1,"0198f77e-441e-7977-bbe0-77f91ba5eda9","0198f767-55c9-7875-8d21-563b3c0b86ed","2025-08-29_13h26.24.034",NA,NA,151.1395,151.1395,151.1395,151.4891,NA,NA,NA,NA,NA,NA,NA,TRUE,2,1.502,148.1429,151.1392,0,31,31,15,1,12,31,NA,NA,NA,NA,NA,1,32,"binary"
"3C62EA6425BE4FD0B43020D786F4BB4B",1,"0198f77e-441e-7977-bbe0-77f91ba5eda9","0198f767-55c9-7875-8d21-563b3c0b86ed","2025-08-29_13h26.24.034",NA,NA,154.4888,154.4888,154.4889,154.839,NA,NA,NA,NA,NA,NA,NA,TRUE,2,0.6359,151.4929,154.4886,0,32,32,9,1,10,29,NA,NA,NA,NA,NA,1,33,"binary"
"3C62EA6425BE4FD0B43020D786F4BB4B",1,"0198f77e-441e-7977-bbe0-77f91ba5eda9","0198f767-55c9-7875-8d21-563b3c0b86ed","2025-08-29_13h26.24.034",NA,NA,157.8387,157.8387,157.8387,158.1887,NA,NA,NA,NA,NA,NA,NA,TRUE,1,1.0438,154.8431,157.8385,0,33,33,92,1,150,35,NA,NA,NA,NA,NA,1,34,"binary"
"3C62EA6425BE4FD0B43020D786F4BB4B",1,"0198f77e-441e-7977-bbe0-77f91ba5eda9","0198f767-55c9-7875-8d21-563b3c0b86ed","2025-08-29_13h26.24.034",NA,NA,161.189,161.189,161.1891,161.5386,NA,NA,NA,NA,NA,NA,NA,TRUE,1,0.7465,158.1919,161.1886,0,34,34,30,1,25,27,NA,NA,NA,NA,NA,1,35,"binary"
"3C62EA6425BE4FD0B43020D786F4BB4B",1,"0198f77e-441e-7977-bbe0-77f91ba5eda9","0198f767-55c9-7875-8d21-563b3c0b86ed","2025-08-29_13h26.24.034",NA,NA,164.5388,164.5389,164.5389,164.8891,NA,NA,NA,NA,NA,NA,NA,TRUE,2,1.627,161.5421,164.5384,0,35,35,70,1,60,47,NA,NA,NA,NA,NA,1,36,"binary"
"3C62EA6425BE4FD0B43020D786F4BB4B",1,"0198f77e-441e-7977-bbe0-77f91ba5eda9","0198f767-55c9-7875-8d21-563b3c0b86ed","2025-08-29_13h26.24.034",NA,NA,167.8886,167.8886,167.8886,168.2382,NA,NA,NA,NA,NA,NA,NA,TRUE,2,1.7945,164.8924,167.8883,0,36,36,57,1,45,35,NA,NA,NA,NA,NA,1,37,"binary"
"3C62EA6425BE4FD0B43020D786F4BB4B",1,"0198f77e-441e-7977-bbe0-77f91ba5eda9","0198f767-55c9-7875-8d21-563b3c0b86ed","2025-08-29_13h26.24.034",NA,NA,171.2387,171.2392,171.2392,171.5878,NA,NA,NA,NA,NA,NA,NA,TRUE,1,0.5465,168.2421,171.2385,0,37,37,11,1,10,32,NA,NA,NA,NA,NA,1,38,"binary"
"3C62EA6425BE4FD0B43020D786F4BB4B",1,"0198f77e-441e-7977-bbe0-77f91ba5eda9","0198f767-55c9-7875-8d21-563b3c0b86ed","2025-08-29_13h26.24.034",NA,NA,174.5881,174.5881,174.5881,174.9368,NA,NA,NA,NA,NA,NA,NA,TRUE,1,0.8705,171.5914,174.5879,0,38,38,87,1,100,39,NA,NA,NA,NA,NA,1,39,"binary"
"3C62EA6425BE4FD0B43020D786F4BB4B",1,"0198f77e-441e-7977-bbe0-77f91ba5eda9","0198f767-55c9-7875-8d21-563b3c0b86ed","2025-08-29_13h26.24.034",NA,NA,177.9378,177.9378,177.9378,178.2909,NA,NA,NA,NA,NA,NA,NA,TRUE,1,1.1698,174.9397,177.9376,0,39,39,60,1,50,27,NA,NA,NA,NA,NA,1,40,"binary"
"3C62EA6425BE4FD0B43020D786F4BB4B",1,"0198f77e-441e-7977-bbe0-77f91ba5eda9","0198f767-55c9-7875-8d21-563b3c0b86ed","2025-08-29_13h26.24.034",NA,NA,181.2877,181.2877,181.2877,181.6379,NA,NA,NA,NA,NA,NA,NA,TRUE,2,1.0533,178.2937,181.2875,0,40,40,16,1,12,33,NA,NA,NA,NA,NA,1,41,"binary"
"3C62EA6425BE4FD0B43020D786F4BB4B",1,"0198f77e-441e-7977-bbe0-77f91ba5eda9","0198f767-55c9-7875-8d21-563b3c0b86ed","2025-08-29_13h26.24.034",NA,NA,184.6376,184.6376,184.6376,184.9876,NA,NA,NA,NA,NA,NA,NA,TRUE,2,0.5438,181.6423,184.6374,0,41,41,49,1,40,33,NA,NA,NA,NA,NA,1,42,"binary"
"3C62EA6425BE4FD0B43020D786F4BB4B",1,"0198f77e-441e-7977-bbe0-77f91ba5eda9","0198f767-55c9-7875-8d21-563b3c0b86ed","2025-08-29_13h26.24.034",NA,NA,187.9866,187.9866,187.9867,188.3368,NA,NA,NA,NA,NA,NA,NA,TRUE,2,0.5949,184.9897,187.9864,0,42,42,10,1,10,30,NA,NA,NA,NA,NA,1,43,"binary"
"3C62EA6425BE4FD0B43020D786F4BB4B",1,"0198f77e-441e-7977-bbe0-77f91ba5eda9","0198f767-55c9-7875-8d21-563b3c0b86ed","2025-08-29_13h26.24.034",NA,NA,191.3363,191.3363,191.3363,191.6861,NA,NA,NA,NA,NA,NA,NA,TRUE,2,0.6268,188.3404,191.3361,0,43,43,22,1,14,35,NA,NA,NA,NA,NA,1,44,"binary"
"3C62EA6425BE4FD0B43020D786F4BB4B",1,"0198f77e-441e-7977-bbe0-77f91ba5eda9","0198f767-55c9-7875-8d21-563b3c0b86ed","2025-08-29_13h26.24.034",NA,NA,194.6867,194.6868,194.6868,195.0363,NA,NA,NA,NA,NA,NA,NA,TRUE,2,0.5456,191.6893,194.6865,0,44,44,76,1,90,46,NA,NA,NA,NA,NA,1,45,"binary"
"3C62EA6425BE4FD0B43020D786F4BB4B",1,"0198f77e-441e-7977-bbe0-77f91ba5eda9","0198f767-55c9-7875-8d21-563b3c0b86ed","2025-08-29_13h26.24.034",NA,NA,198.0415,198.0415,198.0415,198.3862,NA,NA,NA,NA,NA,NA,NA,TRUE,2,0.7082,195.0397,198.0413,0,45,45,36,1,28,26,NA,NA,NA,NA,NA,1,46,"binary"
"3C62EA6425BE4FD0B43020D786F4BB4B",1,"0198f77e-441e-7977-bbe0-77f91ba5eda9","0198f767-55c9-7875-8d21-563b3c0b86ed","2025-08-29_13h26.24.034",NA,NA,201.3866,201.3867,201.3867,201.7361,NA,NA,NA,NA,NA,NA,NA,TRUE,2,0.4941,198.3897,201.3862,0,46,46,31,1,25,29,NA,NA,NA,NA,NA,1,47,"binary"
"3C62EA6425BE4FD0B43020D786F4BB4B",1,"0198f77e-441e-7977-bbe0-77f91ba5eda9","0198f767-55c9-7875-8d21-563b3c0b86ed","2025-08-29_13h26.24.034",NA,NA,204.7367,204.7376,204.7377,205.086,NA,NA,NA,NA,NA,NA,NA,TRUE,1,0.7615,201.739,204.7362,0,47,47,102,1,200,26,NA,NA,NA,NA,NA,1,48,"binary"
"3C62EA6425BE4FD0B43020D786F4BB4B",1,"0198f77e-441e-7977-bbe0-77f91ba5eda9","0198f767-55c9-7875-8d21-563b3c0b86ed","2025-08-29_13h26.24.034",NA,NA,208.0859,208.0859,208.086,208.4356,NA,NA,NA,NA,NA,NA,NA,TRUE,2,1.9437,205.0892,208.0857,0,48,48,5,1,7,35,NA,NA,NA,NA,NA,1,49,"binary"
"3C62EA6425BE4FD0B43020D786F4BB4B",1,"0198f77e-441e-7977-bbe0-77f91ba5eda9","0198f767-55c9-7875-8d21-563b3c0b86ed","2025-08-29_13h26.24.034",NA,NA,211.4351,211.4353,211.4353,211.7852,NA,NA,NA,NA,NA,NA,NA,TRUE,2,0.778,208.4387,211.4349,0,49,49,33,1,25,33,NA,NA,NA,NA,NA,1,50,"binary"
"3C62EA6425BE4FD0B43020D786F4BB4B",1,"0198f77e-441e-7977-bbe0-77f91ba5eda9","0198f767-55c9-7875-8d21-563b3c0b86ed","2025-08-29_13h26.24.034",NA,NA,214.7862,214.7866,214.7867,215.1348,NA,NA,NA,NA,NA,NA,NA,TRUE,2,0.5782,211.7886,214.786,0,50,50,8,1,10,27,NA,NA,NA,NA,NA,1,51,"binary"
"3C62EA6425BE4FD0B43020D786F4BB4B",1,"0198f77e-441e-7977-bbe0-77f91ba5eda9","0198f767-55c9-7875-8d21-563b3c0b86ed","2025-08-29_13h26.24.034",NA,NA,218.1353,218.1353,218.1353,218.4852,NA,NA,NA,NA,NA,NA,NA,TRUE,1,1.2937,215.138,218.1352,0,51,51,20,1,14,28,NA,NA,NA,NA,NA,1,52,"binary"
"3C62EA6425BE4FD0B43020D786F4BB4B",1,"0198f77e-441e-7977-bbe0-77f91ba5eda9","0198f767-55c9-7875-8d21-563b3c0b86ed","2025-08-29_13h26.24.034",NA,NA,221.4854,221.4854,221.4857,221.8348,NA,NA,NA,NA,NA,NA,NA,TRUE,2,0.6509,218.4888,221.4849,0,52,52,54,1,45,26,NA,NA,NA,NA,NA,1,53,"binary"
"3C62EA6425BE4FD0B43020D786F4BB4B",1,"0198f77e-441e-7977-bbe0-77f91ba5eda9","0198f767-55c9-7875-8d21-563b3c0b86ed","2025-08-29_13h26.24.034",NA,NA,224.8346,224.8347,224.8347,225.1847,NA,NA,NA,NA,NA,NA,NA,TRUE,2,0.8457,221.8383,224.8344,0,53,53,50,1,40,35,NA,NA,NA,NA,NA,1,54,"binary"
"3C62EA6425BE4FD0B43020D786F4BB4B",1,"0198f77e-441e-7977-bbe0-77f91ba5eda9","0198f767-55c9-7875-8d21-563b3c0b86ed","2025-08-29_13h26.24.034",NA,NA,228.1846,228.1849,228.1849,228.5345,NA,NA,NA,NA,NA,NA,NA,TRUE,1,0.8437,225.1871,228.1844,0,54,54,48,1,40,27,NA,NA,NA,NA,NA,1,55,"binary"
"3C62EA6425BE4FD0B43020D786F4BB4B",1,"0198f77e-441e-7977-bbe0-77f91ba5eda9","0198f767-55c9-7875-8d21-563b3c0b86ed","2025-08-29_13h26.24.034",NA,NA,231.5342,231.5342,231.5343,231.8842,NA,NA,NA,NA,NA,NA,NA,TRUE,1,0.6323,228.5377,231.534,0,55,55,61,1,50,30,NA,NA,NA,NA,NA,1,56,"binary"
"3C62EA6425BE4FD0B43020D786F4BB4B",1,"0198f77e-441e-7977-bbe0-77f91ba5eda9","0198f767-55c9-7875-8d21-563b3c0b86ed","2025-08-29_13h26.24.034",NA,NA,234.8845,234.8845,234.8845,235.234,NA,NA,NA,NA,NA,NA,NA,TRUE,2,1.8805,231.8871,234.8843,0,56,56,52,1,40,47,NA,NA,NA,NA,NA,1,57,"binary"
"3C62EA6425BE4FD0B43020D786F4BB4B",1,"0198f77e-441e-7977-bbe0-77f91ba5eda9","0198f767-55c9-7875-8d21-563b3c0b86ed","2025-08-29_13h26.24.034",NA,NA,238.2346,238.2347,238.2349,238.584,NA,NA,NA,NA,NA,NA,NA,TRUE,1,1.0525,235.2371,238.2344,0,57,57,63,1,50,40,NA,NA,NA,NA,NA,1,58,"binary"
"3C62EA6425BE4FD0B43020D786F4BB4B",1,"0198f77e-441e-7977-bbe0-77f91ba5eda9","0198f767-55c9-7875-8d21-563b3c0b86ed","2025-08-29_13h26.24.034",NA,NA,241.5839,241.5839,241.584,241.9342,NA,NA,NA,NA,NA,NA,NA,TRUE,1,0.785,238.587,241.5837,0,58,58,65,1,50,54,NA,NA,NA,NA,NA,1,59,"binary"
"3C62EA6425BE4FD0B43020D786F4BB4B",1,"0198f77e-441e-7977-bbe0-77f91ba5eda9","0198f767-55c9-7875-8d21-563b3c0b86ed","2025-08-29_13h26.24.034",NA,NA,244.9373,244.9373,244.9373,245.2831,NA,NA,NA,NA,NA,NA,NA,TRUE,1,0.5934,241.9377,244.9371,0,59,59,100,1,180,46,NA,NA,NA,NA,NA,1,60,"binary"
"3C62EA6425BE4FD0B43020D786F4BB4B",1,"0198f77e-441e-7977-bbe0-77f91ba5eda9","0198f767-55c9-7875-8d21-563b3c0b86ed","2025-08-29_13h26.24.034",NA,NA,248.2836,248.2836,248.2837,248.633,NA,NA,NA,NA,NA,NA,NA,TRUE,1,0.546,245.2862,248.2833,0,60,60,105,1,200,39,NA,NA,NA,NA,NA,1,61,"binary"
"3C62EA6425BE4FD0B43020D786F4BB4B",1,"0198f77e-441e-7977-bbe0-77f91ba5eda9","0198f767-55c9-7875-8d21-563b3c0b86ed","2025-08-29_13h26.24.034",NA,NA,251.6334,251.6334,251.6335,251.9868,NA,NA,NA,NA,NA,NA,NA,TRUE,1,2.443,248.6369,251.6332,0,61,61,44,1,30,29,NA,NA,NA,NA,NA,1,62,"binary"
"3C62EA6425BE4FD0B43020D786F4BB4B",1,"0198f77e-441e-7977-bbe0-77f91ba5eda9","0198f767-55c9-7875-8d21-563b3c0b86ed","2025-08-29_13h26.24.034",NA,NA,255.0003,255.0008,255.0008,255.333,NA,NA,NA,NA,NA,NA,NA,TRUE,2,1.3517,251.9892,255,0,62,62,27,1,21,30,NA,NA,NA,NA,NA,1,63,"binary"
"3C62EA6425BE4FD0B43020D786F4BB4B",1,"0198f77e-441e-7977-bbe0-77f91ba5eda9","0198f767-55c9-7875-8d21-563b3c0b86ed","2025-08-29_13h26.24.034",NA,NA,258.3504,258.3505,258.3505,258.6991,NA,NA,NA,NA,NA,NA,NA,TRUE,1,1.1799,255.3362,258.3501,0,63,63,73,1,90,30,NA,NA,NA,NA,NA,1,64,"binary"
"3C62EA6425BE4FD0B43020D786F4BB4B",1,"0198f77e-441e-7977-bbe0-77f91ba5eda9","0198f767-55c9-7875-8d21-563b3c0b86ed","2025-08-29_13h26.24.034",NA,NA,261.6993,261.6994,261.6994,262.0489,NA,NA,NA,NA,NA,NA,NA,TRUE,2,0.5475,258.703,261.6991,0,64,64,26,1,21,29,NA,NA,NA,NA,NA,1,65,"binary"
"3C62EA6425BE4FD0B43020D786F4BB4B",1,"0198f77e-441e-7977-bbe0-77f91ba5eda9","0198f767-55c9-7875-8d21-563b3c0b86ed","2025-08-29_13h26.24.034",NA,NA,265.0496,265.0496,265.0497,265.399,NA,NA,NA,NA,NA,NA,NA,TRUE,2,1.151,262.0529,265.0493,0,65,65,40,1,28,39,NA,NA,NA,NA,NA,1,66,"binary"
"3C62EA6425BE4FD0B43020D786F4BB4B",1,"0198f77e-441e-7977-bbe0-77f91ba5eda9","0198f767-55c9-7875-8d21-563b3c0b86ed","2025-08-29_13h26.24.034",NA,NA,268.3992,268.3992,268.3992,268.7537,NA,NA,NA,NA,NA,NA,NA,TRUE,1,0.9359,265.4024,268.3989,0,66,66,68,1,60,35,NA,NA,NA,NA,NA,1,67,"binary"
"3C62EA6425BE4FD0B43020D786F4BB4B",1,"0198f77e-441e-7977-bbe0-77f91ba5eda9","0198f767-55c9-7875-8d21-563b3c0b86ed","2025-08-29_13h26.24.034",NA,NA,271.7373,271.7373,271.7373,272.0846,NA,NA,NA,NA,NA,NA,NA,TRUE,1,1.1015,268.7565,271.7371,0,67,67,79,1,95,33,NA,NA,NA,NA,NA,1,68,"binary"
"3C62EA6425BE4FD0B43020D786F4BB4B",1,"0198f77e-441e-7977-bbe0-77f91ba5eda9","0198f767-55c9-7875-8d21-563b3c0b86ed","2025-08-29_13h26.24.034",NA,NA,275.099,275.0991,275.0992,275.4482,NA,NA,NA,NA,NA,NA,NA,TRUE,2,1.7787,272.0873,275.0987,0,68,68,39,1,28,35,NA,NA,NA,NA,NA,1,69,"binary"
"3C62EA6425BE4FD0B43020D786F4BB4B",1,"0198f77e-441e-7977-bbe0-77f91ba5eda9","0198f767-55c9-7875-8d21-563b3c0b86ed","2025-08-29_13h26.24.034",NA,NA,278.4487,278.449,278.449,278.7981,NA,NA,NA,NA,NA,NA,NA,TRUE,1,0.8822,275.4521,278.4485,0,69,69,77,1,90,54,NA,NA,NA,NA,NA,1,70,"binary"
"3C62EA6425BE4FD0B43020D786F4BB4B",1,"0198f77e-441e-7977-bbe0-77f91ba5eda9","0198f767-55c9-7875-8d21-563b3c0b86ed","2025-08-29_13h26.24.034",NA,NA,281.7986,281.7986,281.7986,282.1475,NA,NA,NA,NA,NA,NA,NA,TRUE,1,0.9226,278.8026,281.7983,0,70,70,91,1,150,33,NA,NA,NA,NA,NA,1,71,"binary"
"3C62EA6425BE4FD0B43020D786F4BB4B",1,"0198f77e-441e-7977-bbe0-77f91ba5eda9","0198f767-55c9-7875-8d21-563b3c0b86ed","2025-08-29_13h26.24.034",NA,NA,285.1525,285.1525,285.1525,285.5026,NA,NA,NA,NA,NA,NA,NA,TRUE,1,0.6353,282.1506,285.1523,0,71,71,80,1,95,35,NA,NA,NA,NA,NA,1,72,"binary"
"3C62EA6425BE4FD0B43020D786F4BB4B",1,"0198f77e-441e-7977-bbe0-77f91ba5eda9","0198f767-55c9-7875-8d21-563b3c0b86ed","2025-08-29_13h26.24.034",NA,NA,288.497,288.4971,288.4971,288.8479,NA,NA,NA,NA,NA,NA,NA,TRUE,2,0.9012,285.5049,288.4968,0,72,72,55,1,45,29,NA,NA,NA,NA,NA,1,73,"binary"
"3C62EA6425BE4FD0B43020D786F4BB4B",1,"0198f77e-441e-7977-bbe0-77f91ba5eda9","0198f767-55c9-7875-8d21-563b3c0b86ed","2025-08-29_13h26.24.034",NA,NA,291.8529,291.8529,291.8529,293.0204,NA,NA,NA,NA,NA,NA,NA,TRUE,2,0.8337,288.8518,291.8527,0,73,73,64,1,50,46,NA,NA,NA,NA,NA,1,74,"binary"
"3C62EA6425BE4FD0B43020D786F4BB4B",1,"0198f77e-441e-7977-bbe0-77f91ba5eda9","0198f767-55c9-7875-8d21-563b3c0b86ed","2025-08-29_13h26.24.034",NA,NA,295.1864,295.1864,295.1865,295.5371,NA,NA,NA,NA,NA,NA,NA,TRUE,1,0.5723,293.0222,295.1861,0,74,74,2,1,7,28,NA,NA,NA,NA,NA,1,75,"binary"
"3C62EA6425BE4FD0B43020D786F4BB4B",1,"0198f77e-441e-7977-bbe0-77f91ba5eda9","0198f767-55c9-7875-8d21-563b3c0b86ed","2025-08-29_13h26.24.034",NA,NA,298.536,298.536,298.536,298.8863,NA,NA,NA,NA,NA,NA,NA,TRUE,2,0.7175,295.5394,298.5358,0,75,75,23,1,14,39,NA,NA,NA,NA,NA,1,76,"binary"
"3C62EA6425BE4FD0B43020D786F4BB4B",1,"0198f77e-441e-7977-bbe0-77f91ba5eda9","0198f767-55c9-7875-8d21-563b3c0b86ed","2025-08-29_13h26.24.034",NA,NA,301.8855,301.8855,301.8855,302.2359,NA,NA,NA,NA,NA,NA,NA,TRUE,2,0.5341,298.8888,301.8852,0,76,76,29,1,21,38,NA,NA,NA,NA,NA,1,77,"binary"
"3C62EA6425BE4FD0B43020D786F4BB4B",1,"0198f77e-441e-7977-bbe0-77f91ba5eda9","0198f767-55c9-7875-8d21-563b3c0b86ed","2025-08-29_13h26.24.034",NA,NA,305.2364,305.2364,305.2364,305.5854,NA,NA,NA,NA,NA,NA,NA,TRUE,1,0.6014,302.238,305.2362,0,77,77,94,1,150,47,NA,NA,NA,NA,NA,1,78,"binary"
"3C62EA6425BE4FD0B43020D786F4BB4B",1,"0198f77e-441e-7977-bbe0-77f91ba5eda9","0198f767-55c9-7875-8d21-563b3c0b86ed","2025-08-29_13h26.24.034",NA,NA,308.5865,308.5866,308.5866,308.9351,NA,NA,NA,NA,NA,NA,NA,TRUE,1,1.0338,305.588,308.5863,0,78,78,42,1,30,26,NA,NA,NA,NA,NA,1,79,"binary"
"3C62EA6425BE4FD0B43020D786F4BB4B",1,"0198f77e-441e-7977-bbe0-77f91ba5eda9","0198f767-55c9-7875-8d21-563b3c0b86ed","2025-08-29_13h26.24.034",NA,NA,311.9355,311.9355,311.9356,312.2853,NA,NA,NA,NA,NA,NA,NA,TRUE,2,2.1495,308.937,311.9351,0,79,79,28,1,21,32,NA,NA,NA,NA,NA,1,80,"binary"
"3C62EA6425BE4FD0B43020D786F4BB4B",1,"0198f77e-441e-7977-bbe0-77f91ba5eda9","0198f767-55c9-7875-8d21-563b3c0b86ed","2025-08-29_13h26.24.034",NA,NA,315.2856,315.2856,315.2856,315.6344,NA,NA,NA,NA,NA,NA,NA,TRUE,2,1.1835,312.2879,315.2855,0,80,80,4,1,7,32,NA,NA,NA,NA,NA,1,81,"binary"
"3C62EA6425BE4FD0B43020D786F4BB4B",1,"0198f77e-441e-7977-bbe0-77f91ba5eda9","0198f767-55c9-7875-8d21-563b3c0b86ed","2025-08-29_13h26.24.034",NA,NA,318.6349,318.635,318.635,318.9844,NA,NA,NA,NA,NA,NA,NA,TRUE,1,1.2678,315.6375,318.6346,0,81,81,37,1,28,28,NA,NA,NA,NA,NA,1,82,"binary"
"3C62EA6425BE4FD0B43020D786F4BB4B",1,"0198f77e-441e-7977-bbe0-77f91ba5eda9","0198f767-55c9-7875-8d21-563b3c0b86ed","2025-08-29_13h26.24.034",NA,NA,321.9856,321.9856,321.9857,322.3339,NA,NA,NA,NA,NA,NA,NA,TRUE,2,0.7842,318.9868,321.9852,0,82,82,17,1,12,35,NA,NA,NA,NA,NA,1,83,"binary"
"3C62EA6425BE4FD0B43020D786F4BB4B",1,"0198f77e-441e-7977-bbe0-77f91ba5eda9","0198f767-55c9-7875-8d21-563b3c0b86ed","2025-08-29_13h26.24.034",NA,NA,325.3342,325.3342,325.3346,325.6845,NA,NA,NA,NA,NA,NA,NA,TRUE,1,0.8173,322.3357,325.334,0,83,83,75,1,90,40,NA,NA,NA,NA,NA,1,84,"binary"
"3C62EA6425BE4FD0B43020D786F4BB4B",1,"0198f77e-441e-7977-bbe0-77f91ba5eda9","0198f767-55c9-7875-8d21-563b3c0b86ed","2025-08-29_13h26.24.034",NA,NA,328.6837,328.6837,328.6837,329.0348,NA,NA,NA,NA,NA,NA,NA,TRUE,2,0.601,325.6864,328.6835,0,84,84,3,1,7,30,NA,NA,NA,NA,NA,1,85,"binary"
"3C62EA6425BE4FD0B43020D786F4BB4B",1,"0198f77e-441e-7977-bbe0-77f91ba5eda9","0198f767-55c9-7875-8d21-563b3c0b86ed","2025-08-29_13h26.24.034",NA,NA,332.0342,332.0342,332.0342,332.385,NA,NA,NA,NA,NA,NA,NA,TRUE,1,0.7848,329.0373,332.034,0,85,85,96,1,180,27,NA,NA,NA,NA,NA,1,86,"binary"
"3C62EA6425BE4FD0B43020D786F4BB4B",1,"0198f77e-441e-7977-bbe0-77f91ba5eda9","0198f767-55c9-7875-8d21-563b3c0b86ed","2025-08-29_13h26.24.034",NA,NA,335.4006,335.4006,335.4006,335.7334,NA,NA,NA,NA,NA,NA,NA,TRUE,2,0.5177,332.3872,335.4004,0,86,86,24,1,21,26,NA,NA,NA,NA,NA,1,87,"binary"
"3C62EA6425BE4FD0B43020D786F4BB4B",1,"0198f77e-441e-7977-bbe0-77f91ba5eda9","0198f767-55c9-7875-8d21-563b3c0b86ed","2025-08-29_13h26.24.034",NA,NA,338.7334,338.7334,338.7334,339.0832,NA,NA,NA,NA,NA,NA,NA,TRUE,1,0.6517,335.736,338.7331,0,87,87,106,1,200,47,NA,NA,NA,NA,NA,1,88,"binary"
"3C62EA6425BE4FD0B43020D786F4BB4B",1,"0198f77e-441e-7977-bbe0-77f91ba5eda9","0198f767-55c9-7875-8d21-563b3c0b86ed","2025-08-29_13h26.24.034",NA,NA,342.0836,342.0836,342.0836,342.4331,NA,NA,NA,NA,NA,NA,NA,TRUE,1,1.134,339.0859,342.0834,0,88,88,67,1,60,33,NA,NA,NA,NA,NA,1,89,"binary"
"3C62EA6425BE4FD0B43020D786F4BB4B",1,"0198f77e-441e-7977-bbe0-77f91ba5eda9","0198f767-55c9-7875-8d21-563b3c0b86ed","2025-08-29_13h26.24.034",NA,NA,345.45,345.4503,345.4504,345.7833,NA,NA,NA,NA,NA,NA,NA,TRUE,1,0.4339,342.4359,345.4498,0,89,89,72,1,90,26,NA,NA,NA,NA,NA,1,90,"binary"
"3C62EA6425BE4FD0B43020D786F4BB4B",1,"0198f77e-441e-7977-bbe0-77f91ba5eda9","0198f767-55c9-7875-8d21-563b3c0b86ed","2025-08-29_13h26.24.034",NA,NA,348.7997,348.7999,348.8,349.1327,NA,NA,NA,NA,NA,NA,NA,TRUE,2,0.6018,345.7861,348.7995,0,90,90,18,1,14,25,NA,NA,NA,NA,NA,1,91,"binary"
"3C62EA6425BE4FD0B43020D786F4BB4B",1,"0198f77e-441e-7977-bbe0-77f91ba5eda9","0198f767-55c9-7875-8d21-563b3c0b86ed","2025-08-29_13h26.24.034",NA,NA,352.1491,352.1491,352.1491,352.4831,NA,NA,NA,NA,NA,NA,NA,TRUE,2,0.6343,349.135,352.1489,0,91,91,58,1,45,40,NA,NA,NA,NA,NA,1,92,"binary"
"3C62EA6425BE4FD0B43020D786F4BB4B",1,"0198f77e-441e-7977-bbe0-77f91ba5eda9","0198f767-55c9-7875-8d21-563b3c0b86ed","2025-08-29_13h26.24.034",NA,NA,355.4989,355.4991,355.4992,355.8336,NA,NA,NA,NA,NA,NA,NA,TRUE,1,0.4345,352.4854,355.4986,0,92,92,66,1,60,29,NA,NA,NA,NA,NA,1,93,"binary"
"3C62EA6425BE4FD0B43020D786F4BB4B",1,"0198f77e-441e-7977-bbe0-77f91ba5eda9","0198f767-55c9-7875-8d21-563b3c0b86ed","2025-08-29_13h26.24.034",NA,NA,358.8333,358.8334,358.8335,359.1984,NA,NA,NA,NA,NA,NA,NA,TRUE,1,1.2842,355.8357,358.8327,0,93,93,13,1,12,26,NA,NA,NA,NA,NA,1,94,"binary"
"3C62EA6425BE4FD0B43020D786F4BB4B",1,"0198f77e-441e-7977-bbe0-77f91ba5eda9","0198f767-55c9-7875-8d21-563b3c0b86ed","2025-08-29_13h26.24.034",NA,NA,362.1984,362.1985,362.1985,362.5481,NA,NA,NA,NA,NA,NA,NA,TRUE,1,1.7177,359.2015,362.1983,0,94,94,12,1,12,25,NA,NA,NA,NA,NA,1,95,"binary"
"3C62EA6425BE4FD0B43020D786F4BB4B",1,"0198f77e-441e-7977-bbe0-77f91ba5eda9","0198f767-55c9-7875-8d21-563b3c0b86ed","2025-08-29_13h26.24.034",NA,NA,365.5482,365.5483,365.5485,365.8989,NA,NA,NA,NA,NA,NA,NA,TRUE,1,0.6338,362.551,365.5479,0,95,95,7,1,10,26,NA,NA,NA,NA,NA,1,96,"binary"
"3C62EA6425BE4FD0B43020D786F4BB4B",1,"0198f77e-441e-7977-bbe0-77f91ba5eda9","0198f767-55c9-7875-8d21-563b3c0b86ed","2025-08-29_13h26.24.034",NA,NA,368.8986,368.8986,368.8987,369.2488,NA,NA,NA,NA,NA,NA,NA,TRUE,1,0.5845,365.9018,368.8982,0,96,96,14,1,12,28,NA,NA,NA,NA,NA,1,97,"binary"
"3C62EA6425BE4FD0B43020D786F4BB4B",1,"0198f77e-441e-7977-bbe0-77f91ba5eda9","0198f767-55c9-7875-8d21-563b3c0b86ed","2025-08-29_13h26.24.034",NA,NA,372.2488,372.2488,372.2488,372.5981,NA,NA,NA,NA,NA,NA,NA,TRUE,2,1.1514,369.2509,372.2486,0,97,97,53,1,40,54,NA,NA,NA,NA,NA,1,98,"binary"
"3C62EA6425BE4FD0B43020D786F4BB4B",1,"0198f77e-441e-7977-bbe0-77f91ba5eda9","0198f767-55c9-7875-8d21-563b3c0b86ed","2025-08-29_13h26.24.034",NA,NA,375.5973,375.5974,375.5974,375.9483,NA,NA,NA,NA,NA,NA,NA,TRUE,1,1.968,372.6011,375.5971,0,98,98,6,1,10,25,NA,NA,NA,NA,NA,1,99,"binary"
"3C62EA6425BE4FD0B43020D786F4BB4B",1,"0198f77e-441e-7977-bbe0-77f91ba5eda9","0198f767-55c9-7875-8d21-563b3c0b86ed","2025-08-29_13h26.24.034",NA,NA,378.9422,378.9423,378.9424,379.2915,NA,NA,NA,NA,NA,NA,NA,TRUE,1,0.5347,375.9519,378.9419,0,99,99,103,1,200,28,NA,NA,NA,NA,NA,1,100,"binary"
"3C62EA6425BE4FD0B43020D786F4BB4B",1,"0198f77e-441e-7977-bbe0-77f91ba5eda9","0198f767-55c9-7875-8d21-563b3c0b86ed","2025-08-29_13h26.24.034",NA,NA,382.292,382.2921,382.2921,382.6414,NA,NA,NA,NA,NA,NA,NA,TRUE,1,0.1984,379.2945,382.2919,0,100,100,45,1,30,30,NA,NA,NA,NA,NA,1,101,"binary"
"3C62EA6425BE4FD0B43020D786F4BB4B",1,"0198f77e-441e-7977-bbe0-77f91ba5eda9","0198f767-55c9-7875-8d21-563b3c0b86ed","2025-08-29_13h26.24.034",NA,NA,385.6416,385.6416,385.6416,385.9912,NA,NA,NA,NA,NA,NA,NA,TRUE,2,0.5472,382.6443,385.6414,0,101,101,41,1,28,46,NA,NA,NA,NA,NA,1,102,"binary"
"3C62EA6425BE4FD0B43020D786F4BB4B",1,"0198f77e-441e-7977-bbe0-77f91ba5eda9","0198f767-55c9-7875-8d21-563b3c0b86ed","2025-08-29_13h26.24.034",NA,NA,388.9971,388.9971,388.9971,389.3415,NA,NA,NA,NA,NA,NA,NA,TRUE,1,0.7253,385.994,388.9969,0,102,102,78,1,95,31,NA,NA,NA,NA,NA,1,103,"binary"
"3C62EA6425BE4FD0B43020D786F4BB4B",1,"0198f77e-441e-7977-bbe0-77f91ba5eda9","0198f767-55c9-7875-8d21-563b3c0b86ed","2025-08-29_13h26.24.034",NA,NA,392.3413,392.3414,392.3414,392.6907,NA,NA,NA,NA,NA,NA,NA,TRUE,1,0.8262,389.3444,392.3409,0,103,103,86,1,100,38,NA,NA,NA,NA,NA,1,104,"binary"
"3C62EA6425BE4FD0B43020D786F4BB4B",1,"0198f77e-441e-7977-bbe0-77f91ba5eda9","0198f767-55c9-7875-8d21-563b3c0b86ed","2025-08-29_13h26.24.034",NA,NA,395.6911,395.6911,395.6911,396.0403,NA,NA,NA,NA,NA,NA,NA,TRUE,1,0.5292,392.6932,395.6908,0,104,104,56,1,45,31,NA,NA,NA,NA,NA,1,105,"binary"
"3C62EA6425BE4FD0B43020D786F4BB4B",1,"0198f77e-441e-7977-bbe0-77f91ba5eda9","0198f767-55c9-7875-8d21-563b3c0b86ed","2025-08-29_13h26.24.034",NA,NA,399.0414,399.0415,399.0417,399.3908,NA,NA,NA,NA,NA,NA,NA,TRUE,1,0.4034,396.0438,399.0409,0,105,105,101,1,180,54,NA,NA,NA,NA,NA,1,106,"binary"
"3C62EA6425BE4FD0B43020D786F4BB4B",1,"0198f77e-441e-7977-bbe0-77f91ba5eda9","0198f767-55c9-7875-8d21-563b3c0b86ed","2025-08-29_13h26.24.034",NA,NA,402.3967,402.3968,402.3968,402.7407,NA,NA,NA,NA,NA,NA,NA,TRUE,1,0.9089,399.3944,402.3965,0,106,106,47,1,30,38,NA,NA,NA,NA,NA,1,107,"binary"
"3C62EA6425BE4FD0B43020D786F4BB4B",1,"0198f77e-441e-7977-bbe0-77f91ba5eda9","0198f767-55c9-7875-8d21-563b3c0b86ed","2025-08-29_13h26.24.034",NA,NA,405.7415,405.7416,405.7417,406.0904,NA,NA,NA,NA,NA,NA,NA,TRUE,1,0.4947,402.7433,405.7409,0,107,107,62,1,50,35,NA,NA,NA,NA,NA,1,108,"binary"
"3C62EA6425BE4FD0B43020D786F4BB4B",1,"0198f77e-441e-7977-bbe0-77f91ba5eda9","0198f767-55c9-7875-8d21-563b3c0b86ed","2025-08-29_13h26.24.034",NA,NA,411.3607,411.3607,411.3609,411.7119,NA,NA,NA,NA,NA,NA,NA,TRUE,1,1.1596,408.3784,411.3604,NA,NA,NA,NA,NA,180,35,0,0,0,98,1,2,1,"binary"
"3C62EA6425BE4FD0B43020D786F4BB4B",1,"0198f77e-441e-7977-bbe0-77f91ba5eda9","0198f767-55c9-7875-8d21-563b3c0b86ed","2025-08-29_13h26.24.034",NA,NA,414.7068,414.7069,414.7069,415.0562,NA,NA,NA,NA,NA,NA,NA,TRUE,1,0.6421,411.715,414.7067,NA,NA,NA,NA,NA,10,25,0,1,1,6,1,2,2,"binary"
"3C62EA6425BE4FD0B43020D786F4BB4B",1,"0198f77e-441e-7977-bbe0-77f91ba5eda9","0198f767-55c9-7875-8d21-563b3c0b86ed","2025-08-29_13h26.24.034",NA,NA,417.7916,417.7916,417.7916,418.8718,NA,NA,NA,NA,NA,NA,NA,TRUE,1,0.4669,415.0601,417.7913,NA,NA,NA,NA,NA,7,26,0,2,2,1,1,2,3,"binary"
"3C62EA6425BE4FD0B43020D786F4BB4B",1,"0198f77e-441e-7977-bbe0-77f91ba5eda9","0198f767-55c9-7875-8d21-563b3c0b86ed","2025-08-29_13h26.24.034",NA,NA,421.4058,421.4058,421.4058,421.7548,NA,NA,NA,NA,NA,NA,NA,TRUE,1,0.3666,418.8736,421.4056,NA,NA,NA,NA,NA,40,40,0,3,3,51,1,2,4,"binary"
"3C62EA6425BE4FD0B43020D786F4BB4B",1,"0198f77e-441e-7977-bbe0-77f91ba5eda9","0198f767-55c9-7875-8d21-563b3c0b86ed","2025-08-29_13h26.24.034",NA,NA,424.7619,424.762,424.762,425.1055,NA,NA,NA,NA,NA,NA,NA,TRUE,2,0.6795,421.7565,424.7617,NA,NA,NA,NA,NA,180,54,0,4,4,101,1,2,5,"binary"
"3C62EA6425BE4FD0B43020D786F4BB4B",1,"0198f77e-441e-7977-bbe0-77f91ba5eda9","0198f767-55c9-7875-8d21-563b3c0b86ed","2025-08-29_13h26.24.034",NA,NA,428.1063,428.1063,428.1064,428.4558,NA,NA,NA,NA,NA,NA,NA,TRUE,2,0.712,425.1084,428.1056,NA,NA,NA,NA,NA,7,30,0,5,5,3,1,2,6,"binary"
"3C62EA6425BE4FD0B43020D786F4BB4B",1,"0198f77e-441e-7977-bbe0-77f91ba5eda9","0198f767-55c9-7875-8d21-563b3c0b86ed","2025-08-29_13h26.24.034",NA,NA,431.4614,431.4615,431.4615,431.8055,NA,NA,NA,NA,NA,NA,NA,TRUE,1,0.8828,428.4586,431.4613,NA,NA,NA,NA,NA,45,31,0,6,6,56,1,2,7,"binary"
"3C62EA6425BE4FD0B43020D786F4BB4B",1,"0198f77e-441e-7977-bbe0-77f91ba5eda9","0198f767-55c9-7875-8d21-563b3c0b86ed","2025-08-29_13h26.24.034",NA,NA,434.806,434.8064,434.8066,435.1552,NA,NA,NA,NA,NA,NA,NA,TRUE,2,0.7869,431.8088,434.8055,NA,NA,NA,NA,NA,7,35,0,7,7,5,1,2,8,"binary"
"3C62EA6425BE4FD0B43020D786F4BB4B",1,"0198f77e-441e-7977-bbe0-77f91ba5eda9","0198f767-55c9-7875-8d21-563b3c0b86ed","2025-08-29_13h26.24.034",NA,NA,438.1558,438.1561,438.1561,438.5049,NA,NA,NA,NA,NA,NA,NA,TRUE,1,0.7105,435.1588,438.1554,NA,NA,NA,NA,NA,28,26,0,8,8,36,1,2,9,"binary"
"3C62EA6425BE4FD0B43020D786F4BB4B",1,"0198f77e-441e-7977-bbe0-77f91ba5eda9","0198f767-55c9-7875-8d21-563b3c0b86ed","2025-08-29_13h26.24.034",NA,NA,441.5042,441.5043,441.5044,441.8593,NA,NA,NA,NA,NA,NA,NA,TRUE,1,1.4817,438.5079,441.504,NA,NA,NA,NA,NA,28,35,0,9,9,39,1,2,10,"binary"
"3C62EA6425BE4FD0B43020D786F4BB4B",1,"0198f77e-441e-7977-bbe0-77f91ba5eda9","0198f767-55c9-7875-8d21-563b3c0b86ed","2025-08-29_13h26.24.034",NA,NA,444.8547,444.8547,444.8547,445.2046,NA,NA,NA,NA,NA,NA,NA,TRUE,1,0.8105,441.8618,444.8546,NA,NA,NA,NA,NA,95,40,0,10,10,81,1,2,11,"binary"
"3C62EA6425BE4FD0B43020D786F4BB4B",1,"0198f77e-441e-7977-bbe0-77f91ba5eda9","0198f767-55c9-7875-8d21-563b3c0b86ed","2025-08-29_13h26.24.034",NA,NA,448.2047,448.2049,448.2049,448.5544,NA,NA,NA,NA,NA,NA,NA,TRUE,1,0.5777,445.2079,448.2045,NA,NA,NA,NA,NA,100,31,0,11,11,85,1,2,12,"binary"
"3C62EA6425BE4FD0B43020D786F4BB4B",1,"0198f77e-441e-7977-bbe0-77f91ba5eda9","0198f767-55c9-7875-8d21-563b3c0b86ed","2025-08-29_13h26.24.034",NA,NA,451.5552,451.5552,451.5552,451.9044,NA,NA,NA,NA,NA,NA,NA,TRUE,2,0.8926,448.557,451.5547,NA,NA,NA,NA,NA,25,46,0,12,12,35,1,2,13,"binary"
"3C62EA6425BE4FD0B43020D786F4BB4B",1,"0198f77e-441e-7977-bbe0-77f91ba5eda9","0198f767-55c9-7875-8d21-563b3c0b86ed","2025-08-29_13h26.24.034",NA,NA,454.9051,454.9052,454.9052,455.2541,NA,NA,NA,NA,NA,NA,NA,TRUE,1,0.6695,451.9076,454.9045,NA,NA,NA,NA,NA,100,38,0,13,13,86,1,2,14,"binary"
"3C62EA6425BE4FD0B43020D786F4BB4B",1,"0198f77e-441e-7977-bbe0-77f91ba5eda9","0198f767-55c9-7875-8d21-563b3c0b86ed","2025-08-29_13h26.24.034",NA,NA,458.2573,458.2573,458.2573,458.6038,NA,NA,NA,NA,NA,NA,NA,TRUE,1,0.5261,455.2572,458.2571,NA,NA,NA,NA,NA,200,47,0,14,14,106,1,2,15,"binary"
"3C62EA6425BE4FD0B43020D786F4BB4B",1,"0198f77e-441e-7977-bbe0-77f91ba5eda9","0198f767-55c9-7875-8d21-563b3c0b86ed","2025-08-29_13h26.24.034",NA,NA,461.6036,461.6037,461.6037,461.9536,NA,NA,NA,NA,NA,NA,NA,TRUE,1,0.4314,458.6077,461.6034,NA,NA,NA,NA,NA,90,40,0,15,15,75,1,2,16,"binary"
"3C62EA6425BE4FD0B43020D786F4BB4B",1,"0198f77e-441e-7977-bbe0-77f91ba5eda9","0198f767-55c9-7875-8d21-563b3c0b86ed","2025-08-29_13h26.24.034",NA,NA,464.9538,464.9538,464.9538,465.3038,NA,NA,NA,NA,NA,NA,NA,TRUE,1,1.2195,461.957,464.9536,NA,NA,NA,NA,NA,25,27,0,16,16,30,1,2,17,"binary"
"3C62EA6425BE4FD0B43020D786F4BB4B",1,"0198f77e-441e-7977-bbe0-77f91ba5eda9","0198f767-55c9-7875-8d21-563b3c0b86ed","2025-08-29_13h26.24.034",NA,NA,468.3039,468.3039,468.3039,468.6537,NA,NA,NA,NA,NA,NA,NA,TRUE,1,0.5954,465.3072,468.3036,NA,NA,NA,NA,NA,28,28,0,17,17,37,1,2,18,"binary"
"3C62EA6425BE4FD0B43020D786F4BB4B",1,"0198f77e-441e-7977-bbe0-77f91ba5eda9","0198f767-55c9-7875-8d21-563b3c0b86ed","2025-08-29_13h26.24.034",NA,NA,471.6531,471.6531,471.6531,472.0085,NA,NA,NA,NA,NA,NA,NA,TRUE,1,0.6433,468.6572,471.6528,NA,NA,NA,NA,NA,100,46,0,18,18,88,1,2,19,"binary"
"3C62EA6425BE4FD0B43020D786F4BB4B",1,"0198f77e-441e-7977-bbe0-77f91ba5eda9","0198f767-55c9-7875-8d21-563b3c0b86ed","2025-08-29_13h26.24.034",NA,NA,475.0067,475.0068,475.0068,475.353,NA,NA,NA,NA,NA,NA,NA,TRUE,1,1.3156,472.0119,475.0066,NA,NA,NA,NA,NA,50,27,0,19,19,60,1,2,20,"binary"
"3C62EA6425BE4FD0B43020D786F4BB4B",1,"0198f77e-441e-7977-bbe0-77f91ba5eda9","0198f767-55c9-7875-8d21-563b3c0b86ed","2025-08-29_13h26.24.034",NA,NA,478.3528,478.3528,478.3533,478.7023,NA,NA,NA,NA,NA,NA,NA,TRUE,1,0.5792,475.3561,478.3526,NA,NA,NA,NA,NA,150,54,0,20,20,95,1,2,21,"binary"
"3C62EA6425BE4FD0B43020D786F4BB4B",1,"0198f77e-441e-7977-bbe0-77f91ba5eda9","0198f767-55c9-7875-8d21-563b3c0b86ed","2025-08-29_13h26.24.034",NA,NA,481.7034,481.7035,481.7035,482.0553,NA,NA,NA,NA,NA,NA,NA,TRUE,1,0.762,478.7054,481.7031,NA,NA,NA,NA,NA,12,25,0,21,21,12,1,2,22,"binary"
"3C62EA6425BE4FD0B43020D786F4BB4B",1,"0198f77e-441e-7977-bbe0-77f91ba5eda9","0198f767-55c9-7875-8d21-563b3c0b86ed","2025-08-29_13h26.24.034",NA,NA,485.052,485.0521,485.0521,485.402,NA,NA,NA,NA,NA,NA,NA,TRUE,1,0.6857,482.0579,485.0518,NA,NA,NA,NA,NA,150,35,0,22,22,92,1,2,23,"binary"
"3C62EA6425BE4FD0B43020D786F4BB4B",1,"0198f77e-441e-7977-bbe0-77f91ba5eda9","0198f767-55c9-7875-8d21-563b3c0b86ed","2025-08-29_13h26.24.034",NA,NA,488.4023,488.4023,488.4023,488.7525,NA,NA,NA,NA,NA,NA,NA,TRUE,1,1.4426,485.4057,488.402,NA,NA,NA,NA,NA,50,46,0,23,23,64,1,2,24,"binary"
"3C62EA6425BE4FD0B43020D786F4BB4B",1,"0198f77e-441e-7977-bbe0-77f91ba5eda9","0198f767-55c9-7875-8d21-563b3c0b86ed","2025-08-29_13h26.24.034",NA,NA,491.7521,491.7521,491.7522,492.1015,NA,NA,NA,NA,NA,NA,NA,TRUE,2,0.5846,488.7559,491.7519,NA,NA,NA,NA,NA,14,39,0,24,24,23,1,2,25,"binary"
"3C62EA6425BE4FD0B43020D786F4BB4B",1,"0198f77e-441e-7977-bbe0-77f91ba5eda9","0198f767-55c9-7875-8d21-563b3c0b86ed","2025-08-29_13h26.24.034",NA,NA,495.1073,495.1074,495.1075,495.4516,NA,NA,NA,NA,NA,NA,NA,TRUE,1,1.1268,492.1052,495.1069,NA,NA,NA,NA,NA,40,27,0,25,25,48,1,2,26,"binary"
"3C62EA6425BE4FD0B43020D786F4BB4B",1,"0198f77e-441e-7977-bbe0-77f91ba5eda9","0198f767-55c9-7875-8d21-563b3c0b86ed","2025-08-29_13h26.24.034",NA,NA,498.453,498.453,498.453,498.8055,NA,NA,NA,NA,NA,NA,NA,TRUE,2,0.6781,495.4548,498.4522,NA,NA,NA,NA,NA,28,46,0,26,26,41,1,2,27,"binary"
"3C62EA6425BE4FD0B43020D786F4BB4B",1,"0198f77e-441e-7977-bbe0-77f91ba5eda9","0198f767-55c9-7875-8d21-563b3c0b86ed","2025-08-29_13h26.24.034",NA,NA,501.8016,501.8017,501.8017,502.1508,NA,NA,NA,NA,NA,NA,NA,TRUE,1,0.8794,498.808,501.8015,NA,NA,NA,NA,NA,90,26,0,27,27,72,1,2,28,"binary"
"3C62EA6425BE4FD0B43020D786F4BB4B",1,"0198f77e-441e-7977-bbe0-77f91ba5eda9","0198f767-55c9-7875-8d21-563b3c0b86ed","2025-08-29_13h26.24.034",NA,NA,505.1509,505.151,505.151,505.5007,NA,NA,NA,NA,NA,NA,NA,TRUE,1,0.96,502.1538,505.1507,NA,NA,NA,NA,NA,40,47,0,28,28,52,1,2,29,"binary"
"3C62EA6425BE4FD0B43020D786F4BB4B",1,"0198f77e-441e-7977-bbe0-77f91ba5eda9","0198f767-55c9-7875-8d21-563b3c0b86ed","2025-08-29_13h26.24.034",NA,NA,508.5008,508.5009,508.5009,508.8506,NA,NA,NA,NA,NA,NA,NA,TRUE,1,0.6623,505.5029,508.5006,NA,NA,NA,NA,NA,200,39,0,29,29,105,1,2,30,"binary"
"3C62EA6425BE4FD0B43020D786F4BB4B",1,"0198f77e-441e-7977-bbe0-77f91ba5eda9","0198f767-55c9-7875-8d21-563b3c0b86ed","2025-08-29_13h26.24.034",NA,NA,511.8507,511.8507,511.8507,512.2006,NA,NA,NA,NA,NA,NA,NA,TRUE,1,1.5562,508.8533,511.8504,NA,NA,NA,NA,NA,200,26,0,30,30,102,1,2,31,"binary"
"3C62EA6425BE4FD0B43020D786F4BB4B",1,"0198f77e-441e-7977-bbe0-77f91ba5eda9","0198f767-55c9-7875-8d21-563b3c0b86ed","2025-08-29_13h26.24.034",NA,NA,515.2055,515.2055,515.2055,515.5503,NA,NA,NA,NA,NA,NA,NA,TRUE,2,1.7618,512.2045,515.2052,NA,NA,NA,NA,NA,45,40,0,31,31,58,1,2,32,"binary"
"3C62EA6425BE4FD0B43020D786F4BB4B",1,"0198f77e-441e-7977-bbe0-77f91ba5eda9","0198f767-55c9-7875-8d21-563b3c0b86ed","2025-08-29_13h26.24.034",NA,NA,518.5506,518.5506,518.5507,518.917,NA,NA,NA,NA,NA,NA,NA,TRUE,2,0.5784,515.5546,518.5504,NA,NA,NA,NA,NA,28,32,0,32,32,38,1,2,33,"binary"
"3C62EA6425BE4FD0B43020D786F4BB4B",1,"0198f77e-441e-7977-bbe0-77f91ba5eda9","0198f767-55c9-7875-8d21-563b3c0b86ed","2025-08-29_13h26.24.034",NA,NA,521.901,521.9012,521.9012,522.2504,NA,NA,NA,NA,NA,NA,NA,TRUE,2,1.6175,518.9207,521.9001,NA,NA,NA,NA,NA,45,46,0,33,33,59,1,2,34,"binary"
"3C62EA6425BE4FD0B43020D786F4BB4B",1,"0198f77e-441e-7977-bbe0-77f91ba5eda9","0198f767-55c9-7875-8d21-563b3c0b86ed","2025-08-29_13h26.24.034",NA,NA,525.2718,525.2719,525.2719,525.6044,NA,NA,NA,NA,NA,NA,NA,TRUE,2,0.6635,522.2535,525.2717,NA,NA,NA,NA,NA,45,26,0,34,34,54,1,2,35,"binary"
"3C62EA6425BE4FD0B43020D786F4BB4B",1,"0198f77e-441e-7977-bbe0-77f91ba5eda9","0198f767-55c9-7875-8d21-563b3c0b86ed","2025-08-29_13h26.24.034",NA,NA,528.6219,528.622,528.622,528.9654,NA,NA,NA,NA,NA,NA,NA,TRUE,2,0.58,525.6068,528.6217,NA,NA,NA,NA,NA,7,32,0,35,35,4,1,2,36,"binary"
"3C62EA6425BE4FD0B43020D786F4BB4B",1,"0198f77e-441e-7977-bbe0-77f91ba5eda9","0198f767-55c9-7875-8d21-563b3c0b86ed","2025-08-29_13h26.24.034",NA,NA,531.9665,531.9669,531.9669,532.3158,NA,NA,NA,NA,NA,NA,NA,TRUE,1,0.6509,528.9684,531.9662,NA,NA,NA,NA,NA,100,54,0,36,36,89,1,2,37,"binary"
"3C62EA6425BE4FD0B43020D786F4BB4B",1,"0198f77e-441e-7977-bbe0-77f91ba5eda9","0198f767-55c9-7875-8d21-563b3c0b86ed","2025-08-29_13h26.24.034",NA,NA,535.3186,535.3187,535.3187,535.6656,NA,NA,NA,NA,NA,NA,NA,TRUE,2,0.7017,532.3195,535.3185,NA,NA,NA,NA,NA,21,26,0,37,37,24,1,2,38,"binary"
"3C62EA6425BE4FD0B43020D786F4BB4B",1,"0198f77e-441e-7977-bbe0-77f91ba5eda9","0198f767-55c9-7875-8d21-563b3c0b86ed","2025-08-29_13h26.24.034",NA,NA,538.6548,538.6548,538.6548,539.0153,NA,NA,NA,NA,NA,NA,NA,TRUE,1,0.6372,535.6688,538.6545,NA,NA,NA,NA,NA,12,28,0,38,38,14,1,2,39,"binary"
"3C62EA6425BE4FD0B43020D786F4BB4B",1,"0198f77e-441e-7977-bbe0-77f91ba5eda9","0198f767-55c9-7875-8d21-563b3c0b86ed","2025-08-29_13h26.24.034",NA,NA,542.0044,542.0044,542.0045,542.3654,NA,NA,NA,NA,NA,NA,NA,TRUE,2,1.1657,539.0199,542.0044,NA,NA,NA,NA,NA,90,54,0,39,39,77,1,2,40,"binary"
"3C62EA6425BE4FD0B43020D786F4BB4B",1,"0198f77e-441e-7977-bbe0-77f91ba5eda9","0198f767-55c9-7875-8d21-563b3c0b86ed","2025-08-29_13h26.24.034",NA,NA,545.3707,545.3708,545.3708,545.7151,NA,NA,NA,NA,NA,NA,NA,TRUE,2,0.5358,542.369,545.3706,NA,NA,NA,NA,NA,25,35,0,40,40,34,1,2,41,"binary"
"3C62EA6425BE4FD0B43020D786F4BB4B",1,"0198f77e-441e-7977-bbe0-77f91ba5eda9","0198f767-55c9-7875-8d21-563b3c0b86ed","2025-08-29_13h26.24.034",NA,NA,548.72,548.72,548.72,549.0706,NA,NA,NA,NA,NA,NA,NA,TRUE,2,1.2698,545.7183,548.7198,NA,NA,NA,NA,NA,30,27,0,41,41,43,1,2,42,"binary"
"3C62EA6425BE4FD0B43020D786F4BB4B",1,"0198f77e-441e-7977-bbe0-77f91ba5eda9","0198f767-55c9-7875-8d21-563b3c0b86ed","2025-08-29_13h26.24.034",NA,NA,552.0515,552.0516,552.0516,552.415,NA,NA,NA,NA,NA,NA,NA,TRUE,1,2.081,549.073,552.0514,NA,NA,NA,NA,NA,180,46,0,42,42,100,1,2,43,"binary"
"3C62EA6425BE4FD0B43020D786F4BB4B",1,"0198f77e-441e-7977-bbe0-77f91ba5eda9","0198f767-55c9-7875-8d21-563b3c0b86ed","2025-08-29_13h26.24.034",NA,NA,555.415,555.4152,555.4154,555.7645,NA,NA,NA,NA,NA,NA,NA,TRUE,1,0.8999,552.4183,555.4145,NA,NA,NA,NA,NA,50,35,0,43,43,62,1,2,44,"binary"
"3C62EA6425BE4FD0B43020D786F4BB4B",1,"0198f77e-441e-7977-bbe0-77f91ba5eda9","0198f767-55c9-7875-8d21-563b3c0b86ed","2025-08-29_13h26.24.034",NA,NA,558.7651,558.7655,558.7655,559.1146,NA,NA,NA,NA,NA,NA,NA,TRUE,1,0.6083,555.7681,558.7647,NA,NA,NA,NA,NA,45,29,0,44,44,55,1,2,45,"binary"
"3C62EA6425BE4FD0B43020D786F4BB4B",1,"0198f77e-441e-7977-bbe0-77f91ba5eda9","0198f767-55c9-7875-8d21-563b3c0b86ed","2025-08-29_13h26.24.034",NA,NA,562.114,562.1142,562.1142,562.4643,NA,NA,NA,NA,NA,NA,NA,TRUE,2,0.6169,559.1179,562.1135,NA,NA,NA,NA,NA,10,30,0,45,45,10,1,2,46,"binary"
"3C62EA6425BE4FD0B43020D786F4BB4B",1,"0198f77e-441e-7977-bbe0-77f91ba5eda9","0198f767-55c9-7875-8d21-563b3c0b86ed","2025-08-29_13h26.24.034",NA,NA,565.4647,565.4647,565.4647,565.8007,NA,NA,NA,NA,NA,NA,NA,TRUE,1,1.8348,562.4677,565.4645,NA,NA,NA,NA,NA,150,33,0,46,46,91,1,2,47,"binary"
"3C62EA6425BE4FD0B43020D786F4BB4B",1,"0198f77e-441e-7977-bbe0-77f91ba5eda9","0198f767-55c9-7875-8d21-563b3c0b86ed","2025-08-29_13h26.24.034",NA,NA,568.8014,568.8015,568.8015,569.1637,NA,NA,NA,NA,NA,NA,NA,TRUE,2,0.9837,565.8043,568.8011,NA,NA,NA,NA,NA,30,32,0,47,47,46,1,2,48,"binary"
"3C62EA6425BE4FD0B43020D786F4BB4B",1,"0198f77e-441e-7977-bbe0-77f91ba5eda9","0198f767-55c9-7875-8d21-563b3c0b86ed","2025-08-29_13h26.24.034",NA,NA,572.1525,572.1525,572.1526,572.5025,NA,NA,NA,NA,NA,NA,NA,TRUE,1,0.6663,569.167,572.1523,NA,NA,NA,NA,NA,90,33,0,48,48,74,1,2,49,"binary"
"3C62EA6425BE4FD0B43020D786F4BB4B",1,"0198f77e-441e-7977-bbe0-77f91ba5eda9","0198f767-55c9-7875-8d21-563b3c0b86ed","2025-08-29_13h26.24.034",NA,NA,575.513,575.5131,575.5131,575.868,NA,NA,NA,NA,NA,NA,NA,TRUE,1,0.594,572.5049,575.5127,NA,NA,NA,NA,NA,100,39,0,49,49,87,1,2,50,"binary"
"3C62EA6425BE4FD0B43020D786F4BB4B",1,"0198f77e-441e-7977-bbe0-77f91ba5eda9","0198f767-55c9-7875-8d21-563b3c0b86ed","2025-08-29_13h26.24.034",NA,NA,578.8692,578.8692,578.8692,579.2133,NA,NA,NA,NA,NA,NA,NA,TRUE,1,0.6539,575.8714,578.869,NA,NA,NA,NA,NA,90,46,0,50,50,76,1,2,51,"binary"
"3C62EA6425BE4FD0B43020D786F4BB4B",1,"0198f77e-441e-7977-bbe0-77f91ba5eda9","0198f767-55c9-7875-8d21-563b3c0b86ed","2025-08-29_13h26.24.034",NA,NA,582.2019,582.2019,582.202,582.5626,NA,NA,NA,NA,NA,NA,NA,TRUE,1,1.1143,579.217,582.2018,NA,NA,NA,NA,NA,30,26,0,51,51,42,1,2,52,"binary"
"3C62EA6425BE4FD0B43020D786F4BB4B",1,"0198f77e-441e-7977-bbe0-77f91ba5eda9","0198f767-55c9-7875-8d21-563b3c0b86ed","2025-08-29_13h26.24.034",NA,NA,585.5629,585.5629,585.5629,585.9124,NA,NA,NA,NA,NA,NA,NA,TRUE,1,0.6557,582.5657,585.5627,NA,NA,NA,NA,NA,50,30,0,52,52,61,1,2,53,"binary"
"3C62EA6425BE4FD0B43020D786F4BB4B",1,"0198f77e-441e-7977-bbe0-77f91ba5eda9","0198f767-55c9-7875-8d21-563b3c0b86ed","2025-08-29_13h26.24.034",NA,NA,588.9175,588.9175,588.9176,589.2666,NA,NA,NA,NA,NA,NA,NA,TRUE,1,0.7416,585.9156,588.9171,NA,NA,NA,NA,NA,14,32,0,53,53,21,1,2,54,"binary"
"3C62EA6425BE4FD0B43020D786F4BB4B",1,"0198f77e-441e-7977-bbe0-77f91ba5eda9","0198f767-55c9-7875-8d21-563b3c0b86ed","2025-08-29_13h26.24.034",NA,NA,592.2629,592.263,592.263,592.612,NA,NA,NA,NA,NA,NA,NA,TRUE,1,0.4693,589.2681,592.2627,NA,NA,NA,NA,NA,100,26,0,54,54,84,1,2,55,"binary"
"3C62EA6425BE4FD0B43020D786F4BB4B",1,"0198f77e-441e-7977-bbe0-77f91ba5eda9","0198f767-55c9-7875-8d21-563b3c0b86ed","2025-08-29_13h26.24.034",NA,NA,595.6122,595.6122,595.6122,595.962,NA,NA,NA,NA,NA,NA,NA,TRUE,1,0.1532,592.6153,595.612,NA,NA,NA,NA,NA,10,32,0,55,55,11,1,2,56,"binary"
"3C62EA6425BE4FD0B43020D786F4BB4B",1,"0198f77e-441e-7977-bbe0-77f91ba5eda9","0198f767-55c9-7875-8d21-563b3c0b86ed","2025-08-29_13h26.24.034",NA,NA,598.9624,598.9624,598.9624,599.3118,NA,NA,NA,NA,NA,NA,NA,TRUE,2,0.6925,595.9655,598.9621,NA,NA,NA,NA,NA,12,31,0,56,56,15,1,2,57,"binary"
"3C62EA6425BE4FD0B43020D786F4BB4B",1,"0198f77e-441e-7977-bbe0-77f91ba5eda9","0198f767-55c9-7875-8d21-563b3c0b86ed","2025-08-29_13h26.24.034",NA,NA,602.3175,602.3176,602.3176,602.6621,NA,NA,NA,NA,NA,NA,NA,TRUE,2,0.6682,599.3153,602.3172,NA,NA,NA,NA,NA,14,28,0,57,57,20,1,2,58,"binary"
"3C62EA6425BE4FD0B43020D786F4BB4B",1,"0198f77e-441e-7977-bbe0-77f91ba5eda9","0198f767-55c9-7875-8d21-563b3c0b86ed","2025-08-29_13h26.24.034",NA,NA,605.6618,605.6618,605.6618,606.0114,NA,NA,NA,NA,NA,NA,NA,TRUE,2,0.5003,602.665,605.6616,NA,NA,NA,NA,NA,14,25,0,58,58,18,1,2,59,"binary"
"3C62EA6425BE4FD0B43020D786F4BB4B",1,"0198f77e-441e-7977-bbe0-77f91ba5eda9","0198f767-55c9-7875-8d21-563b3c0b86ed","2025-08-29_13h26.24.034",NA,NA,609.0114,609.0114,609.0114,609.3666,NA,NA,NA,NA,NA,NA,NA,TRUE,1,1.0577,606.0141,609.0112,NA,NA,NA,NA,NA,50,54,0,59,59,65,1,2,60,"binary"
"3C62EA6425BE4FD0B43020D786F4BB4B",1,"0198f77e-441e-7977-bbe0-77f91ba5eda9","0198f767-55c9-7875-8d21-563b3c0b86ed","2025-08-29_13h26.24.034",NA,NA,612.3617,612.3618,612.3618,612.7111,NA,NA,NA,NA,NA,NA,NA,TRUE,2,1.1401,609.3694,612.3612,NA,NA,NA,NA,NA,60,54,0,60,60,71,1,2,61,"binary"
"3C62EA6425BE4FD0B43020D786F4BB4B",1,"0198f77e-441e-7977-bbe0-77f91ba5eda9","0198f767-55c9-7875-8d21-563b3c0b86ed","2025-08-29_13h26.24.034",NA,NA,615.7111,615.7116,615.7118,616.0608,NA,NA,NA,NA,NA,NA,NA,TRUE,1,0.6837,612.7143,615.711,NA,NA,NA,NA,NA,95,33,0,61,61,79,1,2,62,"binary"
"3C62EA6425BE4FD0B43020D786F4BB4B",1,"0198f77e-441e-7977-bbe0-77f91ba5eda9","0198f767-55c9-7875-8d21-563b3c0b86ed","2025-08-29_13h26.24.034",NA,NA,619.0613,619.0614,619.0614,619.4109,NA,NA,NA,NA,NA,NA,NA,TRUE,2,0.6344,616.0646,619.0612,NA,NA,NA,NA,NA,40,54,0,62,62,53,1,2,63,"binary"
"3C62EA6425BE4FD0B43020D786F4BB4B",1,"0198f77e-441e-7977-bbe0-77f91ba5eda9","0198f767-55c9-7875-8d21-563b3c0b86ed","2025-08-29_13h26.24.034",NA,NA,622.4109,622.4109,622.411,622.7595,NA,NA,NA,NA,NA,NA,NA,TRUE,1,0.527,619.4137,622.4106,NA,NA,NA,NA,NA,12,26,0,63,63,13,1,2,64,"binary"
"3C62EA6425BE4FD0B43020D786F4BB4B",1,"0198f77e-441e-7977-bbe0-77f91ba5eda9","0198f767-55c9-7875-8d21-563b3c0b86ed","2025-08-29_13h26.24.034",NA,NA,625.7605,625.7606,625.7606,626.1104,NA,NA,NA,NA,NA,NA,NA,TRUE,2,0.6526,622.7618,625.7603,NA,NA,NA,NA,NA,7,28,0,64,64,2,1,2,65,"binary"
"3C62EA6425BE4FD0B43020D786F4BB4B",1,"0198f77e-441e-7977-bbe0-77f91ba5eda9","0198f767-55c9-7875-8d21-563b3c0b86ed","2025-08-29_13h26.24.034",NA,NA,629.1111,629.1114,629.1116,629.4601,NA,NA,NA,NA,NA,NA,NA,TRUE,1,0.7708,626.1136,629.1107,NA,NA,NA,NA,NA,200,28,0,65,65,103,1,2,66,"binary"
"3C62EA6425BE4FD0B43020D786F4BB4B",1,"0198f77e-441e-7977-bbe0-77f91ba5eda9","0198f767-55c9-7875-8d21-563b3c0b86ed","2025-08-29_13h26.24.034",NA,NA,632.4605,632.4608,632.4608,632.8102,NA,NA,NA,NA,NA,NA,NA,TRUE,2,0.7332,629.4646,632.4601,NA,NA,NA,NA,NA,12,33,0,66,66,16,1,2,67,"binary"
"3C62EA6425BE4FD0B43020D786F4BB4B",1,"0198f77e-441e-7977-bbe0-77f91ba5eda9","0198f767-55c9-7875-8d21-563b3c0b86ed","2025-08-29_13h26.24.034",NA,NA,635.8093,635.8093,635.8093,636.1597,NA,NA,NA,NA,NA,NA,NA,TRUE,1,0.95,632.8135,635.8091,NA,NA,NA,NA,NA,150,31,0,67,67,90,1,2,68,"binary"
"3C62EA6425BE4FD0B43020D786F4BB4B",1,"0198f77e-441e-7977-bbe0-77f91ba5eda9","0198f767-55c9-7875-8d21-563b3c0b86ed","2025-08-29_13h26.24.034",NA,NA,639.1604,639.1604,639.1605,639.509,NA,NA,NA,NA,NA,NA,NA,TRUE,2,1.2354,636.1637,639.1601,NA,NA,NA,NA,NA,21,32,0,68,68,28,1,2,69,"binary"
"3C62EA6425BE4FD0B43020D786F4BB4B",1,"0198f77e-441e-7977-bbe0-77f91ba5eda9","0198f767-55c9-7875-8d21-563b3c0b86ed","2025-08-29_13h26.24.034",NA,NA,642.5098,642.5099,642.5099,642.8593,NA,NA,NA,NA,NA,NA,NA,TRUE,1,1.1443,639.5116,642.5095,NA,NA,NA,NA,NA,95,54,0,69,69,83,1,2,70,"binary"
"3C62EA6425BE4FD0B43020D786F4BB4B",1,"0198f77e-441e-7977-bbe0-77f91ba5eda9","0198f767-55c9-7875-8d21-563b3c0b86ed","2025-08-29_13h26.24.034",NA,NA,645.8595,645.8596,645.8598,646.2095,NA,NA,NA,NA,NA,NA,NA,TRUE,1,1.0678,642.8634,645.8592,NA,NA,NA,NA,NA,30,29,0,70,70,44,1,2,71,"binary"
"3C62EA6425BE4FD0B43020D786F4BB4B",1,"0198f77e-441e-7977-bbe0-77f91ba5eda9","0198f767-55c9-7875-8d21-563b3c0b86ed","2025-08-29_13h26.24.034",NA,NA,649.2089,649.209,649.209,649.5584,NA,NA,NA,NA,NA,NA,NA,TRUE,2,0.7346,646.2126,649.2087,NA,NA,NA,NA,NA,21,30,0,71,71,27,1,2,72,"binary"
"3C62EA6425BE4FD0B43020D786F4BB4B",1,"0198f77e-441e-7977-bbe0-77f91ba5eda9","0198f767-55c9-7875-8d21-563b3c0b86ed","2025-08-29_13h26.24.034",NA,NA,652.5596,652.56,652.5601,652.9089,NA,NA,NA,NA,NA,NA,NA,TRUE,2,0.7946,649.562,652.5593,NA,NA,NA,NA,NA,21,38,0,72,72,29,1,2,73,"binary"
"3C62EA6425BE4FD0B43020D786F4BB4B",1,"0198f77e-441e-7977-bbe0-77f91ba5eda9","0198f767-55c9-7875-8d21-563b3c0b86ed","2025-08-29_13h26.24.034",NA,NA,655.909,655.909,655.909,656.2586,NA,NA,NA,NA,NA,NA,NA,TRUE,1,0.5702,652.9121,655.9085,NA,NA,NA,NA,NA,60,29,0,73,73,66,1,2,74,"binary"
"3C62EA6425BE4FD0B43020D786F4BB4B",1,"0198f77e-441e-7977-bbe0-77f91ba5eda9","0198f767-55c9-7875-8d21-563b3c0b86ed","2025-08-29_13h26.24.034",NA,NA,659.2586,659.2587,659.2587,659.6084,NA,NA,NA,NA,NA,NA,NA,TRUE,1,0.5829,656.2623,659.2582,NA,NA,NA,NA,NA,60,33,0,74,74,67,1,2,75,"binary"
"3C62EA6425BE4FD0B43020D786F4BB4B",1,"0198f77e-441e-7977-bbe0-77f91ba5eda9","0198f767-55c9-7875-8d21-563b3c0b86ed","2025-08-29_13h26.24.034",NA,NA,662.6134,662.6135,662.6135,662.9586,NA,NA,NA,NA,NA,NA,NA,TRUE,1,0.6802,659.6121,662.6132,NA,NA,NA,NA,NA,180,27,0,75,75,96,1,2,76,"binary"
"3C62EA6425BE4FD0B43020D786F4BB4B",1,"0198f77e-441e-7977-bbe0-77f91ba5eda9","0198f767-55c9-7875-8d21-563b3c0b86ed","2025-08-29_13h26.24.034",NA,NA,665.9636,665.9636,665.9636,666.3135,NA,NA,NA,NA,NA,NA,NA,TRUE,1,0.5096,662.962,665.9634,NA,NA,NA,NA,NA,200,54,0,76,76,107,1,2,77,"binary"
"3C62EA6425BE4FD0B43020D786F4BB4B",1,"0198f77e-441e-7977-bbe0-77f91ba5eda9","0198f767-55c9-7875-8d21-563b3c0b86ed","2025-08-29_13h26.24.034",NA,NA,669.3132,669.3133,669.3133,669.6635,NA,NA,NA,NA,NA,NA,NA,TRUE,1,0.534,666.3168,669.313,NA,NA,NA,NA,NA,60,47,0,77,77,70,1,2,78,"binary"
"3C62EA6425BE4FD0B43020D786F4BB4B",1,"0198f77e-441e-7977-bbe0-77f91ba5eda9","0198f767-55c9-7875-8d21-563b3c0b86ed","2025-08-29_13h26.24.034",NA,NA,672.664,672.6641,672.6641,673.0129,NA,NA,NA,NA,NA,NA,NA,TRUE,1,1.4008,669.6657,672.6635,NA,NA,NA,NA,NA,40,35,0,78,78,50,1,2,79,"binary"
"3C62EA6425BE4FD0B43020D786F4BB4B",1,"0198f77e-441e-7977-bbe0-77f91ba5eda9","0198f767-55c9-7875-8d21-563b3c0b86ed","2025-08-29_13h26.24.034",NA,NA,676.0132,676.0134,676.0134,676.3628,NA,NA,NA,NA,NA,NA,NA,TRUE,2,0.5846,673.016,676.0131,NA,NA,NA,NA,NA,14,35,0,79,79,22,1,2,80,"binary"
"3C62EA6425BE4FD0B43020D786F4BB4B",1,"0198f77e-441e-7977-bbe0-77f91ba5eda9","0198f767-55c9-7875-8d21-563b3c0b86ed","2025-08-29_13h26.24.034",NA,NA,679.3628,679.3633,679.3633,679.7133,NA,NA,NA,NA,NA,NA,NA,TRUE,2,0.6341,676.3655,679.3626,NA,NA,NA,NA,NA,21,27,0,80,80,25,1,2,81,"binary"
"3C62EA6425BE4FD0B43020D786F4BB4B",1,"0198f77e-441e-7977-bbe0-77f91ba5eda9","0198f767-55c9-7875-8d21-563b3c0b86ed","2025-08-29_13h26.24.034",NA,NA,682.7129,682.7129,682.7129,683.0622,NA,NA,NA,NA,NA,NA,NA,TRUE,1,0.6006,679.7158,682.7127,NA,NA,NA,NA,NA,50,40,0,81,81,63,1,2,82,"binary"
"3C62EA6425BE4FD0B43020D786F4BB4B",1,"0198f77e-441e-7977-bbe0-77f91ba5eda9","0198f767-55c9-7875-8d21-563b3c0b86ed","2025-08-29_13h26.24.034",NA,NA,686.0631,686.0633,686.0633,686.4125,NA,NA,NA,NA,NA,NA,NA,TRUE,1,0.4678,683.0647,686.0629,NA,NA,NA,NA,NA,45,35,0,82,82,57,1,2,83,"binary"
"3C62EA6425BE4FD0B43020D786F4BB4B",1,"0198f77e-441e-7977-bbe0-77f91ba5eda9","0198f767-55c9-7875-8d21-563b3c0b86ed","2025-08-29_13h26.24.034",NA,NA,689.4125,689.4126,689.4126,689.7619,NA,NA,NA,NA,NA,NA,NA,TRUE,1,0.5338,686.4148,689.4123,NA,NA,NA,NA,NA,180,39,0,83,83,99,1,2,84,"binary"
"3C62EA6425BE4FD0B43020D786F4BB4B",1,"0198f77e-441e-7977-bbe0-77f91ba5eda9","0198f767-55c9-7875-8d21-563b3c0b86ed","2025-08-29_13h26.24.034",NA,NA,692.7618,692.7619,692.7619,693.112,NA,NA,NA,NA,NA,NA,NA,TRUE,2,0.8503,689.7641,692.7617,NA,NA,NA,NA,NA,10,27,0,84,84,8,1,2,85,"binary"
"3C62EA6425BE4FD0B43020D786F4BB4B",1,"0198f77e-441e-7977-bbe0-77f91ba5eda9","0198f767-55c9-7875-8d21-563b3c0b86ed","2025-08-29_13h26.24.034",NA,NA,696.1134,696.1134,696.1135,696.4617,NA,NA,NA,NA,NA,NA,NA,TRUE,2,0.8338,693.1142,696.1131,NA,NA,NA,NA,NA,14,26,0,85,85,19,1,2,86,"binary"
"3C62EA6425BE4FD0B43020D786F4BB4B",1,"0198f77e-441e-7977-bbe0-77f91ba5eda9","0198f767-55c9-7875-8d21-563b3c0b86ed","2025-08-29_13h26.24.034",NA,NA,699.4628,699.463,699.463,699.8124,NA,NA,NA,NA,NA,NA,NA,TRUE,1,0.5171,696.465,699.4626,NA,NA,NA,NA,NA,180,31,0,86,86,97,1,2,87,"binary"
"3C62EA6425BE4FD0B43020D786F4BB4B",1,"0198f77e-441e-7977-bbe0-77f91ba5eda9","0198f767-55c9-7875-8d21-563b3c0b86ed","2025-08-29_13h26.24.034",NA,NA,702.8108,702.8109,702.8109,703.1613,NA,NA,NA,NA,NA,NA,NA,TRUE,1,0.6671,699.8147,702.8107,NA,NA,NA,NA,NA,28,39,0,87,87,40,1,2,88,"binary"
"3C62EA6425BE4FD0B43020D786F4BB4B",1,"0198f77e-441e-7977-bbe0-77f91ba5eda9","0198f767-55c9-7875-8d21-563b3c0b86ed","2025-08-29_13h26.24.034",NA,NA,706.1617,706.1617,706.1617,706.5113,NA,NA,NA,NA,NA,NA,NA,TRUE,1,0.5009,703.1639,706.1614,NA,NA,NA,NA,NA,200,35,0,88,88,104,1,2,89,"binary"
"3C62EA6425BE4FD0B43020D786F4BB4B",1,"0198f77e-441e-7977-bbe0-77f91ba5eda9","0198f767-55c9-7875-8d21-563b3c0b86ed","2025-08-29_13h26.24.034",NA,NA,709.5102,709.5103,709.5103,709.8603,NA,NA,NA,NA,NA,NA,NA,TRUE,1,9e-04,706.5143,709.5101,NA,NA,NA,NA,NA,40,33,0,89,89,49,1,2,90,"binary"
"3C62EA6425BE4FD0B43020D786F4BB4B",1,"0198f77e-441e-7977-bbe0-77f91ba5eda9","0198f767-55c9-7875-8d21-563b3c0b86ed","2025-08-29_13h26.24.034",NA,NA,712.8612,712.8612,712.8612,713.2096,NA,NA,NA,NA,NA,NA,NA,TRUE,2,0.5508,709.8625,712.861,NA,NA,NA,NA,NA,10,29,0,90,90,9,1,2,91,"binary"
"3C62EA6425BE4FD0B43020D786F4BB4B",1,"0198f77e-441e-7977-bbe0-77f91ba5eda9","0198f767-55c9-7875-8d21-563b3c0b86ed","2025-08-29_13h26.24.034",NA,NA,716.2105,716.2106,716.2106,716.5604,NA,NA,NA,NA,NA,NA,NA,TRUE,1,2.7181,713.211,716.2103,NA,NA,NA,NA,NA,95,31,0,91,91,78,1,2,92,"binary"
"3C62EA6425BE4FD0B43020D786F4BB4B",1,"0198f77e-441e-7977-bbe0-77f91ba5eda9","0198f767-55c9-7875-8d21-563b3c0b86ed","2025-08-29_13h26.24.034",NA,NA,719.561,719.5611,719.5611,719.9102,NA,NA,NA,NA,NA,NA,NA,TRUE,1,1.0338,716.5627,719.5606,NA,NA,NA,NA,NA,150,40,0,92,92,93,1,2,93,"binary"
"3C62EA6425BE4FD0B43020D786F4BB4B",1,"0198f77e-441e-7977-bbe0-77f91ba5eda9","0198f767-55c9-7875-8d21-563b3c0b86ed","2025-08-29_13h26.24.034",NA,NA,722.9105,722.9105,722.9105,723.2604,NA,NA,NA,NA,NA,NA,NA,TRUE,1,0.1339,719.9129,722.9102,NA,NA,NA,NA,NA,25,31,0,93,93,32,1,2,94,"binary"
"3C62EA6425BE4FD0B43020D786F4BB4B",1,"0198f77e-441e-7977-bbe0-77f91ba5eda9","0198f767-55c9-7875-8d21-563b3c0b86ed","2025-08-29_13h26.24.034",NA,NA,726.2597,726.2598,726.2598,726.6096,NA,NA,NA,NA,NA,NA,NA,TRUE,1,0.5007,723.2629,726.2596,NA,NA,NA,NA,NA,150,47,0,94,94,94,1,2,95,"binary"
"3C62EA6425BE4FD0B43020D786F4BB4B",1,"0198f77e-441e-7977-bbe0-77f91ba5eda9","0198f767-55c9-7875-8d21-563b3c0b86ed","2025-08-29_13h26.24.034",NA,NA,729.6101,729.6101,729.6101,729.9592,NA,NA,NA,NA,NA,NA,NA,TRUE,1,0.3511,726.6122,729.6099,NA,NA,NA,NA,NA,21,29,0,95,95,26,1,2,96,"binary"
"3C62EA6425BE4FD0B43020D786F4BB4B",1,"0198f77e-441e-7977-bbe0-77f91ba5eda9","0198f767-55c9-7875-8d21-563b3c0b86ed","2025-08-29_13h26.24.034",NA,NA,732.9594,732.9595,732.9595,733.3096,NA,NA,NA,NA,NA,NA,NA,TRUE,1,0.4677,729.9614,732.9593,NA,NA,NA,NA,NA,25,33,0,96,96,33,1,2,97,"binary"
"3C62EA6425BE4FD0B43020D786F4BB4B",1,"0198f77e-441e-7977-bbe0-77f91ba5eda9","0198f767-55c9-7875-8d21-563b3c0b86ed","2025-08-29_13h26.24.034",NA,NA,736.3094,736.3094,736.3094,736.6583,NA,NA,NA,NA,NA,NA,NA,TRUE,1,0.5184,733.3118,736.3092,NA,NA,NA,NA,NA,90,30,0,97,97,73,1,2,98,"binary"
"3C62EA6425BE4FD0B43020D786F4BB4B",1,"0198f77e-441e-7977-bbe0-77f91ba5eda9","0198f767-55c9-7875-8d21-563b3c0b86ed","2025-08-29_13h26.24.034",NA,NA,739.6603,739.6603,739.6605,740.0096,NA,NA,NA,NA,NA,NA,NA,TRUE,1,0.4679,736.661,739.66,NA,NA,NA,NA,NA,95,47,0,98,98,82,1,2,99,"binary"
"3C62EA6425BE4FD0B43020D786F4BB4B",1,"0198f77e-441e-7977-bbe0-77f91ba5eda9","0198f767-55c9-7875-8d21-563b3c0b86ed","2025-08-29_13h26.24.034",NA,NA,743.0098,743.0099,743.0099,743.359,NA,NA,NA,NA,NA,NA,NA,TRUE,2,0.6348,740.0118,743.0094,NA,NA,NA,NA,NA,12,35,0,99,99,17,1,2,100,"binary"
"3C62EA6425BE4FD0B43020D786F4BB4B",1,"0198f77e-441e-7977-bbe0-77f91ba5eda9","0198f767-55c9-7875-8d21-563b3c0b86ed","2025-08-29_13h26.24.034",NA,NA,746.3586,746.3586,746.3586,746.709,NA,NA,NA,NA,NA,NA,NA,TRUE,1,0.5518,743.3621,746.3583,NA,NA,NA,NA,NA,60,35,0,100,100,68,1,2,101,"binary"
"3C62EA6425BE4FD0B43020D786F4BB4B",1,"0198f77e-441e-7977-bbe0-77f91ba5eda9","0198f767-55c9-7875-8d21-563b3c0b86ed","2025-08-29_13h26.24.034",NA,NA,749.7091,749.7092,749.7093,750.058,NA,NA,NA,NA,NA,NA,NA,TRUE,1,0.484,746.7121,749.7089,NA,NA,NA,NA,NA,95,35,0,101,101,80,1,2,102,"binary"
"3C62EA6425BE4FD0B43020D786F4BB4B",1,"0198f77e-441e-7977-bbe0-77f91ba5eda9","0198f767-55c9-7875-8d21-563b3c0b86ed","2025-08-29_13h26.24.034",NA,NA,753.0586,753.0587,753.0587,753.4081,NA,NA,NA,NA,NA,NA,NA,TRUE,1,0.8515,750.0606,753.0584,NA,NA,NA,NA,NA,30,30,0,102,102,45,1,2,103,"binary"
"3C62EA6425BE4FD0B43020D786F4BB4B",1,"0198f77e-441e-7977-bbe0-77f91ba5eda9","0198f767-55c9-7875-8d21-563b3c0b86ed","2025-08-29_13h26.24.034",NA,NA,756.4084,756.4084,756.4084,756.7577,NA,NA,NA,NA,NA,NA,NA,TRUE,1,0.9837,753.4109,756.4081,NA,NA,NA,NA,NA,25,29,0,103,103,31,1,2,104,"binary"
"3C62EA6425BE4FD0B43020D786F4BB4B",1,"0198f77e-441e-7977-bbe0-77f91ba5eda9","0198f767-55c9-7875-8d21-563b3c0b86ed","2025-08-29_13h26.24.034",NA,NA,759.7583,759.7583,759.7583,760.1076,NA,NA,NA,NA,NA,NA,NA,TRUE,1,0.5843,756.7598,759.7581,NA,NA,NA,NA,NA,60,40,0,104,104,69,1,2,105,"binary"
"3C62EA6425BE4FD0B43020D786F4BB4B",1,"0198f77e-441e-7977-bbe0-77f91ba5eda9","0198f767-55c9-7875-8d21-563b3c0b86ed","2025-08-29_13h26.24.034",NA,NA,763.1075,763.1076,763.1076,763.4576,NA,NA,NA,NA,NA,NA,NA,TRUE,1,1.2172,760.1102,763.1073,NA,NA,NA,NA,NA,30,38,0,105,105,47,1,2,106,"binary"
"3C62EA6425BE4FD0B43020D786F4BB4B",1,"0198f77e-441e-7977-bbe0-77f91ba5eda9","0198f767-55c9-7875-8d21-563b3c0b86ed","2025-08-29_13h26.24.034",NA,NA,766.4577,766.4578,766.4578,766.8074,NA,NA,NA,NA,NA,NA,NA,TRUE,2,0.6014,763.46,766.4576,NA,NA,NA,NA,NA,10,26,0,106,106,7,1,2,107,"binary"
"3C62EA6425BE4FD0B43020D786F4BB4B",1,"0198f77e-441e-7977-bbe0-77f91ba5eda9","0198f767-55c9-7875-8d21-563b3c0b86ed","2025-08-29_13h26.24.034",NA,NA,769.8066,769.8067,769.8067,770.158,NA,NA,NA,NA,NA,NA,NA,TRUE,1,1.0837,766.8105,769.8064,NA,NA,NA,NA,NA,7,25,0,107,107,0,1,2,108,"binary"
