"participant","session","assignmentId","projectId","date","practiceTrial.started","practiceTrial.stopped","tooLate.started","tooLate.stopped","blank.started","blank.stopped","trials_pract.thisRepN","trials_pract.thisTrialN","trials_pract.thisN","trials_pract.thisIndex","trials_pract.ran","delay_pract","amount_pract","responseMade","key","rt","trial.started","trial.stopped","trials.thisRepN","trials.thisTrialN","trials.thisN","trials.thisIndex","trials.ran","delay","amount","trials_2.thisRepN","trials_2.thisTrialN","trials_2.thisN","trials_2.thisIndex","trials_2.ran","block","trial","taskType"
"44CF20B773F943FAAD0E7129A94AC4E5",1,"0198ecee-4e06-7176-a1ae-ae987e67acfe","0198c47e-224f-7cc7-87e7-f5ab0011d1ce","2025-08-27_15h16.17.191",35.3824,38.3578,38.3587,38.3684,38.3685,38.7077,0,0,0,2,1,14,45,TRUE,2,2.1356,NA,NA,NA,NA,NA,NA,NA,NA,NA,NA,NA,NA,NA,NA,0,1,"binary"
"44CF20B773F943FAAD0E7129A94AC4E5",1,"0198ecee-4e06-7176-a1ae-ae987e67acfe","0198c47e-224f-7cc7-87e7-f5ab0011d1ce","2025-08-27_15h16.17.191",38.7108,41.7076,41.7077,41.7078,41.7078,42.0583,0,1,1,4,1,30,40,TRUE,2,0.9798,NA,NA,NA,NA,NA,NA,NA,NA,NA,NA,NA,NA,NA,NA,0,2,"binary"
"44CF20B773F943FAAD0E7129A94AC4E5",1,"0198ecee-4e06-7176-a1ae-ae987e67acfe","0198c47e-224f-7cc7-87e7-f5ab0011d1ce","2025-08-27_15h16.17.191",42.0595,45.0586,45.0587,45.0588,45.0588,45.4087,0,2,2,0,1,7,30,TRUE,2,2.0666,NA,NA,NA,NA,NA,NA,NA,NA,NA,NA,NA,NA,NA,NA,0,3,"binary"
"44CF20B773F943FAAD0E7129A94AC4E5",1,"0198ecee-4e06-7176-a1ae-ae987e67acfe","0198c47e-224f-7cc7-87e7-f5ab0011d1ce","2025-08-27_15h16.17.191",45.411,48.4087,48.4089,48.409,48.409,48.7578,0,3,3,1,1,100,50,TRUE,2,0.9684,NA,NA,NA,NA,NA,NA,NA,NA,NA,NA,NA,NA,NA,NA,0,4,"binary"
"44CF20B773F943FAAD0E7129A94AC4E5",1,"0198ecee-4e06-7176-a1ae-ae987e67acfe","0198c47e-224f-7cc7-87e7-f5ab0011d1ce","2025-08-27_15h16.17.191",48.7595,51.7587,51.7588,51.7588,51.7588,52.1088,0,4,4,3,1,3,27,TRUE,2,1.025,NA,NA,NA,NA,NA,NA,NA,NA,NA,NA,NA,NA,NA,NA,0,5,"binary"
"44CF20B773F943FAAD0E7129A94AC4E5",1,"0198ecee-4e06-7176-a1ae-ae987e67acfe","0198c47e-224f-7cc7-87e7-f5ab0011d1ce","2025-08-27_15h16.17.191",NA,NA,75.6266,75.6269,75.627,75.9752,NA,NA,NA,NA,NA,NA,NA,TRUE,2,1.0057,72.6493,75.6262,0,0,0,20,1,14,28,NA,NA,NA,NA,NA,1,1,"binary"
"44CF20B773F943FAAD0E7129A94AC4E5",1,"0198ecee-4e06-7176-a1ae-ae987e67acfe","0198c47e-224f-7cc7-87e7-f5ab0011d1ce","2025-08-27_15h16.17.191",NA,NA,78.9761,78.9762,78.9762,79.3261,NA,NA,NA,NA,NA,NA,NA,TRUE,2,0.671,75.9771,78.976,0,1,1,89,1,100,54,NA,NA,NA,NA,NA,1,2,"binary"
"44CF20B773F943FAAD0E7129A94AC4E5",1,"0198ecee-4e06-7176-a1ae-ae987e67acfe","0198c47e-224f-7cc7-87e7-f5ab0011d1ce","2025-08-27_15h16.17.191",NA,NA,82.3253,82.3253,82.3254,82.6762,NA,NA,NA,NA,NA,NA,NA,TRUE,2,0.704,79.3278,82.3252,0,2,2,48,1,40,27,NA,NA,NA,NA,NA,1,3,"binary"
"44CF20B773F943FAAD0E7129A94AC4E5",1,"0198ecee-4e06-7176-a1ae-ae987e67acfe","0198c47e-224f-7cc7-87e7-f5ab0011d1ce","2025-08-27_15h16.17.191",NA,NA,85.6764,85.6765,85.6765,86.0261,NA,NA,NA,NA,NA,NA,NA,TRUE,2,0.8209,82.6781,85.6762,0,3,3,105,1,200,39,NA,NA,NA,NA,NA,1,4,"binary"
"44CF20B773F943FAAD0E7129A94AC4E5",1,"0198ecee-4e06-7176-a1ae-ae987e67acfe","0198c47e-224f-7cc7-87e7-f5ab0011d1ce","2025-08-27_15h16.17.191",NA,NA,89.0265,89.0265,89.0266,89.3761,NA,NA,NA,NA,NA,NA,NA,TRUE,2,1.2065,86.0278,89.0263,0,4,4,27,1,21,30,NA,NA,NA,NA,NA,1,5,"binary"
"44CF20B773F943FAAD0E7129A94AC4E5",1,"0198ecee-4e06-7176-a1ae-ae987e67acfe","0198c47e-224f-7cc7-87e7-f5ab0011d1ce","2025-08-27_15h16.17.191",NA,NA,92.3765,92.3765,92.3765,92.7264,NA,NA,NA,NA,NA,NA,NA,TRUE,2,1.3097,89.378,92.3763,0,5,5,68,1,60,35,NA,NA,NA,NA,NA,1,6,"binary"
"44CF20B773F943FAAD0E7129A94AC4E5",1,"0198ecee-4e06-7176-a1ae-ae987e67acfe","0198c47e-224f-7cc7-87e7-f5ab0011d1ce","2025-08-27_15h16.17.191",NA,NA,95.7265,95.7266,95.7266,96.0754,NA,NA,NA,NA,NA,NA,NA,TRUE,1,1.6912,92.7279,95.7263,0,6,6,18,1,14,25,NA,NA,NA,NA,NA,1,7,"binary"
"44CF20B773F943FAAD0E7129A94AC4E5",1,"0198ecee-4e06-7176-a1ae-ae987e67acfe","0198c47e-224f-7cc7-87e7-f5ab0011d1ce","2025-08-27_15h16.17.191",NA,NA,99.0763,99.0764,99.0764,99.4265,NA,NA,NA,NA,NA,NA,NA,TRUE,2,0.9371,96.077,99.0763,0,7,7,35,1,25,46,NA,NA,NA,NA,NA,1,8,"binary"
"44CF20B773F943FAAD0E7129A94AC4E5",1,"0198ecee-4e06-7176-a1ae-ae987e67acfe","0198c47e-224f-7cc7-87e7-f5ab0011d1ce","2025-08-27_15h16.17.191",NA,NA,104.3413,104.3415,104.3415,104.3415,NA,NA,NA,NA,NA,NA,NA,TRUE,1,1.8409,99.4282,104.3412,0,8,8,56,1,45,31,NA,NA,NA,NA,NA,1,9,"binary"
"44CF20B773F943FAAD0E7129A94AC4E5",1,"0198ecee-4e06-7176-a1ae-ae987e67acfe","0198c47e-224f-7cc7-87e7-f5ab0011d1ce","2025-08-27_15h16.17.191",NA,NA,104.3515,106.0266,106.0266,106.1265,NA,NA,NA,NA,NA,NA,NA,FALSE,NA,NA,104.3422,104.3513,0,9,9,34,1,25,35,NA,NA,NA,NA,NA,1,10,"binary"
"44CF20B773F943FAAD0E7129A94AC4E5",1,"0198ecee-4e06-7176-a1ae-ae987e67acfe","0198c47e-224f-7cc7-87e7-f5ab0011d1ce","2025-08-27_15h16.17.191",NA,NA,109.127,109.127,109.127,109.4768,NA,NA,NA,NA,NA,NA,NA,TRUE,2,1.1068,106.1277,109.1268,0,10,10,53,1,40,54,NA,NA,NA,NA,NA,1,11,"binary"
"44CF20B773F943FAAD0E7129A94AC4E5",1,"0198ecee-4e06-7176-a1ae-ae987e67acfe","0198c47e-224f-7cc7-87e7-f5ab0011d1ce","2025-08-27_15h16.17.191",NA,NA,112.4766,112.4767,112.4767,112.8266,NA,NA,NA,NA,NA,NA,NA,TRUE,2,1.4573,109.4787,112.4765,0,11,11,57,1,45,35,NA,NA,NA,NA,NA,1,12,"binary"
"44CF20B773F943FAAD0E7129A94AC4E5",1,"0198ecee-4e06-7176-a1ae-ae987e67acfe","0198c47e-224f-7cc7-87e7-f5ab0011d1ce","2025-08-27_15h16.17.191",NA,NA,115.8266,115.8267,115.8267,116.1759,NA,NA,NA,NA,NA,NA,NA,TRUE,1,1.3734,112.8291,115.8264,0,12,12,72,1,90,26,NA,NA,NA,NA,NA,1,13,"binary"
"44CF20B773F943FAAD0E7129A94AC4E5",1,"0198ecee-4e06-7176-a1ae-ae987e67acfe","0198c47e-224f-7cc7-87e7-f5ab0011d1ce","2025-08-27_15h16.17.191",NA,NA,119.1772,119.1772,119.1772,119.5261,NA,NA,NA,NA,NA,NA,NA,TRUE,1,0.9569,116.1779,119.177,0,13,13,13,1,12,26,NA,NA,NA,NA,NA,1,14,"binary"
"44CF20B773F943FAAD0E7129A94AC4E5",1,"0198ecee-4e06-7176-a1ae-ae987e67acfe","0198c47e-224f-7cc7-87e7-f5ab0011d1ce","2025-08-27_15h16.17.191",NA,NA,122.5273,122.5274,122.5275,122.876,NA,NA,NA,NA,NA,NA,NA,TRUE,1,1.2887,119.5281,122.5271,0,14,14,60,1,50,27,NA,NA,NA,NA,NA,1,15,"binary"
"44CF20B773F943FAAD0E7129A94AC4E5",1,"0198ecee-4e06-7176-a1ae-ae987e67acfe","0198c47e-224f-7cc7-87e7-f5ab0011d1ce","2025-08-27_15h16.17.191",NA,NA,125.877,125.877,125.877,126.2271,NA,NA,NA,NA,NA,NA,NA,TRUE,1,0.8153,122.8783,125.8768,0,15,15,37,1,28,28,NA,NA,NA,NA,NA,1,16,"binary"
"44CF20B773F943FAAD0E7129A94AC4E5",1,"0198ecee-4e06-7176-a1ae-ae987e67acfe","0198c47e-224f-7cc7-87e7-f5ab0011d1ce","2025-08-27_15h16.17.191",NA,NA,129.2264,129.2265,129.2265,129.5763,NA,NA,NA,NA,NA,NA,NA,TRUE,1,0.6232,126.2296,129.2262,0,16,16,31,1,25,29,NA,NA,NA,NA,NA,1,17,"binary"
"44CF20B773F943FAAD0E7129A94AC4E5",1,"0198ecee-4e06-7176-a1ae-ae987e67acfe","0198c47e-224f-7cc7-87e7-f5ab0011d1ce","2025-08-27_15h16.17.191",NA,NA,132.5772,132.5772,132.5772,132.9263,NA,NA,NA,NA,NA,NA,NA,TRUE,2,2.1418,129.5782,132.5771,0,17,17,63,1,50,40,NA,NA,NA,NA,NA,1,18,"binary"
"44CF20B773F943FAAD0E7129A94AC4E5",1,"0198ecee-4e06-7176-a1ae-ae987e67acfe","0198c47e-224f-7cc7-87e7-f5ab0011d1ce","2025-08-27_15h16.17.191",NA,NA,135.9275,135.9276,135.9276,136.2774,NA,NA,NA,NA,NA,NA,NA,TRUE,2,1.3783,132.9277,135.9273,0,18,18,23,1,14,39,NA,NA,NA,NA,NA,1,19,"binary"
"44CF20B773F943FAAD0E7129A94AC4E5",1,"0198ecee-4e06-7176-a1ae-ae987e67acfe","0198c47e-224f-7cc7-87e7-f5ab0011d1ce","2025-08-27_15h16.17.191",NA,NA,139.2773,139.2773,139.2773,139.6265,NA,NA,NA,NA,NA,NA,NA,TRUE,2,0.9183,136.2796,139.2771,0,19,19,22,1,14,35,NA,NA,NA,NA,NA,1,20,"binary"
"44CF20B773F943FAAD0E7129A94AC4E5",1,"0198ecee-4e06-7176-a1ae-ae987e67acfe","0198c47e-224f-7cc7-87e7-f5ab0011d1ce","2025-08-27_15h16.17.191",NA,NA,142.6277,142.6278,142.6278,142.977,NA,NA,NA,NA,NA,NA,NA,TRUE,2,0.6027,139.6285,142.6276,0,20,20,5,1,7,35,NA,NA,NA,NA,NA,1,21,"binary"
"44CF20B773F943FAAD0E7129A94AC4E5",1,"0198ecee-4e06-7176-a1ae-ae987e67acfe","0198c47e-224f-7cc7-87e7-f5ab0011d1ce","2025-08-27_15h16.17.191",NA,NA,145.9774,145.9774,145.9774,146.3276,NA,NA,NA,NA,NA,NA,NA,TRUE,2,0.6572,142.9792,145.9772,0,21,21,93,1,150,40,NA,NA,NA,NA,NA,1,22,"binary"
"44CF20B773F943FAAD0E7129A94AC4E5",1,"0198ecee-4e06-7176-a1ae-ae987e67acfe","0198c47e-224f-7cc7-87e7-f5ab0011d1ce","2025-08-27_15h16.17.191",NA,NA,149.3277,149.3277,149.3277,149.6777,NA,NA,NA,NA,NA,NA,NA,TRUE,1,1.4108,146.3298,149.3275,0,22,22,73,1,90,30,NA,NA,NA,NA,NA,1,23,"binary"
"44CF20B773F943FAAD0E7129A94AC4E5",1,"0198ecee-4e06-7176-a1ae-ae987e67acfe","0198c47e-224f-7cc7-87e7-f5ab0011d1ce","2025-08-27_15h16.17.191",NA,NA,152.6779,152.6779,152.6779,153.0269,NA,NA,NA,NA,NA,NA,NA,TRUE,2,1.1624,149.6797,152.6778,0,23,23,77,1,90,54,NA,NA,NA,NA,NA,1,24,"binary"
"44CF20B773F943FAAD0E7129A94AC4E5",1,"0198ecee-4e06-7176-a1ae-ae987e67acfe","0198c47e-224f-7cc7-87e7-f5ab0011d1ce","2025-08-27_15h16.17.191",NA,NA,156.0275,156.0277,156.0277,156.3776,NA,NA,NA,NA,NA,NA,NA,TRUE,1,1.1409,153.0288,156.0274,0,24,24,78,1,95,31,NA,NA,NA,NA,NA,1,25,"binary"
"44CF20B773F943FAAD0E7129A94AC4E5",1,"0198ecee-4e06-7176-a1ae-ae987e67acfe","0198c47e-224f-7cc7-87e7-f5ab0011d1ce","2025-08-27_15h16.17.191",NA,NA,159.3772,159.3772,159.3773,159.7279,NA,NA,NA,NA,NA,NA,NA,TRUE,1,1.223,156.3801,159.377,0,25,25,62,1,50,35,NA,NA,NA,NA,NA,1,26,"binary"
"44CF20B773F943FAAD0E7129A94AC4E5",1,"0198ecee-4e06-7176-a1ae-ae987e67acfe","0198c47e-224f-7cc7-87e7-f5ab0011d1ce","2025-08-27_15h16.17.191",NA,NA,162.7282,162.7283,162.7283,163.0779,NA,NA,NA,NA,NA,NA,NA,TRUE,1,1.4235,159.7303,162.728,0,26,26,87,1,100,39,NA,NA,NA,NA,NA,1,27,"binary"
"44CF20B773F943FAAD0E7129A94AC4E5",1,"0198ecee-4e06-7176-a1ae-ae987e67acfe","0198c47e-224f-7cc7-87e7-f5ab0011d1ce","2025-08-27_15h16.17.191",NA,NA,166.0783,166.0784,166.0784,166.4278,NA,NA,NA,NA,NA,NA,NA,TRUE,2,2.3417,163.0798,166.0781,0,27,27,33,1,25,33,NA,NA,NA,NA,NA,1,28,"binary"
"44CF20B773F943FAAD0E7129A94AC4E5",1,"0198ecee-4e06-7176-a1ae-ae987e67acfe","0198c47e-224f-7cc7-87e7-f5ab0011d1ce","2025-08-27_15h16.17.191",NA,NA,169.4283,169.4284,169.4284,169.777,NA,NA,NA,NA,NA,NA,NA,TRUE,1,1.3749,166.4299,169.4281,0,28,28,99,1,180,39,NA,NA,NA,NA,NA,1,29,"binary"
"44CF20B773F943FAAD0E7129A94AC4E5",1,"0198ecee-4e06-7176-a1ae-ae987e67acfe","0198c47e-224f-7cc7-87e7-f5ab0011d1ce","2025-08-27_15h16.17.191",NA,NA,172.7785,172.7785,172.7786,173.1283,NA,NA,NA,NA,NA,NA,NA,TRUE,1,1.0935,169.7786,172.7783,0,29,29,28,1,21,32,NA,NA,NA,NA,NA,1,30,"binary"
"44CF20B773F943FAAD0E7129A94AC4E5",1,"0198ecee-4e06-7176-a1ae-ae987e67acfe","0198c47e-224f-7cc7-87e7-f5ab0011d1ce","2025-08-27_15h16.17.191",NA,NA,176.1284,176.1285,176.1285,176.478,NA,NA,NA,NA,NA,NA,NA,TRUE,1,0.9912,173.1305,176.1283,0,30,30,3,1,7,30,NA,NA,NA,NA,NA,1,31,"binary"
"44CF20B773F943FAAD0E7129A94AC4E5",1,"0198ecee-4e06-7176-a1ae-ae987e67acfe","0198c47e-224f-7cc7-87e7-f5ab0011d1ce","2025-08-27_15h16.17.191",NA,NA,183.345,183.345,183.3451,183.3451,NA,NA,NA,NA,NA,NA,NA,TRUE,1,1.0596,176.4791,183.3449,0,31,31,24,1,21,26,NA,NA,NA,NA,NA,1,32,"binary"
"44CF20B773F943FAAD0E7129A94AC4E5",1,"0198ecee-4e06-7176-a1ae-ae987e67acfe","0198c47e-224f-7cc7-87e7-f5ab0011d1ce","2025-08-27_15h16.17.191",NA,NA,183.3462,183.3462,183.3462,183.3462,NA,NA,NA,NA,NA,NA,NA,FALSE,NA,NA,183.3461,183.3461,0,32,32,74,1,90,33,NA,NA,NA,NA,NA,1,33,"binary"
"44CF20B773F943FAAD0E7129A94AC4E5",1,"0198ecee-4e06-7176-a1ae-ae987e67acfe","0198c47e-224f-7cc7-87e7-f5ab0011d1ce","2025-08-27_15h16.17.191",NA,NA,183.3618,186.4286,186.4286,186.5286,NA,NA,NA,NA,NA,NA,NA,FALSE,NA,NA,183.3466,183.3616,0,33,33,19,1,14,26,NA,NA,NA,NA,NA,1,34,"binary"
"44CF20B773F943FAAD0E7129A94AC4E5",1,"0198ecee-4e06-7176-a1ae-ae987e67acfe","0198c47e-224f-7cc7-87e7-f5ab0011d1ce","2025-08-27_15h16.17.191",NA,NA,189.5288,189.5289,189.529,189.8785,NA,NA,NA,NA,NA,NA,NA,TRUE,1,1.558,186.531,189.5287,0,34,34,32,1,25,31,NA,NA,NA,NA,NA,1,35,"binary"
"44CF20B773F943FAAD0E7129A94AC4E5",1,"0198ecee-4e06-7176-a1ae-ae987e67acfe","0198c47e-224f-7cc7-87e7-f5ab0011d1ce","2025-08-27_15h16.17.191",NA,NA,192.8789,192.879,192.879,193.2283,NA,NA,NA,NA,NA,NA,NA,TRUE,2,1.2609,189.8805,192.8787,0,35,35,75,1,90,40,NA,NA,NA,NA,NA,1,36,"binary"
"44CF20B773F943FAAD0E7129A94AC4E5",1,"0198ecee-4e06-7176-a1ae-ae987e67acfe","0198c47e-224f-7cc7-87e7-f5ab0011d1ce","2025-08-27_15h16.17.191",NA,NA,196.2285,196.2286,196.2286,196.5786,NA,NA,NA,NA,NA,NA,NA,TRUE,1,0.9443,193.2302,196.2283,0,36,36,36,1,28,26,NA,NA,NA,NA,NA,1,37,"binary"
"44CF20B773F943FAAD0E7129A94AC4E5",1,"0198ecee-4e06-7176-a1ae-ae987e67acfe","0198c47e-224f-7cc7-87e7-f5ab0011d1ce","2025-08-27_15h16.17.191",NA,NA,199.5792,199.5792,199.5792,199.9289,NA,NA,NA,NA,NA,NA,NA,TRUE,1,0.9044,196.5807,199.579,0,37,37,11,1,10,32,NA,NA,NA,NA,NA,1,38,"binary"
"44CF20B773F943FAAD0E7129A94AC4E5",1,"0198ecee-4e06-7176-a1ae-ae987e67acfe","0198c47e-224f-7cc7-87e7-f5ab0011d1ce","2025-08-27_15h16.17.191",NA,NA,202.9292,202.9293,202.9293,203.2788,NA,NA,NA,NA,NA,NA,NA,TRUE,1,1.3119,199.9312,202.929,0,38,38,4,1,7,32,NA,NA,NA,NA,NA,1,39,"binary"
"44CF20B773F943FAAD0E7129A94AC4E5",1,"0198ecee-4e06-7176-a1ae-ae987e67acfe","0198c47e-224f-7cc7-87e7-f5ab0011d1ce","2025-08-27_15h16.17.191",NA,NA,206.2793,206.2793,206.2793,206.629,NA,NA,NA,NA,NA,NA,NA,TRUE,1,0.793,203.2806,206.2791,0,39,39,97,1,180,31,NA,NA,NA,NA,NA,1,40,"binary"
"44CF20B773F943FAAD0E7129A94AC4E5",1,"0198ecee-4e06-7176-a1ae-ae987e67acfe","0198c47e-224f-7cc7-87e7-f5ab0011d1ce","2025-08-27_15h16.17.191",NA,NA,209.6294,209.6294,209.6294,209.9788,NA,NA,NA,NA,NA,NA,NA,TRUE,1,1.9085,206.6312,209.6292,0,40,40,86,1,100,38,NA,NA,NA,NA,NA,1,41,"binary"
"44CF20B773F943FAAD0E7129A94AC4E5",1,"0198ecee-4e06-7176-a1ae-ae987e67acfe","0198c47e-224f-7cc7-87e7-f5ab0011d1ce","2025-08-27_15h16.17.191",NA,NA,212.9794,212.9795,212.9795,213.3292,NA,NA,NA,NA,NA,NA,NA,TRUE,1,1.5164,209.98,212.9792,0,41,41,50,1,40,35,NA,NA,NA,NA,NA,1,42,"binary"
"44CF20B773F943FAAD0E7129A94AC4E5",1,"0198ecee-4e06-7176-a1ae-ae987e67acfe","0198c47e-224f-7cc7-87e7-f5ab0011d1ce","2025-08-27_15h16.17.191",NA,NA,216.3295,216.3295,216.3295,216.6789,NA,NA,NA,NA,NA,NA,NA,TRUE,1,1.8273,213.3315,216.3293,0,42,42,65,1,50,54,NA,NA,NA,NA,NA,1,43,"binary"
"44CF20B773F943FAAD0E7129A94AC4E5",1,"0198ecee-4e06-7176-a1ae-ae987e67acfe","0198c47e-224f-7cc7-87e7-f5ab0011d1ce","2025-08-27_15h16.17.191",NA,NA,219.6796,219.6796,219.6796,220.0293,NA,NA,NA,NA,NA,NA,NA,TRUE,1,1.3961,216.68,219.6794,0,43,43,84,1,100,26,NA,NA,NA,NA,NA,1,44,"binary"
"44CF20B773F943FAAD0E7129A94AC4E5",1,"0198ecee-4e06-7176-a1ae-ae987e67acfe","0198c47e-224f-7cc7-87e7-f5ab0011d1ce","2025-08-27_15h16.17.191",NA,NA,223.0297,223.0297,223.0297,223.3791,NA,NA,NA,NA,NA,NA,NA,TRUE,1,1.1859,220.0314,223.0294,0,44,44,42,1,30,26,NA,NA,NA,NA,NA,1,45,"binary"
"44CF20B773F943FAAD0E7129A94AC4E5",1,"0198ecee-4e06-7176-a1ae-ae987e67acfe","0198c47e-224f-7cc7-87e7-f5ab0011d1ce","2025-08-27_15h16.17.191",NA,NA,226.3797,226.3798,226.3798,226.7297,NA,NA,NA,NA,NA,NA,NA,TRUE,1,1.0443,223.3801,226.3795,0,45,45,83,1,95,54,NA,NA,NA,NA,NA,1,46,"binary"
"44CF20B773F943FAAD0E7129A94AC4E5",1,"0198ecee-4e06-7176-a1ae-ae987e67acfe","0198c47e-224f-7cc7-87e7-f5ab0011d1ce","2025-08-27_15h16.17.191",NA,NA,229.7298,229.7298,229.7299,230.0786,NA,NA,NA,NA,NA,NA,NA,TRUE,2,0.958,226.7319,229.7296,0,46,46,69,1,60,40,NA,NA,NA,NA,NA,1,47,"binary"
"44CF20B773F943FAAD0E7129A94AC4E5",1,"0198ecee-4e06-7176-a1ae-ae987e67acfe","0198c47e-224f-7cc7-87e7-f5ab0011d1ce","2025-08-27_15h16.17.191",NA,NA,233.0799,233.08,233.08,233.4297,NA,NA,NA,NA,NA,NA,NA,TRUE,2,0.7641,230.0796,233.0798,0,47,47,70,1,60,47,NA,NA,NA,NA,NA,1,48,"binary"
"44CF20B773F943FAAD0E7129A94AC4E5",1,"0198ecee-4e06-7176-a1ae-ae987e67acfe","0198c47e-224f-7cc7-87e7-f5ab0011d1ce","2025-08-27_15h16.17.191",NA,NA,236.43,236.43,236.43,236.7789,NA,NA,NA,NA,NA,NA,NA,TRUE,2,0.9417,233.4316,236.4298,0,48,48,81,1,95,40,NA,NA,NA,NA,NA,1,49,"binary"
"44CF20B773F943FAAD0E7129A94AC4E5",1,"0198ecee-4e06-7176-a1ae-ae987e67acfe","0198c47e-224f-7cc7-87e7-f5ab0011d1ce","2025-08-27_15h16.17.191",NA,NA,239.7801,239.7801,239.7801,240.1299,NA,NA,NA,NA,NA,NA,NA,TRUE,1,0.9595,236.781,239.7798,0,49,49,12,1,12,25,NA,NA,NA,NA,NA,1,50,"binary"
"44CF20B773F943FAAD0E7129A94AC4E5",1,"0198ecee-4e06-7176-a1ae-ae987e67acfe","0198c47e-224f-7cc7-87e7-f5ab0011d1ce","2025-08-27_15h16.17.191",NA,NA,243.1301,243.1301,243.1301,243.4798,NA,NA,NA,NA,NA,NA,NA,TRUE,1,1.1775,240.1324,243.1298,0,50,50,67,1,60,33,NA,NA,NA,NA,NA,1,51,"binary"
"44CF20B773F943FAAD0E7129A94AC4E5",1,"0198ecee-4e06-7176-a1ae-ae987e67acfe","0198c47e-224f-7cc7-87e7-f5ab0011d1ce","2025-08-27_15h16.17.191",NA,NA,246.48,246.48,246.48,246.8134,NA,NA,NA,NA,NA,NA,NA,TRUE,1,1.2976,243.482,246.4799,0,51,51,107,1,200,54,NA,NA,NA,NA,NA,1,52,"binary"
"44CF20B773F943FAAD0E7129A94AC4E5",1,"0198ecee-4e06-7176-a1ae-ae987e67acfe","0198c47e-224f-7cc7-87e7-f5ab0011d1ce","2025-08-27_15h16.17.191",NA,NA,249.8296,249.8297,249.8297,250.1793,NA,NA,NA,NA,NA,NA,NA,TRUE,1,0.8845,246.8155,249.8294,0,52,52,66,1,60,29,NA,NA,NA,NA,NA,1,53,"binary"
"44CF20B773F943FAAD0E7129A94AC4E5",1,"0198ecee-4e06-7176-a1ae-ae987e67acfe","0198c47e-224f-7cc7-87e7-f5ab0011d1ce","2025-08-27_15h16.17.191",NA,NA,253.1795,253.1796,253.1796,253.5301,NA,NA,NA,NA,NA,NA,NA,TRUE,1,0.6768,250.1813,253.1793,0,53,53,1,1,7,26,NA,NA,NA,NA,NA,1,54,"binary"
"44CF20B773F943FAAD0E7129A94AC4E5",1,"0198ecee-4e06-7176-a1ae-ae987e67acfe","0198c47e-224f-7cc7-87e7-f5ab0011d1ce","2025-08-27_15h16.17.191",NA,NA,256.5304,256.5304,256.5304,256.8798,NA,NA,NA,NA,NA,NA,NA,TRUE,1,0.6546,253.5323,256.5302,0,54,54,21,1,14,32,NA,NA,NA,NA,NA,1,55,"binary"
"44CF20B773F943FAAD0E7129A94AC4E5",1,"0198ecee-4e06-7176-a1ae-ae987e67acfe","0198c47e-224f-7cc7-87e7-f5ab0011d1ce","2025-08-27_15h16.17.191",NA,NA,259.8806,259.8806,259.8806,260.23,NA,NA,NA,NA,NA,NA,NA,TRUE,1,0.5822,256.8807,259.8803,0,55,55,88,1,100,46,NA,NA,NA,NA,NA,1,56,"binary"
"44CF20B773F943FAAD0E7129A94AC4E5",1,"0198ecee-4e06-7176-a1ae-ae987e67acfe","0198c47e-224f-7cc7-87e7-f5ab0011d1ce","2025-08-27_15h16.17.191",NA,NA,263.2137,263.2137,263.2137,263.5794,NA,NA,NA,NA,NA,NA,NA,TRUE,1,0.6884,260.2314,263.2134,0,56,56,29,1,21,38,NA,NA,NA,NA,NA,1,57,"binary"
"44CF20B773F943FAAD0E7129A94AC4E5",1,"0198ecee-4e06-7176-a1ae-ae987e67acfe","0198c47e-224f-7cc7-87e7-f5ab0011d1ce","2025-08-27_15h16.17.191",NA,NA,266.5807,266.5807,266.5807,266.9304,NA,NA,NA,NA,NA,NA,NA,TRUE,2,0.6418,263.5814,266.5805,0,57,57,41,1,28,46,NA,NA,NA,NA,NA,1,58,"binary"
"44CF20B773F943FAAD0E7129A94AC4E5",1,"0198ecee-4e06-7176-a1ae-ae987e67acfe","0198c47e-224f-7cc7-87e7-f5ab0011d1ce","2025-08-27_15h16.17.191",NA,NA,269.9139,269.914,269.914,270.2639,NA,NA,NA,NA,NA,NA,NA,TRUE,1,1.4432,266.9327,269.9138,0,58,58,85,1,100,31,NA,NA,NA,NA,NA,1,59,"binary"
"44CF20B773F943FAAD0E7129A94AC4E5",1,"0198ecee-4e06-7176-a1ae-ae987e67acfe","0198c47e-224f-7cc7-87e7-f5ab0011d1ce","2025-08-27_15h16.17.191",NA,NA,273.2809,273.2809,273.2809,273.614,NA,NA,NA,NA,NA,NA,NA,TRUE,1,0.7845,270.2661,273.2807,0,59,59,7,1,10,26,NA,NA,NA,NA,NA,1,60,"binary"
"44CF20B773F943FAAD0E7129A94AC4E5",1,"0198ecee-4e06-7176-a1ae-ae987e67acfe","0198c47e-224f-7cc7-87e7-f5ab0011d1ce","2025-08-27_15h16.17.191",NA,NA,276.63,276.63,276.63,276.9808,NA,NA,NA,NA,NA,NA,NA,TRUE,2,0.8025,273.6162,276.6298,0,60,60,80,1,95,35,NA,NA,NA,NA,NA,1,61,"binary"
"44CF20B773F943FAAD0E7129A94AC4E5",1,"0198ecee-4e06-7176-a1ae-ae987e67acfe","0198c47e-224f-7cc7-87e7-f5ab0011d1ce","2025-08-27_15h16.17.191",NA,NA,279.981,279.9812,279.9812,280.3298,NA,NA,NA,NA,NA,NA,NA,TRUE,1,0.8748,276.9831,279.9808,0,61,61,92,1,150,35,NA,NA,NA,NA,NA,1,62,"binary"
"44CF20B773F943FAAD0E7129A94AC4E5",1,"0198ecee-4e06-7176-a1ae-ae987e67acfe","0198c47e-224f-7cc7-87e7-f5ab0011d1ce","2025-08-27_15h16.17.191",NA,NA,283.3144,283.3144,283.3145,283.6642,NA,NA,NA,NA,NA,NA,NA,TRUE,2,1.194,280.3319,283.3142,0,62,62,40,1,28,39,NA,NA,NA,NA,NA,1,63,"binary"
"44CF20B773F943FAAD0E7129A94AC4E5",1,"0198ecee-4e06-7176-a1ae-ae987e67acfe","0198c47e-224f-7cc7-87e7-f5ab0011d1ce","2025-08-27_15h16.17.191",NA,NA,286.6645,286.6646,286.6646,287.014,NA,NA,NA,NA,NA,NA,NA,TRUE,2,0.8514,283.6664,286.6644,0,63,63,59,1,45,46,NA,NA,NA,NA,NA,1,64,"binary"
"44CF20B773F943FAAD0E7129A94AC4E5",1,"0198ecee-4e06-7176-a1ae-ae987e67acfe","0198c47e-224f-7cc7-87e7-f5ab0011d1ce","2025-08-27_15h16.17.191",NA,NA,290.0146,290.0147,290.0147,290.381,NA,NA,NA,NA,NA,NA,NA,TRUE,1,1.5628,287.016,290.0145,0,64,64,98,1,180,35,NA,NA,NA,NA,NA,1,65,"binary"
"44CF20B773F943FAAD0E7129A94AC4E5",1,"0198ecee-4e06-7176-a1ae-ae987e67acfe","0198c47e-224f-7cc7-87e7-f5ab0011d1ce","2025-08-27_15h16.17.191",NA,NA,293.3647,293.3648,293.3648,293.7312,NA,NA,NA,NA,NA,NA,NA,TRUE,2,1.2185,290.3831,293.3645,0,65,65,46,1,30,32,NA,NA,NA,NA,NA,1,66,"binary"
"44CF20B773F943FAAD0E7129A94AC4E5",1,"0198ecee-4e06-7176-a1ae-ae987e67acfe","0198c47e-224f-7cc7-87e7-f5ab0011d1ce","2025-08-27_15h16.17.191",NA,NA,296.7148,296.7148,296.7148,297.0812,NA,NA,NA,NA,NA,NA,NA,TRUE,2,0.9754,293.7337,296.7146,0,66,66,58,1,45,40,NA,NA,NA,NA,NA,1,67,"binary"
"44CF20B773F943FAAD0E7129A94AC4E5",1,"0198ecee-4e06-7176-a1ae-ae987e67acfe","0198c47e-224f-7cc7-87e7-f5ab0011d1ce","2025-08-27_15h16.17.191",NA,NA,300.0648,300.0648,300.0648,300.4146,NA,NA,NA,NA,NA,NA,NA,TRUE,2,1.2233,297.0834,300.0647,0,67,67,95,1,150,54,NA,NA,NA,NA,NA,1,68,"binary"
"44CF20B773F943FAAD0E7129A94AC4E5",1,"0198ecee-4e06-7176-a1ae-ae987e67acfe","0198c47e-224f-7cc7-87e7-f5ab0011d1ce","2025-08-27_15h16.17.191",NA,NA,303.4149,303.415,303.415,303.7647,NA,NA,NA,NA,NA,NA,NA,TRUE,2,1.1337,300.4166,303.4148,0,68,68,51,1,40,40,NA,NA,NA,NA,NA,1,69,"binary"
"44CF20B773F943FAAD0E7129A94AC4E5",1,"0198ecee-4e06-7176-a1ae-ae987e67acfe","0198c47e-224f-7cc7-87e7-f5ab0011d1ce","2025-08-27_15h16.17.191",NA,NA,306.7649,306.765,306.765,307.1147,NA,NA,NA,NA,NA,NA,NA,TRUE,2,1.035,303.767,306.7648,0,69,69,39,1,28,35,NA,NA,NA,NA,NA,1,70,"binary"
"44CF20B773F943FAAD0E7129A94AC4E5",1,"0198ecee-4e06-7176-a1ae-ae987e67acfe","0198c47e-224f-7cc7-87e7-f5ab0011d1ce","2025-08-27_15h16.17.191",NA,NA,310.1139,310.114,310.1141,310.4646,NA,NA,NA,NA,NA,NA,NA,TRUE,2,1.585,307.1168,310.1139,0,70,70,47,1,30,38,NA,NA,NA,NA,NA,1,71,"binary"
"44CF20B773F943FAAD0E7129A94AC4E5",1,"0198ecee-4e06-7176-a1ae-ae987e67acfe","0198c47e-224f-7cc7-87e7-f5ab0011d1ce","2025-08-27_15h16.17.191",NA,NA,313.4648,313.4649,313.4649,313.815,NA,NA,NA,NA,NA,NA,NA,TRUE,1,1.2059,310.4657,313.4647,0,71,71,104,1,200,35,NA,NA,NA,NA,NA,1,72,"binary"
"44CF20B773F943FAAD0E7129A94AC4E5",1,"0198ecee-4e06-7176-a1ae-ae987e67acfe","0198c47e-224f-7cc7-87e7-f5ab0011d1ce","2025-08-27_15h16.17.191",NA,NA,316.8146,316.8146,316.8146,317.1651,NA,NA,NA,NA,NA,NA,NA,TRUE,2,1.1009,313.8171,316.8144,0,72,72,76,1,90,46,NA,NA,NA,NA,NA,1,73,"binary"
"44CF20B773F943FAAD0E7129A94AC4E5",1,"0198ecee-4e06-7176-a1ae-ae987e67acfe","0198c47e-224f-7cc7-87e7-f5ab0011d1ce","2025-08-27_15h16.17.191",NA,NA,320.1653,320.1653,320.1654,320.5319,NA,NA,NA,NA,NA,NA,NA,TRUE,2,1.0357,317.1673,320.1652,0,73,73,106,1,200,47,NA,NA,NA,NA,NA,1,74,"binary"
"44CF20B773F943FAAD0E7129A94AC4E5",1,"0198ecee-4e06-7176-a1ae-ae987e67acfe","0198c47e-224f-7cc7-87e7-f5ab0011d1ce","2025-08-27_15h16.17.191",NA,NA,323.5152,323.5152,323.5153,323.8652,NA,NA,NA,NA,NA,NA,NA,TRUE,2,0.926,320.534,323.515,0,74,74,49,1,40,33,NA,NA,NA,NA,NA,1,75,"binary"
"44CF20B773F943FAAD0E7129A94AC4E5",1,"0198ecee-4e06-7176-a1ae-ae987e67acfe","0198c47e-224f-7cc7-87e7-f5ab0011d1ce","2025-08-27_15h16.17.191",NA,NA,326.8655,326.8655,326.8655,327.2144,NA,NA,NA,NA,NA,NA,NA,TRUE,1,1.6853,323.8674,326.8653,0,75,75,103,1,200,28,NA,NA,NA,NA,NA,1,76,"binary"
"44CF20B773F943FAAD0E7129A94AC4E5",1,"0198ecee-4e06-7176-a1ae-ae987e67acfe","0198c47e-224f-7cc7-87e7-f5ab0011d1ce","2025-08-27_15h16.17.191",NA,NA,330.2144,330.2144,330.2144,330.5654,NA,NA,NA,NA,NA,NA,NA,TRUE,2,0.8195,327.2163,330.2143,0,76,76,64,1,50,46,NA,NA,NA,NA,NA,1,77,"binary"
"44CF20B773F943FAAD0E7129A94AC4E5",1,"0198ecee-4e06-7176-a1ae-ae987e67acfe","0198c47e-224f-7cc7-87e7-f5ab0011d1ce","2025-08-27_15h16.17.191",NA,NA,333.5657,333.5657,333.5657,333.9155,NA,NA,NA,NA,NA,NA,NA,TRUE,1,0.8868,330.5676,333.5655,0,77,77,14,1,12,28,NA,NA,NA,NA,NA,1,78,"binary"
"44CF20B773F943FAAD0E7129A94AC4E5",1,"0198ecee-4e06-7176-a1ae-ae987e67acfe","0198c47e-224f-7cc7-87e7-f5ab0011d1ce","2025-08-27_15h16.17.191",NA,NA,336.9153,336.9153,336.9153,337.2656,NA,NA,NA,NA,NA,NA,NA,TRUE,2,1.0671,333.9175,336.9152,0,78,78,10,1,10,30,NA,NA,NA,NA,NA,1,79,"binary"
"44CF20B773F943FAAD0E7129A94AC4E5",1,"0198ecee-4e06-7176-a1ae-ae987e67acfe","0198c47e-224f-7cc7-87e7-f5ab0011d1ce","2025-08-27_15h16.17.191",NA,NA,340.2658,340.2659,340.2659,340.6156,NA,NA,NA,NA,NA,NA,NA,TRUE,1,0.902,337.2677,340.2657,0,79,79,79,1,95,33,NA,NA,NA,NA,NA,1,80,"binary"
"44CF20B773F943FAAD0E7129A94AC4E5",1,"0198ecee-4e06-7176-a1ae-ae987e67acfe","0198c47e-224f-7cc7-87e7-f5ab0011d1ce","2025-08-27_15h16.17.191",NA,NA,343.6155,343.6155,343.6155,343.9657,NA,NA,NA,NA,NA,NA,NA,TRUE,1,0.8469,340.6179,343.6154,0,80,80,54,1,45,26,NA,NA,NA,NA,NA,1,81,"binary"
"44CF20B773F943FAAD0E7129A94AC4E5",1,"0198ecee-4e06-7176-a1ae-ae987e67acfe","0198c47e-224f-7cc7-87e7-f5ab0011d1ce","2025-08-27_15h16.17.191",NA,NA,346.9657,346.9657,346.9657,347.3161,NA,NA,NA,NA,NA,NA,NA,TRUE,2,1.9281,343.9678,346.9655,0,81,81,52,1,40,47,NA,NA,NA,NA,NA,1,82,"binary"
"44CF20B773F943FAAD0E7129A94AC4E5",1,"0198ecee-4e06-7176-a1ae-ae987e67acfe","0198c47e-224f-7cc7-87e7-f5ab0011d1ce","2025-08-27_15h16.17.191",NA,NA,354.3158,354.3159,354.3159,354.3159,NA,NA,NA,NA,NA,NA,NA,TRUE,1,1.385,347.3181,354.3158,0,82,82,43,1,30,27,NA,NA,NA,NA,NA,1,83,"binary"
"44CF20B773F943FAAD0E7129A94AC4E5",1,"0198ecee-4e06-7176-a1ae-ae987e67acfe","0198c47e-224f-7cc7-87e7-f5ab0011d1ce","2025-08-27_15h16.17.191",NA,NA,354.3168,354.3168,354.3168,354.3168,NA,NA,NA,NA,NA,NA,NA,FALSE,NA,NA,354.3167,354.3167,0,83,83,91,1,150,33,NA,NA,NA,NA,NA,1,84,"binary"
"44CF20B773F943FAAD0E7129A94AC4E5",1,"0198ecee-4e06-7176-a1ae-ae987e67acfe","0198c47e-224f-7cc7-87e7-f5ab0011d1ce","2025-08-27_15h16.17.191",NA,NA,354.3334,357.2661,357.2661,357.3661,NA,NA,NA,NA,NA,NA,NA,FALSE,NA,NA,354.317,354.3334,0,84,84,0,1,7,25,NA,NA,NA,NA,NA,1,85,"binary"
"44CF20B773F943FAAD0E7129A94AC4E5",1,"0198ecee-4e06-7176-a1ae-ae987e67acfe","0198c47e-224f-7cc7-87e7-f5ab0011d1ce","2025-08-27_15h16.17.191",NA,NA,360.3664,360.3664,360.3664,360.7152,NA,NA,NA,NA,NA,NA,NA,TRUE,2,1.3678,357.3676,360.3663,0,85,85,15,1,12,31,NA,NA,NA,NA,NA,1,86,"binary"
"44CF20B773F943FAAD0E7129A94AC4E5",1,"0198ecee-4e06-7176-a1ae-ae987e67acfe","0198c47e-224f-7cc7-87e7-f5ab0011d1ce","2025-08-27_15h16.17.191",NA,NA,363.7165,363.7165,363.7165,364.0663,NA,NA,NA,NA,NA,NA,NA,TRUE,1,1.2524,360.7172,363.7163,0,86,86,90,1,150,31,NA,NA,NA,NA,NA,1,87,"binary"
"44CF20B773F943FAAD0E7129A94AC4E5",1,"0198ecee-4e06-7176-a1ae-ae987e67acfe","0198c47e-224f-7cc7-87e7-f5ab0011d1ce","2025-08-27_15h16.17.191",NA,NA,367.0664,367.0664,367.0664,367.4163,NA,NA,NA,NA,NA,NA,NA,TRUE,1,0.9687,364.0684,367.0662,0,87,87,6,1,10,25,NA,NA,NA,NA,NA,1,88,"binary"
"44CF20B773F943FAAD0E7129A94AC4E5",1,"0198ecee-4e06-7176-a1ae-ae987e67acfe","0198c47e-224f-7cc7-87e7-f5ab0011d1ce","2025-08-27_15h16.17.191",NA,NA,370.4166,370.4166,370.4166,370.7664,NA,NA,NA,NA,NA,NA,NA,TRUE,1,1.3976,367.4181,370.4164,0,88,88,100,1,180,46,NA,NA,NA,NA,NA,1,89,"binary"
"44CF20B773F943FAAD0E7129A94AC4E5",1,"0198ecee-4e06-7176-a1ae-ae987e67acfe","0198c47e-224f-7cc7-87e7-f5ab0011d1ce","2025-08-27_15h16.17.191",NA,NA,373.7657,373.7658,373.7658,374.1155,NA,NA,NA,NA,NA,NA,NA,TRUE,1,1.3051,370.7683,373.7656,0,89,89,94,1,150,47,NA,NA,NA,NA,NA,1,90,"binary"
"44CF20B773F943FAAD0E7129A94AC4E5",1,"0198ecee-4e06-7176-a1ae-ae987e67acfe","0198c47e-224f-7cc7-87e7-f5ab0011d1ce","2025-08-27_15h16.17.191",NA,NA,377.1161,377.1161,377.1161,377.4656,NA,NA,NA,NA,NA,NA,NA,TRUE,1,1.4673,374.1176,377.116,0,90,90,25,1,21,27,NA,NA,NA,NA,NA,1,91,"binary"
"44CF20B773F943FAAD0E7129A94AC4E5",1,"0198ecee-4e06-7176-a1ae-ae987e67acfe","0198c47e-224f-7cc7-87e7-f5ab0011d1ce","2025-08-27_15h16.17.191",NA,NA,380.4659,380.4659,380.4659,380.8158,NA,NA,NA,NA,NA,NA,NA,TRUE,1,1.3014,377.4677,380.4657,0,91,91,38,1,28,32,NA,NA,NA,NA,NA,1,92,"binary"
"44CF20B773F943FAAD0E7129A94AC4E5",1,"0198ecee-4e06-7176-a1ae-ae987e67acfe","0198c47e-224f-7cc7-87e7-f5ab0011d1ce","2025-08-27_15h16.17.191",NA,NA,383.8164,383.8165,383.8165,384.1668,NA,NA,NA,NA,NA,NA,NA,TRUE,1,1.1022,380.818,383.8164,0,92,92,26,1,21,29,NA,NA,NA,NA,NA,1,93,"binary"
"44CF20B773F943FAAD0E7129A94AC4E5",1,"0198ecee-4e06-7176-a1ae-ae987e67acfe","0198c47e-224f-7cc7-87e7-f5ab0011d1ce","2025-08-27_15h16.17.191",NA,NA,387.1671,387.1671,387.1671,387.5168,NA,NA,NA,NA,NA,NA,NA,TRUE,1,1.0134,384.1688,387.1669,0,93,93,96,1,180,27,NA,NA,NA,NA,NA,1,94,"binary"
"44CF20B773F943FAAD0E7129A94AC4E5",1,"0198ecee-4e06-7176-a1ae-ae987e67acfe","0198c47e-224f-7cc7-87e7-f5ab0011d1ce","2025-08-27_15h16.17.191",NA,NA,390.5157,390.5157,390.5157,390.8669,NA,NA,NA,NA,NA,NA,NA,TRUE,1,1.1007,387.5193,390.5156,0,94,94,30,1,25,27,NA,NA,NA,NA,NA,1,95,"binary"
"44CF20B773F943FAAD0E7129A94AC4E5",1,"0198ecee-4e06-7176-a1ae-ae987e67acfe","0198c47e-224f-7cc7-87e7-f5ab0011d1ce","2025-08-27_15h16.17.191",NA,NA,393.8671,393.8672,393.8672,394.216,NA,NA,NA,NA,NA,NA,NA,TRUE,1,0.9014,390.8689,393.867,0,95,95,8,1,10,27,NA,NA,NA,NA,NA,1,96,"binary"
"44CF20B773F943FAAD0E7129A94AC4E5",1,"0198ecee-4e06-7176-a1ae-ae987e67acfe","0198c47e-224f-7cc7-87e7-f5ab0011d1ce","2025-08-27_15h16.17.191",NA,NA,397.2159,397.2159,397.2159,397.5671,NA,NA,NA,NA,NA,NA,NA,TRUE,1,1.352,394.2181,397.2158,0,96,96,17,1,12,35,NA,NA,NA,NA,NA,1,97,"binary"
"44CF20B773F943FAAD0E7129A94AC4E5",1,"0198ecee-4e06-7176-a1ae-ae987e67acfe","0198c47e-224f-7cc7-87e7-f5ab0011d1ce","2025-08-27_15h16.17.191",NA,NA,400.5674,400.5674,400.5675,400.9171,NA,NA,NA,NA,NA,NA,NA,TRUE,1,1.0858,397.5693,400.5672,0,97,97,16,1,12,33,NA,NA,NA,NA,NA,1,98,"binary"
"44CF20B773F943FAAD0E7129A94AC4E5",1,"0198ecee-4e06-7176-a1ae-ae987e67acfe","0198c47e-224f-7cc7-87e7-f5ab0011d1ce","2025-08-27_15h16.17.191",NA,NA,403.9171,403.9171,403.9171,404.2672,NA,NA,NA,NA,NA,NA,NA,TRUE,1,1.2677,400.9191,403.917,0,98,98,82,1,95,47,NA,NA,NA,NA,NA,1,99,"binary"
"44CF20B773F943FAAD0E7129A94AC4E5",1,"0198ecee-4e06-7176-a1ae-ae987e67acfe","0198c47e-224f-7cc7-87e7-f5ab0011d1ce","2025-08-27_15h16.17.191",NA,NA,407.2674,407.2675,407.2675,407.6173,NA,NA,NA,NA,NA,NA,NA,TRUE,2,1.0286,404.2695,407.2673,0,99,99,71,1,60,54,NA,NA,NA,NA,NA,1,100,"binary"
"44CF20B773F943FAAD0E7129A94AC4E5",1,"0198ecee-4e06-7176-a1ae-ae987e67acfe","0198c47e-224f-7cc7-87e7-f5ab0011d1ce","2025-08-27_15h16.17.191",NA,NA,410.6171,410.6171,410.6171,410.9674,NA,NA,NA,NA,NA,NA,NA,TRUE,1,1.3037,407.6195,410.6171,0,100,100,61,1,50,30,NA,NA,NA,NA,NA,1,101,"binary"
"44CF20B773F943FAAD0E7129A94AC4E5",1,"0198ecee-4e06-7176-a1ae-ae987e67acfe","0198c47e-224f-7cc7-87e7-f5ab0011d1ce","2025-08-27_15h16.17.191",NA,NA,413.9667,413.9667,413.9667,414.3174,NA,NA,NA,NA,NA,NA,NA,TRUE,1,1.6379,410.9694,413.9666,0,101,101,45,1,30,30,NA,NA,NA,NA,NA,1,102,"binary"
"44CF20B773F943FAAD0E7129A94AC4E5",1,"0198ecee-4e06-7176-a1ae-ae987e67acfe","0198c47e-224f-7cc7-87e7-f5ab0011d1ce","2025-08-27_15h16.17.191",NA,NA,417.3177,417.3178,417.3178,417.6677,NA,NA,NA,NA,NA,NA,NA,TRUE,1,1.1009,414.3196,417.3176,0,102,102,55,1,45,29,NA,NA,NA,NA,NA,1,103,"binary"
"44CF20B773F943FAAD0E7129A94AC4E5",1,"0198ecee-4e06-7176-a1ae-ae987e67acfe","0198c47e-224f-7cc7-87e7-f5ab0011d1ce","2025-08-27_15h16.17.191",NA,NA,420.6678,420.6679,420.6679,421.0176,NA,NA,NA,NA,NA,NA,NA,TRUE,1,1.4376,417.6697,420.6677,0,103,103,44,1,30,29,NA,NA,NA,NA,NA,1,104,"binary"
"44CF20B773F943FAAD0E7129A94AC4E5",1,"0198ecee-4e06-7176-a1ae-ae987e67acfe","0198c47e-224f-7cc7-87e7-f5ab0011d1ce","2025-08-27_15h16.17.191",NA,NA,424.0179,424.0179,424.0179,424.3667,NA,NA,NA,NA,NA,NA,NA,TRUE,1,2.2027,421.0198,424.0178,0,104,104,9,1,10,29,NA,NA,NA,NA,NA,1,105,"binary"
"44CF20B773F943FAAD0E7129A94AC4E5",1,"0198ecee-4e06-7176-a1ae-ae987e67acfe","0198c47e-224f-7cc7-87e7-f5ab0011d1ce","2025-08-27_15h16.17.191",NA,NA,427.3679,427.3679,427.3679,427.7178,NA,NA,NA,NA,NA,NA,NA,TRUE,2,2.7046,424.3684,427.3677,0,105,105,2,1,7,28,NA,NA,NA,NA,NA,1,106,"binary"
"44CF20B773F943FAAD0E7129A94AC4E5",1,"0198ecee-4e06-7176-a1ae-ae987e67acfe","0198c47e-224f-7cc7-87e7-f5ab0011d1ce","2025-08-27_15h16.17.191",NA,NA,430.7182,430.7182,430.7182,431.0679,NA,NA,NA,NA,NA,NA,NA,TRUE,1,1.2012,427.7197,430.718,0,106,106,102,1,200,26,NA,NA,NA,NA,NA,1,107,"binary"
"44CF20B773F943FAAD0E7129A94AC4E5",1,"0198ecee-4e06-7176-a1ae-ae987e67acfe","0198c47e-224f-7cc7-87e7-f5ab0011d1ce","2025-08-27_15h16.17.191",NA,NA,434.0682,434.0682,434.0682,434.4179,NA,NA,NA,NA,NA,NA,NA,TRUE,1,1.1362,431.0698,434.068,0,107,107,101,1,180,54,NA,NA,NA,NA,NA,1,108,"binary"
"44CF20B773F943FAAD0E7129A94AC4E5",1,"0198ecee-4e06-7176-a1ae-ae987e67acfe","0198c47e-224f-7cc7-87e7-f5ab0011d1ce","2025-08-27_15h16.17.191",NA,NA,773.7103,773.7103,773.7103,774.06,NA,NA,NA,NA,NA,NA,NA,TRUE,1,1.6024,770.7312,773.7101,NA,NA,NA,NA,NA,30,29,0,0,0,44,1,2,1,"binary"
"44CF20B773F943FAAD0E7129A94AC4E5",1,"0198ecee-4e06-7176-a1ae-ae987e67acfe","0198c47e-224f-7cc7-87e7-f5ab0011d1ce","2025-08-27_15h16.17.191",NA,NA,777.0603,777.0603,777.0603,777.4101,NA,NA,NA,NA,NA,NA,NA,TRUE,1,1.1247,774.0622,777.0601,NA,NA,NA,NA,NA,90,30,0,1,1,73,1,2,2,"binary"
"44CF20B773F943FAAD0E7129A94AC4E5",1,"0198ecee-4e06-7176-a1ae-ae987e67acfe","0198c47e-224f-7cc7-87e7-f5ab0011d1ce","2025-08-27_15h16.17.191",NA,NA,780.4103,780.4104,780.4104,780.7602,NA,NA,NA,NA,NA,NA,NA,TRUE,1,1.0548,777.4122,780.4102,NA,NA,NA,NA,NA,150,35,0,2,2,92,1,2,3,"binary"
"44CF20B773F943FAAD0E7129A94AC4E5",1,"0198ecee-4e06-7176-a1ae-ae987e67acfe","0198c47e-224f-7cc7-87e7-f5ab0011d1ce","2025-08-27_15h16.17.191",NA,NA,783.7604,783.7605,783.7605,784.1102,NA,NA,NA,NA,NA,NA,NA,TRUE,2,1.4977,780.7626,783.7603,NA,NA,NA,NA,NA,60,40,0,3,3,69,1,2,4,"binary"
"44CF20B773F943FAAD0E7129A94AC4E5",1,"0198ecee-4e06-7176-a1ae-ae987e67acfe","0198c47e-224f-7cc7-87e7-f5ab0011d1ce","2025-08-27_15h16.17.191",NA,NA,787.1105,787.1106,787.1106,787.4605,NA,NA,NA,NA,NA,NA,NA,TRUE,2,1.3117,784.1125,787.1104,NA,NA,NA,NA,NA,90,46,0,4,4,76,1,2,5,"binary"
"44CF20B773F943FAAD0E7129A94AC4E5",1,"0198ecee-4e06-7176-a1ae-ae987e67acfe","0198c47e-224f-7cc7-87e7-f5ab0011d1ce","2025-08-27_15h16.17.191",NA,NA,790.4602,790.4603,790.4603,790.8105,NA,NA,NA,NA,NA,NA,NA,TRUE,2,1.7077,787.4626,790.4601,NA,NA,NA,NA,NA,45,35,0,5,5,57,1,2,6,"binary"
"44CF20B773F943FAAD0E7129A94AC4E5",1,"0198ecee-4e06-7176-a1ae-ae987e67acfe","0198c47e-224f-7cc7-87e7-f5ab0011d1ce","2025-08-27_15h16.17.191",NA,NA,793.8107,793.8108,793.8108,794.1605,NA,NA,NA,NA,NA,NA,NA,TRUE,1,1.2722,790.8129,793.8105,NA,NA,NA,NA,NA,21,27,0,6,6,25,1,2,7,"binary"
"44CF20B773F943FAAD0E7129A94AC4E5",1,"0198ecee-4e06-7176-a1ae-ae987e67acfe","0198c47e-224f-7cc7-87e7-f5ab0011d1ce","2025-08-27_15h16.17.191",NA,NA,797.1608,797.1608,797.1608,797.5106,NA,NA,NA,NA,NA,NA,NA,TRUE,1,1.7408,794.163,797.1606,NA,NA,NA,NA,NA,100,39,0,7,7,87,1,2,8,"binary"
"44CF20B773F943FAAD0E7129A94AC4E5",1,"0198ecee-4e06-7176-a1ae-ae987e67acfe","0198c47e-224f-7cc7-87e7-f5ab0011d1ce","2025-08-27_15h16.17.191",NA,NA,800.5109,800.511,800.511,800.8606,NA,NA,NA,NA,NA,NA,NA,TRUE,2,1.4845,797.513,800.5108,NA,NA,NA,NA,NA,50,40,0,8,8,63,1,2,9,"binary"
"44CF20B773F943FAAD0E7129A94AC4E5",1,"0198ecee-4e06-7176-a1ae-ae987e67acfe","0198c47e-224f-7cc7-87e7-f5ab0011d1ce","2025-08-27_15h16.17.191",NA,NA,804.5943,804.5943,804.5943,804.5943,NA,NA,NA,NA,NA,NA,NA,TRUE,1,1.4581,800.8629,804.5941,NA,NA,NA,NA,NA,45,29,0,9,9,55,1,2,10,"binary"
"44CF20B773F943FAAD0E7129A94AC4E5",1,"0198ecee-4e06-7176-a1ae-ae987e67acfe","0198c47e-224f-7cc7-87e7-f5ab0011d1ce","2025-08-27_15h16.17.191",NA,NA,813.4099,813.4099,813.4099,813.4099,NA,NA,NA,NA,NA,NA,NA,TRUE,2,1.2978,804.5957,813.4099,NA,NA,NA,NA,NA,95,33,0,10,10,79,1,2,11,"binary"
"44CF20B773F943FAAD0E7129A94AC4E5",1,"0198ecee-4e06-7176-a1ae-ae987e67acfe","0198c47e-224f-7cc7-87e7-f5ab0011d1ce","2025-08-27_15h16.17.191",NA,NA,813.4108,813.4109,813.4109,813.4109,NA,NA,NA,NA,NA,NA,NA,FALSE,NA,NA,813.4108,813.4108,NA,NA,NA,NA,NA,21,29,0,11,11,26,1,2,12,"binary"
"44CF20B773F943FAAD0E7129A94AC4E5",1,"0198ecee-4e06-7176-a1ae-ae987e67acfe","0198c47e-224f-7cc7-87e7-f5ab0011d1ce","2025-08-27_15h16.17.191",NA,NA,813.4328,814.1611,814.1612,814.261,NA,NA,NA,NA,NA,NA,NA,FALSE,NA,NA,813.4113,813.4328,NA,NA,NA,NA,NA,95,40,0,12,12,81,1,2,13,"binary"
"44CF20B773F943FAAD0E7129A94AC4E5",1,"0198ecee-4e06-7176-a1ae-ae987e67acfe","0198c47e-224f-7cc7-87e7-f5ab0011d1ce","2025-08-27_15h16.17.191",NA,NA,817.2611,817.2612,817.2612,817.6112,NA,NA,NA,NA,NA,NA,NA,TRUE,2,1.4602,814.2632,817.2609,NA,NA,NA,NA,NA,40,33,0,13,13,49,1,2,14,"binary"
"44CF20B773F943FAAD0E7129A94AC4E5",1,"0198ecee-4e06-7176-a1ae-ae987e67acfe","0198c47e-224f-7cc7-87e7-f5ab0011d1ce","2025-08-27_15h16.17.191",NA,NA,820.6112,820.6113,820.6113,820.9612,NA,NA,NA,NA,NA,NA,NA,TRUE,2,1.3079,817.6133,820.6111,NA,NA,NA,NA,NA,45,40,0,14,14,58,1,2,15,"binary"
"44CF20B773F943FAAD0E7129A94AC4E5",1,"0198ecee-4e06-7176-a1ae-ae987e67acfe","0198c47e-224f-7cc7-87e7-f5ab0011d1ce","2025-08-27_15h16.17.191",NA,NA,823.9615,823.9616,823.9616,824.3113,NA,NA,NA,NA,NA,NA,NA,TRUE,1,0.7902,820.9633,823.9614,NA,NA,NA,NA,NA,30,26,0,15,15,42,1,2,16,"binary"
"44CF20B773F943FAAD0E7129A94AC4E5",1,"0198ecee-4e06-7176-a1ae-ae987e67acfe","0198c47e-224f-7cc7-87e7-f5ab0011d1ce","2025-08-27_15h16.17.191",NA,NA,827.3116,827.3116,827.3117,827.6614,NA,NA,NA,NA,NA,NA,NA,TRUE,2,1.2617,824.3135,827.3114,NA,NA,NA,NA,NA,100,46,0,16,16,88,1,2,17,"binary"
"44CF20B773F943FAAD0E7129A94AC4E5",1,"0198ecee-4e06-7176-a1ae-ae987e67acfe","0198c47e-224f-7cc7-87e7-f5ab0011d1ce","2025-08-27_15h16.17.191",NA,NA,830.6612,830.6613,830.6614,831.0115,NA,NA,NA,NA,NA,NA,NA,TRUE,2,0.9581,827.6636,830.6611,NA,NA,NA,NA,NA,95,47,0,17,17,82,1,2,18,"binary"
"44CF20B773F943FAAD0E7129A94AC4E5",1,"0198ecee-4e06-7176-a1ae-ae987e67acfe","0198c47e-224f-7cc7-87e7-f5ab0011d1ce","2025-08-27_15h16.17.191",NA,NA,834.0118,834.0118,834.0118,834.3616,NA,NA,NA,NA,NA,NA,NA,TRUE,2,1.7839,831.0136,834.0116,NA,NA,NA,NA,NA,7,28,0,18,18,2,1,2,19,"binary"
"44CF20B773F943FAAD0E7129A94AC4E5",1,"0198ecee-4e06-7176-a1ae-ae987e67acfe","0198c47e-224f-7cc7-87e7-f5ab0011d1ce","2025-08-27_15h16.17.191",NA,NA,837.3608,837.3608,837.3608,837.7116,NA,NA,NA,NA,NA,NA,NA,TRUE,2,0.5746,834.3638,837.3606,NA,NA,NA,NA,NA,40,40,0,19,19,51,1,2,20,"binary"
"44CF20B773F943FAAD0E7129A94AC4E5",1,"0198ecee-4e06-7176-a1ae-ae987e67acfe","0198c47e-224f-7cc7-87e7-f5ab0011d1ce","2025-08-27_15h16.17.191",NA,NA,840.712,840.712,840.712,841.0613,NA,NA,NA,NA,NA,NA,NA,TRUE,1,1.3745,837.7138,840.7118,NA,NA,NA,NA,NA,30,27,0,20,20,43,1,2,21,"binary"
"44CF20B773F943FAAD0E7129A94AC4E5",1,"0198ecee-4e06-7176-a1ae-ae987e67acfe","0198c47e-224f-7cc7-87e7-f5ab0011d1ce","2025-08-27_15h16.17.191",NA,NA,844.0615,844.0615,844.0615,844.4118,NA,NA,NA,NA,NA,NA,NA,TRUE,2,1.2852,841.0634,844.0612,NA,NA,NA,NA,NA,25,46,0,21,21,35,1,2,22,"binary"
"44CF20B773F943FAAD0E7129A94AC4E5",1,"0198ecee-4e06-7176-a1ae-ae987e67acfe","0198c47e-224f-7cc7-87e7-f5ab0011d1ce","2025-08-27_15h16.17.191",NA,NA,847.4123,847.4123,847.4124,847.7619,NA,NA,NA,NA,NA,NA,NA,TRUE,2,1.2068,844.414,847.4121,NA,NA,NA,NA,NA,10,27,0,22,22,8,1,2,23,"binary"
"44CF20B773F943FAAD0E7129A94AC4E5",1,"0198ecee-4e06-7176-a1ae-ae987e67acfe","0198c47e-224f-7cc7-87e7-f5ab0011d1ce","2025-08-27_15h16.17.191",NA,NA,850.7621,850.7621,850.7621,851.112,NA,NA,NA,NA,NA,NA,NA,TRUE,1,1.0077,847.7641,850.7619,NA,NA,NA,NA,NA,150,47,0,23,23,94,1,2,24,"binary"
"44CF20B773F943FAAD0E7129A94AC4E5",1,"0198ecee-4e06-7176-a1ae-ae987e67acfe","0198c47e-224f-7cc7-87e7-f5ab0011d1ce","2025-08-27_15h16.17.191",NA,NA,854.1123,854.1124,854.1124,854.4615,NA,NA,NA,NA,NA,NA,NA,TRUE,2,0.9352,851.114,854.1121,NA,NA,NA,NA,NA,21,30,0,24,24,27,1,2,25,"binary"
"44CF20B773F943FAAD0E7129A94AC4E5",1,"0198ecee-4e06-7176-a1ae-ae987e67acfe","0198c47e-224f-7cc7-87e7-f5ab0011d1ce","2025-08-27_15h16.17.191",NA,NA,857.4619,857.462,857.462,857.8121,NA,NA,NA,NA,NA,NA,NA,TRUE,1,1.159,854.4633,857.4618,NA,NA,NA,NA,NA,95,31,0,25,25,78,1,2,26,"binary"
"44CF20B773F943FAAD0E7129A94AC4E5",1,"0198ecee-4e06-7176-a1ae-ae987e67acfe","0198c47e-224f-7cc7-87e7-f5ab0011d1ce","2025-08-27_15h16.17.191",NA,NA,860.8125,860.8126,860.8127,861.1623,NA,NA,NA,NA,NA,NA,NA,TRUE,1,1.4074,857.8141,860.8123,NA,NA,NA,NA,NA,28,26,0,26,26,36,1,2,27,"binary"
"44CF20B773F943FAAD0E7129A94AC4E5",1,"0198ecee-4e06-7176-a1ae-ae987e67acfe","0198c47e-224f-7cc7-87e7-f5ab0011d1ce","2025-08-27_15h16.17.191",NA,NA,864.1622,864.1622,864.1622,864.5125,NA,NA,NA,NA,NA,NA,NA,TRUE,1,1.1246,861.165,864.1621,NA,NA,NA,NA,NA,10,25,0,27,27,6,1,2,28,"binary"
"44CF20B773F943FAAD0E7129A94AC4E5",1,"0198ecee-4e06-7176-a1ae-ae987e67acfe","0198c47e-224f-7cc7-87e7-f5ab0011d1ce","2025-08-27_15h16.17.191",NA,NA,867.5116,867.5116,867.5117,867.8624,NA,NA,NA,NA,NA,NA,NA,TRUE,1,0.8907,864.5149,867.5115,NA,NA,NA,NA,NA,90,40,0,28,28,75,1,2,29,"binary"
"44CF20B773F943FAAD0E7129A94AC4E5",1,"0198ecee-4e06-7176-a1ae-ae987e67acfe","0198c47e-224f-7cc7-87e7-f5ab0011d1ce","2025-08-27_15h16.17.191",NA,NA,870.8616,870.8616,870.8616,871.2125,NA,NA,NA,NA,NA,NA,NA,TRUE,1,0.8227,867.8647,870.8615,NA,NA,NA,NA,NA,40,27,0,29,29,48,1,2,30,"binary"
"44CF20B773F943FAAD0E7129A94AC4E5",1,"0198ecee-4e06-7176-a1ae-ae987e67acfe","0198c47e-224f-7cc7-87e7-f5ab0011d1ce","2025-08-27_15h16.17.191",NA,NA,874.2129,874.2129,874.2129,874.5626,NA,NA,NA,NA,NA,NA,NA,TRUE,1,1.108,871.2149,874.2126,NA,NA,NA,NA,NA,25,29,0,30,30,31,1,2,31,"binary"
"44CF20B773F943FAAD0E7129A94AC4E5",1,"0198ecee-4e06-7176-a1ae-ae987e67acfe","0198c47e-224f-7cc7-87e7-f5ab0011d1ce","2025-08-27_15h16.17.191",NA,NA,877.563,877.563,877.563,877.9127,NA,NA,NA,NA,NA,NA,NA,TRUE,1,0.9597,874.5647,877.5628,NA,NA,NA,NA,NA,50,30,0,31,31,61,1,2,32,"binary"
"44CF20B773F943FAAD0E7129A94AC4E5",1,"0198ecee-4e06-7176-a1ae-ae987e67acfe","0198c47e-224f-7cc7-87e7-f5ab0011d1ce","2025-08-27_15h16.17.191",NA,NA,880.913,880.913,880.913,881.2628,NA,NA,NA,NA,NA,NA,NA,TRUE,1,1.3081,877.9147,880.9127,NA,NA,NA,NA,NA,50,46,0,32,32,64,1,2,33,"binary"
"44CF20B773F943FAAD0E7129A94AC4E5",1,"0198ecee-4e06-7176-a1ae-ae987e67acfe","0198c47e-224f-7cc7-87e7-f5ab0011d1ce","2025-08-27_15h16.17.191",NA,NA,884.262,884.2621,884.2621,884.6119,NA,NA,NA,NA,NA,NA,NA,TRUE,1,0.986,881.2651,884.262,NA,NA,NA,NA,NA,14,28,0,33,33,20,1,2,34,"binary"
"44CF20B773F943FAAD0E7129A94AC4E5",1,"0198ecee-4e06-7176-a1ae-ae987e67acfe","0198c47e-224f-7cc7-87e7-f5ab0011d1ce","2025-08-27_15h16.17.191",NA,NA,887.6122,887.6122,887.6123,887.9629,NA,NA,NA,NA,NA,NA,NA,TRUE,2,0.7752,884.6139,887.612,NA,NA,NA,NA,NA,28,46,0,34,34,41,1,2,35,"binary"
"44CF20B773F943FAAD0E7129A94AC4E5",1,"0198ecee-4e06-7176-a1ae-ae987e67acfe","0198c47e-224f-7cc7-87e7-f5ab0011d1ce","2025-08-27_15h16.17.191",NA,NA,890.9633,890.9633,890.9633,891.312,NA,NA,NA,NA,NA,NA,NA,TRUE,2,1.0794,887.965,890.9632,NA,NA,NA,NA,NA,12,31,0,35,35,15,1,2,36,"binary"
"44CF20B773F943FAAD0E7129A94AC4E5",1,"0198ecee-4e06-7176-a1ae-ae987e67acfe","0198c47e-224f-7cc7-87e7-f5ab0011d1ce","2025-08-27_15h16.17.191",NA,NA,894.3131,894.3132,894.3132,894.663,NA,NA,NA,NA,NA,NA,NA,TRUE,2,1.2116,891.314,894.313,NA,NA,NA,NA,NA,7,30,0,36,36,3,1,2,37,"binary"
"44CF20B773F943FAAD0E7129A94AC4E5",1,"0198ecee-4e06-7176-a1ae-ae987e67acfe","0198c47e-224f-7cc7-87e7-f5ab0011d1ce","2025-08-27_15h16.17.191",NA,NA,897.6634,897.6635,897.6635,898.0131,NA,NA,NA,NA,NA,NA,NA,TRUE,1,2.0622,894.6649,897.6632,NA,NA,NA,NA,NA,28,28,0,37,37,37,1,2,38,"binary"
"44CF20B773F943FAAD0E7129A94AC4E5",1,"0198ecee-4e06-7176-a1ae-ae987e67acfe","0198c47e-224f-7cc7-87e7-f5ab0011d1ce","2025-08-27_15h16.17.191",NA,NA,901.0135,901.0135,901.0136,901.3629,NA,NA,NA,NA,NA,NA,NA,TRUE,1,2.258,898.0148,901.0134,NA,NA,NA,NA,NA,28,35,0,38,38,39,1,2,39,"binary"
"44CF20B773F943FAAD0E7129A94AC4E5",1,"0198ecee-4e06-7176-a1ae-ae987e67acfe","0198c47e-224f-7cc7-87e7-f5ab0011d1ce","2025-08-27_15h16.17.191",NA,NA,904.3627,904.3628,904.3628,904.7131,NA,NA,NA,NA,NA,NA,NA,TRUE,1,2.3294,901.3641,904.3626,NA,NA,NA,NA,NA,25,27,0,39,39,30,1,2,40,"binary"
"44CF20B773F943FAAD0E7129A94AC4E5",1,"0198ecee-4e06-7176-a1ae-ae987e67acfe","0198c47e-224f-7cc7-87e7-f5ab0011d1ce","2025-08-27_15h16.17.191",NA,NA,907.7136,907.7137,907.7137,908.0632,NA,NA,NA,NA,NA,NA,NA,TRUE,1,1.4753,904.7154,907.7135,NA,NA,NA,NA,NA,200,39,0,40,40,105,1,2,41,"binary"
"44CF20B773F943FAAD0E7129A94AC4E5",1,"0198ecee-4e06-7176-a1ae-ae987e67acfe","0198c47e-224f-7cc7-87e7-f5ab0011d1ce","2025-08-27_15h16.17.191",NA,NA,911.0638,911.0639,911.0639,911.4136,NA,NA,NA,NA,NA,NA,NA,TRUE,2,1.7079,908.0643,911.0636,NA,NA,NA,NA,NA,60,54,0,41,41,71,1,2,42,"binary"
"44CF20B773F943FAAD0E7129A94AC4E5",1,"0198ecee-4e06-7176-a1ae-ae987e67acfe","0198c47e-224f-7cc7-87e7-f5ab0011d1ce","2025-08-27_15h16.17.191",NA,NA,914.4138,914.4139,914.4139,914.7624,NA,NA,NA,NA,NA,NA,NA,TRUE,2,0.84,911.4155,914.4137,NA,NA,NA,NA,NA,90,54,0,42,42,77,1,2,43,"binary"
"44CF20B773F943FAAD0E7129A94AC4E5",1,"0198ecee-4e06-7176-a1ae-ae987e67acfe","0198c47e-224f-7cc7-87e7-f5ab0011d1ce","2025-08-27_15h16.17.191",NA,NA,917.763,917.763,917.7631,918.1137,NA,NA,NA,NA,NA,NA,NA,TRUE,2,1.2635,914.7635,917.7628,NA,NA,NA,NA,NA,45,46,0,43,43,59,1,2,44,"binary"
"44CF20B773F943FAAD0E7129A94AC4E5",1,"0198ecee-4e06-7176-a1ae-ae987e67acfe","0198c47e-224f-7cc7-87e7-f5ab0011d1ce","2025-08-27_15h16.17.191",NA,NA,921.1136,921.1137,921.1137,921.4636,NA,NA,NA,NA,NA,NA,NA,TRUE,1,0.9077,918.1158,921.1134,NA,NA,NA,NA,NA,200,28,0,44,44,103,1,2,45,"binary"
"44CF20B773F943FAAD0E7129A94AC4E5",1,"0198ecee-4e06-7176-a1ae-ae987e67acfe","0198c47e-224f-7cc7-87e7-f5ab0011d1ce","2025-08-27_15h16.17.191",NA,NA,924.4641,924.4642,924.4642,924.8139,NA,NA,NA,NA,NA,NA,NA,TRUE,1,0.8291,921.4646,924.464,NA,NA,NA,NA,NA,180,27,0,45,45,96,1,2,46,"binary"
"44CF20B773F943FAAD0E7129A94AC4E5",1,"0198ecee-4e06-7176-a1ae-ae987e67acfe","0198c47e-224f-7cc7-87e7-f5ab0011d1ce","2025-08-27_15h16.17.191",NA,NA,927.8133,927.8133,927.8133,928.164,NA,NA,NA,NA,NA,NA,NA,TRUE,1,0.5914,924.8161,927.8131,NA,NA,NA,NA,NA,14,39,0,46,46,23,1,2,47,"binary"
"44CF20B773F943FAAD0E7129A94AC4E5",1,"0198ecee-4e06-7176-a1ae-ae987e67acfe","0198c47e-224f-7cc7-87e7-f5ab0011d1ce","2025-08-27_15h16.17.191",NA,NA,931.1633,931.1634,931.1634,931.5141,NA,NA,NA,NA,NA,NA,NA,TRUE,1,1.0081,928.1663,931.1632,NA,NA,NA,NA,NA,28,39,0,47,47,40,1,2,48,"binary"
"44CF20B773F943FAAD0E7129A94AC4E5",1,"0198ecee-4e06-7176-a1ae-ae987e67acfe","0198c47e-224f-7cc7-87e7-f5ab0011d1ce","2025-08-27_15h16.17.191",NA,NA,934.5135,934.5135,934.5136,934.8643,NA,NA,NA,NA,NA,NA,NA,TRUE,1,1.0398,931.5161,934.5133,NA,NA,NA,NA,NA,200,54,0,48,48,107,1,2,49,"binary"
"44CF20B773F943FAAD0E7129A94AC4E5",1,"0198ecee-4e06-7176-a1ae-ae987e67acfe","0198c47e-224f-7cc7-87e7-f5ab0011d1ce","2025-08-27_15h16.17.191",NA,NA,937.8645,937.8646,937.8646,938.2134,NA,NA,NA,NA,NA,NA,NA,TRUE,1,0.7419,934.8662,937.8643,NA,NA,NA,NA,NA,14,26,0,49,49,19,1,2,50,"binary"
"44CF20B773F943FAAD0E7129A94AC4E5",1,"0198ecee-4e06-7176-a1ae-ae987e67acfe","0198c47e-224f-7cc7-87e7-f5ab0011d1ce","2025-08-27_15h16.17.191",NA,NA,941.2136,941.2137,941.2137,941.5645,NA,NA,NA,NA,NA,NA,NA,TRUE,1,0.6413,938.2154,941.2135,NA,NA,NA,NA,NA,150,54,0,50,50,95,1,2,51,"binary"
"44CF20B773F943FAAD0E7129A94AC4E5",1,"0198ecee-4e06-7176-a1ae-ae987e67acfe","0198c47e-224f-7cc7-87e7-f5ab0011d1ce","2025-08-27_15h16.17.191",NA,NA,944.5646,944.5647,944.5647,944.9135,NA,NA,NA,NA,NA,NA,NA,TRUE,1,0.6951,941.5669,944.5646,NA,NA,NA,NA,NA,25,33,0,51,51,33,1,2,52,"binary"
"44CF20B773F943FAAD0E7129A94AC4E5",1,"0198ecee-4e06-7176-a1ae-ae987e67acfe","0198c47e-224f-7cc7-87e7-f5ab0011d1ce","2025-08-27_15h16.17.191",NA,NA,947.9147,947.9148,947.9148,948.2646,NA,NA,NA,NA,NA,NA,NA,TRUE,1,0.9414,944.9155,947.9145,NA,NA,NA,NA,NA,200,47,0,52,52,106,1,2,53,"binary"
"44CF20B773F943FAAD0E7129A94AC4E5",1,"0198ecee-4e06-7176-a1ae-ae987e67acfe","0198c47e-224f-7cc7-87e7-f5ab0011d1ce","2025-08-27_15h16.17.191",NA,NA,951.2648,951.2648,951.2648,951.6147,NA,NA,NA,NA,NA,NA,NA,TRUE,1,0.8578,948.2669,951.2646,NA,NA,NA,NA,NA,7,32,0,53,53,4,1,2,54,"binary"
"44CF20B773F943FAAD0E7129A94AC4E5",1,"0198ecee-4e06-7176-a1ae-ae987e67acfe","0198c47e-224f-7cc7-87e7-f5ab0011d1ce","2025-08-27_15h16.17.191",NA,NA,954.6148,954.6148,954.6148,954.9647,NA,NA,NA,NA,NA,NA,NA,TRUE,2,1.3242,951.6172,954.6147,NA,NA,NA,NA,NA,40,54,0,54,54,53,1,2,55,"binary"
"44CF20B773F943FAAD0E7129A94AC4E5",1,"0198ecee-4e06-7176-a1ae-ae987e67acfe","0198c47e-224f-7cc7-87e7-f5ab0011d1ce","2025-08-27_15h16.17.191",NA,NA,957.965,957.9651,957.9651,958.3148,NA,NA,NA,NA,NA,NA,NA,TRUE,1,1.0909,954.9669,957.9649,NA,NA,NA,NA,NA,40,35,0,55,55,50,1,2,56,"binary"
"44CF20B773F943FAAD0E7129A94AC4E5",1,"0198ecee-4e06-7176-a1ae-ae987e67acfe","0198c47e-224f-7cc7-87e7-f5ab0011d1ce","2025-08-27_15h16.17.191",NA,NA,961.3141,961.3141,961.3141,961.6639,NA,NA,NA,NA,NA,NA,NA,TRUE,1,0.9416,958.3169,961.3139,NA,NA,NA,NA,NA,50,35,0,56,56,62,1,2,57,"binary"
"44CF20B773F943FAAD0E7129A94AC4E5",1,"0198ecee-4e06-7176-a1ae-ae987e67acfe","0198c47e-224f-7cc7-87e7-f5ab0011d1ce","2025-08-27_15h16.17.191",NA,NA,964.6653,964.6653,964.6654,965.015,NA,NA,NA,NA,NA,NA,NA,TRUE,1,1.441,961.6664,964.6651,NA,NA,NA,NA,NA,60,29,0,57,57,66,1,2,58,"binary"
"44CF20B773F943FAAD0E7129A94AC4E5",1,"0198ecee-4e06-7176-a1ae-ae987e67acfe","0198c47e-224f-7cc7-87e7-f5ab0011d1ce","2025-08-27_15h16.17.191",NA,NA,967.9981,967.9981,967.9981,968.365,NA,NA,NA,NA,NA,NA,NA,TRUE,1,0.7247,965.017,967.9981,NA,NA,NA,NA,NA,14,35,0,58,58,22,1,2,59,"binary"
"44CF20B773F943FAAD0E7129A94AC4E5",1,"0198ecee-4e06-7176-a1ae-ae987e67acfe","0198c47e-224f-7cc7-87e7-f5ab0011d1ce","2025-08-27_15h16.17.191",NA,NA,971.3487,971.3487,971.3487,971.6984,NA,NA,NA,NA,NA,NA,NA,TRUE,1,0.8249,968.3665,971.3485,NA,NA,NA,NA,NA,90,33,0,59,59,74,1,2,60,"binary"
"44CF20B773F943FAAD0E7129A94AC4E5",1,"0198ecee-4e06-7176-a1ae-ae987e67acfe","0198c47e-224f-7cc7-87e7-f5ab0011d1ce","2025-08-27_15h16.17.191",NA,NA,974.7153,974.7153,974.7153,975.0485,NA,NA,NA,NA,NA,NA,NA,TRUE,1,0.8169,971.7005,974.7152,NA,NA,NA,NA,NA,180,54,0,60,60,101,1,2,61,"binary"
"44CF20B773F943FAAD0E7129A94AC4E5",1,"0198ecee-4e06-7176-a1ae-ae987e67acfe","0198c47e-224f-7cc7-87e7-f5ab0011d1ce","2025-08-27_15h16.17.191",NA,NA,978.0488,978.0489,978.0489,978.3987,NA,NA,NA,NA,NA,NA,NA,TRUE,1,0.8008,975.0502,978.0487,NA,NA,NA,NA,NA,21,26,0,61,61,24,1,2,62,"binary"
"44CF20B773F943FAAD0E7129A94AC4E5",1,"0198ecee-4e06-7176-a1ae-ae987e67acfe","0198c47e-224f-7cc7-87e7-f5ab0011d1ce","2025-08-27_15h16.17.191",NA,NA,981.3986,981.3986,981.3986,981.7487,NA,NA,NA,NA,NA,NA,NA,TRUE,1,0.7348,978.4009,981.3985,NA,NA,NA,NA,NA,100,38,0,62,62,86,1,2,63,"binary"
"44CF20B773F943FAAD0E7129A94AC4E5",1,"0198ecee-4e06-7176-a1ae-ae987e67acfe","0198c47e-224f-7cc7-87e7-f5ab0011d1ce","2025-08-27_15h16.17.191",NA,NA,984.749,984.749,984.749,985.0988,NA,NA,NA,NA,NA,NA,NA,TRUE,1,0.9838,981.751,984.7488,NA,NA,NA,NA,NA,12,26,0,63,63,13,1,2,64,"binary"
"44CF20B773F943FAAD0E7129A94AC4E5",1,"0198ecee-4e06-7176-a1ae-ae987e67acfe","0198c47e-224f-7cc7-87e7-f5ab0011d1ce","2025-08-27_15h16.17.191",NA,NA,988.0987,988.0988,988.0988,988.4655,NA,NA,NA,NA,NA,NA,NA,TRUE,1,0.7512,985.1009,988.0986,NA,NA,NA,NA,NA,30,30,0,64,64,45,1,2,65,"binary"
"44CF20B773F943FAAD0E7129A94AC4E5",1,"0198ecee-4e06-7176-a1ae-ae987e67acfe","0198c47e-224f-7cc7-87e7-f5ab0011d1ce","2025-08-27_15h16.17.191",NA,NA,991.4488,991.4489,991.4489,991.7991,NA,NA,NA,NA,NA,NA,NA,TRUE,1,0.7069,988.4673,991.4488,NA,NA,NA,NA,NA,100,26,0,65,65,84,1,2,66,"binary"
"44CF20B773F943FAAD0E7129A94AC4E5",1,"0198ecee-4e06-7176-a1ae-ae987e67acfe","0198c47e-224f-7cc7-87e7-f5ab0011d1ce","2025-08-27_15h16.17.191",NA,NA,994.7993,994.7993,994.7994,995.1489,NA,NA,NA,NA,NA,NA,NA,TRUE,1,0.7186,991.8012,994.7992,NA,NA,NA,NA,NA,25,35,0,66,66,34,1,2,67,"binary"
"44CF20B773F943FAAD0E7129A94AC4E5",1,"0198ecee-4e06-7176-a1ae-ae987e67acfe","0198c47e-224f-7cc7-87e7-f5ab0011d1ce","2025-08-27_15h16.17.191",NA,NA,998.1492,998.1493,998.1493,998.4993,NA,NA,NA,NA,NA,NA,NA,TRUE,1,0.6372,995.151,998.1491,NA,NA,NA,NA,NA,12,35,0,67,67,17,1,2,68,"binary"
"44CF20B773F943FAAD0E7129A94AC4E5",1,"0198ecee-4e06-7176-a1ae-ae987e67acfe","0198c47e-224f-7cc7-87e7-f5ab0011d1ce","2025-08-27_15h16.17.191",NA,NA,1001.4996,1001.4997,1001.4997,1001.8659,NA,NA,NA,NA,NA,NA,NA,TRUE,2,1.4005,998.5017,1001.4995,NA,NA,NA,NA,NA,100,54,0,68,68,89,1,2,69,"binary"
"44CF20B773F943FAAD0E7129A94AC4E5",1,"0198ecee-4e06-7176-a1ae-ae987e67acfe","0198c47e-224f-7cc7-87e7-f5ab0011d1ce","2025-08-27_15h16.17.191",NA,NA,1004.8494,1004.8494,1004.8495,1005.1994,NA,NA,NA,NA,NA,NA,NA,TRUE,2,1.7543,1001.8673,1004.8493,NA,NA,NA,NA,NA,14,32,0,69,69,21,1,2,70,"binary"
"44CF20B773F943FAAD0E7129A94AC4E5",1,"0198ecee-4e06-7176-a1ae-ae987e67acfe","0198c47e-224f-7cc7-87e7-f5ab0011d1ce","2025-08-27_15h16.17.191",NA,NA,1008.1996,1008.1996,1008.1997,1008.5495,NA,NA,NA,NA,NA,NA,NA,TRUE,1,0.911,1005.2019,1008.1995,NA,NA,NA,NA,NA,150,33,0,70,70,91,1,2,71,"binary"
"44CF20B773F943FAAD0E7129A94AC4E5",1,"0198ecee-4e06-7176-a1ae-ae987e67acfe","0198c47e-224f-7cc7-87e7-f5ab0011d1ce","2025-08-27_15h16.17.191",NA,NA,1011.5498,1011.5498,1011.5498,1011.8995,NA,NA,NA,NA,NA,NA,NA,TRUE,1,0.9463,1008.5517,1011.5495,NA,NA,NA,NA,NA,95,35,0,71,71,80,1,2,72,"binary"
"44CF20B773F943FAAD0E7129A94AC4E5",1,"0198ecee-4e06-7176-a1ae-ae987e67acfe","0198c47e-224f-7cc7-87e7-f5ab0011d1ce","2025-08-27_15h16.17.191",NA,NA,1014.8995,1014.8995,1014.8995,1015.2497,NA,NA,NA,NA,NA,NA,NA,TRUE,1,0.647,1011.9017,1014.8994,NA,NA,NA,NA,NA,21,38,0,72,72,29,1,2,73,"binary"
"44CF20B773F943FAAD0E7129A94AC4E5",1,"0198ecee-4e06-7176-a1ae-ae987e67acfe","0198c47e-224f-7cc7-87e7-f5ab0011d1ce","2025-08-27_15h16.17.191",NA,NA,1018.25,1018.25,1018.25,1018.5997,NA,NA,NA,NA,NA,NA,NA,TRUE,1,0.8533,1015.2519,1018.2498,NA,NA,NA,NA,NA,10,32,0,73,73,11,1,2,74,"binary"
"44CF20B773F943FAAD0E7129A94AC4E5",1,"0198ecee-4e06-7176-a1ae-ae987e67acfe","0198c47e-224f-7cc7-87e7-f5ab0011d1ce","2025-08-27_15h16.17.191",NA,NA,1021.5999,1021.5999,1021.6,1021.9498,NA,NA,NA,NA,NA,NA,NA,TRUE,1,1.6356,1018.6019,1021.5997,NA,NA,NA,NA,NA,7,25,0,74,74,0,1,2,75,"binary"
"44CF20B773F943FAAD0E7129A94AC4E5",1,"0198ecee-4e06-7176-a1ae-ae987e67acfe","0198c47e-224f-7cc7-87e7-f5ab0011d1ce","2025-08-27_15h16.17.191",NA,NA,1024.9503,1024.9503,1024.9504,1025.3,NA,NA,NA,NA,NA,NA,NA,TRUE,2,1.2676,1021.952,1024.95,NA,NA,NA,NA,NA,12,33,0,75,75,16,1,2,76,"binary"
"44CF20B773F943FAAD0E7129A94AC4E5",1,"0198ecee-4e06-7176-a1ae-ae987e67acfe","0198c47e-224f-7cc7-87e7-f5ab0011d1ce","2025-08-27_15h16.17.191",NA,NA,1028.3002,1028.3002,1028.3003,1028.65,NA,NA,NA,NA,NA,NA,NA,TRUE,1,0.9348,1025.3022,1028.3,NA,NA,NA,NA,NA,200,35,0,76,76,104,1,2,77,"binary"
"44CF20B773F943FAAD0E7129A94AC4E5",1,"0198ecee-4e06-7176-a1ae-ae987e67acfe","0198c47e-224f-7cc7-87e7-f5ab0011d1ce","2025-08-27_15h16.17.191",NA,NA,1031.6502,1031.6503,1031.6503,1032,NA,NA,NA,NA,NA,NA,NA,TRUE,1,0.8848,1028.6524,1031.65,NA,NA,NA,NA,NA,50,27,0,77,77,60,1,2,78,"binary"
"44CF20B773F943FAAD0E7129A94AC4E5",1,"0198ecee-4e06-7176-a1ae-ae987e67acfe","0198c47e-224f-7cc7-87e7-f5ab0011d1ce","2025-08-27_15h16.17.191",NA,NA,1035.0005,1035.0006,1035.0006,1035.3497,NA,NA,NA,NA,NA,NA,NA,TRUE,1,0.978,1032.002,1035.0002,NA,NA,NA,NA,NA,150,31,0,78,78,90,1,2,79,"binary"
"44CF20B773F943FAAD0E7129A94AC4E5",1,"0198ecee-4e06-7176-a1ae-ae987e67acfe","0198c47e-224f-7cc7-87e7-f5ab0011d1ce","2025-08-27_15h16.17.191",NA,NA,1038.3503,1038.3503,1038.3503,1038.6999,NA,NA,NA,NA,NA,NA,NA,TRUE,1,1.5183,1035.3518,1038.3502,NA,NA,NA,NA,NA,10,26,0,79,79,7,1,2,80,"binary"
"44CF20B773F943FAAD0E7129A94AC4E5",1,"0198ecee-4e06-7176-a1ae-ae987e67acfe","0198c47e-224f-7cc7-87e7-f5ab0011d1ce","2025-08-27_15h16.17.191",NA,NA,1041.7005,1041.7006,1041.7006,1042.0504,NA,NA,NA,NA,NA,NA,NA,TRUE,1,0.9214,1038.7011,1041.7003,NA,NA,NA,NA,NA,28,32,0,80,80,38,1,2,81,"binary"
"44CF20B773F943FAAD0E7129A94AC4E5",1,"0198ecee-4e06-7176-a1ae-ae987e67acfe","0198c47e-224f-7cc7-87e7-f5ab0011d1ce","2025-08-27_15h16.17.191",NA,NA,1045.0506,1045.0507,1045.0507,1045.4001,NA,NA,NA,NA,NA,NA,NA,TRUE,1,0.652,1042.0526,1045.0504,NA,NA,NA,NA,NA,95,54,0,81,81,83,1,2,82,"binary"
"44CF20B773F943FAAD0E7129A94AC4E5",1,"0198ecee-4e06-7176-a1ae-ae987e67acfe","0198c47e-224f-7cc7-87e7-f5ab0011d1ce","2025-08-27_15h16.17.191",NA,NA,1048.4007,1048.4007,1048.4007,1048.7505,NA,NA,NA,NA,NA,NA,NA,TRUE,1,0.7295,1045.4012,1048.4005,NA,NA,NA,NA,NA,12,25,0,82,82,12,1,2,83,"binary"
"44CF20B773F943FAAD0E7129A94AC4E5",1,"0198ecee-4e06-7176-a1ae-ae987e67acfe","0198c47e-224f-7cc7-87e7-f5ab0011d1ce","2025-08-27_15h16.17.191",NA,NA,1051.7501,1051.7502,1051.7502,1052.1002,NA,NA,NA,NA,NA,NA,NA,TRUE,1,0.6862,1048.7529,1051.75,NA,NA,NA,NA,NA,30,38,0,83,83,47,1,2,84,"binary"
"44CF20B773F943FAAD0E7129A94AC4E5",1,"0198ecee-4e06-7176-a1ae-ae987e67acfe","0198c47e-224f-7cc7-87e7-f5ab0011d1ce","2025-08-27_15h16.17.191",NA,NA,1055.1008,1055.1008,1055.1008,1055.4503,NA,NA,NA,NA,NA,NA,NA,TRUE,1,0.836,1052.1012,1055.1008,NA,NA,NA,NA,NA,21,32,0,84,84,28,1,2,85,"binary"
"44CF20B773F943FAAD0E7129A94AC4E5",1,"0198ecee-4e06-7176-a1ae-ae987e67acfe","0198c47e-224f-7cc7-87e7-f5ab0011d1ce","2025-08-27_15h16.17.191",NA,NA,1058.4511,1058.4511,1058.4511,1058.8005,NA,NA,NA,NA,NA,NA,NA,TRUE,1,0.7588,1055.4515,1058.4508,NA,NA,NA,NA,NA,7,35,0,85,85,5,1,2,86,"binary"
"44CF20B773F943FAAD0E7129A94AC4E5",1,"0198ecee-4e06-7176-a1ae-ae987e67acfe","0198c47e-224f-7cc7-87e7-f5ab0011d1ce","2025-08-27_15h16.17.191",NA,NA,1061.801,1061.801,1061.801,1062.1508,NA,NA,NA,NA,NA,NA,NA,TRUE,1,0.9553,1058.802,1061.8008,NA,NA,NA,NA,NA,30,32,0,86,86,46,1,2,87,"binary"
"44CF20B773F943FAAD0E7129A94AC4E5",1,"0198ecee-4e06-7176-a1ae-ae987e67acfe","0198c47e-224f-7cc7-87e7-f5ab0011d1ce","2025-08-27_15h16.17.191",NA,NA,1065.1505,1065.1505,1065.1505,1065.501,NA,NA,NA,NA,NA,NA,NA,TRUE,1,0.8566,1062.1529,1065.1503,NA,NA,NA,NA,NA,7,26,0,87,87,1,1,2,88,"binary"
"44CF20B773F943FAAD0E7129A94AC4E5",1,"0198ecee-4e06-7176-a1ae-ae987e67acfe","0198c47e-224f-7cc7-87e7-f5ab0011d1ce","2025-08-27_15h16.17.191",NA,NA,1068.5012,1068.5012,1068.5012,1068.851,NA,NA,NA,NA,NA,NA,NA,TRUE,1,0.9682,1065.5034,1068.501,NA,NA,NA,NA,NA,180,46,0,88,88,100,1,2,89,"binary"
"44CF20B773F943FAAD0E7129A94AC4E5",1,"0198ecee-4e06-7176-a1ae-ae987e67acfe","0198c47e-224f-7cc7-87e7-f5ab0011d1ce","2025-08-27_15h16.17.191",NA,NA,1071.8513,1071.8513,1071.8513,1072.2012,NA,NA,NA,NA,NA,NA,NA,TRUE,1,1.6402,1068.8532,1071.8512,NA,NA,NA,NA,NA,10,29,0,89,89,9,1,2,90,"binary"
"44CF20B773F943FAAD0E7129A94AC4E5",1,"0198ecee-4e06-7176-a1ae-ae987e67acfe","0198c47e-224f-7cc7-87e7-f5ab0011d1ce","2025-08-27_15h16.17.191",NA,NA,1075.2014,1075.2014,1075.2014,1075.5512,NA,NA,NA,NA,NA,NA,NA,TRUE,1,1.135,1072.2035,1075.2013,NA,NA,NA,NA,NA,60,35,0,90,90,68,1,2,91,"binary"
"44CF20B773F943FAAD0E7129A94AC4E5",1,"0198ecee-4e06-7176-a1ae-ae987e67acfe","0198c47e-224f-7cc7-87e7-f5ab0011d1ce","2025-08-27_15h16.17.191",NA,NA,1078.5515,1078.5515,1078.5515,1078.9012,NA,NA,NA,NA,NA,NA,NA,TRUE,1,1.0182,1075.5533,1078.5513,NA,NA,NA,NA,NA,50,54,0,91,91,65,1,2,92,"binary"
"44CF20B773F943FAAD0E7129A94AC4E5",1,"0198ecee-4e06-7176-a1ae-ae987e67acfe","0198c47e-224f-7cc7-87e7-f5ab0011d1ce","2025-08-27_15h16.17.191",NA,NA,1081.9015,1081.9015,1081.9015,1082.2514,NA,NA,NA,NA,NA,NA,NA,TRUE,1,0.8847,1078.9034,1081.9014,NA,NA,NA,NA,NA,60,33,0,92,92,67,1,2,93,"binary"
"44CF20B773F943FAAD0E7129A94AC4E5",1,"0198ecee-4e06-7176-a1ae-ae987e67acfe","0198c47e-224f-7cc7-87e7-f5ab0011d1ce","2025-08-27_15h16.17.191",NA,NA,1085.2516,1085.2516,1085.2516,1085.6015,NA,NA,NA,NA,NA,NA,NA,TRUE,1,0.8163,1082.2534,1085.2514,NA,NA,NA,NA,NA,100,31,0,93,93,85,1,2,94,"binary"
"44CF20B773F943FAAD0E7129A94AC4E5",1,"0198ecee-4e06-7176-a1ae-ae987e67acfe","0198c47e-224f-7cc7-87e7-f5ab0011d1ce","2025-08-27_15h16.17.191",NA,NA,1088.6018,1088.6018,1088.6018,1088.9516,NA,NA,NA,NA,NA,NA,NA,TRUE,2,1.3681,1085.6037,1088.6015,NA,NA,NA,NA,NA,60,47,0,94,94,70,1,2,95,"binary"
"44CF20B773F943FAAD0E7129A94AC4E5",1,"0198ecee-4e06-7176-a1ae-ae987e67acfe","0198c47e-224f-7cc7-87e7-f5ab0011d1ce","2025-08-27_15h16.17.191",NA,NA,1091.9513,1091.9513,1091.9513,1092.3016,NA,NA,NA,NA,NA,NA,NA,TRUE,1,1.0023,1088.9538,1091.9511,NA,NA,NA,NA,NA,45,26,0,95,95,54,1,2,96,"binary"
"44CF20B773F943FAAD0E7129A94AC4E5",1,"0198ecee-4e06-7176-a1ae-ae987e67acfe","0198c47e-224f-7cc7-87e7-f5ab0011d1ce","2025-08-27_15h16.17.191",NA,NA,1095.3019,1095.3019,1095.3019,1095.6517,NA,NA,NA,NA,NA,NA,NA,TRUE,1,0.8364,1092.3038,1095.3017,NA,NA,NA,NA,NA,45,31,0,96,96,56,1,2,97,"binary"
"44CF20B773F943FAAD0E7129A94AC4E5",1,"0198ecee-4e06-7176-a1ae-ae987e67acfe","0198c47e-224f-7cc7-87e7-f5ab0011d1ce","2025-08-27_15h16.17.191",NA,NA,1098.651,1098.651,1098.651,1099.0018,NA,NA,NA,NA,NA,NA,NA,TRUE,1,0.6346,1095.654,1098.6508,NA,NA,NA,NA,NA,200,26,0,97,97,102,1,2,98,"binary"
"44CF20B773F943FAAD0E7129A94AC4E5",1,"0198ecee-4e06-7176-a1ae-ae987e67acfe","0198c47e-224f-7cc7-87e7-f5ab0011d1ce","2025-08-27_15h16.17.191",NA,NA,1102.0021,1102.0022,1102.0022,1102.352,NA,NA,NA,NA,NA,NA,NA,TRUE,2,1.4172,1099.0037,1102.002,NA,NA,NA,NA,NA,10,30,0,98,98,10,1,2,99,"binary"
"44CF20B773F943FAAD0E7129A94AC4E5",1,"0198ecee-4e06-7176-a1ae-ae987e67acfe","0198c47e-224f-7cc7-87e7-f5ab0011d1ce","2025-08-27_15h16.17.191",NA,NA,1105.352,1105.352,1105.352,1105.7019,NA,NA,NA,NA,NA,NA,NA,TRUE,1,0.655,1102.3542,1105.3518,NA,NA,NA,NA,NA,14,25,0,99,99,18,1,2,100,"binary"
"44CF20B773F943FAAD0E7129A94AC4E5",1,"0198ecee-4e06-7176-a1ae-ae987e67acfe","0198c47e-224f-7cc7-87e7-f5ab0011d1ce","2025-08-27_15h16.17.191",NA,NA,1117.9356,1117.9356,1117.9356,1117.9356,NA,NA,NA,NA,NA,NA,NA,TRUE,1,0.7839,1105.7033,1117.9355,NA,NA,NA,NA,NA,90,26,0,100,100,72,1,2,101,"binary"
"44CF20B773F943FAAD0E7129A94AC4E5",1,"0198ecee-4e06-7176-a1ae-ae987e67acfe","0198c47e-224f-7cc7-87e7-f5ab0011d1ce","2025-08-27_15h16.17.191",NA,NA,1117.9369,1117.9369,1117.9369,1117.9369,NA,NA,NA,NA,NA,NA,NA,FALSE,NA,NA,1117.9368,1117.9368,NA,NA,NA,NA,NA,180,39,0,101,101,99,1,2,102,"binary"
"44CF20B773F943FAAD0E7129A94AC4E5",1,"0198ecee-4e06-7176-a1ae-ae987e67acfe","0198c47e-224f-7cc7-87e7-f5ab0011d1ce","2025-08-27_15h16.17.191",NA,NA,1117.9375,1117.9375,1117.9375,1117.9375,NA,NA,NA,NA,NA,NA,NA,FALSE,NA,NA,1117.9374,1117.9374,NA,NA,NA,NA,NA,180,35,0,102,102,98,1,2,103,"binary"
"44CF20B773F943FAAD0E7129A94AC4E5",1,"0198ecee-4e06-7176-a1ae-ae987e67acfe","0198c47e-224f-7cc7-87e7-f5ab0011d1ce","2025-08-27_15h16.17.191",NA,NA,1117.9604,1119.0024,1119.0024,1119.1014,NA,NA,NA,NA,NA,NA,NA,FALSE,NA,NA,1117.9378,1117.9604,NA,NA,NA,NA,NA,25,31,0,103,103,32,1,2,104,"binary"
"44CF20B773F943FAAD0E7129A94AC4E5",1,"0198ecee-4e06-7176-a1ae-ae987e67acfe","0198c47e-224f-7cc7-87e7-f5ab0011d1ce","2025-08-27_15h16.17.191",NA,NA,1122.1024,1122.1025,1122.1025,1122.4518,NA,NA,NA,NA,NA,NA,NA,TRUE,1,1.0687,1119.1035,1122.1023,NA,NA,NA,NA,NA,150,40,0,104,104,93,1,2,105,"binary"
"44CF20B773F943FAAD0E7129A94AC4E5",1,"0198ecee-4e06-7176-a1ae-ae987e67acfe","0198c47e-224f-7cc7-87e7-f5ab0011d1ce","2025-08-27_15h16.17.191",NA,NA,1124.7689,1124.7689,1124.7689,1125.8022,NA,NA,NA,NA,NA,NA,NA,TRUE,1,0.8955,1122.4528,1124.7689,NA,NA,NA,NA,NA,180,31,0,105,105,97,1,2,106,"binary"
"44CF20B773F943FAAD0E7129A94AC4E5",1,"0198ecee-4e06-7176-a1ae-ae987e67acfe","0198c47e-224f-7cc7-87e7-f5ab0011d1ce","2025-08-27_15h16.17.191",NA,NA,1128.8027,1128.8028,1128.8028,1129.1519,NA,NA,NA,NA,NA,NA,NA,TRUE,1,1.253,1125.8037,1128.8026,NA,NA,NA,NA,NA,12,28,0,106,106,14,1,2,107,"binary"
"44CF20B773F943FAAD0E7129A94AC4E5",1,"0198ecee-4e06-7176-a1ae-ae987e67acfe","0198c47e-224f-7cc7-87e7-f5ab0011d1ce","2025-08-27_15h16.17.191",NA,NA,1132.1533,1132.1533,1132.1533,1132.5026,NA,NA,NA,NA,NA,NA,NA,TRUE,2,1.0539,1129.1538,1132.1531,NA,NA,NA,NA,NA,40,47,0,107,107,52,1,2,108,"binary"
