"participant","session","assignmentId","projectId","date","practiceTrial.started","practiceTrial.stopped","tooLate.started","tooLate.stopped","blank.started","blank.stopped","trials_pract.thisRepN","trials_pract.thisTrialN","trials_pract.thisN","trials_pract.thisIndex","trials_pract.ran","delay_pract","amount_pract","responseMade","key","rt","trial.started","trial.stopped","trials.thisRepN","trials.thisTrialN","trials.thisN","trials.thisIndex","trials.ran","delay","amount","trials_2.thisRepN","trials_2.thisTrialN","trials_2.thisN","trials_2.thisIndex","trials_2.ran","block","trial","taskType"
"496DDD06DEFB45479BD534FDF4A48140",1,"0198f77f-a458-7510-9c31-689efbe11796","0198f767-55c9-7875-8d21-563b3c0b86ed","2025-08-29_13h24.25.377",48.8789,51.8097,51.8112,52.06,52.0609,52.1602,0,0,0,2,1,14,45,FALSE,NA,NA,NA,NA,NA,NA,NA,NA,NA,NA,NA,NA,NA,NA,NA,NA,0,1,"binary"
"496DDD06DEFB45479BD534FDF4A48140",1,"0198f77f-a458-7510-9c31-689efbe11796","0198f767-55c9-7875-8d21-563b3c0b86ed","2025-08-29_13h24.25.377",52.1662,55.1603,55.1608,55.4107,55.4109,55.5101,0,1,1,0,1,7,30,FALSE,NA,NA,NA,NA,NA,NA,NA,NA,NA,NA,NA,NA,NA,NA,NA,NA,0,2,"binary"
"496DDD06DEFB45479BD534FDF4A48140",1,"0198f77f-a458-7510-9c31-689efbe11796","0198f767-55c9-7875-8d21-563b3c0b86ed","2025-08-29_13h24.25.377",55.5154,58.5191,58.5195,58.5199,58.52,58.8671,0,2,2,3,1,3,27,TRUE,1,1.7393,NA,NA,NA,NA,NA,NA,NA,NA,NA,NA,NA,NA,NA,NA,0,3,"binary"
"496DDD06DEFB45479BD534FDF4A48140",1,"0198f77f-a458-7510-9c31-689efbe11796","0198f767-55c9-7875-8d21-563b3c0b86ed","2025-08-29_13h24.25.377",58.8717,61.853,61.8533,61.8535,61.8536,62.2095,0,3,3,4,1,30,40,TRUE,1,2.7508,NA,NA,NA,NA,NA,NA,NA,NA,NA,NA,NA,NA,NA,NA,0,4,"binary"
"496DDD06DEFB45479BD534FDF4A48140",1,"0198f77f-a458-7510-9c31-689efbe11796","0198f767-55c9-7875-8d21-563b3c0b86ed","2025-08-29_13h24.25.377",62.2127,65.2104,65.2107,65.2108,65.2109,65.5595,0,4,4,1,1,100,50,TRUE,1,1.7164,NA,NA,NA,NA,NA,NA,NA,NA,NA,NA,NA,NA,NA,NA,0,5,"binary"
"496DDD06DEFB45479BD534FDF4A48140",1,"0198f77f-a458-7510-9c31-689efbe11796","0198f767-55c9-7875-8d21-563b3c0b86ed","2025-08-29_13h24.25.377",NA,NA,117.4277,117.6777,117.678,117.7775,NA,NA,NA,NA,NA,NA,NA,FALSE,NA,NA,114.4506,117.4271,0,0,0,63,1,50,40,NA,NA,NA,NA,NA,1,1,"binary"
"496DDD06DEFB45479BD534FDF4A48140",1,"0198f77f-a458-7510-9c31-689efbe11796","0198f767-55c9-7875-8d21-563b3c0b86ed","2025-08-29_13h24.25.377",NA,NA,120.7777,120.7778,120.7778,121.1273,NA,NA,NA,NA,NA,NA,NA,TRUE,1,0.8095,117.7824,120.7773,0,1,1,61,1,50,30,NA,NA,NA,NA,NA,1,2,"binary"
"496DDD06DEFB45479BD534FDF4A48140",1,"0198f77f-a458-7510-9c31-689efbe11796","0198f767-55c9-7875-8d21-563b3c0b86ed","2025-08-29_13h24.25.377",NA,NA,124.1186,124.1187,124.1189,124.4777,NA,NA,NA,NA,NA,NA,NA,TRUE,1,0.8471,121.1307,124.1183,0,2,2,56,1,45,31,NA,NA,NA,NA,NA,1,3,"binary"
"496DDD06DEFB45479BD534FDF4A48140",1,"0198f77f-a458-7510-9c31-689efbe11796","0198f767-55c9-7875-8d21-563b3c0b86ed","2025-08-29_13h24.25.377",NA,NA,127.4784,127.4785,127.4787,127.8282,NA,NA,NA,NA,NA,NA,NA,TRUE,1,0.6369,124.4821,127.4777,0,3,3,65,1,50,54,NA,NA,NA,NA,NA,1,4,"binary"
"496DDD06DEFB45479BD534FDF4A48140",1,"0198f77f-a458-7510-9c31-689efbe11796","0198f767-55c9-7875-8d21-563b3c0b86ed","2025-08-29_13h24.25.377",NA,NA,130.8289,130.829,130.829,131.1772,NA,NA,NA,NA,NA,NA,NA,TRUE,1,0.566,127.8342,130.8283,0,4,4,72,1,90,26,NA,NA,NA,NA,NA,1,5,"binary"
"496DDD06DEFB45479BD534FDF4A48140",1,"0198f77f-a458-7510-9c31-689efbe11796","0198f767-55c9-7875-8d21-563b3c0b86ed","2025-08-29_13h24.25.377",NA,NA,134.1687,134.169,134.1691,134.5284,NA,NA,NA,NA,NA,NA,NA,TRUE,1,1.5001,131.1812,134.1685,0,5,5,62,1,50,35,NA,NA,NA,NA,NA,1,6,"binary"
"496DDD06DEFB45479BD534FDF4A48140",1,"0198f77f-a458-7510-9c31-689efbe11796","0198f767-55c9-7875-8d21-563b3c0b86ed","2025-08-29_13h24.25.377",NA,NA,137.5174,137.5174,137.5175,137.8785,NA,NA,NA,NA,NA,NA,NA,TRUE,1,0.4486,134.5319,137.517,0,6,6,71,1,60,54,NA,NA,NA,NA,NA,1,7,"binary"
"496DDD06DEFB45479BD534FDF4A48140",1,"0198f77f-a458-7510-9c31-689efbe11796","0198f767-55c9-7875-8d21-563b3c0b86ed","2025-08-29_13h24.25.377",NA,NA,140.8872,140.8876,140.8878,141.2201,NA,NA,NA,NA,NA,NA,NA,TRUE,1,1.8465,137.8821,140.8869,0,7,7,7,1,10,26,NA,NA,NA,NA,NA,1,8,"binary"
"496DDD06DEFB45479BD534FDF4A48140",1,"0198f77f-a458-7510-9c31-689efbe11796","0198f767-55c9-7875-8d21-563b3c0b86ed","2025-08-29_13h24.25.377",NA,NA,144.2377,144.2382,144.2382,144.5818,NA,NA,NA,NA,NA,NA,NA,TRUE,1,0.4225,141.2235,144.2374,0,8,8,44,1,30,29,NA,NA,NA,NA,NA,1,9,"binary"
"496DDD06DEFB45479BD534FDF4A48140",1,"0198f77f-a458-7510-9c31-689efbe11796","0198f767-55c9-7875-8d21-563b3c0b86ed","2025-08-29_13h24.25.377",NA,NA,147.5676,147.5676,147.5676,147.9269,NA,NA,NA,NA,NA,NA,NA,TRUE,1,0.4677,144.5843,147.5674,0,9,9,90,1,150,31,NA,NA,NA,NA,NA,1,10,"binary"
"496DDD06DEFB45479BD534FDF4A48140",1,"0198f77f-a458-7510-9c31-689efbe11796","0198f767-55c9-7875-8d21-563b3c0b86ed","2025-08-29_13h24.25.377",NA,NA,150.9268,150.9274,150.9274,151.276,NA,NA,NA,NA,NA,NA,NA,TRUE,1,0.5168,147.9309,150.9263,0,10,10,82,1,95,47,NA,NA,NA,NA,NA,1,11,"binary"
"496DDD06DEFB45479BD534FDF4A48140",1,"0198f77f-a458-7510-9c31-689efbe11796","0198f767-55c9-7875-8d21-563b3c0b86ed","2025-08-29_13h24.25.377",NA,NA,154.2768,154.2769,154.2769,154.6184,NA,NA,NA,NA,NA,NA,NA,TRUE,1,0.469,151.281,154.2761,0,11,11,97,1,180,31,NA,NA,NA,NA,NA,1,12,"binary"
"496DDD06DEFB45479BD534FDF4A48140",1,"0198f77f-a458-7510-9c31-689efbe11796","0198f767-55c9-7875-8d21-563b3c0b86ed","2025-08-29_13h24.25.377",NA,NA,157.6266,157.6266,157.6266,157.976,NA,NA,NA,NA,NA,NA,NA,TRUE,1,0.4056,154.6198,157.6263,0,12,12,107,1,200,54,NA,NA,NA,NA,NA,1,13,"binary"
"496DDD06DEFB45479BD534FDF4A48140",1,"0198f77f-a458-7510-9c31-689efbe11796","0198f767-55c9-7875-8d21-563b3c0b86ed","2025-08-29_13h24.25.377",NA,NA,160.9776,160.9777,160.9778,161.326,NA,NA,NA,NA,NA,NA,NA,TRUE,1,1.1738,157.9803,160.977,0,13,13,86,1,100,38,NA,NA,NA,NA,NA,1,14,"binary"
"496DDD06DEFB45479BD534FDF4A48140",1,"0198f77f-a458-7510-9c31-689efbe11796","0198f767-55c9-7875-8d21-563b3c0b86ed","2025-08-29_13h24.25.377",NA,NA,164.3341,164.3342,164.3342,164.677,NA,NA,NA,NA,NA,NA,NA,TRUE,1,0.4243,161.3304,164.3338,0,14,14,101,1,180,54,NA,NA,NA,NA,NA,1,15,"binary"
"496DDD06DEFB45479BD534FDF4A48140",1,"0198f77f-a458-7510-9c31-689efbe11796","0198f767-55c9-7875-8d21-563b3c0b86ed","2025-08-29_13h24.25.377",NA,NA,167.678,167.6781,167.6782,168.0263,NA,NA,NA,NA,NA,NA,NA,TRUE,1,0.9521,164.6815,167.6775,0,15,15,19,1,14,26,NA,NA,NA,NA,NA,1,16,"binary"
"496DDD06DEFB45479BD534FDF4A48140",1,"0198f77f-a458-7510-9c31-689efbe11796","0198f767-55c9-7875-8d21-563b3c0b86ed","2025-08-29_13h24.25.377",NA,NA,171.0274,171.0275,171.0276,171.368,NA,NA,NA,NA,NA,NA,NA,TRUE,1,0.5237,168.0302,171.0266,0,16,16,85,1,100,31,NA,NA,NA,NA,NA,1,17,"binary"
"496DDD06DEFB45479BD534FDF4A48140",1,"0198f77f-a458-7510-9c31-689efbe11796","0198f767-55c9-7875-8d21-563b3c0b86ed","2025-08-29_13h24.25.377",NA,NA,174.3775,174.3775,174.3775,174.7265,NA,NA,NA,NA,NA,NA,NA,TRUE,1,1.0534,171.3696,174.3769,0,17,17,0,1,7,25,NA,NA,NA,NA,NA,1,18,"binary"
"496DDD06DEFB45479BD534FDF4A48140",1,"0198f77f-a458-7510-9c31-689efbe11796","0198f767-55c9-7875-8d21-563b3c0b86ed","2025-08-29_13h24.25.377",NA,NA,177.7304,177.7304,177.7304,178.0769,NA,NA,NA,NA,NA,NA,NA,TRUE,1,0.3891,174.7306,177.7303,0,18,18,76,1,90,46,NA,NA,NA,NA,NA,1,19,"binary"
"496DDD06DEFB45479BD534FDF4A48140",1,"0198f77f-a458-7510-9c31-689efbe11796","0198f767-55c9-7875-8d21-563b3c0b86ed","2025-08-29_13h24.25.377",NA,NA,181.0772,181.0773,181.0774,181.4263,NA,NA,NA,NA,NA,NA,NA,TRUE,1,0.4562,178.0808,181.0766,0,19,19,4,1,7,32,NA,NA,NA,NA,NA,1,20,"binary"
"496DDD06DEFB45479BD534FDF4A48140",1,"0198f77f-a458-7510-9c31-689efbe11796","0198f767-55c9-7875-8d21-563b3c0b86ed","2025-08-29_13h24.25.377",NA,NA,184.4267,184.427,184.427,184.7762,NA,NA,NA,NA,NA,NA,NA,TRUE,1,1.0371,181.4303,184.4262,0,20,20,36,1,28,26,NA,NA,NA,NA,NA,1,21,"binary"
"496DDD06DEFB45479BD534FDF4A48140",1,"0198f77f-a458-7510-9c31-689efbe11796","0198f767-55c9-7875-8d21-563b3c0b86ed","2025-08-29_13h24.25.377",NA,NA,187.7774,187.7774,187.7774,188.1269,NA,NA,NA,NA,NA,NA,NA,TRUE,1,0.5349,184.7807,187.7766,0,21,21,103,1,200,28,NA,NA,NA,NA,NA,1,22,"binary"
"496DDD06DEFB45479BD534FDF4A48140",1,"0198f77f-a458-7510-9c31-689efbe11796","0198f767-55c9-7875-8d21-563b3c0b86ed","2025-08-29_13h24.25.377",NA,NA,191.1276,191.1278,191.1279,191.4765,NA,NA,NA,NA,NA,NA,NA,TRUE,1,0.3508,188.1307,191.127,0,22,22,43,1,30,27,NA,NA,NA,NA,NA,1,23,"binary"
"496DDD06DEFB45479BD534FDF4A48140",1,"0198f77f-a458-7510-9c31-689efbe11796","0198f767-55c9-7875-8d21-563b3c0b86ed","2025-08-29_13h24.25.377",NA,NA,194.4794,194.4795,194.4795,194.8264,NA,NA,NA,NA,NA,NA,NA,TRUE,1,0.3363,191.4805,194.4786,0,23,23,70,1,60,47,NA,NA,NA,NA,NA,1,24,"binary"
"496DDD06DEFB45479BD534FDF4A48140",1,"0198f77f-a458-7510-9c31-689efbe11796","0198f767-55c9-7875-8d21-563b3c0b86ed","2025-08-29_13h24.25.377",NA,NA,197.8267,197.8269,197.8269,198.1761,NA,NA,NA,NA,NA,NA,NA,TRUE,1,0.3288,194.8302,197.8261,0,24,24,25,1,21,27,NA,NA,NA,NA,NA,1,25,"binary"
"496DDD06DEFB45479BD534FDF4A48140",1,"0198f77f-a458-7510-9c31-689efbe11796","0198f767-55c9-7875-8d21-563b3c0b86ed","2025-08-29_13h24.25.377",NA,NA,201.1764,201.1765,201.1765,201.5264,NA,NA,NA,NA,NA,NA,NA,TRUE,1,0.487,198.1805,201.1762,0,25,25,41,1,28,46,NA,NA,NA,NA,NA,1,26,"binary"
"496DDD06DEFB45479BD534FDF4A48140",1,"0198f77f-a458-7510-9c31-689efbe11796","0198f767-55c9-7875-8d21-563b3c0b86ed","2025-08-29_13h24.25.377",NA,NA,204.5185,204.5185,204.5185,204.8774,NA,NA,NA,NA,NA,NA,NA,TRUE,1,0.4348,201.5305,204.5183,0,26,26,47,1,30,38,NA,NA,NA,NA,NA,1,27,"binary"
"496DDD06DEFB45479BD534FDF4A48140",1,"0198f77f-a458-7510-9c31-689efbe11796","0198f767-55c9-7875-8d21-563b3c0b86ed","2025-08-29_13h24.25.377",NA,NA,207.8713,207.8714,207.8714,208.2281,NA,NA,NA,NA,NA,NA,NA,TRUE,1,0.8641,204.882,207.8709,0,27,27,102,1,200,26,NA,NA,NA,NA,NA,1,28,"binary"
"496DDD06DEFB45479BD534FDF4A48140",1,"0198f77f-a458-7510-9c31-689efbe11796","0198f767-55c9-7875-8d21-563b3c0b86ed","2025-08-29_13h24.25.377",NA,NA,211.2295,211.2296,211.2297,211.5678,NA,NA,NA,NA,NA,NA,NA,TRUE,1,0.5371,208.2326,211.2289,0,28,28,68,1,60,35,NA,NA,NA,NA,NA,1,29,"binary"
"496DDD06DEFB45479BD534FDF4A48140",1,"0198f77f-a458-7510-9c31-689efbe11796","0198f767-55c9-7875-8d21-563b3c0b86ed","2025-08-29_13h24.25.377",NA,NA,214.5782,214.5783,214.5783,214.9195,NA,NA,NA,NA,NA,NA,NA,TRUE,1,1.1798,211.5711,214.5774,0,29,29,14,1,12,28,NA,NA,NA,NA,NA,1,30,"binary"
"496DDD06DEFB45479BD534FDF4A48140",1,"0198f77f-a458-7510-9c31-689efbe11796","0198f767-55c9-7875-8d21-563b3c0b86ed","2025-08-29_13h24.25.377",NA,NA,217.9271,217.9272,217.9272,218.2853,NA,NA,NA,NA,NA,NA,NA,TRUE,1,0.4114,214.9229,217.9266,0,30,30,81,1,95,40,NA,NA,NA,NA,NA,1,31,"binary"
"496DDD06DEFB45479BD534FDF4A48140",1,"0198f77f-a458-7510-9c31-689efbe11796","0198f767-55c9-7875-8d21-563b3c0b86ed","2025-08-29_13h24.25.377",NA,NA,221.278,221.2781,221.2781,221.6272,NA,NA,NA,NA,NA,NA,NA,TRUE,1,0.829,218.2888,221.2775,0,31,31,94,1,150,47,NA,NA,NA,NA,NA,1,32,"binary"
"496DDD06DEFB45479BD534FDF4A48140",1,"0198f77f-a458-7510-9c31-689efbe11796","0198f767-55c9-7875-8d21-563b3c0b86ed","2025-08-29_13h24.25.377",NA,NA,224.628,224.6281,224.6282,224.9699,NA,NA,NA,NA,NA,NA,NA,TRUE,1,0.4821,221.6314,224.6276,0,32,32,23,1,14,39,NA,NA,NA,NA,NA,1,33,"binary"
"496DDD06DEFB45479BD534FDF4A48140",1,"0198f77f-a458-7510-9c31-689efbe11796","0198f767-55c9-7875-8d21-563b3c0b86ed","2025-08-29_13h24.25.377",NA,NA,227.9704,227.9704,227.9704,228.3278,NA,NA,NA,NA,NA,NA,NA,TRUE,1,0.4073,224.9733,227.9702,0,33,33,8,1,10,27,NA,NA,NA,NA,NA,1,34,"binary"
"496DDD06DEFB45479BD534FDF4A48140",1,"0198f77f-a458-7510-9c31-689efbe11796","0198f767-55c9-7875-8d21-563b3c0b86ed","2025-08-29_13h24.25.377",NA,NA,231.3185,231.3186,231.3187,231.6771,NA,NA,NA,NA,NA,NA,NA,TRUE,1,0.3894,228.3313,231.3182,0,34,34,26,1,21,29,NA,NA,NA,NA,NA,1,35,"binary"
"496DDD06DEFB45479BD534FDF4A48140",1,"0198f77f-a458-7510-9c31-689efbe11796","0198f767-55c9-7875-8d21-563b3c0b86ed","2025-08-29_13h24.25.377",NA,NA,234.6786,234.6787,234.6787,235.0363,NA,NA,NA,NA,NA,NA,NA,TRUE,1,0.5432,231.6809,234.6775,0,35,35,42,1,30,26,NA,NA,NA,NA,NA,1,36,"binary"
"496DDD06DEFB45479BD534FDF4A48140",1,"0198f77f-a458-7510-9c31-689efbe11796","0198f767-55c9-7875-8d21-563b3c0b86ed","2025-08-29_13h24.25.377",NA,NA,238.0376,238.0378,238.038,238.3672,NA,NA,NA,NA,NA,NA,NA,TRUE,1,0.6345,235.0397,238.0372,0,36,36,37,1,28,28,NA,NA,NA,NA,NA,1,37,"binary"
"496DDD06DEFB45479BD534FDF4A48140",1,"0198f77f-a458-7510-9c31-689efbe11796","0198f767-55c9-7875-8d21-563b3c0b86ed","2025-08-29_13h24.25.377",NA,NA,241.3778,241.3779,241.3779,241.7201,NA,NA,NA,NA,NA,NA,NA,TRUE,2,0.5334,238.37,241.3772,0,37,37,10,1,10,30,NA,NA,NA,NA,NA,1,38,"binary"
"496DDD06DEFB45479BD534FDF4A48140",1,"0198f77f-a458-7510-9c31-689efbe11796","0198f767-55c9-7875-8d21-563b3c0b86ed","2025-08-29_13h24.25.377",NA,NA,244.7282,244.7282,244.7284,245.0775,NA,NA,NA,NA,NA,NA,NA,TRUE,1,0.7959,241.7231,244.728,0,38,38,60,1,50,27,NA,NA,NA,NA,NA,1,39,"binary"
"496DDD06DEFB45479BD534FDF4A48140",1,"0198f77f-a458-7510-9c31-689efbe11796","0198f767-55c9-7875-8d21-563b3c0b86ed","2025-08-29_13h24.25.377",NA,NA,248.0782,248.0783,248.0783,248.4279,NA,NA,NA,NA,NA,NA,NA,TRUE,1,0.4465,245.0819,248.0779,0,39,39,31,1,25,29,NA,NA,NA,NA,NA,1,40,"binary"
"496DDD06DEFB45479BD534FDF4A48140",1,"0198f77f-a458-7510-9c31-689efbe11796","0198f767-55c9-7875-8d21-563b3c0b86ed","2025-08-29_13h24.25.377",NA,NA,251.4281,251.6775,251.6776,251.7775,NA,NA,NA,NA,NA,NA,NA,FALSE,NA,NA,248.4327,251.4278,0,40,40,20,1,14,28,NA,NA,NA,NA,NA,1,41,"binary"
"496DDD06DEFB45479BD534FDF4A48140",1,"0198f77f-a458-7510-9c31-689efbe11796","0198f767-55c9-7875-8d21-563b3c0b86ed","2025-08-29_13h24.25.377",NA,NA,254.7775,254.7775,254.7775,255.1271,NA,NA,NA,NA,NA,NA,NA,TRUE,1,1.7276,251.7821,254.7771,0,41,41,69,1,60,40,NA,NA,NA,NA,NA,1,42,"binary"
"496DDD06DEFB45479BD534FDF4A48140",1,"0198f77f-a458-7510-9c31-689efbe11796","0198f767-55c9-7875-8d21-563b3c0b86ed","2025-08-29_13h24.25.377",NA,NA,258.127,258.127,258.127,258.4777,NA,NA,NA,NA,NA,NA,NA,TRUE,1,0.797,255.131,258.1268,0,42,42,54,1,45,26,NA,NA,NA,NA,NA,1,43,"binary"
"496DDD06DEFB45479BD534FDF4A48140",1,"0198f77f-a458-7510-9c31-689efbe11796","0198f767-55c9-7875-8d21-563b3c0b86ed","2025-08-29_13h24.25.377",NA,NA,261.4781,261.4782,261.4782,261.8284,NA,NA,NA,NA,NA,NA,NA,TRUE,1,0.345,258.4819,261.4779,0,43,43,91,1,150,33,NA,NA,NA,NA,NA,1,44,"binary"
"496DDD06DEFB45479BD534FDF4A48140",1,"0198f77f-a458-7510-9c31-689efbe11796","0198f767-55c9-7875-8d21-563b3c0b86ed","2025-08-29_13h24.25.377",NA,NA,264.8281,264.8282,264.8283,265.177,NA,NA,NA,NA,NA,NA,NA,TRUE,1,0.0628,261.8326,264.8277,0,44,44,22,1,14,35,NA,NA,NA,NA,NA,1,45,"binary"
"496DDD06DEFB45479BD534FDF4A48140",1,"0198f77f-a458-7510-9c31-689efbe11796","0198f767-55c9-7875-8d21-563b3c0b86ed","2025-08-29_13h24.25.377",NA,NA,268.1783,268.1783,268.1783,268.527,NA,NA,NA,NA,NA,NA,NA,TRUE,1,0.5469,265.1815,268.1777,0,45,45,24,1,21,26,NA,NA,NA,NA,NA,1,46,"binary"
"496DDD06DEFB45479BD534FDF4A48140",1,"0198f77f-a458-7510-9c31-689efbe11796","0198f767-55c9-7875-8d21-563b3c0b86ed","2025-08-29_13h24.25.377",NA,NA,271.5284,271.5286,271.5287,271.8771,NA,NA,NA,NA,NA,NA,NA,TRUE,1,0.4464,268.5311,271.528,0,46,46,5,1,7,35,NA,NA,NA,NA,NA,1,47,"binary"
"496DDD06DEFB45479BD534FDF4A48140",1,"0198f77f-a458-7510-9c31-689efbe11796","0198f767-55c9-7875-8d21-563b3c0b86ed","2025-08-29_13h24.25.377",NA,NA,274.878,274.8781,274.8781,275.2262,NA,NA,NA,NA,NA,NA,NA,TRUE,1,0.3629,271.8814,274.8778,0,47,47,52,1,40,47,NA,NA,NA,NA,NA,1,48,"binary"
"496DDD06DEFB45479BD534FDF4A48140",1,"0198f77f-a458-7510-9c31-689efbe11796","0198f767-55c9-7875-8d21-563b3c0b86ed","2025-08-29_13h24.25.377",NA,NA,278.2271,278.2271,278.2271,278.5774,NA,NA,NA,NA,NA,NA,NA,TRUE,1,0.2508,275.2302,278.2268,0,48,48,98,1,180,35,NA,NA,NA,NA,NA,1,49,"binary"
"496DDD06DEFB45479BD534FDF4A48140",1,"0198f77f-a458-7510-9c31-689efbe11796","0198f767-55c9-7875-8d21-563b3c0b86ed","2025-08-29_13h24.25.377",NA,NA,281.5783,281.5783,281.5784,281.9285,NA,NA,NA,NA,NA,NA,NA,TRUE,1,0.4489,278.5816,281.5778,0,49,49,45,1,30,30,NA,NA,NA,NA,NA,1,50,"binary"
"496DDD06DEFB45479BD534FDF4A48140",1,"0198f77f-a458-7510-9c31-689efbe11796","0198f767-55c9-7875-8d21-563b3c0b86ed","2025-08-29_13h24.25.377",NA,NA,284.9286,284.9288,284.9289,285.2765,NA,NA,NA,NA,NA,NA,NA,TRUE,1,0.2498,281.9332,284.9282,0,50,50,6,1,10,25,NA,NA,NA,NA,NA,1,51,"binary"
"496DDD06DEFB45479BD534FDF4A48140",1,"0198f77f-a458-7510-9c31-689efbe11796","0198f767-55c9-7875-8d21-563b3c0b86ed","2025-08-29_13h24.25.377",NA,NA,288.2764,288.2764,288.2765,288.6262,NA,NA,NA,NA,NA,NA,NA,TRUE,1,0.4164,285.281,288.2763,0,51,51,64,1,50,46,NA,NA,NA,NA,NA,1,52,"binary"
"496DDD06DEFB45479BD534FDF4A48140",1,"0198f77f-a458-7510-9c31-689efbe11796","0198f767-55c9-7875-8d21-563b3c0b86ed","2025-08-29_13h24.25.377",NA,NA,291.6283,291.6283,291.6284,291.9777,NA,NA,NA,NA,NA,NA,NA,TRUE,1,0.1643,288.6303,291.628,0,52,52,87,1,100,39,NA,NA,NA,NA,NA,1,53,"binary"
"496DDD06DEFB45479BD534FDF4A48140",1,"0198f77f-a458-7510-9c31-689efbe11796","0198f767-55c9-7875-8d21-563b3c0b86ed","2025-08-29_13h24.25.377",NA,NA,294.9792,294.9794,294.9795,295.3269,NA,NA,NA,NA,NA,NA,NA,TRUE,1,0.2596,291.9825,294.9789,0,53,53,46,1,30,32,NA,NA,NA,NA,NA,1,54,"binary"
"496DDD06DEFB45479BD534FDF4A48140",1,"0198f77f-a458-7510-9c31-689efbe11796","0198f767-55c9-7875-8d21-563b3c0b86ed","2025-08-29_13h24.25.377",NA,NA,298.3279,298.3279,298.328,298.6788,NA,NA,NA,NA,NA,NA,NA,TRUE,1,0.3302,295.3315,298.3276,0,54,54,15,1,12,31,NA,NA,NA,NA,NA,1,55,"binary"
"496DDD06DEFB45479BD534FDF4A48140",1,"0198f77f-a458-7510-9c31-689efbe11796","0198f767-55c9-7875-8d21-563b3c0b86ed","2025-08-29_13h24.25.377",NA,NA,301.6779,301.6782,301.6782,302.0275,NA,NA,NA,NA,NA,NA,NA,TRUE,1,0.4323,298.683,301.6776,0,55,55,83,1,95,54,NA,NA,NA,NA,NA,1,56,"binary"
"496DDD06DEFB45479BD534FDF4A48140",1,"0198f77f-a458-7510-9c31-689efbe11796","0198f767-55c9-7875-8d21-563b3c0b86ed","2025-08-29_13h24.25.377",NA,NA,305.0281,305.0283,305.0283,305.3777,NA,NA,NA,NA,NA,NA,NA,TRUE,1,0.4774,302.0325,305.0278,0,56,56,13,1,12,26,NA,NA,NA,NA,NA,1,57,"binary"
"496DDD06DEFB45479BD534FDF4A48140",1,"0198f77f-a458-7510-9c31-689efbe11796","0198f767-55c9-7875-8d21-563b3c0b86ed","2025-08-29_13h24.25.377",NA,NA,308.3777,308.3777,308.3777,308.7274,NA,NA,NA,NA,NA,NA,NA,TRUE,1,0.3108,305.3825,308.3774,0,57,57,55,1,45,29,NA,NA,NA,NA,NA,1,58,"binary"
"496DDD06DEFB45479BD534FDF4A48140",1,"0198f77f-a458-7510-9c31-689efbe11796","0198f767-55c9-7875-8d21-563b3c0b86ed","2025-08-29_13h24.25.377",NA,NA,311.728,311.7282,311.7282,312.0779,NA,NA,NA,NA,NA,NA,NA,TRUE,1,0.4148,308.732,311.7277,0,58,58,39,1,28,35,NA,NA,NA,NA,NA,1,59,"binary"
"496DDD06DEFB45479BD534FDF4A48140",1,"0198f77f-a458-7510-9c31-689efbe11796","0198f767-55c9-7875-8d21-563b3c0b86ed","2025-08-29_13h24.25.377",NA,NA,315.078,315.0781,315.0783,315.4274,NA,NA,NA,NA,NA,NA,NA,TRUE,1,0.3934,312.0824,315.0776,0,59,59,50,1,40,35,NA,NA,NA,NA,NA,1,60,"binary"
"496DDD06DEFB45479BD534FDF4A48140",1,"0198f77f-a458-7510-9c31-689efbe11796","0198f767-55c9-7875-8d21-563b3c0b86ed","2025-08-29_13h24.25.377",NA,NA,318.4279,318.428,318.4281,318.7772,NA,NA,NA,NA,NA,NA,NA,TRUE,1,0.4803,315.4322,318.4276,0,60,60,1,1,7,26,NA,NA,NA,NA,NA,1,61,"binary"
"496DDD06DEFB45479BD534FDF4A48140",1,"0198f77f-a458-7510-9c31-689efbe11796","0198f767-55c9-7875-8d21-563b3c0b86ed","2025-08-29_13h24.25.377",NA,NA,321.7781,321.7783,321.7783,322.1274,NA,NA,NA,NA,NA,NA,NA,TRUE,1,0.3928,318.7819,321.7777,0,61,61,48,1,40,27,NA,NA,NA,NA,NA,1,62,"binary"
"496DDD06DEFB45479BD534FDF4A48140",1,"0198f77f-a458-7510-9c31-689efbe11796","0198f767-55c9-7875-8d21-563b3c0b86ed","2025-08-29_13h24.25.377",NA,NA,325.1285,325.1285,325.1285,325.4772,NA,NA,NA,NA,NA,NA,NA,TRUE,1,0.3122,322.1313,325.1276,0,62,62,29,1,21,38,NA,NA,NA,NA,NA,1,63,"binary"
"496DDD06DEFB45479BD534FDF4A48140",1,"0198f77f-a458-7510-9c31-689efbe11796","0198f767-55c9-7875-8d21-563b3c0b86ed","2025-08-29_13h24.25.377",NA,NA,328.4776,328.4777,328.4778,328.8273,NA,NA,NA,NA,NA,NA,NA,TRUE,1,0.3986,325.4815,328.4771,0,63,63,74,1,90,33,NA,NA,NA,NA,NA,1,64,"binary"
"496DDD06DEFB45479BD534FDF4A48140",1,"0198f77f-a458-7510-9c31-689efbe11796","0198f767-55c9-7875-8d21-563b3c0b86ed","2025-08-29_13h24.25.377",NA,NA,331.828,331.8281,331.8281,332.1772,NA,NA,NA,NA,NA,NA,NA,TRUE,1,0.1768,328.8316,331.8273,0,64,64,34,1,25,35,NA,NA,NA,NA,NA,1,65,"binary"
"496DDD06DEFB45479BD534FDF4A48140",1,"0198f77f-a458-7510-9c31-689efbe11796","0198f767-55c9-7875-8d21-563b3c0b86ed","2025-08-29_13h24.25.377",NA,NA,335.1781,335.1781,335.1782,335.5271,NA,NA,NA,NA,NA,NA,NA,TRUE,1,0.2591,332.1825,335.1779,0,65,65,12,1,12,25,NA,NA,NA,NA,NA,1,66,"binary"
"496DDD06DEFB45479BD534FDF4A48140",1,"0198f77f-a458-7510-9c31-689efbe11796","0198f767-55c9-7875-8d21-563b3c0b86ed","2025-08-29_13h24.25.377",NA,NA,338.5275,338.5277,338.5277,338.8765,NA,NA,NA,NA,NA,NA,NA,TRUE,1,0.3113,335.5311,338.5271,0,66,66,49,1,40,33,NA,NA,NA,NA,NA,1,67,"binary"
"496DDD06DEFB45479BD534FDF4A48140",1,"0198f77f-a458-7510-9c31-689efbe11796","0198f767-55c9-7875-8d21-563b3c0b86ed","2025-08-29_13h24.25.377",NA,NA,341.8778,341.8779,341.8779,342.2268,NA,NA,NA,NA,NA,NA,NA,TRUE,1,0.3996,338.8812,341.8772,0,67,67,11,1,10,32,NA,NA,NA,NA,NA,1,68,"binary"
"496DDD06DEFB45479BD534FDF4A48140",1,"0198f77f-a458-7510-9c31-689efbe11796","0198f767-55c9-7875-8d21-563b3c0b86ed","2025-08-29_13h24.25.377",NA,NA,345.2269,345.227,345.227,345.5776,NA,NA,NA,NA,NA,NA,NA,TRUE,1,0.5151,342.231,345.2267,0,68,68,67,1,60,33,NA,NA,NA,NA,NA,1,69,"binary"
"496DDD06DEFB45479BD534FDF4A48140",1,"0198f77f-a458-7510-9c31-689efbe11796","0198f767-55c9-7875-8d21-563b3c0b86ed","2025-08-29_13h24.25.377",NA,NA,348.5779,348.5781,348.5781,348.9273,NA,NA,NA,NA,NA,NA,NA,TRUE,1,0.3283,345.5818,348.5776,0,69,69,93,1,150,40,NA,NA,NA,NA,NA,1,70,"binary"
"496DDD06DEFB45479BD534FDF4A48140",1,"0198f77f-a458-7510-9c31-689efbe11796","0198f767-55c9-7875-8d21-563b3c0b86ed","2025-08-29_13h24.25.377",NA,NA,351.9279,351.928,351.9281,352.2772,NA,NA,NA,NA,NA,NA,NA,TRUE,1,0.3105,348.9315,351.9277,0,70,70,33,1,25,33,NA,NA,NA,NA,NA,1,71,"binary"
"496DDD06DEFB45479BD534FDF4A48140",1,"0198f77f-a458-7510-9c31-689efbe11796","0198f767-55c9-7875-8d21-563b3c0b86ed","2025-08-29_13h24.25.377",NA,NA,355.2785,355.2785,355.2786,355.6277,NA,NA,NA,NA,NA,NA,NA,TRUE,1,0.1442,352.2819,355.2783,0,71,71,79,1,95,33,NA,NA,NA,NA,NA,1,72,"binary"
"496DDD06DEFB45479BD534FDF4A48140",1,"0198f77f-a458-7510-9c31-689efbe11796","0198f767-55c9-7875-8d21-563b3c0b86ed","2025-08-29_13h24.25.377",NA,NA,358.6276,358.6277,358.6277,358.9777,NA,NA,NA,NA,NA,NA,NA,TRUE,1,0.0282,355.6321,358.6274,0,72,72,75,1,90,40,NA,NA,NA,NA,NA,1,73,"binary"
"496DDD06DEFB45479BD534FDF4A48140",1,"0198f77f-a458-7510-9c31-689efbe11796","0198f767-55c9-7875-8d21-563b3c0b86ed","2025-08-29_13h24.25.377",NA,NA,361.9774,361.9775,361.9775,362.3276,NA,NA,NA,NA,NA,NA,NA,TRUE,1,0.8111,358.9821,361.9772,0,73,73,3,1,7,30,NA,NA,NA,NA,NA,1,74,"binary"
"496DDD06DEFB45479BD534FDF4A48140",1,"0198f77f-a458-7510-9c31-689efbe11796","0198f767-55c9-7875-8d21-563b3c0b86ed","2025-08-29_13h24.25.377",NA,NA,365.3295,365.3297,365.3297,365.6771,NA,NA,NA,NA,NA,NA,NA,TRUE,1,1.6436,362.332,365.3289,0,74,74,77,1,90,54,NA,NA,NA,NA,NA,1,75,"binary"
"496DDD06DEFB45479BD534FDF4A48140",1,"0198f77f-a458-7510-9c31-689efbe11796","0198f767-55c9-7875-8d21-563b3c0b86ed","2025-08-29_13h24.25.377",NA,NA,368.6783,368.6788,368.6789,369.0262,NA,NA,NA,NA,NA,NA,NA,TRUE,1,0.4627,365.6817,368.6773,0,75,75,9,1,10,29,NA,NA,NA,NA,NA,1,76,"binary"
"496DDD06DEFB45479BD534FDF4A48140",1,"0198f77f-a458-7510-9c31-689efbe11796","0198f767-55c9-7875-8d21-563b3c0b86ed","2025-08-29_13h24.25.377",NA,NA,372.0267,372.0267,372.0267,372.3763,NA,NA,NA,NA,NA,NA,NA,TRUE,1,0.4012,369.0303,372.0265,0,76,76,2,1,7,28,NA,NA,NA,NA,NA,1,77,"binary"
"496DDD06DEFB45479BD534FDF4A48140",1,"0198f77f-a458-7510-9c31-689efbe11796","0198f767-55c9-7875-8d21-563b3c0b86ed","2025-08-29_13h24.25.377",NA,NA,375.3763,375.3763,375.3763,375.7261,NA,NA,NA,NA,NA,NA,NA,TRUE,1,1.3527,372.3807,375.3762,0,77,77,106,1,200,47,NA,NA,NA,NA,NA,1,78,"binary"
"496DDD06DEFB45479BD534FDF4A48140",1,"0198f77f-a458-7510-9c31-689efbe11796","0198f767-55c9-7875-8d21-563b3c0b86ed","2025-08-29_13h24.25.377",NA,NA,378.7275,378.7275,378.7276,379.0777,NA,NA,NA,NA,NA,NA,NA,TRUE,1,0.4995,375.73,378.7272,0,78,78,40,1,28,39,NA,NA,NA,NA,NA,1,79,"binary"
"496DDD06DEFB45479BD534FDF4A48140",1,"0198f77f-a458-7510-9c31-689efbe11796","0198f767-55c9-7875-8d21-563b3c0b86ed","2025-08-29_13h24.25.377",NA,NA,382.078,382.078,382.078,382.4269,NA,NA,NA,NA,NA,NA,NA,TRUE,1,0.4478,379.0825,382.0777,0,79,79,57,1,45,35,NA,NA,NA,NA,NA,1,80,"binary"
"496DDD06DEFB45479BD534FDF4A48140",1,"0198f77f-a458-7510-9c31-689efbe11796","0198f767-55c9-7875-8d21-563b3c0b86ed","2025-08-29_13h24.25.377",NA,NA,385.4283,385.4284,385.4284,385.7767,NA,NA,NA,NA,NA,NA,NA,TRUE,1,0.6985,382.4311,385.4281,0,80,80,96,1,180,27,NA,NA,NA,NA,NA,1,81,"binary"
"496DDD06DEFB45479BD534FDF4A48140",1,"0198f77f-a458-7510-9c31-689efbe11796","0198f767-55c9-7875-8d21-563b3c0b86ed","2025-08-29_13h24.25.377",NA,NA,388.7781,388.7781,388.7781,389.1274,NA,NA,NA,NA,NA,NA,NA,TRUE,1,0.7147,385.7817,388.7778,0,81,81,17,1,12,35,NA,NA,NA,NA,NA,1,82,"binary"
"496DDD06DEFB45479BD534FDF4A48140",1,"0198f77f-a458-7510-9c31-689efbe11796","0198f767-55c9-7875-8d21-563b3c0b86ed","2025-08-29_13h24.25.377",NA,NA,392.1277,392.1277,392.1279,392.4779,NA,NA,NA,NA,NA,NA,NA,TRUE,1,1.0086,389.132,392.1271,0,82,82,88,1,100,46,NA,NA,NA,NA,NA,1,83,"binary"
"496DDD06DEFB45479BD534FDF4A48140",1,"0198f77f-a458-7510-9c31-689efbe11796","0198f767-55c9-7875-8d21-563b3c0b86ed","2025-08-29_13h24.25.377",NA,NA,395.4781,395.4784,395.4784,395.8276,NA,NA,NA,NA,NA,NA,NA,TRUE,1,2.0932,392.4828,395.478,0,83,83,84,1,100,26,NA,NA,NA,NA,NA,1,84,"binary"
"496DDD06DEFB45479BD534FDF4A48140",1,"0198f77f-a458-7510-9c31-689efbe11796","0198f767-55c9-7875-8d21-563b3c0b86ed","2025-08-29_13h24.25.377",NA,NA,398.828,398.828,398.8281,399.1776,NA,NA,NA,NA,NA,NA,NA,TRUE,1,1.2942,395.8324,398.8277,0,84,84,27,1,21,30,NA,NA,NA,NA,NA,1,85,"binary"
"496DDD06DEFB45479BD534FDF4A48140",1,"0198f77f-a458-7510-9c31-689efbe11796","0198f767-55c9-7875-8d21-563b3c0b86ed","2025-08-29_13h24.25.377",NA,NA,402.1773,402.1773,402.1773,402.5262,NA,NA,NA,NA,NA,NA,NA,TRUE,1,0.4462,399.1816,402.1767,0,85,85,18,1,14,25,NA,NA,NA,NA,NA,1,86,"binary"
"496DDD06DEFB45479BD534FDF4A48140",1,"0198f77f-a458-7510-9c31-689efbe11796","0198f767-55c9-7875-8d21-563b3c0b86ed","2025-08-29_13h24.25.377",NA,NA,405.5283,405.5284,405.5284,405.8763,NA,NA,NA,NA,NA,NA,NA,TRUE,1,0.5686,402.5298,405.5278,0,86,86,21,1,14,32,NA,NA,NA,NA,NA,1,87,"binary"
"496DDD06DEFB45479BD534FDF4A48140",1,"0198f77f-a458-7510-9c31-689efbe11796","0198f767-55c9-7875-8d21-563b3c0b86ed","2025-08-29_13h24.25.377",NA,NA,408.8781,408.8784,408.8785,409.2277,NA,NA,NA,NA,NA,NA,NA,TRUE,1,0.5699,405.8802,408.8777,0,87,87,58,1,45,40,NA,NA,NA,NA,NA,1,88,"binary"
"496DDD06DEFB45479BD534FDF4A48140",1,"0198f77f-a458-7510-9c31-689efbe11796","0198f767-55c9-7875-8d21-563b3c0b86ed","2025-08-29_13h24.25.377",NA,NA,412.2287,412.2289,412.2289,412.5779,NA,NA,NA,NA,NA,NA,NA,TRUE,1,0.9776,409.2332,412.2282,0,88,88,92,1,150,35,NA,NA,NA,NA,NA,1,89,"binary"
"496DDD06DEFB45479BD534FDF4A48140",1,"0198f77f-a458-7510-9c31-689efbe11796","0198f767-55c9-7875-8d21-563b3c0b86ed","2025-08-29_13h24.25.377",NA,NA,415.579,415.5791,415.5791,415.9276,NA,NA,NA,NA,NA,NA,NA,TRUE,1,0.797,412.5825,415.5785,0,89,89,16,1,12,33,NA,NA,NA,NA,NA,1,90,"binary"
"496DDD06DEFB45479BD534FDF4A48140",1,"0198f77f-a458-7510-9c31-689efbe11796","0198f767-55c9-7875-8d21-563b3c0b86ed","2025-08-29_13h24.25.377",NA,NA,418.9281,418.9284,418.9284,419.2779,NA,NA,NA,NA,NA,NA,NA,TRUE,1,0.7094,415.9321,418.9279,0,90,90,89,1,100,54,NA,NA,NA,NA,NA,1,91,"binary"
"496DDD06DEFB45479BD534FDF4A48140",1,"0198f77f-a458-7510-9c31-689efbe11796","0198f767-55c9-7875-8d21-563b3c0b86ed","2025-08-29_13h24.25.377",NA,NA,422.2782,422.2783,422.2784,422.6286,NA,NA,NA,NA,NA,NA,NA,TRUE,1,1.0095,419.2822,422.2778,0,91,91,35,1,25,46,NA,NA,NA,NA,NA,1,92,"binary"
"496DDD06DEFB45479BD534FDF4A48140",1,"0198f77f-a458-7510-9c31-689efbe11796","0198f767-55c9-7875-8d21-563b3c0b86ed","2025-08-29_13h24.25.377",NA,NA,425.6281,425.6289,425.6289,425.9783,NA,NA,NA,NA,NA,NA,NA,TRUE,1,1.1487,422.6336,425.6279,0,92,92,78,1,95,31,NA,NA,NA,NA,NA,1,93,"binary"
"496DDD06DEFB45479BD534FDF4A48140",1,"0198f77f-a458-7510-9c31-689efbe11796","0198f767-55c9-7875-8d21-563b3c0b86ed","2025-08-29_13h24.25.377",NA,NA,428.9795,428.9797,428.9797,429.3281,NA,NA,NA,NA,NA,NA,NA,TRUE,1,0.8312,425.9828,428.9782,0,93,93,28,1,21,32,NA,NA,NA,NA,NA,1,94,"binary"
"496DDD06DEFB45479BD534FDF4A48140",1,"0198f77f-a458-7510-9c31-689efbe11796","0198f767-55c9-7875-8d21-563b3c0b86ed","2025-08-29_13h24.25.377",NA,NA,432.329,432.3291,432.3291,432.6777,NA,NA,NA,NA,NA,NA,NA,TRUE,1,1.0595,429.333,432.3283,0,94,94,73,1,90,30,NA,NA,NA,NA,NA,1,95,"binary"
"496DDD06DEFB45479BD534FDF4A48140",1,"0198f77f-a458-7510-9c31-689efbe11796","0198f767-55c9-7875-8d21-563b3c0b86ed","2025-08-29_13h24.25.377",NA,NA,435.679,435.6791,435.6792,436.0279,NA,NA,NA,NA,NA,NA,NA,TRUE,1,0.5181,432.6823,435.6787,0,95,95,59,1,45,46,NA,NA,NA,NA,NA,1,96,"binary"
"496DDD06DEFB45479BD534FDF4A48140",1,"0198f77f-a458-7510-9c31-689efbe11796","0198f767-55c9-7875-8d21-563b3c0b86ed","2025-08-29_13h24.25.377",NA,NA,439.0279,439.028,439.0282,439.3775,NA,NA,NA,NA,NA,NA,NA,TRUE,1,1.0291,436.0318,439.0275,0,96,96,99,1,180,39,NA,NA,NA,NA,NA,1,97,"binary"
"496DDD06DEFB45479BD534FDF4A48140",1,"0198f77f-a458-7510-9c31-689efbe11796","0198f767-55c9-7875-8d21-563b3c0b86ed","2025-08-29_13h24.25.377",NA,NA,442.3781,442.3782,442.3785,442.7272,NA,NA,NA,NA,NA,NA,NA,TRUE,1,0.6482,439.3821,442.3777,0,97,97,105,1,200,39,NA,NA,NA,NA,NA,1,98,"binary"
"496DDD06DEFB45479BD534FDF4A48140",1,"0198f77f-a458-7510-9c31-689efbe11796","0198f767-55c9-7875-8d21-563b3c0b86ed","2025-08-29_13h24.25.377",NA,NA,445.7287,445.7288,445.7288,446.0779,NA,NA,NA,NA,NA,NA,NA,TRUE,1,0.5886,442.7318,445.7284,0,98,98,95,1,150,54,NA,NA,NA,NA,NA,1,99,"binary"
"496DDD06DEFB45479BD534FDF4A48140",1,"0198f77f-a458-7510-9c31-689efbe11796","0198f767-55c9-7875-8d21-563b3c0b86ed","2025-08-29_13h24.25.377",NA,NA,449.0784,449.0784,449.0785,449.4281,NA,NA,NA,NA,NA,NA,NA,TRUE,1,1.1933,446.0831,449.0779,0,99,99,30,1,25,27,NA,NA,NA,NA,NA,1,100,"binary"
"496DDD06DEFB45479BD534FDF4A48140",1,"0198f77f-a458-7510-9c31-689efbe11796","0198f767-55c9-7875-8d21-563b3c0b86ed","2025-08-29_13h24.25.377",NA,NA,452.4282,452.4283,452.4283,452.7781,NA,NA,NA,NA,NA,NA,NA,TRUE,1,0.7297,449.4328,452.4279,0,100,100,38,1,28,32,NA,NA,NA,NA,NA,1,101,"binary"
"496DDD06DEFB45479BD534FDF4A48140",1,"0198f77f-a458-7510-9c31-689efbe11796","0198f767-55c9-7875-8d21-563b3c0b86ed","2025-08-29_13h24.25.377",NA,NA,455.7784,455.7784,455.7785,456.1278,NA,NA,NA,NA,NA,NA,NA,TRUE,1,1.0597,452.7832,455.7777,0,101,101,80,1,95,35,NA,NA,NA,NA,NA,1,102,"binary"
"496DDD06DEFB45479BD534FDF4A48140",1,"0198f77f-a458-7510-9c31-689efbe11796","0198f767-55c9-7875-8d21-563b3c0b86ed","2025-08-29_13h24.25.377",NA,NA,459.1279,459.1279,459.1281,459.4784,NA,NA,NA,NA,NA,NA,NA,TRUE,1,1.169,456.1321,459.1276,0,102,102,32,1,25,31,NA,NA,NA,NA,NA,1,103,"binary"
"496DDD06DEFB45479BD534FDF4A48140",1,"0198f77f-a458-7510-9c31-689efbe11796","0198f767-55c9-7875-8d21-563b3c0b86ed","2025-08-29_13h24.25.377",NA,NA,462.4767,462.4767,462.4769,462.8271,NA,NA,NA,NA,NA,NA,NA,TRUE,1,0.7755,459.4827,462.4766,0,103,103,104,1,200,35,NA,NA,NA,NA,NA,1,104,"binary"
"496DDD06DEFB45479BD534FDF4A48140",1,"0198f77f-a458-7510-9c31-689efbe11796","0198f767-55c9-7875-8d21-563b3c0b86ed","2025-08-29_13h24.25.377",NA,NA,465.8279,465.8279,465.8284,466.1779,NA,NA,NA,NA,NA,NA,NA,TRUE,1,0.6283,462.8326,465.8275,0,104,104,51,1,40,40,NA,NA,NA,NA,NA,1,105,"binary"
"496DDD06DEFB45479BD534FDF4A48140",1,"0198f77f-a458-7510-9c31-689efbe11796","0198f767-55c9-7875-8d21-563b3c0b86ed","2025-08-29_13h24.25.377",NA,NA,469.177,469.1771,469.1771,469.5275,NA,NA,NA,NA,NA,NA,NA,TRUE,1,0.5919,466.183,469.1768,0,105,105,66,1,60,29,NA,NA,NA,NA,NA,1,106,"binary"
"496DDD06DEFB45479BD534FDF4A48140",1,"0198f77f-a458-7510-9c31-689efbe11796","0198f767-55c9-7875-8d21-563b3c0b86ed","2025-08-29_13h24.25.377",NA,NA,472.5278,472.5279,472.528,472.8778,NA,NA,NA,NA,NA,NA,NA,TRUE,1,0.7506,469.5301,472.5274,0,106,106,53,1,40,54,NA,NA,NA,NA,NA,1,107,"binary"
"496DDD06DEFB45479BD534FDF4A48140",1,"0198f77f-a458-7510-9c31-689efbe11796","0198f767-55c9-7875-8d21-563b3c0b86ed","2025-08-29_13h24.25.377",NA,NA,475.8777,475.8778,475.878,476.2266,NA,NA,NA,NA,NA,NA,NA,TRUE,1,0.5293,472.8822,475.8773,0,107,107,100,1,180,46,NA,NA,NA,NA,NA,1,108,"binary"
"496DDD06DEFB45479BD534FDF4A48140",1,"0198f77f-a458-7510-9c31-689efbe11796","0198f767-55c9-7875-8d21-563b3c0b86ed","2025-08-29_13h24.25.377",NA,NA,484.378,484.6276,484.6277,484.7276,NA,NA,NA,NA,NA,NA,NA,FALSE,NA,NA,481.39,484.3775,NA,NA,NA,NA,NA,95,47,0,0,0,82,1,2,1,"binary"
"496DDD06DEFB45479BD534FDF4A48140",1,"0198f77f-a458-7510-9c31-689efbe11796","0198f767-55c9-7875-8d21-563b3c0b86ed","2025-08-29_13h24.25.377",NA,NA,487.7281,487.9781,487.9781,488.0778,NA,NA,NA,NA,NA,NA,NA,FALSE,NA,NA,484.7318,487.7276,NA,NA,NA,NA,NA,30,30,0,1,1,45,1,2,2,"binary"
"496DDD06DEFB45479BD534FDF4A48140",1,"0198f77f-a458-7510-9c31-689efbe11796","0198f767-55c9-7875-8d21-563b3c0b86ed","2025-08-29_13h24.25.377",NA,NA,491.0782,491.0785,491.0785,491.4276,NA,NA,NA,NA,NA,NA,NA,TRUE,1,2.9632,488.0829,491.0777,NA,NA,NA,NA,NA,25,27,0,2,2,30,1,2,3,"binary"
"496DDD06DEFB45479BD534FDF4A48140",1,"0198f77f-a458-7510-9c31-689efbe11796","0198f767-55c9-7875-8d21-563b3c0b86ed","2025-08-29_13h24.25.377",NA,NA,494.4286,494.4287,494.4288,494.7775,NA,NA,NA,NA,NA,NA,NA,TRUE,1,0.5793,491.4323,494.428,NA,NA,NA,NA,NA,10,32,0,3,3,11,1,2,4,"binary"
"496DDD06DEFB45479BD534FDF4A48140",1,"0198f77f-a458-7510-9c31-689efbe11796","0198f767-55c9-7875-8d21-563b3c0b86ed","2025-08-29_13h24.25.377",NA,NA,497.7771,497.7775,497.7776,498.1264,NA,NA,NA,NA,NA,NA,NA,TRUE,1,0.3445,494.7816,497.7768,NA,NA,NA,NA,NA,100,54,0,4,4,89,1,2,5,"binary"
"496DDD06DEFB45479BD534FDF4A48140",1,"0198f77f-a458-7510-9c31-689efbe11796","0198f767-55c9-7875-8d21-563b3c0b86ed","2025-08-29_13h24.25.377",NA,NA,501.1268,501.127,501.127,501.4778,NA,NA,NA,NA,NA,NA,NA,TRUE,1,0.3836,498.1304,501.1266,NA,NA,NA,NA,NA,25,35,0,5,5,34,1,2,6,"binary"
"496DDD06DEFB45479BD534FDF4A48140",1,"0198f77f-a458-7510-9c31-689efbe11796","0198f767-55c9-7875-8d21-563b3c0b86ed","2025-08-29_13h24.25.377",NA,NA,504.4782,504.4784,504.4785,504.8264,NA,NA,NA,NA,NA,NA,NA,TRUE,1,0.411,501.4825,504.478,NA,NA,NA,NA,NA,21,32,0,6,6,28,1,2,7,"binary"
"496DDD06DEFB45479BD534FDF4A48140",1,"0198f77f-a458-7510-9c31-689efbe11796","0198f767-55c9-7875-8d21-563b3c0b86ed","2025-08-29_13h24.25.377",NA,NA,507.8268,507.8269,507.8269,508.1768,NA,NA,NA,NA,NA,NA,NA,TRUE,1,0.3826,504.8304,507.8266,NA,NA,NA,NA,NA,28,46,0,7,7,41,1,2,8,"binary"
"496DDD06DEFB45479BD534FDF4A48140",1,"0198f77f-a458-7510-9c31-689efbe11796","0198f767-55c9-7875-8d21-563b3c0b86ed","2025-08-29_13h24.25.377",NA,NA,511.1786,511.1787,511.1787,511.5275,NA,NA,NA,NA,NA,NA,NA,TRUE,1,0.4123,508.181,511.1782,NA,NA,NA,NA,NA,50,46,0,8,8,64,1,2,9,"binary"
"496DDD06DEFB45479BD534FDF4A48140",1,"0198f77f-a458-7510-9c31-689efbe11796","0198f767-55c9-7875-8d21-563b3c0b86ed","2025-08-29_13h24.25.377",NA,NA,514.5268,514.5268,514.5268,514.8769,NA,NA,NA,NA,NA,NA,NA,TRUE,1,0.5134,511.5319,514.5266,NA,NA,NA,NA,NA,12,26,0,9,9,13,1,2,10,"binary"
"496DDD06DEFB45479BD534FDF4A48140",1,"0198f77f-a458-7510-9c31-689efbe11796","0198f767-55c9-7875-8d21-563b3c0b86ed","2025-08-29_13h24.25.377",NA,NA,517.8777,517.8779,517.8779,518.2271,NA,NA,NA,NA,NA,NA,NA,TRUE,1,0.5141,514.8809,517.8774,NA,NA,NA,NA,NA,10,29,0,10,10,9,1,2,11,"binary"
"496DDD06DEFB45479BD534FDF4A48140",1,"0198f77f-a458-7510-9c31-689efbe11796","0198f767-55c9-7875-8d21-563b3c0b86ed","2025-08-29_13h24.25.377",NA,NA,521.228,521.2283,521.2283,521.5771,NA,NA,NA,NA,NA,NA,NA,TRUE,1,0.8313,518.2311,521.2277,NA,NA,NA,NA,NA,45,40,0,11,11,58,1,2,12,"binary"
"496DDD06DEFB45479BD534FDF4A48140",1,"0198f77f-a458-7510-9c31-689efbe11796","0198f767-55c9-7875-8d21-563b3c0b86ed","2025-08-29_13h24.25.377",NA,NA,524.5784,524.5785,524.5785,524.9157,NA,NA,NA,NA,NA,NA,NA,TRUE,1,0.4644,521.5814,524.5777,NA,NA,NA,NA,NA,21,27,0,12,12,25,1,2,13,"binary"
"496DDD06DEFB45479BD534FDF4A48140",1,"0198f77f-a458-7510-9c31-689efbe11796","0198f767-55c9-7875-8d21-563b3c0b86ed","2025-08-29_13h24.25.377",NA,NA,527.9287,527.9289,527.929,528.2767,NA,NA,NA,NA,NA,NA,NA,TRUE,1,0.4123,524.9252,527.9281,NA,NA,NA,NA,NA,200,47,0,13,13,106,1,2,14,"binary"
"496DDD06DEFB45479BD534FDF4A48140",1,"0198f77f-a458-7510-9c31-689efbe11796","0198f767-55c9-7875-8d21-563b3c0b86ed","2025-08-29_13h24.25.377",NA,NA,531.2784,531.2786,531.2787,531.628,NA,NA,NA,NA,NA,NA,NA,TRUE,1,0.4489,528.2803,531.2781,NA,NA,NA,NA,NA,60,29,0,14,14,66,1,2,15,"binary"
"496DDD06DEFB45479BD534FDF4A48140",1,"0198f77f-a458-7510-9c31-689efbe11796","0198f767-55c9-7875-8d21-563b3c0b86ed","2025-08-29_13h24.25.377",NA,NA,534.6287,534.6288,534.6289,534.9781,NA,NA,NA,NA,NA,NA,NA,TRUE,1,0.3278,531.6324,534.6282,NA,NA,NA,NA,NA,45,46,0,15,15,59,1,2,16,"binary"
"496DDD06DEFB45479BD534FDF4A48140",1,"0198f77f-a458-7510-9c31-689efbe11796","0198f767-55c9-7875-8d21-563b3c0b86ed","2025-08-29_13h24.25.377",NA,NA,537.9764,537.9766,537.9766,538.3264,NA,NA,NA,NA,NA,NA,NA,TRUE,1,0.896,534.9828,537.9762,NA,NA,NA,NA,NA,45,35,0,16,16,57,1,2,17,"binary"
"496DDD06DEFB45479BD534FDF4A48140",1,"0198f77f-a458-7510-9c31-689efbe11796","0198f767-55c9-7875-8d21-563b3c0b86ed","2025-08-29_13h24.25.377",NA,NA,541.3265,541.3266,541.3266,541.6765,NA,NA,NA,NA,NA,NA,NA,TRUE,1,0.5149,538.3306,541.3264,NA,NA,NA,NA,NA,12,31,0,17,17,15,1,2,18,"binary"
"496DDD06DEFB45479BD534FDF4A48140",1,"0198f77f-a458-7510-9c31-689efbe11796","0198f767-55c9-7875-8d21-563b3c0b86ed","2025-08-29_13h24.25.377",NA,NA,544.6778,544.6781,544.6781,545.0277,NA,NA,NA,NA,NA,NA,NA,TRUE,1,0.7665,541.6802,544.6775,NA,NA,NA,NA,NA,28,39,0,18,18,40,1,2,19,"binary"
"496DDD06DEFB45479BD534FDF4A48140",1,"0198f77f-a458-7510-9c31-689efbe11796","0198f767-55c9-7875-8d21-563b3c0b86ed","2025-08-29_13h24.25.377",NA,NA,548.0267,548.0267,548.0268,548.3766,NA,NA,NA,NA,NA,NA,NA,TRUE,1,0.5103,545.0323,548.0265,NA,NA,NA,NA,NA,100,39,0,19,19,87,1,2,20,"binary"
"496DDD06DEFB45479BD534FDF4A48140",1,"0198f77f-a458-7510-9c31-689efbe11796","0198f767-55c9-7875-8d21-563b3c0b86ed","2025-08-29_13h24.25.377",NA,NA,551.3764,551.3764,551.3764,551.7264,NA,NA,NA,NA,NA,NA,NA,TRUE,1,1.2472,548.3819,551.3763,NA,NA,NA,NA,NA,7,25,0,20,20,0,1,2,21,"binary"
"496DDD06DEFB45479BD534FDF4A48140",1,"0198f77f-a458-7510-9c31-689efbe11796","0198f767-55c9-7875-8d21-563b3c0b86ed","2025-08-29_13h24.25.377",NA,NA,554.7277,554.7279,554.728,555.0775,NA,NA,NA,NA,NA,NA,NA,TRUE,1,0.5974,551.7297,554.7274,NA,NA,NA,NA,NA,21,26,0,21,21,24,1,2,22,"binary"
"496DDD06DEFB45479BD534FDF4A48140",1,"0198f77f-a458-7510-9c31-689efbe11796","0198f767-55c9-7875-8d21-563b3c0b86ed","2025-08-29_13h24.25.377",NA,NA,558.0796,558.0798,558.0799,558.4277,NA,NA,NA,NA,NA,NA,NA,TRUE,1,0.3944,555.0826,558.0792,NA,NA,NA,NA,NA,12,28,0,22,22,14,1,2,23,"binary"
"496DDD06DEFB45479BD534FDF4A48140",1,"0198f77f-a458-7510-9c31-689efbe11796","0198f767-55c9-7875-8d21-563b3c0b86ed","2025-08-29_13h24.25.377",NA,NA,561.4277,561.4278,561.4279,561.7777,NA,NA,NA,NA,NA,NA,NA,TRUE,1,0.5296,558.4322,561.4273,NA,NA,NA,NA,NA,100,46,0,23,23,88,1,2,24,"binary"
"496DDD06DEFB45479BD534FDF4A48140",1,"0198f77f-a458-7510-9c31-689efbe11796","0198f767-55c9-7875-8d21-563b3c0b86ed","2025-08-29_13h24.25.377",NA,NA,564.7781,564.7782,564.7783,565.1274,NA,NA,NA,NA,NA,NA,NA,TRUE,1,0.6101,561.7821,564.7777,NA,NA,NA,NA,NA,7,28,0,24,24,2,1,2,25,"binary"
"496DDD06DEFB45479BD534FDF4A48140",1,"0198f77f-a458-7510-9c31-689efbe11796","0198f767-55c9-7875-8d21-563b3c0b86ed","2025-08-29_13h24.25.377",NA,NA,568.128,568.1282,568.1283,568.4773,NA,NA,NA,NA,NA,NA,NA,TRUE,1,0.4293,565.1315,568.1276,NA,NA,NA,NA,NA,10,27,0,25,25,8,1,2,26,"binary"
"496DDD06DEFB45479BD534FDF4A48140",1,"0198f77f-a458-7510-9c31-689efbe11796","0198f767-55c9-7875-8d21-563b3c0b86ed","2025-08-29_13h24.25.377",NA,NA,571.4776,571.4777,571.4778,571.8272,NA,NA,NA,NA,NA,NA,NA,TRUE,1,1.3931,568.4829,571.4773,NA,NA,NA,NA,NA,7,35,0,26,26,5,1,2,27,"binary"
"496DDD06DEFB45479BD534FDF4A48140",1,"0198f77f-a458-7510-9c31-689efbe11796","0198f767-55c9-7875-8d21-563b3c0b86ed","2025-08-29_13h24.25.377",NA,NA,574.8306,574.8308,574.8309,575.1777,NA,NA,NA,NA,NA,NA,NA,TRUE,1,0.7594,571.8316,574.8301,NA,NA,NA,NA,NA,14,35,0,27,27,22,1,2,28,"binary"
"496DDD06DEFB45479BD534FDF4A48140",1,"0198f77f-a458-7510-9c31-689efbe11796","0198f767-55c9-7875-8d21-563b3c0b86ed","2025-08-29_13h24.25.377",NA,NA,578.1772,578.1772,578.1773,578.528,NA,NA,NA,NA,NA,NA,NA,TRUE,1,0.2615,575.1823,578.1766,NA,NA,NA,NA,NA,45,29,0,28,28,55,1,2,29,"binary"
"496DDD06DEFB45479BD534FDF4A48140",1,"0198f77f-a458-7510-9c31-689efbe11796","0198f767-55c9-7875-8d21-563b3c0b86ed","2025-08-29_13h24.25.377",NA,NA,581.5282,581.5282,581.5283,581.8779,NA,NA,NA,NA,NA,NA,NA,TRUE,1,0.9274,578.5331,581.5279,NA,NA,NA,NA,NA,12,35,0,29,29,17,1,2,30,"binary"
"496DDD06DEFB45479BD534FDF4A48140",1,"0198f77f-a458-7510-9c31-689efbe11796","0198f767-55c9-7875-8d21-563b3c0b86ed","2025-08-29_13h24.25.377",NA,NA,584.8784,584.8785,584.8785,585.2277,NA,NA,NA,NA,NA,NA,NA,TRUE,1,0.798,581.8829,584.8777,NA,NA,NA,NA,NA,21,30,0,30,30,27,1,2,31,"binary"
"496DDD06DEFB45479BD534FDF4A48140",1,"0198f77f-a458-7510-9c31-689efbe11796","0198f767-55c9-7875-8d21-563b3c0b86ed","2025-08-29_13h24.25.377",NA,NA,588.2266,588.2266,588.2266,588.5763,NA,NA,NA,NA,NA,NA,NA,TRUE,1,0.6801,585.232,588.2263,NA,NA,NA,NA,NA,14,25,0,31,31,18,1,2,32,"binary"
"496DDD06DEFB45479BD534FDF4A48140",1,"0198f77f-a458-7510-9c31-689efbe11796","0198f767-55c9-7875-8d21-563b3c0b86ed","2025-08-29_13h24.25.377",NA,NA,591.5684,591.5685,591.5685,591.9205,NA,NA,NA,NA,NA,NA,NA,TRUE,1,0.7883,588.5802,591.5681,NA,NA,NA,NA,NA,95,33,0,32,32,79,1,2,33,"binary"
"496DDD06DEFB45479BD534FDF4A48140",1,"0198f77f-a458-7510-9c31-689efbe11796","0198f767-55c9-7875-8d21-563b3c0b86ed","2025-08-29_13h24.25.377",NA,NA,594.9209,594.921,594.921,595.2709,NA,NA,NA,NA,NA,NA,NA,TRUE,1,0.669,591.9242,594.9205,NA,NA,NA,NA,NA,7,30,0,33,33,3,1,2,34,"binary"
"496DDD06DEFB45479BD534FDF4A48140",1,"0198f77f-a458-7510-9c31-689efbe11796","0198f767-55c9-7875-8d21-563b3c0b86ed","2025-08-29_13h24.25.377",NA,NA,598.2694,598.2694,598.2695,598.6183,NA,NA,NA,NA,NA,NA,NA,TRUE,1,0.4353,595.2737,598.2692,NA,NA,NA,NA,NA,150,40,0,34,34,93,1,2,35,"binary"
"496DDD06DEFB45479BD534FDF4A48140",1,"0198f77f-a458-7510-9c31-689efbe11796","0198f767-55c9-7875-8d21-563b3c0b86ed","2025-08-29_13h24.25.377",NA,NA,601.6203,601.6207,601.6207,601.9706,NA,NA,NA,NA,NA,NA,NA,TRUE,1,0.5345,598.6202,601.62,NA,NA,NA,NA,NA,60,54,0,35,35,71,1,2,36,"binary"
"496DDD06DEFB45479BD534FDF4A48140",1,"0198f77f-a458-7510-9c31-689efbe11796","0198f767-55c9-7875-8d21-563b3c0b86ed","2025-08-29_13h24.25.377",NA,NA,604.9703,604.9706,604.9707,605.3201,NA,NA,NA,NA,NA,NA,NA,TRUE,1,0.5848,601.973,604.97,NA,NA,NA,NA,NA,90,26,0,36,36,72,1,2,37,"binary"
"496DDD06DEFB45479BD534FDF4A48140",1,"0198f77f-a458-7510-9c31-689efbe11796","0198f767-55c9-7875-8d21-563b3c0b86ed","2025-08-29_13h24.25.377",NA,NA,608.3198,608.3201,608.3201,608.6702,NA,NA,NA,NA,NA,NA,NA,TRUE,1,1.1535,605.3228,608.3195,NA,NA,NA,NA,NA,60,47,0,37,37,70,1,2,38,"binary"
"496DDD06DEFB45479BD534FDF4A48140",1,"0198f77f-a458-7510-9c31-689efbe11796","0198f767-55c9-7875-8d21-563b3c0b86ed","2025-08-29_13h24.25.377",NA,NA,611.6704,611.6704,611.6704,612.0202,NA,NA,NA,NA,NA,NA,NA,TRUE,1,0.6342,608.6729,611.6698,NA,NA,NA,NA,NA,95,54,0,38,38,83,1,2,39,"binary"
"496DDD06DEFB45479BD534FDF4A48140",1,"0198f77f-a458-7510-9c31-689efbe11796","0198f767-55c9-7875-8d21-563b3c0b86ed","2025-08-29_13h24.25.377",NA,NA,615.02,615.02,615.0201,615.3702,NA,NA,NA,NA,NA,NA,NA,TRUE,1,0.9034,612.0229,615.0196,NA,NA,NA,NA,NA,50,40,0,39,39,63,1,2,40,"binary"
"496DDD06DEFB45479BD534FDF4A48140",1,"0198f77f-a458-7510-9c31-689efbe11796","0198f767-55c9-7875-8d21-563b3c0b86ed","2025-08-29_13h24.25.377",NA,NA,618.3687,618.3688,618.3688,618.7204,NA,NA,NA,NA,NA,NA,NA,TRUE,1,0.8534,615.3729,618.3684,NA,NA,NA,NA,NA,180,31,0,40,40,97,1,2,41,"binary"
"496DDD06DEFB45479BD534FDF4A48140",1,"0198f77f-a458-7510-9c31-689efbe11796","0198f767-55c9-7875-8d21-563b3c0b86ed","2025-08-29_13h24.25.377",NA,NA,621.7192,621.7192,621.7192,622.0683,NA,NA,NA,NA,NA,NA,NA,TRUE,1,0.5851,618.723,621.7187,NA,NA,NA,NA,NA,50,54,0,41,41,65,1,2,42,"binary"
"496DDD06DEFB45479BD534FDF4A48140",1,"0198f77f-a458-7510-9c31-689efbe11796","0198f767-55c9-7875-8d21-563b3c0b86ed","2025-08-29_13h24.25.377",NA,NA,625.0687,625.0687,625.0687,625.4202,NA,NA,NA,NA,NA,NA,NA,TRUE,1,1.1189,622.07,625.0684,NA,NA,NA,NA,NA,40,54,0,42,42,53,1,2,43,"binary"
"496DDD06DEFB45479BD534FDF4A48140",1,"0198f77f-a458-7510-9c31-689efbe11796","0198f767-55c9-7875-8d21-563b3c0b86ed","2025-08-29_13h24.25.377",NA,NA,628.4193,628.4193,628.4193,628.7702,NA,NA,NA,NA,NA,NA,NA,TRUE,1,0.8853,625.4233,628.419,NA,NA,NA,NA,NA,30,32,0,43,43,46,1,2,44,"binary"
"496DDD06DEFB45479BD534FDF4A48140",1,"0198f77f-a458-7510-9c31-689efbe11796","0198f767-55c9-7875-8d21-563b3c0b86ed","2025-08-29_13h24.25.377",NA,NA,631.7697,631.7697,631.7698,632.1201,NA,NA,NA,NA,NA,NA,NA,TRUE,1,0.5674,628.7733,631.7694,NA,NA,NA,NA,NA,21,29,0,44,44,26,1,2,45,"binary"
"496DDD06DEFB45479BD534FDF4A48140",1,"0198f77f-a458-7510-9c31-689efbe11796","0198f767-55c9-7875-8d21-563b3c0b86ed","2025-08-29_13h24.25.377",NA,NA,635.1354,635.1356,635.1356,635.4775,NA,NA,NA,NA,NA,NA,NA,TRUE,1,0.5368,632.1229,635.135,NA,NA,NA,NA,NA,14,39,0,45,45,23,1,2,46,"binary"
"496DDD06DEFB45479BD534FDF4A48140",1,"0198f77f-a458-7510-9c31-689efbe11796","0198f767-55c9-7875-8d21-563b3c0b86ed","2025-08-29_13h24.25.377",NA,NA,638.4794,638.4796,638.4796,638.8284,NA,NA,NA,NA,NA,NA,NA,TRUE,1,0.9112,635.4822,638.4787,NA,NA,NA,NA,NA,40,27,0,46,46,48,1,2,47,"binary"
"496DDD06DEFB45479BD534FDF4A48140",1,"0198f77f-a458-7510-9c31-689efbe11796","0198f767-55c9-7875-8d21-563b3c0b86ed","2025-08-29_13h24.25.377",NA,NA,641.8283,641.8285,641.8286,642.1812,NA,NA,NA,NA,NA,NA,NA,TRUE,1,0.505,638.8329,641.8275,NA,NA,NA,NA,NA,50,27,0,47,47,60,1,2,48,"binary"
"496DDD06DEFB45479BD534FDF4A48140",1,"0198f77f-a458-7510-9c31-689efbe11796","0198f767-55c9-7875-8d21-563b3c0b86ed","2025-08-29_13h24.25.377",NA,NA,645.1806,645.1807,645.1807,645.5204,NA,NA,NA,NA,NA,NA,NA,TRUE,1,0.583,642.1845,645.1804,NA,NA,NA,NA,NA,95,31,0,48,48,78,1,2,49,"binary"
"496DDD06DEFB45479BD534FDF4A48140",1,"0198f77f-a458-7510-9c31-689efbe11796","0198f767-55c9-7875-8d21-563b3c0b86ed","2025-08-29_13h24.25.377",NA,NA,648.5192,648.5193,648.5194,648.8686,NA,NA,NA,NA,NA,NA,NA,TRUE,1,0.5016,645.5239,648.5187,NA,NA,NA,NA,NA,7,32,0,49,49,4,1,2,50,"binary"
"496DDD06DEFB45479BD534FDF4A48140",1,"0198f77f-a458-7510-9c31-689efbe11796","0198f767-55c9-7875-8d21-563b3c0b86ed","2025-08-29_13h24.25.377",NA,NA,651.869,651.8691,651.8691,652.2314,NA,NA,NA,NA,NA,NA,NA,TRUE,2,2.3844,648.8723,651.8687,NA,NA,NA,NA,NA,7,26,0,50,50,1,1,2,51,"binary"
"496DDD06DEFB45479BD534FDF4A48140",1,"0198f77f-a458-7510-9c31-689efbe11796","0198f767-55c9-7875-8d21-563b3c0b86ed","2025-08-29_13h24.25.377",NA,NA,655.2358,655.4853,655.4857,655.5688,NA,NA,NA,NA,NA,NA,NA,FALSE,NA,NA,652.236,655.2355,NA,NA,NA,NA,NA,50,35,0,51,51,62,1,2,52,"binary"
"496DDD06DEFB45479BD534FDF4A48140",1,"0198f77f-a458-7510-9c31-689efbe11796","0198f767-55c9-7875-8d21-563b3c0b86ed","2025-08-29_13h24.25.377",NA,NA,658.5858,658.5859,658.586,658.9323,NA,NA,NA,NA,NA,NA,NA,TRUE,1,1.1904,655.5727,658.5855,NA,NA,NA,NA,NA,10,30,0,52,52,10,1,2,53,"binary"
"496DDD06DEFB45479BD534FDF4A48140",1,"0198f77f-a458-7510-9c31-689efbe11796","0198f767-55c9-7875-8d21-563b3c0b86ed","2025-08-29_13h24.25.377",NA,NA,661.9277,661.9281,661.9281,662.2653,NA,NA,NA,NA,NA,NA,NA,TRUE,1,0.2838,658.9354,661.9273,NA,NA,NA,NA,NA,180,35,0,53,53,98,1,2,54,"binary"
"496DDD06DEFB45479BD534FDF4A48140",1,"0198f77f-a458-7510-9c31-689efbe11796","0198f767-55c9-7875-8d21-563b3c0b86ed","2025-08-29_13h24.25.377",NA,NA,665.2698,665.2699,665.2701,665.6186,NA,NA,NA,NA,NA,NA,NA,TRUE,1,0.3664,662.2673,665.2692,NA,NA,NA,NA,NA,200,54,0,54,54,107,1,2,55,"binary"
"496DDD06DEFB45479BD534FDF4A48140",1,"0198f77f-a458-7510-9c31-689efbe11796","0198f767-55c9-7875-8d21-563b3c0b86ed","2025-08-29_13h24.25.377",NA,NA,668.6206,668.6208,668.6208,668.9678,NA,NA,NA,NA,NA,NA,NA,TRUE,1,0.8187,665.6222,668.6203,NA,NA,NA,NA,NA,28,26,0,55,55,36,1,2,56,"binary"
"496DDD06DEFB45479BD534FDF4A48140",1,"0198f77f-a458-7510-9c31-689efbe11796","0198f767-55c9-7875-8d21-563b3c0b86ed","2025-08-29_13h24.25.377",NA,NA,671.9838,671.9841,671.9841,672.3157,NA,NA,NA,NA,NA,NA,NA,TRUE,1,0.508,668.9711,671.9835,NA,NA,NA,NA,NA,100,26,0,56,56,84,1,2,57,"binary"
"496DDD06DEFB45479BD534FDF4A48140",1,"0198f77f-a458-7510-9c31-689efbe11796","0198f767-55c9-7875-8d21-563b3c0b86ed","2025-08-29_13h24.25.377",NA,NA,675.3199,675.3201,675.3202,675.6683,NA,NA,NA,NA,NA,NA,NA,TRUE,1,0.718,672.3192,675.3195,NA,NA,NA,NA,NA,95,35,0,57,57,80,1,2,58,"binary"
"496DDD06DEFB45479BD534FDF4A48140",1,"0198f77f-a458-7510-9c31-689efbe11796","0198f767-55c9-7875-8d21-563b3c0b86ed","2025-08-29_13h24.25.377",NA,NA,678.6679,678.668,678.668,679.0264,NA,NA,NA,NA,NA,NA,NA,TRUE,1,1.4007,675.6717,678.6677,NA,NA,NA,NA,NA,180,46,0,58,58,100,1,2,59,"binary"
"496DDD06DEFB45479BD534FDF4A48140",1,"0198f77f-a458-7510-9c31-689efbe11796","0198f767-55c9-7875-8d21-563b3c0b86ed","2025-08-29_13h24.25.377",NA,NA,682.0285,682.0291,682.0292,682.3783,NA,NA,NA,NA,NA,NA,NA,TRUE,1,0.4646,679.0305,682.0282,NA,NA,NA,NA,NA,12,25,0,59,59,12,1,2,60,"binary"
"496DDD06DEFB45479BD534FDF4A48140",1,"0198f77f-a458-7510-9c31-689efbe11796","0198f767-55c9-7875-8d21-563b3c0b86ed","2025-08-29_13h24.25.377",NA,NA,685.3787,685.3787,685.3788,685.7274,NA,NA,NA,NA,NA,NA,NA,TRUE,1,0.8297,682.3827,685.3778,NA,NA,NA,NA,NA,200,28,0,60,60,103,1,2,61,"binary"
"496DDD06DEFB45479BD534FDF4A48140",1,"0198f77f-a458-7510-9c31-689efbe11796","0198f767-55c9-7875-8d21-563b3c0b86ed","2025-08-29_13h24.25.377",NA,NA,688.7288,688.729,688.7291,689.0782,NA,NA,NA,NA,NA,NA,NA,TRUE,1,1.1995,685.7312,688.7285,NA,NA,NA,NA,NA,180,54,0,61,61,101,1,2,62,"binary"
"496DDD06DEFB45479BD534FDF4A48140",1,"0198f77f-a458-7510-9c31-689efbe11796","0198f767-55c9-7875-8d21-563b3c0b86ed","2025-08-29_13h24.25.377",NA,NA,692.0771,692.0773,692.0773,692.4278,NA,NA,NA,NA,NA,NA,NA,TRUE,1,1.513,689.0829,692.0768,NA,NA,NA,NA,NA,28,35,0,62,62,39,1,2,63,"binary"
"496DDD06DEFB45479BD534FDF4A48140",1,"0198f77f-a458-7510-9c31-689efbe11796","0198f767-55c9-7875-8d21-563b3c0b86ed","2025-08-29_13h24.25.377",NA,NA,695.4278,695.4281,695.4282,695.7776,NA,NA,NA,NA,NA,NA,NA,TRUE,1,0.8943,692.4326,695.4271,NA,NA,NA,NA,NA,90,33,0,63,63,74,1,2,64,"binary"
"496DDD06DEFB45479BD534FDF4A48140",1,"0198f77f-a458-7510-9c31-689efbe11796","0198f767-55c9-7875-8d21-563b3c0b86ed","2025-08-29_13h24.25.377",NA,NA,698.7785,698.7787,698.7788,699.1278,NA,NA,NA,NA,NA,NA,NA,TRUE,1,0.5272,695.7823,698.7781,NA,NA,NA,NA,NA,30,26,0,64,64,42,1,2,65,"binary"
"496DDD06DEFB45479BD534FDF4A48140",1,"0198f77f-a458-7510-9c31-689efbe11796","0198f767-55c9-7875-8d21-563b3c0b86ed","2025-08-29_13h24.25.377",NA,NA,702.1284,702.1284,702.1285,702.478,NA,NA,NA,NA,NA,NA,NA,TRUE,1,0.5775,699.1325,702.128,NA,NA,NA,NA,NA,90,46,0,65,65,76,1,2,66,"binary"
"496DDD06DEFB45479BD534FDF4A48140",1,"0198f77f-a458-7510-9c31-689efbe11796","0198f767-55c9-7875-8d21-563b3c0b86ed","2025-08-29_13h24.25.377",NA,NA,705.4782,705.4784,705.4784,705.8265,NA,NA,NA,NA,NA,NA,NA,TRUE,1,0.4452,702.4823,705.4781,NA,NA,NA,NA,NA,60,40,0,66,66,69,1,2,67,"binary"
"496DDD06DEFB45479BD534FDF4A48140",1,"0198f77f-a458-7510-9c31-689efbe11796","0198f767-55c9-7875-8d21-563b3c0b86ed","2025-08-29_13h24.25.377",NA,NA,708.8286,708.8287,708.8288,709.1765,NA,NA,NA,NA,NA,NA,NA,TRUE,1,0.9528,705.8302,708.8279,NA,NA,NA,NA,NA,180,27,0,67,67,96,1,2,68,"binary"
"496DDD06DEFB45479BD534FDF4A48140",1,"0198f77f-a458-7510-9c31-689efbe11796","0198f767-55c9-7875-8d21-563b3c0b86ed","2025-08-29_13h24.25.377",NA,NA,712.1774,712.1776,712.1776,712.5273,NA,NA,NA,NA,NA,NA,NA,TRUE,1,0.7679,709.1807,712.177,NA,NA,NA,NA,NA,90,40,0,68,68,75,1,2,69,"binary"
"496DDD06DEFB45479BD534FDF4A48140",1,"0198f77f-a458-7510-9c31-689efbe11796","0198f767-55c9-7875-8d21-563b3c0b86ed","2025-08-29_13h24.25.377",NA,NA,715.5286,715.5287,715.5287,715.8776,NA,NA,NA,NA,NA,NA,NA,TRUE,1,0.3949,712.5323,715.5278,NA,NA,NA,NA,NA,40,33,0,69,69,49,1,2,70,"binary"
"496DDD06DEFB45479BD534FDF4A48140",1,"0198f77f-a458-7510-9c31-689efbe11796","0198f767-55c9-7875-8d21-563b3c0b86ed","2025-08-29_13h24.25.377",NA,NA,718.8774,718.8777,718.8777,719.2268,NA,NA,NA,NA,NA,NA,NA,TRUE,1,0.3305,715.8825,718.8772,NA,NA,NA,NA,NA,40,47,0,70,70,52,1,2,71,"binary"
"496DDD06DEFB45479BD534FDF4A48140",1,"0198f77f-a458-7510-9c31-689efbe11796","0198f767-55c9-7875-8d21-563b3c0b86ed","2025-08-29_13h24.25.377",NA,NA,722.2286,722.2289,722.2289,722.5779,NA,NA,NA,NA,NA,NA,NA,TRUE,1,0.4133,719.2308,722.2281,NA,NA,NA,NA,NA,10,25,0,71,71,6,1,2,72,"binary"
"496DDD06DEFB45479BD534FDF4A48140",1,"0198f77f-a458-7510-9c31-689efbe11796","0198f767-55c9-7875-8d21-563b3c0b86ed","2025-08-29_13h24.25.377",NA,NA,725.5782,725.5782,725.5782,725.9279,NA,NA,NA,NA,NA,NA,NA,TRUE,1,0.4791,722.5827,725.5778,NA,NA,NA,NA,NA,90,30,0,72,72,73,1,2,73,"binary"
"496DDD06DEFB45479BD534FDF4A48140",1,"0198f77f-a458-7510-9c31-689efbe11796","0198f767-55c9-7875-8d21-563b3c0b86ed","2025-08-29_13h24.25.377",NA,NA,728.9267,728.9268,728.9268,729.2778,NA,NA,NA,NA,NA,NA,NA,TRUE,1,0.4449,725.9331,728.9265,NA,NA,NA,NA,NA,50,30,0,73,73,61,1,2,74,"binary"
"496DDD06DEFB45479BD534FDF4A48140",1,"0198f77f-a458-7510-9c31-689efbe11796","0198f767-55c9-7875-8d21-563b3c0b86ed","2025-08-29_13h24.25.377",NA,NA,732.2781,732.2781,732.2781,732.6278,NA,NA,NA,NA,NA,NA,NA,TRUE,1,0.843,729.2813,732.2777,NA,NA,NA,NA,NA,14,28,0,74,74,20,1,2,75,"binary"
"496DDD06DEFB45479BD534FDF4A48140",1,"0198f77f-a458-7510-9c31-689efbe11796","0198f767-55c9-7875-8d21-563b3c0b86ed","2025-08-29_13h24.25.377",NA,NA,735.6279,735.6281,735.6281,735.9775,NA,NA,NA,NA,NA,NA,NA,TRUE,1,0.6451,732.6318,735.6274,NA,NA,NA,NA,NA,150,31,0,75,75,90,1,2,76,"binary"
"496DDD06DEFB45479BD534FDF4A48140",1,"0198f77f-a458-7510-9c31-689efbe11796","0198f767-55c9-7875-8d21-563b3c0b86ed","2025-08-29_13h24.25.377",NA,NA,738.9769,738.977,738.9771,739.3276,NA,NA,NA,NA,NA,NA,NA,TRUE,1,0.5774,735.9815,738.9766,NA,NA,NA,NA,NA,30,27,0,76,76,43,1,2,77,"binary"
"496DDD06DEFB45479BD534FDF4A48140",1,"0198f77f-a458-7510-9c31-689efbe11796","0198f767-55c9-7875-8d21-563b3c0b86ed","2025-08-29_13h24.25.377",NA,NA,742.3279,742.3282,742.3282,742.6778,NA,NA,NA,NA,NA,NA,NA,TRUE,1,0.9812,739.3318,742.3275,NA,NA,NA,NA,NA,180,39,0,77,77,99,1,2,78,"binary"
"496DDD06DEFB45479BD534FDF4A48140",1,"0198f77f-a458-7510-9c31-689efbe11796","0198f767-55c9-7875-8d21-563b3c0b86ed","2025-08-29_13h24.25.377",NA,NA,745.678,745.6783,745.6784,746.0274,NA,NA,NA,NA,NA,NA,NA,TRUE,1,0.6787,742.6826,745.6776,NA,NA,NA,NA,NA,25,46,0,78,78,35,1,2,79,"binary"
"496DDD06DEFB45479BD534FDF4A48140",1,"0198f77f-a458-7510-9c31-689efbe11796","0198f767-55c9-7875-8d21-563b3c0b86ed","2025-08-29_13h24.25.377",NA,NA,749.028,749.0282,749.0282,749.3782,NA,NA,NA,NA,NA,NA,NA,TRUE,1,0.5614,746.0313,749.0276,NA,NA,NA,NA,NA,12,33,0,79,79,16,1,2,80,"binary"
"496DDD06DEFB45479BD534FDF4A48140",1,"0198f77f-a458-7510-9c31-689efbe11796","0198f767-55c9-7875-8d21-563b3c0b86ed","2025-08-29_13h24.25.377",NA,NA,752.378,752.3782,752.3782,752.7275,NA,NA,NA,NA,NA,NA,NA,TRUE,1,0.677,749.3826,752.3775,NA,NA,NA,NA,NA,28,28,0,80,80,37,1,2,81,"binary"
"496DDD06DEFB45479BD534FDF4A48140",1,"0198f77f-a458-7510-9c31-689efbe11796","0198f767-55c9-7875-8d21-563b3c0b86ed","2025-08-29_13h24.25.377",NA,NA,755.7285,755.7288,755.7288,756.0768,NA,NA,NA,NA,NA,NA,NA,TRUE,1,0.4984,752.7324,755.7278,NA,NA,NA,NA,NA,150,35,0,81,81,92,1,2,82,"binary"
"496DDD06DEFB45479BD534FDF4A48140",1,"0198f77f-a458-7510-9c31-689efbe11796","0198f767-55c9-7875-8d21-563b3c0b86ed","2025-08-29_13h24.25.377",NA,NA,759.0777,759.0777,759.0778,759.4277,NA,NA,NA,NA,NA,NA,NA,TRUE,1,0.8836,756.0805,759.0773,NA,NA,NA,NA,NA,150,33,0,82,82,91,1,2,83,"binary"
"496DDD06DEFB45479BD534FDF4A48140",1,"0198f77f-a458-7510-9c31-689efbe11796","0198f767-55c9-7875-8d21-563b3c0b86ed","2025-08-29_13h24.25.377",NA,NA,762.427,762.4271,762.4271,762.7778,NA,NA,NA,NA,NA,NA,NA,TRUE,1,0.6293,759.4322,762.4265,NA,NA,NA,NA,NA,150,54,0,83,83,95,1,2,84,"binary"
"496DDD06DEFB45479BD534FDF4A48140",1,"0198f77f-a458-7510-9c31-689efbe11796","0198f767-55c9-7875-8d21-563b3c0b86ed","2025-08-29_13h24.25.377",NA,NA,765.7784,765.7788,765.7789,766.1277,NA,NA,NA,NA,NA,NA,NA,TRUE,1,0.6584,762.7825,765.778,NA,NA,NA,NA,NA,25,33,0,84,84,33,1,2,85,"binary"
"496DDD06DEFB45479BD534FDF4A48140",1,"0198f77f-a458-7510-9c31-689efbe11796","0198f767-55c9-7875-8d21-563b3c0b86ed","2025-08-29_13h24.25.377",NA,NA,769.1284,769.1287,769.1288,769.4779,NA,NA,NA,NA,NA,NA,NA,TRUE,1,0.5944,766.1329,769.1282,NA,NA,NA,NA,NA,45,31,0,85,85,56,1,2,86,"binary"
"496DDD06DEFB45479BD534FDF4A48140",1,"0198f77f-a458-7510-9c31-689efbe11796","0198f767-55c9-7875-8d21-563b3c0b86ed","2025-08-29_13h24.25.377",NA,NA,772.4787,772.479,772.479,772.8282,NA,NA,NA,NA,NA,NA,NA,TRUE,1,0.6112,769.4828,772.4782,NA,NA,NA,NA,NA,100,31,0,86,86,85,1,2,87,"binary"
"496DDD06DEFB45479BD534FDF4A48140",1,"0198f77f-a458-7510-9c31-689efbe11796","0198f767-55c9-7875-8d21-563b3c0b86ed","2025-08-29_13h24.25.377",NA,NA,775.8283,775.8286,775.8286,776.1796,NA,NA,NA,NA,NA,NA,NA,TRUE,1,0.7075,772.8325,775.8281,NA,NA,NA,NA,NA,90,54,0,87,87,77,1,2,88,"binary"
"496DDD06DEFB45479BD534FDF4A48140",1,"0198f77f-a458-7510-9c31-689efbe11796","0198f767-55c9-7875-8d21-563b3c0b86ed","2025-08-29_13h24.25.377",NA,NA,779.1786,779.1789,779.1789,779.5277,NA,NA,NA,NA,NA,NA,NA,TRUE,1,0.7595,776.1841,779.1781,NA,NA,NA,NA,NA,21,38,0,88,88,29,1,2,89,"binary"
"496DDD06DEFB45479BD534FDF4A48140",1,"0198f77f-a458-7510-9c31-689efbe11796","0198f767-55c9-7875-8d21-563b3c0b86ed","2025-08-29_13h24.25.377",NA,NA,782.5286,782.5288,782.5288,782.878,NA,NA,NA,NA,NA,NA,NA,TRUE,1,0.7098,779.5321,782.5282,NA,NA,NA,NA,NA,40,35,0,89,89,50,1,2,90,"binary"
"496DDD06DEFB45479BD534FDF4A48140",1,"0198f77f-a458-7510-9c31-689efbe11796","0198f767-55c9-7875-8d21-563b3c0b86ed","2025-08-29_13h24.25.377",NA,NA,785.878,785.8781,785.8782,786.2276,NA,NA,NA,NA,NA,NA,NA,TRUE,1,0.8095,782.8819,785.8774,NA,NA,NA,NA,NA,28,32,0,90,90,38,1,2,91,"binary"
"496DDD06DEFB45479BD534FDF4A48140",1,"0198f77f-a458-7510-9c31-689efbe11796","0198f767-55c9-7875-8d21-563b3c0b86ed","2025-08-29_13h24.25.377",NA,NA,789.2285,789.2288,789.2289,789.5779,NA,NA,NA,NA,NA,NA,NA,TRUE,1,0.5787,786.2325,789.2279,NA,NA,NA,NA,NA,25,31,0,91,91,32,1,2,92,"binary"
"496DDD06DEFB45479BD534FDF4A48140",1,"0198f77f-a458-7510-9c31-689efbe11796","0198f767-55c9-7875-8d21-563b3c0b86ed","2025-08-29_13h24.25.377",NA,NA,792.5774,792.5775,792.5775,792.9277,NA,NA,NA,NA,NA,NA,NA,TRUE,1,1.3597,789.5831,792.577,NA,NA,NA,NA,NA,40,40,0,92,92,51,1,2,93,"binary"
"496DDD06DEFB45479BD534FDF4A48140",1,"0198f77f-a458-7510-9c31-689efbe11796","0198f767-55c9-7875-8d21-563b3c0b86ed","2025-08-29_13h24.25.377",NA,NA,795.9286,795.9287,795.9287,796.2773,NA,NA,NA,NA,NA,NA,NA,TRUE,1,0.8437,792.9326,795.9281,NA,NA,NA,NA,NA,25,29,0,93,93,31,1,2,94,"binary"
"496DDD06DEFB45479BD534FDF4A48140",1,"0198f77f-a458-7510-9c31-689efbe11796","0198f767-55c9-7875-8d21-563b3c0b86ed","2025-08-29_13h24.25.377",NA,NA,799.2786,799.2792,799.2793,799.6283,NA,NA,NA,NA,NA,NA,NA,TRUE,1,0.6095,796.2825,799.2782,NA,NA,NA,NA,NA,14,26,0,94,94,19,1,2,95,"binary"
"496DDD06DEFB45479BD534FDF4A48140",1,"0198f77f-a458-7510-9c31-689efbe11796","0198f767-55c9-7875-8d21-563b3c0b86ed","2025-08-29_13h24.25.377",NA,NA,802.6286,802.629,802.6291,802.9776,NA,NA,NA,NA,NA,NA,NA,TRUE,1,0.7612,799.6332,802.6283,NA,NA,NA,NA,NA,95,40,0,95,95,81,1,2,96,"binary"
"496DDD06DEFB45479BD534FDF4A48140",1,"0198f77f-a458-7510-9c31-689efbe11796","0198f767-55c9-7875-8d21-563b3c0b86ed","2025-08-29_13h24.25.377",NA,NA,805.9779,805.978,805.978,806.3275,NA,NA,NA,NA,NA,NA,NA,TRUE,1,0.5158,802.9821,805.9773,NA,NA,NA,NA,NA,150,47,0,96,96,94,1,2,97,"binary"
"496DDD06DEFB45479BD534FDF4A48140",1,"0198f77f-a458-7510-9c31-689efbe11796","0198f767-55c9-7875-8d21-563b3c0b86ed","2025-08-29_13h24.25.377",NA,NA,809.3275,809.3275,809.3276,809.6773,NA,NA,NA,NA,NA,NA,NA,TRUE,1,0.8114,806.3325,809.3273,NA,NA,NA,NA,NA,60,33,0,97,97,67,1,2,98,"binary"
"496DDD06DEFB45479BD534FDF4A48140",1,"0198f77f-a458-7510-9c31-689efbe11796","0198f767-55c9-7875-8d21-563b3c0b86ed","2025-08-29_13h24.25.377",NA,NA,812.6779,812.6781,812.6781,813.0274,NA,NA,NA,NA,NA,NA,NA,TRUE,1,0.5604,809.6815,812.6774,NA,NA,NA,NA,NA,10,26,0,98,98,7,1,2,99,"binary"
"496DDD06DEFB45479BD534FDF4A48140",1,"0198f77f-a458-7510-9c31-689efbe11796","0198f767-55c9-7875-8d21-563b3c0b86ed","2025-08-29_13h24.25.377",NA,NA,816.0281,816.0282,816.0282,816.3776,NA,NA,NA,NA,NA,NA,NA,TRUE,1,0.4803,813.0319,816.0276,NA,NA,NA,NA,NA,60,35,0,99,99,68,1,2,100,"binary"
"496DDD06DEFB45479BD534FDF4A48140",1,"0198f77f-a458-7510-9c31-689efbe11796","0198f767-55c9-7875-8d21-563b3c0b86ed","2025-08-29_13h24.25.377",NA,NA,819.3775,819.3777,819.3777,819.7273,NA,NA,NA,NA,NA,NA,NA,TRUE,1,0.7135,816.3819,819.3772,NA,NA,NA,NA,NA,100,38,0,100,100,86,1,2,101,"binary"
"496DDD06DEFB45479BD534FDF4A48140",1,"0198f77f-a458-7510-9c31-689efbe11796","0198f767-55c9-7875-8d21-563b3c0b86ed","2025-08-29_13h24.25.377",NA,NA,822.7282,822.7282,822.7283,823.077,NA,NA,NA,NA,NA,NA,NA,TRUE,1,0.6458,819.7304,822.7278,NA,NA,NA,NA,NA,14,32,0,101,101,21,1,2,102,"binary"
"496DDD06DEFB45479BD534FDF4A48140",1,"0198f77f-a458-7510-9c31-689efbe11796","0198f767-55c9-7875-8d21-563b3c0b86ed","2025-08-29_13h24.25.377",NA,NA,826.0768,826.0769,826.0769,826.4278,NA,NA,NA,NA,NA,NA,NA,TRUE,1,0.6839,823.0808,826.0764,NA,NA,NA,NA,NA,45,26,0,102,102,54,1,2,103,"binary"
"496DDD06DEFB45479BD534FDF4A48140",1,"0198f77f-a458-7510-9c31-689efbe11796","0198f767-55c9-7875-8d21-563b3c0b86ed","2025-08-29_13h24.25.377",NA,NA,829.4278,829.4282,829.4282,829.7776,NA,NA,NA,NA,NA,NA,NA,TRUE,1,0.5963,826.4324,829.4274,NA,NA,NA,NA,NA,200,35,0,103,103,104,1,2,104,"binary"
"496DDD06DEFB45479BD534FDF4A48140",1,"0198f77f-a458-7510-9c31-689efbe11796","0198f767-55c9-7875-8d21-563b3c0b86ed","2025-08-29_13h24.25.377",NA,NA,832.7781,832.7782,832.7783,833.1284,NA,NA,NA,NA,NA,NA,NA,TRUE,1,0.9327,829.7817,832.7777,NA,NA,NA,NA,NA,200,39,0,104,104,105,1,2,105,"binary"
"496DDD06DEFB45479BD534FDF4A48140",1,"0198f77f-a458-7510-9c31-689efbe11796","0198f767-55c9-7875-8d21-563b3c0b86ed","2025-08-29_13h24.25.377",NA,NA,836.1281,836.1282,836.1282,836.4777,NA,NA,NA,NA,NA,NA,NA,TRUE,1,0.7086,833.1328,836.1278,NA,NA,NA,NA,NA,200,26,0,105,105,102,1,2,106,"binary"
"496DDD06DEFB45479BD534FDF4A48140",1,"0198f77f-a458-7510-9c31-689efbe11796","0198f767-55c9-7875-8d21-563b3c0b86ed","2025-08-29_13h24.25.377",NA,NA,839.4781,839.4782,839.4782,839.8277,NA,NA,NA,NA,NA,NA,NA,TRUE,1,0.5345,836.4817,839.4775,NA,NA,NA,NA,NA,30,29,0,106,106,44,1,2,107,"binary"
"496DDD06DEFB45479BD534FDF4A48140",1,"0198f77f-a458-7510-9c31-689efbe11796","0198f767-55c9-7875-8d21-563b3c0b86ed","2025-08-29_13h24.25.377",NA,NA,842.8287,842.8288,842.8289,843.178,NA,NA,NA,NA,NA,NA,NA,TRUE,1,0.5437,839.832,842.8282,NA,NA,NA,NA,NA,30,38,0,107,107,47,1,2,108,"binary"
