"participant","session","assignmentId","projectId","date","practiceTrial.started","practiceTrial.stopped","tooLate.started","tooLate.stopped","blank.started","blank.stopped","trials_pract.thisRepN","trials_pract.thisTrialN","trials_pract.thisN","trials_pract.thisIndex","trials_pract.ran","delay_pract","amount_pract","responseMade","key","rt","trial.started","trial.stopped","trials.thisRepN","trials.thisTrialN","trials.thisN","trials.thisIndex","trials.ran","delay","amount","trials_2.thisRepN","trials_2.thisTrialN","trials_2.thisN","trials_2.thisIndex","trials_2.ran","block","trial","taskType"
"4F8701E5339B4A7FBEB1C68BC4DB29A2",1,"0198f781-1c68-7ce1-b6ce-6cb5de3ee107","0198f767-55c9-7875-8d21-563b3c0b86ed","2025-08-29_15h27.07.023",67.3729,70.3571,70.3575,70.6121,70.6122,70.7089,0,0,0,1,1,100,50,FALSE,NA,NA,NA,NA,NA,NA,NA,NA,NA,NA,NA,NA,NA,NA,NA,NA,0,1,"binary"
"4F8701E5339B4A7FBEB1C68BC4DB29A2",1,"0198f781-1c68-7ce1-b6ce-6cb5de3ee107","0198f767-55c9-7875-8d21-563b3c0b86ed","2025-08-29_15h27.07.023",70.7107,73.711,73.7111,73.7111,73.7111,74.0569,0,1,1,4,1,30,40,TRUE,2,1.641,NA,NA,NA,NA,NA,NA,NA,NA,NA,NA,NA,NA,NA,NA,0,2,"binary"
"4F8701E5339B4A7FBEB1C68BC4DB29A2",1,"0198f781-1c68-7ce1-b6ce-6cb5de3ee107","0198f767-55c9-7875-8d21-563b3c0b86ed","2025-08-29_15h27.07.023",74.0581,77.0592,77.0592,77.0592,77.0592,77.4109,0,2,2,0,1,7,30,TRUE,1,1.4765,NA,NA,NA,NA,NA,NA,NA,NA,NA,NA,NA,NA,NA,NA,0,3,"binary"
"4F8701E5339B4A7FBEB1C68BC4DB29A2",1,"0198f781-1c68-7ce1-b6ce-6cb5de3ee107","0198f767-55c9-7875-8d21-563b3c0b86ed","2025-08-29_15h27.07.023",77.4117,80.4072,80.4073,80.4074,80.4074,80.759,0,3,3,3,1,3,27,TRUE,1,1.0921,NA,NA,NA,NA,NA,NA,NA,NA,NA,NA,NA,NA,NA,NA,0,4,"binary"
"4F8701E5339B4A7FBEB1C68BC4DB29A2",1,"0198f781-1c68-7ce1-b6ce-6cb5de3ee107","0198f767-55c9-7875-8d21-563b3c0b86ed","2025-08-29_15h27.07.023",80.7599,83.7615,83.7616,83.7616,83.7616,84.1072,0,4,4,2,1,14,45,TRUE,2,0.9005,NA,NA,NA,NA,NA,NA,NA,NA,NA,NA,NA,NA,NA,NA,0,5,"binary"
"4F8701E5339B4A7FBEB1C68BC4DB29A2",1,"0198f781-1c68-7ce1-b6ce-6cb5de3ee107","0198f767-55c9-7875-8d21-563b3c0b86ed","2025-08-29_15h27.07.023",NA,NA,117.6496,117.6496,117.6496,118.0006,NA,NA,NA,NA,NA,NA,NA,TRUE,2,1.2208,114.6637,117.6492,0,0,0,32,1,25,31,NA,NA,NA,NA,NA,1,1,"binary"
"4F8701E5339B4A7FBEB1C68BC4DB29A2",1,"0198f781-1c68-7ce1-b6ce-6cb5de3ee107","0198f767-55c9-7875-8d21-563b3c0b86ed","2025-08-29_15h27.07.023",NA,NA,121.003,121.003,121.003,121.3487,NA,NA,NA,NA,NA,NA,NA,TRUE,2,1.9403,118.0013,121.0029,0,1,1,33,1,25,33,NA,NA,NA,NA,NA,1,2,"binary"
"4F8701E5339B4A7FBEB1C68BC4DB29A2",1,"0198f781-1c68-7ce1-b6ce-6cb5de3ee107","0198f767-55c9-7875-8d21-563b3c0b86ed","2025-08-29_15h27.07.023",NA,NA,124.351,124.351,124.351,124.7028,NA,NA,NA,NA,NA,NA,NA,TRUE,1,1.3271,121.3504,124.3509,0,2,2,42,1,30,26,NA,NA,NA,NA,NA,1,3,"binary"
"4F8701E5339B4A7FBEB1C68BC4DB29A2",1,"0198f781-1c68-7ce1-b6ce-6cb5de3ee107","0198f767-55c9-7875-8d21-563b3c0b86ed","2025-08-29_15h27.07.023",NA,NA,127.6993,127.6993,127.6993,128.0511,NA,NA,NA,NA,NA,NA,NA,TRUE,1,1.2016,124.7039,127.6992,0,3,3,12,1,12,25,NA,NA,NA,NA,NA,1,4,"binary"
"4F8701E5339B4A7FBEB1C68BC4DB29A2",1,"0198f781-1c68-7ce1-b6ce-6cb5de3ee107","0198f767-55c9-7875-8d21-563b3c0b86ed","2025-08-29_15h27.07.023",NA,NA,131.0533,131.0533,131.0533,131.399,NA,NA,NA,NA,NA,NA,NA,TRUE,2,0.74,128.0519,131.0532,0,4,4,65,1,50,54,NA,NA,NA,NA,NA,1,5,"binary"
"4F8701E5339B4A7FBEB1C68BC4DB29A2",1,"0198f781-1c68-7ce1-b6ce-6cb5de3ee107","0198f767-55c9-7875-8d21-563b3c0b86ed","2025-08-29_15h27.07.023",NA,NA,134.402,134.402,134.402,134.7532,NA,NA,NA,NA,NA,NA,NA,TRUE,2,1.2779,131.4002,134.4019,0,5,5,9,1,10,29,NA,NA,NA,NA,NA,1,6,"binary"
"4F8701E5339B4A7FBEB1C68BC4DB29A2",1,"0198f781-1c68-7ce1-b6ce-6cb5de3ee107","0198f767-55c9-7875-8d21-563b3c0b86ed","2025-08-29_15h27.07.023",NA,NA,137.7496,137.7497,137.7497,138.1015,NA,NA,NA,NA,NA,NA,NA,TRUE,2,0.6725,134.754,137.7496,0,6,6,51,1,40,40,NA,NA,NA,NA,NA,1,7,"binary"
"4F8701E5339B4A7FBEB1C68BC4DB29A2",1,"0198f781-1c68-7ce1-b6ce-6cb5de3ee107","0198f767-55c9-7875-8d21-563b3c0b86ed","2025-08-29_15h27.07.023",NA,NA,141.1037,141.1037,141.1037,141.4495,NA,NA,NA,NA,NA,NA,NA,TRUE,1,1.374,138.1028,141.1036,0,7,7,98,1,180,35,NA,NA,NA,NA,NA,1,8,"binary"
"4F8701E5339B4A7FBEB1C68BC4DB29A2",1,"0198f781-1c68-7ce1-b6ce-6cb5de3ee107","0198f767-55c9-7875-8d21-563b3c0b86ed","2025-08-29_15h27.07.023",NA,NA,144.452,144.452,144.452,144.8034,NA,NA,NA,NA,NA,NA,NA,TRUE,1,1.2473,141.4501,144.4519,0,8,8,85,1,100,31,NA,NA,NA,NA,NA,1,9,"binary"
"4F8701E5339B4A7FBEB1C68BC4DB29A2",1,"0198f781-1c68-7ce1-b6ce-6cb5de3ee107","0198f767-55c9-7875-8d21-563b3c0b86ed","2025-08-29_15h27.07.023",NA,NA,147.7999,147.7999,147.7999,148.1515,NA,NA,NA,NA,NA,NA,NA,TRUE,1,0.9462,144.804,147.7998,0,9,9,90,1,150,31,NA,NA,NA,NA,NA,1,10,"binary"
"4F8701E5339B4A7FBEB1C68BC4DB29A2",1,"0198f781-1c68-7ce1-b6ce-6cb5de3ee107","0198f767-55c9-7875-8d21-563b3c0b86ed","2025-08-29_15h27.07.023",NA,NA,151.1484,151.1485,151.1485,151.4997,NA,NA,NA,NA,NA,NA,NA,TRUE,1,1.06,148.1522,151.1483,0,10,10,103,1,200,28,NA,NA,NA,NA,NA,1,11,"binary"
"4F8701E5339B4A7FBEB1C68BC4DB29A2",1,"0198f781-1c68-7ce1-b6ce-6cb5de3ee107","0198f767-55c9-7875-8d21-563b3c0b86ed","2025-08-29_15h27.07.023",NA,NA,154.5022,154.5022,154.5022,154.8481,NA,NA,NA,NA,NA,NA,NA,TRUE,2,1.6968,151.5006,154.5021,0,11,11,76,1,90,46,NA,NA,NA,NA,NA,1,12,"binary"
"4F8701E5339B4A7FBEB1C68BC4DB29A2",1,"0198f781-1c68-7ce1-b6ce-6cb5de3ee107","0198f767-55c9-7875-8d21-563b3c0b86ed","2025-08-29_15h27.07.023",NA,NA,157.8503,157.8504,157.8504,158.2019,NA,NA,NA,NA,NA,NA,NA,TRUE,1,1.1187,154.8488,157.8502,0,12,12,18,1,14,25,NA,NA,NA,NA,NA,1,13,"binary"
"4F8701E5339B4A7FBEB1C68BC4DB29A2",1,"0198f781-1c68-7ce1-b6ce-6cb5de3ee107","0198f767-55c9-7875-8d21-563b3c0b86ed","2025-08-29_15h27.07.023",NA,NA,161.1988,161.1989,161.1989,161.5501,NA,NA,NA,NA,NA,NA,NA,TRUE,1,1.4481,158.2028,161.1986,0,13,13,74,1,90,33,NA,NA,NA,NA,NA,1,14,"binary"
"4F8701E5339B4A7FBEB1C68BC4DB29A2",1,"0198f781-1c68-7ce1-b6ce-6cb5de3ee107","0198f767-55c9-7875-8d21-563b3c0b86ed","2025-08-29_15h27.07.023",NA,NA,164.5526,164.5526,164.5526,164.8986,NA,NA,NA,NA,NA,NA,NA,TRUE,1,1.0474,161.551,164.5525,0,14,14,48,1,40,27,NA,NA,NA,NA,NA,1,15,"binary"
"4F8701E5339B4A7FBEB1C68BC4DB29A2",1,"0198f781-1c68-7ce1-b6ce-6cb5de3ee107","0198f767-55c9-7875-8d21-563b3c0b86ed","2025-08-29_15h27.07.023",NA,NA,167.9006,167.9006,167.9006,168.2524,NA,NA,NA,NA,NA,NA,NA,TRUE,2,1.1144,164.8995,167.9005,0,15,15,89,1,100,54,NA,NA,NA,NA,NA,1,16,"binary"
"4F8701E5339B4A7FBEB1C68BC4DB29A2",1,"0198f781-1c68-7ce1-b6ce-6cb5de3ee107","0198f767-55c9-7875-8d21-563b3c0b86ed","2025-08-29_15h27.07.023",NA,NA,171.2487,171.2487,171.2487,171.6006,NA,NA,NA,NA,NA,NA,NA,TRUE,1,1.268,168.253,171.2487,0,16,16,107,1,200,54,NA,NA,NA,NA,NA,1,17,"binary"
"4F8701E5339B4A7FBEB1C68BC4DB29A2",1,"0198f781-1c68-7ce1-b6ce-6cb5de3ee107","0198f767-55c9-7875-8d21-563b3c0b86ed","2025-08-29_15h27.07.023",NA,NA,174.6034,174.6035,174.6035,174.9489,NA,NA,NA,NA,NA,NA,NA,TRUE,1,0.927,171.6016,174.6032,0,17,17,44,1,30,29,NA,NA,NA,NA,NA,1,18,"binary"
"4F8701E5339B4A7FBEB1C68BC4DB29A2",1,"0198f781-1c68-7ce1-b6ce-6cb5de3ee107","0198f767-55c9-7875-8d21-563b3c0b86ed","2025-08-29_15h27.07.023",NA,NA,177.951,177.951,177.951,178.3027,NA,NA,NA,NA,NA,NA,NA,TRUE,1,1.2581,174.9499,177.9509,0,18,18,91,1,150,33,NA,NA,NA,NA,NA,1,19,"binary"
"4F8701E5339B4A7FBEB1C68BC4DB29A2",1,"0198f781-1c68-7ce1-b6ce-6cb5de3ee107","0198f767-55c9-7875-8d21-563b3c0b86ed","2025-08-29_15h27.07.023",NA,NA,181.2992,181.2992,181.2992,181.6507,NA,NA,NA,NA,NA,NA,NA,TRUE,2,1.1686,178.3034,181.2991,0,19,19,47,1,30,38,NA,NA,NA,NA,NA,1,20,"binary"
"4F8701E5339B4A7FBEB1C68BC4DB29A2",1,"0198f781-1c68-7ce1-b6ce-6cb5de3ee107","0198f767-55c9-7875-8d21-563b3c0b86ed","2025-08-29_15h27.07.023",NA,NA,184.6534,184.6534,184.6534,184.9995,NA,NA,NA,NA,NA,NA,NA,TRUE,2,1.0925,181.6517,184.6533,0,20,20,4,1,7,32,NA,NA,NA,NA,NA,1,21,"binary"
"4F8701E5339B4A7FBEB1C68BC4DB29A2",1,"0198f781-1c68-7ce1-b6ce-6cb5de3ee107","0198f767-55c9-7875-8d21-563b3c0b86ed","2025-08-29_15h27.07.023",NA,NA,188.0013,188.0013,188.0013,188.3535,NA,NA,NA,NA,NA,NA,NA,TRUE,1,1.2987,185.0005,188.0013,0,21,21,2,1,7,28,NA,NA,NA,NA,NA,1,22,"binary"
"4F8701E5339B4A7FBEB1C68BC4DB29A2",1,"0198f781-1c68-7ce1-b6ce-6cb5de3ee107","0198f767-55c9-7875-8d21-563b3c0b86ed","2025-08-29_15h27.07.023",NA,NA,191.3497,191.3498,191.3498,191.7012,NA,NA,NA,NA,NA,NA,NA,TRUE,2,1.5726,188.3543,191.3497,0,22,22,62,1,50,35,NA,NA,NA,NA,NA,1,23,"binary"
"4F8701E5339B4A7FBEB1C68BC4DB29A2",1,"0198f781-1c68-7ce1-b6ce-6cb5de3ee107","0198f767-55c9-7875-8d21-563b3c0b86ed","2025-08-29_15h27.07.023",NA,NA,194.7041,194.7041,194.7041,195.0493,NA,NA,NA,NA,NA,NA,NA,TRUE,2,1.2624,191.7021,194.7038,0,23,23,95,1,150,54,NA,NA,NA,NA,NA,1,24,"binary"
"4F8701E5339B4A7FBEB1C68BC4DB29A2",1,"0198f781-1c68-7ce1-b6ce-6cb5de3ee107","0198f767-55c9-7875-8d21-563b3c0b86ed","2025-08-29_15h27.07.023",NA,NA,198.0518,198.0518,198.0518,198.4036,NA,NA,NA,NA,NA,NA,NA,TRUE,1,1.5293,195.0506,198.0517,0,24,24,45,1,30,30,NA,NA,NA,NA,NA,1,25,"binary"
"4F8701E5339B4A7FBEB1C68BC4DB29A2",1,"0198f781-1c68-7ce1-b6ce-6cb5de3ee107","0198f767-55c9-7875-8d21-563b3c0b86ed","2025-08-29_15h27.07.023",NA,NA,201.4,201.4,201.4,201.7515,NA,NA,NA,NA,NA,NA,NA,TRUE,1,1.0783,198.4044,201.3999,0,25,25,60,1,50,27,NA,NA,NA,NA,NA,1,26,"binary"
"4F8701E5339B4A7FBEB1C68BC4DB29A2",1,"0198f781-1c68-7ce1-b6ce-6cb5de3ee107","0198f767-55c9-7875-8d21-563b3c0b86ed","2025-08-29_15h27.07.023",NA,NA,204.754,204.754,204.754,205.0996,NA,NA,NA,NA,NA,NA,NA,TRUE,2,0.93,201.7529,204.7539,0,26,26,34,1,25,35,NA,NA,NA,NA,NA,1,27,"binary"
"4F8701E5339B4A7FBEB1C68BC4DB29A2",1,"0198f781-1c68-7ce1-b6ce-6cb5de3ee107","0198f767-55c9-7875-8d21-563b3c0b86ed","2025-08-29_15h27.07.023",NA,NA,208.1025,208.1025,208.1025,208.4541,NA,NA,NA,NA,NA,NA,NA,TRUE,1,1.0197,205.1004,208.1024,0,27,27,1,1,7,26,NA,NA,NA,NA,NA,1,28,"binary"
"4F8701E5339B4A7FBEB1C68BC4DB29A2",1,"0198f781-1c68-7ce1-b6ce-6cb5de3ee107","0198f767-55c9-7875-8d21-563b3c0b86ed","2025-08-29_15h27.07.023",NA,NA,211.4506,211.4507,211.4507,211.8019,NA,NA,NA,NA,NA,NA,NA,TRUE,2,0.8487,208.455,211.4505,0,28,28,58,1,45,40,NA,NA,NA,NA,NA,1,29,"binary"
"4F8701E5339B4A7FBEB1C68BC4DB29A2",1,"0198f781-1c68-7ce1-b6ce-6cb5de3ee107","0198f767-55c9-7875-8d21-563b3c0b86ed","2025-08-29_15h27.07.023",NA,NA,214.7982,214.7982,214.7982,215.15,NA,NA,NA,NA,NA,NA,NA,TRUE,2,0.9764,211.8026,214.7982,0,29,29,77,1,90,54,NA,NA,NA,NA,NA,1,30,"binary"
"4F8701E5339B4A7FBEB1C68BC4DB29A2",1,"0198f781-1c68-7ce1-b6ce-6cb5de3ee107","0198f767-55c9-7875-8d21-563b3c0b86ed","2025-08-29_15h27.07.023",NA,NA,218.1525,218.1526,218.1526,218.4981,NA,NA,NA,NA,NA,NA,NA,TRUE,2,1.0881,215.1508,218.1525,0,30,30,70,1,60,47,NA,NA,NA,NA,NA,1,31,"binary"
"4F8701E5339B4A7FBEB1C68BC4DB29A2",1,"0198f781-1c68-7ce1-b6ce-6cb5de3ee107","0198f767-55c9-7875-8d21-563b3c0b86ed","2025-08-29_15h27.07.023",NA,NA,221.5006,221.5006,221.5007,221.8525,NA,NA,NA,NA,NA,NA,NA,TRUE,1,1.0566,218.4993,221.5005,0,31,31,55,1,45,29,NA,NA,NA,NA,NA,1,32,"binary"
"4F8701E5339B4A7FBEB1C68BC4DB29A2",1,"0198f781-1c68-7ce1-b6ce-6cb5de3ee107","0198f767-55c9-7875-8d21-563b3c0b86ed","2025-08-29_15h27.07.023",NA,NA,224.8487,224.8487,224.8487,225.2004,NA,NA,NA,NA,NA,NA,NA,TRUE,2,0.9703,221.8535,224.8486,0,32,32,5,1,7,35,NA,NA,NA,NA,NA,1,33,"binary"
"4F8701E5339B4A7FBEB1C68BC4DB29A2",1,"0198f781-1c68-7ce1-b6ce-6cb5de3ee107","0198f767-55c9-7875-8d21-563b3c0b86ed","2025-08-29_15h27.07.023",NA,NA,228.2029,228.2029,228.2029,228.5484,NA,NA,NA,NA,NA,NA,NA,TRUE,2,1.1742,225.2013,228.2029,0,33,33,21,1,14,32,NA,NA,NA,NA,NA,1,34,"binary"
"4F8701E5339B4A7FBEB1C68BC4DB29A2",1,"0198f781-1c68-7ce1-b6ce-6cb5de3ee107","0198f767-55c9-7875-8d21-563b3c0b86ed","2025-08-29_15h27.07.023",NA,NA,231.551,231.551,231.551,231.9026,NA,NA,NA,NA,NA,NA,NA,TRUE,2,1.0058,228.5492,231.5509,0,34,34,40,1,28,39,NA,NA,NA,NA,NA,1,35,"binary"
"4F8701E5339B4A7FBEB1C68BC4DB29A2",1,"0198f781-1c68-7ce1-b6ce-6cb5de3ee107","0198f767-55c9-7875-8d21-563b3c0b86ed","2025-08-29_15h27.07.023",NA,NA,234.899,234.8991,234.8991,235.2509,NA,NA,NA,NA,NA,NA,NA,TRUE,1,1.3272,231.9035,234.899,0,35,35,87,1,100,39,NA,NA,NA,NA,NA,1,36,"binary"
"4F8701E5339B4A7FBEB1C68BC4DB29A2",1,"0198f781-1c68-7ce1-b6ce-6cb5de3ee107","0198f767-55c9-7875-8d21-563b3c0b86ed","2025-08-29_15h27.07.023",NA,NA,238.2532,238.2533,238.2533,238.5994,NA,NA,NA,NA,NA,NA,NA,TRUE,2,1.444,235.2523,238.2532,0,36,36,94,1,150,47,NA,NA,NA,NA,NA,1,37,"binary"
"4F8701E5339B4A7FBEB1C68BC4DB29A2",1,"0198f781-1c68-7ce1-b6ce-6cb5de3ee107","0198f767-55c9-7875-8d21-563b3c0b86ed","2025-08-29_15h27.07.023",NA,NA,241.6013,241.6013,241.6013,241.953,NA,NA,NA,NA,NA,NA,NA,TRUE,1,1.0154,238.6002,241.6012,0,37,37,96,1,180,27,NA,NA,NA,NA,NA,1,38,"binary"
"4F8701E5339B4A7FBEB1C68BC4DB29A2",1,"0198f781-1c68-7ce1-b6ce-6cb5de3ee107","0198f767-55c9-7875-8d21-563b3c0b86ed","2025-08-29_15h27.07.023",NA,NA,244.9495,244.9495,244.9495,245.3011,NA,NA,NA,NA,NA,NA,NA,TRUE,2,0.9051,241.9538,244.9495,0,38,38,63,1,50,40,NA,NA,NA,NA,NA,1,39,"binary"
"4F8701E5339B4A7FBEB1C68BC4DB29A2",1,"0198f781-1c68-7ce1-b6ce-6cb5de3ee107","0198f767-55c9-7875-8d21-563b3c0b86ed","2025-08-29_15h27.07.023",NA,NA,248.3038,248.3038,248.3038,248.6492,NA,NA,NA,NA,NA,NA,NA,TRUE,2,0.9474,245.3019,248.3037,0,39,39,23,1,14,39,NA,NA,NA,NA,NA,1,40,"binary"
"4F8701E5339B4A7FBEB1C68BC4DB29A2",1,"0198f781-1c68-7ce1-b6ce-6cb5de3ee107","0198f767-55c9-7875-8d21-563b3c0b86ed","2025-08-29_15h27.07.023",NA,NA,251.6517,251.6517,251.6517,252.0033,NA,NA,NA,NA,NA,NA,NA,TRUE,2,1.0807,248.6501,251.6517,0,40,40,17,1,12,35,NA,NA,NA,NA,NA,1,41,"binary"
"4F8701E5339B4A7FBEB1C68BC4DB29A2",1,"0198f781-1c68-7ce1-b6ce-6cb5de3ee107","0198f767-55c9-7875-8d21-563b3c0b86ed","2025-08-29_15h27.07.023",NA,NA,255.0001,255.0001,255.0001,255.3515,NA,NA,NA,NA,NA,NA,NA,TRUE,1,1.2449,252.004,254.9999,0,41,41,104,1,200,35,NA,NA,NA,NA,NA,1,42,"binary"
"4F8701E5339B4A7FBEB1C68BC4DB29A2",1,"0198f781-1c68-7ce1-b6ce-6cb5de3ee107","0198f767-55c9-7875-8d21-563b3c0b86ed","2025-08-29_15h27.07.023",NA,NA,258.3538,258.3539,258.3539,258.6996,NA,NA,NA,NA,NA,NA,NA,TRUE,1,1.1244,255.3523,258.3538,0,42,42,105,1,200,39,NA,NA,NA,NA,NA,1,43,"binary"
"4F8701E5339B4A7FBEB1C68BC4DB29A2",1,"0198f781-1c68-7ce1-b6ce-6cb5de3ee107","0198f767-55c9-7875-8d21-563b3c0b86ed","2025-08-29_15h27.07.023",NA,NA,261.702,261.7021,261.7021,262.0537,NA,NA,NA,NA,NA,NA,NA,TRUE,1,1.0213,258.7003,261.702,0,43,43,99,1,180,39,NA,NA,NA,NA,NA,1,44,"binary"
"4F8701E5339B4A7FBEB1C68BC4DB29A2",1,"0198f781-1c68-7ce1-b6ce-6cb5de3ee107","0198f767-55c9-7875-8d21-563b3c0b86ed","2025-08-29_15h27.07.023",NA,NA,265.0505,265.0505,265.0505,265.4021,NA,NA,NA,NA,NA,NA,NA,TRUE,1,1.0702,262.0544,265.0503,0,44,44,56,1,45,31,NA,NA,NA,NA,NA,1,45,"binary"
"4F8701E5339B4A7FBEB1C68BC4DB29A2",1,"0198f781-1c68-7ce1-b6ce-6cb5de3ee107","0198f767-55c9-7875-8d21-563b3c0b86ed","2025-08-29_15h27.07.023",NA,NA,268.3988,268.3989,268.3989,268.7501,NA,NA,NA,NA,NA,NA,NA,TRUE,2,1.2824,265.403,268.3986,0,45,45,28,1,21,32,NA,NA,NA,NA,NA,1,46,"binary"
"4F8701E5339B4A7FBEB1C68BC4DB29A2",1,"0198f781-1c68-7ce1-b6ce-6cb5de3ee107","0198f767-55c9-7875-8d21-563b3c0b86ed","2025-08-29_15h27.07.023",NA,NA,271.7526,271.7526,271.7526,272.0981,NA,NA,NA,NA,NA,NA,NA,TRUE,2,1.0863,268.7509,271.7524,0,46,46,88,1,100,46,NA,NA,NA,NA,NA,1,47,"binary"
"4F8701E5339B4A7FBEB1C68BC4DB29A2",1,"0198f781-1c68-7ce1-b6ce-6cb5de3ee107","0198f767-55c9-7875-8d21-563b3c0b86ed","2025-08-29_15h27.07.023",NA,NA,275.1005,275.1005,275.1005,275.4522,NA,NA,NA,NA,NA,NA,NA,TRUE,1,0.8371,272.0988,275.1004,0,47,47,72,1,90,26,NA,NA,NA,NA,NA,1,48,"binary"
"4F8701E5339B4A7FBEB1C68BC4DB29A2",1,"0198f781-1c68-7ce1-b6ce-6cb5de3ee107","0198f767-55c9-7875-8d21-563b3c0b86ed","2025-08-29_15h27.07.023",NA,NA,278.4485,278.4485,278.4485,278.8002,NA,NA,NA,NA,NA,NA,NA,TRUE,1,0.9709,275.4535,278.4484,0,48,48,24,1,21,26,NA,NA,NA,NA,NA,1,49,"binary"
"4F8701E5339B4A7FBEB1C68BC4DB29A2",1,"0198f781-1c68-7ce1-b6ce-6cb5de3ee107","0198f767-55c9-7875-8d21-563b3c0b86ed","2025-08-29_15h27.07.023",NA,NA,281.8031,281.8032,281.8032,282.1487,NA,NA,NA,NA,NA,NA,NA,TRUE,2,0.8861,278.8012,281.8029,0,49,49,69,1,60,40,NA,NA,NA,NA,NA,1,50,"binary"
"4F8701E5339B4A7FBEB1C68BC4DB29A2",1,"0198f781-1c68-7ce1-b6ce-6cb5de3ee107","0198f767-55c9-7875-8d21-563b3c0b86ed","2025-08-29_15h27.07.023",NA,NA,285.1507,285.1508,285.1508,285.5024,NA,NA,NA,NA,NA,NA,NA,TRUE,2,1.1478,282.1498,285.1507,0,50,50,39,1,28,35,NA,NA,NA,NA,NA,1,51,"binary"
"4F8701E5339B4A7FBEB1C68BC4DB29A2",1,"0198f781-1c68-7ce1-b6ce-6cb5de3ee107","0198f767-55c9-7875-8d21-563b3c0b86ed","2025-08-29_15h27.07.023",NA,NA,288.4988,288.4988,288.4988,288.8507,NA,NA,NA,NA,NA,NA,NA,TRUE,2,1.0232,285.5032,288.4988,0,51,51,82,1,95,47,NA,NA,NA,NA,NA,1,52,"binary"
"4F8701E5339B4A7FBEB1C68BC4DB29A2",1,"0198f781-1c68-7ce1-b6ce-6cb5de3ee107","0198f767-55c9-7875-8d21-563b3c0b86ed","2025-08-29_15h27.07.023",NA,NA,291.853,291.853,291.853,292.1991,NA,NA,NA,NA,NA,NA,NA,TRUE,2,1.1468,288.8515,291.8529,0,52,52,53,1,40,54,NA,NA,NA,NA,NA,1,53,"binary"
"4F8701E5339B4A7FBEB1C68BC4DB29A2",1,"0198f781-1c68-7ce1-b6ce-6cb5de3ee107","0198f767-55c9-7875-8d21-563b3c0b86ed","2025-08-29_15h27.07.023",NA,NA,295.2012,295.2013,295.2013,295.5529,NA,NA,NA,NA,NA,NA,NA,TRUE,2,1.5017,292.2001,295.2012,0,53,53,100,1,180,46,NA,NA,NA,NA,NA,1,54,"binary"
"4F8701E5339B4A7FBEB1C68BC4DB29A2",1,"0198f781-1c68-7ce1-b6ce-6cb5de3ee107","0198f767-55c9-7875-8d21-563b3c0b86ed","2025-08-29_15h27.07.023",NA,NA,298.5492,298.5492,298.5493,298.901,NA,NA,NA,NA,NA,NA,NA,TRUE,2,1.0021,295.5536,298.5492,0,54,54,52,1,40,47,NA,NA,NA,NA,NA,1,55,"binary"
"4F8701E5339B4A7FBEB1C68BC4DB29A2",1,"0198f781-1c68-7ce1-b6ce-6cb5de3ee107","0198f767-55c9-7875-8d21-563b3c0b86ed","2025-08-29_15h27.07.023",NA,NA,301.9039,301.9039,301.9039,302.2492,NA,NA,NA,NA,NA,NA,NA,TRUE,1,1.7204,298.9019,301.9036,0,55,55,86,1,100,38,NA,NA,NA,NA,NA,1,56,"binary"
"4F8701E5339B4A7FBEB1C68BC4DB29A2",1,"0198f781-1c68-7ce1-b6ce-6cb5de3ee107","0198f767-55c9-7875-8d21-563b3c0b86ed","2025-08-29_15h27.07.023",NA,NA,305.2515,305.2516,305.2516,305.6033,NA,NA,NA,NA,NA,NA,NA,TRUE,2,1.8176,302.2501,305.2514,0,56,56,38,1,28,32,NA,NA,NA,NA,NA,1,57,"binary"
"4F8701E5339B4A7FBEB1C68BC4DB29A2",1,"0198f781-1c68-7ce1-b6ce-6cb5de3ee107","0198f767-55c9-7875-8d21-563b3c0b86ed","2025-08-29_15h27.07.023",NA,NA,308.5996,308.5996,308.5996,308.9513,NA,NA,NA,NA,NA,NA,NA,TRUE,2,1.5067,305.6042,308.5995,0,57,57,46,1,30,32,NA,NA,NA,NA,NA,1,58,"binary"
"4F8701E5339B4A7FBEB1C68BC4DB29A2",1,"0198f781-1c68-7ce1-b6ce-6cb5de3ee107","0198f767-55c9-7875-8d21-563b3c0b86ed","2025-08-29_15h27.07.023",NA,NA,311.9537,311.9538,311.9538,312.2995,NA,NA,NA,NA,NA,NA,NA,TRUE,2,1.2995,308.9523,311.9537,0,58,58,41,1,28,46,NA,NA,NA,NA,NA,1,59,"binary"
"4F8701E5339B4A7FBEB1C68BC4DB29A2",1,"0198f781-1c68-7ce1-b6ce-6cb5de3ee107","0198f767-55c9-7875-8d21-563b3c0b86ed","2025-08-29_15h27.07.023",NA,NA,315.3024,315.3024,315.3024,315.6535,NA,NA,NA,NA,NA,NA,NA,TRUE,1,1.5333,312.3001,315.3022,0,59,59,37,1,28,28,NA,NA,NA,NA,NA,1,60,"binary"
"4F8701E5339B4A7FBEB1C68BC4DB29A2",1,"0198f781-1c68-7ce1-b6ce-6cb5de3ee107","0198f767-55c9-7875-8d21-563b3c0b86ed","2025-08-29_15h27.07.023",NA,NA,318.6501,318.6501,318.6502,319.002,NA,NA,NA,NA,NA,NA,NA,TRUE,2,0.9434,315.6543,318.65,0,60,60,22,1,14,35,NA,NA,NA,NA,NA,1,61,"binary"
"4F8701E5339B4A7FBEB1C68BC4DB29A2",1,"0198f781-1c68-7ce1-b6ce-6cb5de3ee107","0198f767-55c9-7875-8d21-563b3c0b86ed","2025-08-29_15h27.07.023",NA,NA,322.0043,322.0043,322.0043,322.3499,NA,NA,NA,NA,NA,NA,NA,TRUE,2,1.4085,319.0033,322.0042,0,61,61,3,1,7,30,NA,NA,NA,NA,NA,1,62,"binary"
"4F8701E5339B4A7FBEB1C68BC4DB29A2",1,"0198f781-1c68-7ce1-b6ce-6cb5de3ee107","0198f767-55c9-7875-8d21-563b3c0b86ed","2025-08-29_15h27.07.023",NA,NA,325.3525,325.3525,325.3525,325.6983,NA,NA,NA,NA,NA,NA,NA,TRUE,2,1.6968,322.3506,325.3524,0,62,62,11,1,10,32,NA,NA,NA,NA,NA,1,63,"binary"
"4F8701E5339B4A7FBEB1C68BC4DB29A2",1,"0198f781-1c68-7ce1-b6ce-6cb5de3ee107","0198f767-55c9-7875-8d21-563b3c0b86ed","2025-08-29_15h27.07.023",NA,NA,328.7004,328.7004,328.7004,329.0524,NA,NA,NA,NA,NA,NA,NA,TRUE,1,1.6539,325.6993,328.7003,0,63,63,61,1,50,30,NA,NA,NA,NA,NA,1,64,"binary"
"4F8701E5339B4A7FBEB1C68BC4DB29A2",1,"0198f781-1c68-7ce1-b6ce-6cb5de3ee107","0198f767-55c9-7875-8d21-563b3c0b86ed","2025-08-29_15h27.07.023",NA,NA,332.0485,332.0485,332.0485,332.4002,NA,NA,NA,NA,NA,NA,NA,TRUE,1,0.8736,329.0536,332.0485,0,64,64,30,1,25,27,NA,NA,NA,NA,NA,1,65,"binary"
"4F8701E5339B4A7FBEB1C68BC4DB29A2",1,"0198f781-1c68-7ce1-b6ce-6cb5de3ee107","0198f767-55c9-7875-8d21-563b3c0b86ed","2025-08-29_15h27.07.023",NA,NA,335.4027,335.4027,335.4027,335.7483,NA,NA,NA,NA,NA,NA,NA,TRUE,2,1.0721,332.4014,335.4026,0,65,65,57,1,45,35,NA,NA,NA,NA,NA,1,66,"binary"
"4F8701E5339B4A7FBEB1C68BC4DB29A2",1,"0198f781-1c68-7ce1-b6ce-6cb5de3ee107","0198f767-55c9-7875-8d21-563b3c0b86ed","2025-08-29_15h27.07.023",NA,NA,338.7507,338.7508,338.7508,339.1024,NA,NA,NA,NA,NA,NA,NA,TRUE,1,0.784,335.7489,338.7507,0,66,66,7,1,10,26,NA,NA,NA,NA,NA,1,67,"binary"
"4F8701E5339B4A7FBEB1C68BC4DB29A2",1,"0198f781-1c68-7ce1-b6ce-6cb5de3ee107","0198f767-55c9-7875-8d21-563b3c0b86ed","2025-08-29_15h27.07.023",NA,NA,342.0988,342.0989,342.0989,342.4505,NA,NA,NA,NA,NA,NA,NA,TRUE,1,0.8975,339.1037,342.0988,0,67,67,43,1,30,27,NA,NA,NA,NA,NA,1,68,"binary"
"4F8701E5339B4A7FBEB1C68BC4DB29A2",1,"0198f781-1c68-7ce1-b6ce-6cb5de3ee107","0198f767-55c9-7875-8d21-563b3c0b86ed","2025-08-29_15h27.07.023",NA,NA,345.4529,345.4529,345.4529,345.7994,NA,NA,NA,NA,NA,NA,NA,TRUE,1,1.0182,342.4513,345.4528,0,68,68,19,1,14,26,NA,NA,NA,NA,NA,1,69,"binary"
"4F8701E5339B4A7FBEB1C68BC4DB29A2",1,"0198f781-1c68-7ce1-b6ce-6cb5de3ee107","0198f767-55c9-7875-8d21-563b3c0b86ed","2025-08-29_15h27.07.023",NA,NA,348.8012,348.8013,348.8013,349.1529,NA,NA,NA,NA,NA,NA,NA,TRUE,2,1.9693,345.8004,348.8012,0,69,69,31,1,25,29,NA,NA,NA,NA,NA,1,70,"binary"
"4F8701E5339B4A7FBEB1C68BC4DB29A2",1,"0198f781-1c68-7ce1-b6ce-6cb5de3ee107","0198f767-55c9-7875-8d21-563b3c0b86ed","2025-08-29_15h27.07.023",NA,NA,352.1492,352.1492,352.1492,352.5009,NA,NA,NA,NA,NA,NA,NA,TRUE,1,2.1149,349.1536,352.1491,0,70,70,92,1,150,35,NA,NA,NA,NA,NA,1,71,"binary"
"4F8701E5339B4A7FBEB1C68BC4DB29A2",1,"0198f781-1c68-7ce1-b6ce-6cb5de3ee107","0198f767-55c9-7875-8d21-563b3c0b86ed","2025-08-29_15h27.07.023",NA,NA,355.5039,355.5039,355.5039,355.8491,NA,NA,NA,NA,NA,NA,NA,TRUE,2,2.2718,352.5016,355.5037,0,71,71,49,1,40,33,NA,NA,NA,NA,NA,1,72,"binary"
"4F8701E5339B4A7FBEB1C68BC4DB29A2",1,"0198f781-1c68-7ce1-b6ce-6cb5de3ee107","0198f767-55c9-7875-8d21-563b3c0b86ed","2025-08-29_15h27.07.023",NA,NA,358.8515,358.8515,358.8515,359.2032,NA,NA,NA,NA,NA,NA,NA,TRUE,2,1.3394,355.8498,358.8514,0,72,72,83,1,95,54,NA,NA,NA,NA,NA,1,73,"binary"
"4F8701E5339B4A7FBEB1C68BC4DB29A2",1,"0198f781-1c68-7ce1-b6ce-6cb5de3ee107","0198f767-55c9-7875-8d21-563b3c0b86ed","2025-08-29_15h27.07.023",NA,NA,362.1996,362.1996,362.1996,362.5513,NA,NA,NA,NA,NA,NA,NA,TRUE,1,1.0482,359.2043,362.1995,0,73,73,66,1,60,29,NA,NA,NA,NA,NA,1,74,"binary"
"4F8701E5339B4A7FBEB1C68BC4DB29A2",1,"0198f781-1c68-7ce1-b6ce-6cb5de3ee107","0198f767-55c9-7875-8d21-563b3c0b86ed","2025-08-29_15h27.07.023",NA,NA,365.5537,365.5537,365.5537,365.8995,NA,NA,NA,NA,NA,NA,NA,TRUE,1,1.382,362.552,365.5536,0,74,74,79,1,95,33,NA,NA,NA,NA,NA,1,75,"binary"
"4F8701E5339B4A7FBEB1C68BC4DB29A2",1,"0198f781-1c68-7ce1-b6ce-6cb5de3ee107","0198f767-55c9-7875-8d21-563b3c0b86ed","2025-08-29_15h27.07.023",NA,NA,368.9019,368.9019,368.9019,369.2536,NA,NA,NA,NA,NA,NA,NA,TRUE,1,0.8086,365.9003,368.9017,0,75,75,102,1,200,26,NA,NA,NA,NA,NA,1,76,"binary"
"4F8701E5339B4A7FBEB1C68BC4DB29A2",1,"0198f781-1c68-7ce1-b6ce-6cb5de3ee107","0198f767-55c9-7875-8d21-563b3c0b86ed","2025-08-29_15h27.07.023",NA,NA,372.2499,372.2499,372.2499,372.6017,NA,NA,NA,NA,NA,NA,NA,TRUE,1,1.0081,369.2543,372.2498,0,76,76,84,1,100,26,NA,NA,NA,NA,NA,1,77,"binary"
"4F8701E5339B4A7FBEB1C68BC4DB29A2",1,"0198f781-1c68-7ce1-b6ce-6cb5de3ee107","0198f767-55c9-7875-8d21-563b3c0b86ed","2025-08-29_15h27.07.023",NA,NA,375.604,375.6041,375.6041,375.9497,NA,NA,NA,NA,NA,NA,NA,TRUE,2,1.0118,372.6026,375.604,0,77,77,15,1,12,31,NA,NA,NA,NA,NA,1,78,"binary"
"4F8701E5339B4A7FBEB1C68BC4DB29A2",1,"0198f781-1c68-7ce1-b6ce-6cb5de3ee107","0198f767-55c9-7875-8d21-563b3c0b86ed","2025-08-29_15h27.07.023",NA,NA,378.9522,378.9522,378.9522,379.3039,NA,NA,NA,NA,NA,NA,NA,TRUE,2,1.3741,375.9504,378.9522,0,78,78,16,1,12,33,NA,NA,NA,NA,NA,1,79,"binary"
"4F8701E5339B4A7FBEB1C68BC4DB29A2",1,"0198f781-1c68-7ce1-b6ce-6cb5de3ee107","0198f767-55c9-7875-8d21-563b3c0b86ed","2025-08-29_15h27.07.023",NA,NA,382.3003,382.3003,382.3004,382.6522,NA,NA,NA,NA,NA,NA,NA,TRUE,1,1.0638,379.3048,382.3003,0,79,79,20,1,14,28,NA,NA,NA,NA,NA,1,80,"binary"
"4F8701E5339B4A7FBEB1C68BC4DB29A2",1,"0198f781-1c68-7ce1-b6ce-6cb5de3ee107","0198f767-55c9-7875-8d21-563b3c0b86ed","2025-08-29_15h27.07.023",NA,NA,385.6484,385.6484,385.6484,386.0001,NA,NA,NA,NA,NA,NA,NA,TRUE,1,0.9706,382.6529,385.6483,0,80,80,36,1,28,26,NA,NA,NA,NA,NA,1,81,"binary"
"4F8701E5339B4A7FBEB1C68BC4DB29A2",1,"0198f781-1c68-7ce1-b6ce-6cb5de3ee107","0198f767-55c9-7875-8d21-563b3c0b86ed","2025-08-29_15h27.07.023",NA,NA,389.003,389.003,389.003,389.3486,NA,NA,NA,NA,NA,NA,NA,TRUE,1,1.384,386.0009,389.0028,0,81,81,27,1,21,30,NA,NA,NA,NA,NA,1,82,"binary"
"4F8701E5339B4A7FBEB1C68BC4DB29A2",1,"0198f781-1c68-7ce1-b6ce-6cb5de3ee107","0198f767-55c9-7875-8d21-563b3c0b86ed","2025-08-29_15h27.07.023",NA,NA,392.3506,392.3506,392.3506,392.7027,NA,NA,NA,NA,NA,NA,NA,TRUE,2,0.9012,389.3497,392.3505,0,82,82,75,1,90,40,NA,NA,NA,NA,NA,1,83,"binary"
"4F8701E5339B4A7FBEB1C68BC4DB29A2",1,"0198f781-1c68-7ce1-b6ce-6cb5de3ee107","0198f767-55c9-7875-8d21-563b3c0b86ed","2025-08-29_15h27.07.023",NA,NA,395.6989,395.6989,395.6989,396.0505,NA,NA,NA,NA,NA,NA,NA,TRUE,1,1.2106,392.7035,395.6989,0,83,83,26,1,21,29,NA,NA,NA,NA,NA,1,84,"binary"
"4F8701E5339B4A7FBEB1C68BC4DB29A2",1,"0198f781-1c68-7ce1-b6ce-6cb5de3ee107","0198f767-55c9-7875-8d21-563b3c0b86ed","2025-08-29_15h27.07.023",NA,NA,399.0528,399.0528,399.0528,399.3987,NA,NA,NA,NA,NA,NA,NA,TRUE,2,1.9237,396.0512,399.0528,0,84,84,101,1,180,54,NA,NA,NA,NA,NA,1,85,"binary"
"4F8701E5339B4A7FBEB1C68BC4DB29A2",1,"0198f781-1c68-7ce1-b6ce-6cb5de3ee107","0198f767-55c9-7875-8d21-563b3c0b86ed","2025-08-29_15h27.07.023",NA,NA,402.4013,402.4013,402.4013,402.7526,NA,NA,NA,NA,NA,NA,NA,TRUE,1,1.1168,399.3994,402.4012,0,85,85,13,1,12,26,NA,NA,NA,NA,NA,1,86,"binary"
"4F8701E5339B4A7FBEB1C68BC4DB29A2",1,"0198f781-1c68-7ce1-b6ce-6cb5de3ee107","0198f767-55c9-7875-8d21-563b3c0b86ed","2025-08-29_15h27.07.023",NA,NA,405.7491,405.7491,405.7491,406.1009,NA,NA,NA,NA,NA,NA,NA,TRUE,1,1.0561,402.7534,405.749,0,86,86,54,1,45,26,NA,NA,NA,NA,NA,1,87,"binary"
"4F8701E5339B4A7FBEB1C68BC4DB29A2",1,"0198f781-1c68-7ce1-b6ce-6cb5de3ee107","0198f767-55c9-7875-8d21-563b3c0b86ed","2025-08-29_15h27.07.023",NA,NA,409.1032,409.1033,409.1033,409.4489,NA,NA,NA,NA,NA,NA,NA,TRUE,1,1.4146,406.1015,409.1032,0,87,87,6,1,10,25,NA,NA,NA,NA,NA,1,88,"binary"
"4F8701E5339B4A7FBEB1C68BC4DB29A2",1,"0198f781-1c68-7ce1-b6ce-6cb5de3ee107","0198f767-55c9-7875-8d21-563b3c0b86ed","2025-08-29_15h27.07.023",NA,NA,412.4517,412.4518,412.4518,412.803,NA,NA,NA,NA,NA,NA,NA,TRUE,2,1.0667,409.4495,412.4516,0,88,88,10,1,10,30,NA,NA,NA,NA,NA,1,89,"binary"
"4F8701E5339B4A7FBEB1C68BC4DB29A2",1,"0198f781-1c68-7ce1-b6ce-6cb5de3ee107","0198f767-55c9-7875-8d21-563b3c0b86ed","2025-08-29_15h27.07.023",NA,NA,415.7999,415.7999,415.7999,416.1512,NA,NA,NA,NA,NA,NA,NA,TRUE,2,0.9271,412.8038,415.7998,0,89,89,68,1,60,35,NA,NA,NA,NA,NA,1,90,"binary"
"4F8701E5339B4A7FBEB1C68BC4DB29A2",1,"0198f781-1c68-7ce1-b6ce-6cb5de3ee107","0198f767-55c9-7875-8d21-563b3c0b86ed","2025-08-29_15h27.07.023",NA,NA,419.1542,419.1542,419.1542,419.4993,NA,NA,NA,NA,NA,NA,NA,TRUE,2,0.8384,416.1521,419.154,0,90,90,35,1,25,46,NA,NA,NA,NA,NA,1,91,"binary"
"4F8701E5339B4A7FBEB1C68BC4DB29A2",1,"0198f781-1c68-7ce1-b6ce-6cb5de3ee107","0198f767-55c9-7875-8d21-563b3c0b86ed","2025-08-29_15h27.07.023",NA,NA,422.5016,422.5016,422.5016,422.8534,NA,NA,NA,NA,NA,NA,NA,TRUE,1,0.9955,419.5,422.5016,0,91,91,25,1,21,27,NA,NA,NA,NA,NA,1,92,"binary"
"4F8701E5339B4A7FBEB1C68BC4DB29A2",1,"0198f781-1c68-7ce1-b6ce-6cb5de3ee107","0198f767-55c9-7875-8d21-563b3c0b86ed","2025-08-29_15h27.07.023",NA,NA,425.8499,425.8499,425.8499,426.2015,NA,NA,NA,NA,NA,NA,NA,TRUE,2,1.1051,422.8541,425.8498,0,92,92,29,1,21,38,NA,NA,NA,NA,NA,1,93,"binary"
"4F8701E5339B4A7FBEB1C68BC4DB29A2",1,"0198f781-1c68-7ce1-b6ce-6cb5de3ee107","0198f767-55c9-7875-8d21-563b3c0b86ed","2025-08-29_15h27.07.023",NA,NA,429.2043,429.2043,429.2043,429.5496,NA,NA,NA,NA,NA,NA,NA,TRUE,2,1.6087,426.2024,429.2042,0,93,93,14,1,12,28,NA,NA,NA,NA,NA,1,94,"binary"
"4F8701E5339B4A7FBEB1C68BC4DB29A2",1,"0198f781-1c68-7ce1-b6ce-6cb5de3ee107","0198f767-55c9-7875-8d21-563b3c0b86ed","2025-08-29_15h27.07.023",NA,NA,432.5521,432.5521,432.5521,432.9039,NA,NA,NA,NA,NA,NA,NA,TRUE,2,1.4655,429.5503,432.552,0,94,94,81,1,95,40,NA,NA,NA,NA,NA,1,95,"binary"
"4F8701E5339B4A7FBEB1C68BC4DB29A2",1,"0198f781-1c68-7ce1-b6ce-6cb5de3ee107","0198f767-55c9-7875-8d21-563b3c0b86ed","2025-08-29_15h27.07.023",NA,NA,435.9002,435.9002,435.9002,436.2519,NA,NA,NA,NA,NA,NA,NA,TRUE,1,1.6606,432.9045,435.9001,0,95,95,106,1,200,47,NA,NA,NA,NA,NA,1,96,"binary"
"4F8701E5339B4A7FBEB1C68BC4DB29A2",1,"0198f781-1c68-7ce1-b6ce-6cb5de3ee107","0198f767-55c9-7875-8d21-563b3c0b86ed","2025-08-29_15h27.07.023",NA,NA,439.2482,439.2482,439.2482,439.6,NA,NA,NA,NA,NA,NA,NA,TRUE,2,1.0543,436.2528,439.2482,0,96,96,64,1,50,46,NA,NA,NA,NA,NA,1,97,"binary"
"4F8701E5339B4A7FBEB1C68BC4DB29A2",1,"0198f781-1c68-7ce1-b6ce-6cb5de3ee107","0198f767-55c9-7875-8d21-563b3c0b86ed","2025-08-29_15h27.07.023",NA,NA,442.6023,442.6023,442.6023,442.9481,NA,NA,NA,NA,NA,NA,NA,TRUE,2,1.1721,439.6007,442.6022,0,97,97,71,1,60,54,NA,NA,NA,NA,NA,1,98,"binary"
"4F8701E5339B4A7FBEB1C68BC4DB29A2",1,"0198f781-1c68-7ce1-b6ce-6cb5de3ee107","0198f767-55c9-7875-8d21-563b3c0b86ed","2025-08-29_15h27.07.023",NA,NA,445.9505,445.9505,445.9505,446.3023,NA,NA,NA,NA,NA,NA,NA,TRUE,1,1.0174,442.949,445.9505,0,98,98,8,1,10,27,NA,NA,NA,NA,NA,1,99,"binary"
"4F8701E5339B4A7FBEB1C68BC4DB29A2",1,"0198f781-1c68-7ce1-b6ce-6cb5de3ee107","0198f767-55c9-7875-8d21-563b3c0b86ed","2025-08-29_15h27.07.023",NA,NA,449.2987,449.2987,449.2987,449.6502,NA,NA,NA,NA,NA,NA,NA,TRUE,1,1.0786,446.3029,449.2986,0,99,99,97,1,180,31,NA,NA,NA,NA,NA,1,100,"binary"
"4F8701E5339B4A7FBEB1C68BC4DB29A2",1,"0198f781-1c68-7ce1-b6ce-6cb5de3ee107","0198f767-55c9-7875-8d21-563b3c0b86ed","2025-08-29_15h27.07.023",NA,NA,452.6527,452.6528,452.6528,452.9985,NA,NA,NA,NA,NA,NA,NA,TRUE,1,0.8605,449.651,452.6527,0,100,100,0,1,7,25,NA,NA,NA,NA,NA,1,101,"binary"
"4F8701E5339B4A7FBEB1C68BC4DB29A2",1,"0198f781-1c68-7ce1-b6ce-6cb5de3ee107","0198f767-55c9-7875-8d21-563b3c0b86ed","2025-08-29_15h27.07.023",NA,NA,456.001,456.001,456.001,456.3526,NA,NA,NA,NA,NA,NA,NA,TRUE,1,1.4529,453.0002,456.0008,0,101,101,93,1,150,40,NA,NA,NA,NA,NA,1,102,"binary"
"4F8701E5339B4A7FBEB1C68BC4DB29A2",1,"0198f781-1c68-7ce1-b6ce-6cb5de3ee107","0198f767-55c9-7875-8d21-563b3c0b86ed","2025-08-29_15h27.07.023",NA,NA,459.3494,459.3495,459.3495,459.7007,NA,NA,NA,NA,NA,NA,NA,TRUE,2,1.0567,456.3532,459.3493,0,102,102,67,1,60,33,NA,NA,NA,NA,NA,1,103,"binary"
"4F8701E5339B4A7FBEB1C68BC4DB29A2",1,"0198f781-1c68-7ce1-b6ce-6cb5de3ee107","0198f767-55c9-7875-8d21-563b3c0b86ed","2025-08-29_15h27.07.023",NA,NA,462.7032,462.7032,462.7032,463.0489,NA,NA,NA,NA,NA,NA,NA,TRUE,1,2.005,459.7015,462.7031,0,103,103,73,1,90,30,NA,NA,NA,NA,NA,1,104,"binary"
"4F8701E5339B4A7FBEB1C68BC4DB29A2",1,"0198f781-1c68-7ce1-b6ce-6cb5de3ee107","0198f767-55c9-7875-8d21-563b3c0b86ed","2025-08-29_15h27.07.023",NA,NA,466.0514,466.0514,466.0514,466.4029,NA,NA,NA,NA,NA,NA,NA,TRUE,2,1.1538,463.0496,466.0513,0,104,104,50,1,40,35,NA,NA,NA,NA,NA,1,105,"binary"
"4F8701E5339B4A7FBEB1C68BC4DB29A2",1,"0198f781-1c68-7ce1-b6ce-6cb5de3ee107","0198f767-55c9-7875-8d21-563b3c0b86ed","2025-08-29_15h27.07.023",NA,NA,469.3997,469.3998,469.3998,469.7511,NA,NA,NA,NA,NA,NA,NA,TRUE,2,1.1995,466.4036,469.3996,0,105,105,59,1,45,46,NA,NA,NA,NA,NA,1,106,"binary"
"4F8701E5339B4A7FBEB1C68BC4DB29A2",1,"0198f781-1c68-7ce1-b6ce-6cb5de3ee107","0198f767-55c9-7875-8d21-563b3c0b86ed","2025-08-29_15h27.07.023",NA,NA,472.7536,472.7536,472.7536,473.0992,NA,NA,NA,NA,NA,NA,NA,TRUE,1,0.9801,469.7518,472.7535,0,106,106,80,1,95,35,NA,NA,NA,NA,NA,1,107,"binary"
"4F8701E5339B4A7FBEB1C68BC4DB29A2",1,"0198f781-1c68-7ce1-b6ce-6cb5de3ee107","0198f767-55c9-7875-8d21-563b3c0b86ed","2025-08-29_15h27.07.023",NA,NA,476.1015,476.1016,476.1016,476.4533,NA,NA,NA,NA,NA,NA,NA,TRUE,1,1.2739,473.1,476.1014,0,107,107,78,1,95,31,NA,NA,NA,NA,NA,1,108,"binary"
"4F8701E5339B4A7FBEB1C68BC4DB29A2",1,"0198f781-1c68-7ce1-b6ce-6cb5de3ee107","0198f767-55c9-7875-8d21-563b3c0b86ed","2025-08-29_15h27.07.023",NA,NA,482.6648,482.6648,482.6648,483.0161,NA,NA,NA,NA,NA,NA,NA,TRUE,1,2.2789,479.6779,482.6646,NA,NA,NA,NA,NA,28,26,0,0,0,36,1,2,1,"binary"
"4F8701E5339B4A7FBEB1C68BC4DB29A2",1,"0198f781-1c68-7ce1-b6ce-6cb5de3ee107","0198f767-55c9-7875-8d21-563b3c0b86ed","2025-08-29_15h27.07.023",NA,NA,486.0186,486.0187,486.0187,486.3641,NA,NA,NA,NA,NA,NA,NA,TRUE,2,1.7601,483.0171,486.0186,NA,NA,NA,NA,NA,14,32,0,1,1,21,1,2,2,"binary"
"4F8701E5339B4A7FBEB1C68BC4DB29A2",1,"0198f781-1c68-7ce1-b6ce-6cb5de3ee107","0198f767-55c9-7875-8d21-563b3c0b86ed","2025-08-29_15h27.07.023",NA,NA,489.3666,489.3666,489.3666,489.7184,NA,NA,NA,NA,NA,NA,NA,TRUE,1,1.074,486.3648,489.3666,NA,NA,NA,NA,NA,21,26,0,2,2,24,1,2,3,"binary"
"4F8701E5339B4A7FBEB1C68BC4DB29A2",1,"0198f781-1c68-7ce1-b6ce-6cb5de3ee107","0198f767-55c9-7875-8d21-563b3c0b86ed","2025-08-29_15h27.07.023",NA,NA,492.7148,492.7148,492.7148,493.0664,NA,NA,NA,NA,NA,NA,NA,TRUE,2,1.1779,489.719,492.7147,NA,NA,NA,NA,NA,25,46,0,3,3,35,1,2,4,"binary"
"4F8701E5339B4A7FBEB1C68BC4DB29A2",1,"0198f781-1c68-7ce1-b6ce-6cb5de3ee107","0198f767-55c9-7875-8d21-563b3c0b86ed","2025-08-29_15h27.07.023",NA,NA,496.0692,496.0692,496.0692,496.4147,NA,NA,NA,NA,NA,NA,NA,TRUE,1,1.5525,493.0675,496.0691,NA,NA,NA,NA,NA,12,26,0,4,4,13,1,2,5,"binary"
"4F8701E5339B4A7FBEB1C68BC4DB29A2",1,"0198f781-1c68-7ce1-b6ce-6cb5de3ee107","0198f767-55c9-7875-8d21-563b3c0b86ed","2025-08-29_15h27.07.023",NA,NA,499.417,499.417,499.417,499.7687,NA,NA,NA,NA,NA,NA,NA,TRUE,2,2.0291,496.4152,499.4169,NA,NA,NA,NA,NA,30,29,0,5,5,44,1,2,6,"binary"
"4F8701E5339B4A7FBEB1C68BC4DB29A2",1,"0198f781-1c68-7ce1-b6ce-6cb5de3ee107","0198f767-55c9-7875-8d21-563b3c0b86ed","2025-08-29_15h27.07.023",NA,NA,502.7651,502.7651,502.7652,503.117,NA,NA,NA,NA,NA,NA,NA,TRUE,1,1.1086,499.7695,502.765,NA,NA,NA,NA,NA,10,26,0,6,6,7,1,2,7,"binary"
"4F8701E5339B4A7FBEB1C68BC4DB29A2",1,"0198f781-1c68-7ce1-b6ce-6cb5de3ee107","0198f767-55c9-7875-8d21-563b3c0b86ed","2025-08-29_15h27.07.023",NA,NA,506.1193,506.1193,506.1193,506.465,NA,NA,NA,NA,NA,NA,NA,TRUE,1,1.1587,503.1186,506.1192,NA,NA,NA,NA,NA,150,33,0,7,7,91,1,2,8,"binary"
"4F8701E5339B4A7FBEB1C68BC4DB29A2",1,"0198f781-1c68-7ce1-b6ce-6cb5de3ee107","0198f767-55c9-7875-8d21-563b3c0b86ed","2025-08-29_15h27.07.023",NA,NA,509.4673,509.4673,509.4673,509.8191,NA,NA,NA,NA,NA,NA,NA,TRUE,2,1.9335,506.4658,509.4673,NA,NA,NA,NA,NA,95,35,0,8,8,80,1,2,9,"binary"
"4F8701E5339B4A7FBEB1C68BC4DB29A2",1,"0198f781-1c68-7ce1-b6ce-6cb5de3ee107","0198f767-55c9-7875-8d21-563b3c0b86ed","2025-08-29_15h27.07.023",NA,NA,512.8156,512.8156,512.8156,513.1671,NA,NA,NA,NA,NA,NA,NA,TRUE,1,0.8281,509.8199,512.8154,NA,NA,NA,NA,NA,7,26,0,9,9,1,1,2,10,"binary"
"4F8701E5339B4A7FBEB1C68BC4DB29A2",1,"0198f781-1c68-7ce1-b6ce-6cb5de3ee107","0198f767-55c9-7875-8d21-563b3c0b86ed","2025-08-29_15h27.07.023",NA,NA,516.1699,516.1699,516.1699,516.5152,NA,NA,NA,NA,NA,NA,NA,TRUE,2,1.3889,513.1686,516.1698,NA,NA,NA,NA,NA,30,32,0,10,10,46,1,2,11,"binary"
"4F8701E5339B4A7FBEB1C68BC4DB29A2",1,"0198f781-1c68-7ce1-b6ce-6cb5de3ee107","0198f767-55c9-7875-8d21-563b3c0b86ed","2025-08-29_15h27.07.023",NA,NA,519.5178,519.5178,519.5178,519.8694,NA,NA,NA,NA,NA,NA,NA,TRUE,2,1.0578,516.5161,519.5178,NA,NA,NA,NA,NA,60,54,0,11,11,71,1,2,12,"binary"
"4F8701E5339B4A7FBEB1C68BC4DB29A2",1,"0198f781-1c68-7ce1-b6ce-6cb5de3ee107","0198f767-55c9-7875-8d21-563b3c0b86ed","2025-08-29_15h27.07.023",NA,NA,522.8658,522.8658,522.8658,523.2181,NA,NA,NA,NA,NA,NA,NA,TRUE,2,2.1824,519.8701,522.8657,NA,NA,NA,NA,NA,150,40,0,12,12,93,1,2,13,"binary"
"4F8701E5339B4A7FBEB1C68BC4DB29A2",1,"0198f781-1c68-7ce1-b6ce-6cb5de3ee107","0198f767-55c9-7875-8d21-563b3c0b86ed","2025-08-29_15h27.07.023",NA,NA,526.2201,526.2201,526.2201,526.5657,NA,NA,NA,NA,NA,NA,NA,TRUE,2,1.0494,523.2194,526.22,NA,NA,NA,NA,NA,95,40,0,13,13,81,1,2,14,"binary"
"4F8701E5339B4A7FBEB1C68BC4DB29A2",1,"0198f781-1c68-7ce1-b6ce-6cb5de3ee107","0198f767-55c9-7875-8d21-563b3c0b86ed","2025-08-29_15h27.07.023",NA,NA,529.568,529.568,529.568,529.9199,NA,NA,NA,NA,NA,NA,NA,TRUE,1,1.8337,526.5663,529.5679,NA,NA,NA,NA,NA,21,29,0,14,14,26,1,2,15,"binary"
"4F8701E5339B4A7FBEB1C68BC4DB29A2",1,"0198f781-1c68-7ce1-b6ce-6cb5de3ee107","0198f767-55c9-7875-8d21-563b3c0b86ed","2025-08-29_15h27.07.023",NA,NA,532.9162,532.9162,532.9162,533.268,NA,NA,NA,NA,NA,NA,NA,TRUE,1,0.8934,529.9206,532.9161,NA,NA,NA,NA,NA,14,26,0,15,15,19,1,2,16,"binary"
"4F8701E5339B4A7FBEB1C68BC4DB29A2",1,"0198f781-1c68-7ce1-b6ce-6cb5de3ee107","0198f767-55c9-7875-8d21-563b3c0b86ed","2025-08-29_15h27.07.023",NA,NA,536.2645,536.2645,536.2645,536.6163,NA,NA,NA,NA,NA,NA,NA,TRUE,2,0.9204,533.269,536.2644,NA,NA,NA,NA,NA,90,40,0,16,16,75,1,2,17,"binary"
"4F8701E5339B4A7FBEB1C68BC4DB29A2",1,"0198f781-1c68-7ce1-b6ce-6cb5de3ee107","0198f767-55c9-7875-8d21-563b3c0b86ed","2025-08-29_15h27.07.023",NA,NA,539.6189,539.6189,539.6189,539.9643,NA,NA,NA,NA,NA,NA,NA,TRUE,2,0.8879,536.6176,539.6188,NA,NA,NA,NA,NA,50,54,0,17,17,65,1,2,18,"binary"
"4F8701E5339B4A7FBEB1C68BC4DB29A2",1,"0198f781-1c68-7ce1-b6ce-6cb5de3ee107","0198f767-55c9-7875-8d21-563b3c0b86ed","2025-08-29_15h27.07.023",NA,NA,542.9667,542.9668,542.9668,543.3184,NA,NA,NA,NA,NA,NA,NA,TRUE,1,1.0596,539.9654,542.9665,NA,NA,NA,NA,NA,7,25,0,18,18,0,1,2,19,"binary"
"4F8701E5339B4A7FBEB1C68BC4DB29A2",1,"0198f781-1c68-7ce1-b6ce-6cb5de3ee107","0198f767-55c9-7875-8d21-563b3c0b86ed","2025-08-29_15h27.07.023",NA,NA,546.3145,546.3145,546.3145,546.6663,NA,NA,NA,NA,NA,NA,NA,TRUE,2,0.9545,543.3194,546.3145,NA,NA,NA,NA,NA,60,40,0,19,19,69,1,2,20,"binary"
"4F8701E5339B4A7FBEB1C68BC4DB29A2",1,"0198f781-1c68-7ce1-b6ce-6cb5de3ee107","0198f767-55c9-7875-8d21-563b3c0b86ed","2025-08-29_15h27.07.023",NA,NA,549.6693,549.6693,549.6693,550.0144,NA,NA,NA,NA,NA,NA,NA,TRUE,1,1.3173,546.6673,549.6692,NA,NA,NA,NA,NA,30,30,0,20,20,45,1,2,21,"binary"
"4F8701E5339B4A7FBEB1C68BC4DB29A2",1,"0198f781-1c68-7ce1-b6ce-6cb5de3ee107","0198f767-55c9-7875-8d21-563b3c0b86ed","2025-08-29_15h27.07.023",NA,NA,553.017,553.017,553.017,553.3687,NA,NA,NA,NA,NA,NA,NA,TRUE,2,0.9951,550.0152,553.017,NA,NA,NA,NA,NA,45,35,0,21,21,57,1,2,22,"binary"
"4F8701E5339B4A7FBEB1C68BC4DB29A2",1,"0198f781-1c68-7ce1-b6ce-6cb5de3ee107","0198f767-55c9-7875-8d21-563b3c0b86ed","2025-08-29_15h27.07.023",NA,NA,556.3651,556.3651,556.3651,556.7167,NA,NA,NA,NA,NA,NA,NA,TRUE,2,2.2158,553.3692,556.365,NA,NA,NA,NA,NA,60,35,0,22,22,68,1,2,23,"binary"
"4F8701E5339B4A7FBEB1C68BC4DB29A2",1,"0198f781-1c68-7ce1-b6ce-6cb5de3ee107","0198f767-55c9-7875-8d21-563b3c0b86ed","2025-08-29_15h27.07.023",NA,NA,559.7192,559.7192,559.7192,560.0647,NA,NA,NA,NA,NA,NA,NA,TRUE,1,1.1591,556.7174,559.7191,NA,NA,NA,NA,NA,95,31,0,23,23,78,1,2,24,"binary"
"4F8701E5339B4A7FBEB1C68BC4DB29A2",1,"0198f781-1c68-7ce1-b6ce-6cb5de3ee107","0198f767-55c9-7875-8d21-563b3c0b86ed","2025-08-29_15h27.07.023",NA,NA,563.0673,563.0673,563.0673,563.419,NA,NA,NA,NA,NA,NA,NA,TRUE,2,0.886,560.0654,563.0672,NA,NA,NA,NA,NA,40,54,0,24,24,53,1,2,25,"binary"
"4F8701E5339B4A7FBEB1C68BC4DB29A2",1,"0198f781-1c68-7ce1-b6ce-6cb5de3ee107","0198f767-55c9-7875-8d21-563b3c0b86ed","2025-08-29_15h27.07.023",NA,NA,566.4156,566.4156,566.4156,566.7671,NA,NA,NA,NA,NA,NA,NA,TRUE,1,0.7356,563.4197,566.4154,NA,NA,NA,NA,NA,180,31,0,25,25,97,1,2,26,"binary"
"4F8701E5339B4A7FBEB1C68BC4DB29A2",1,"0198f781-1c68-7ce1-b6ce-6cb5de3ee107","0198f767-55c9-7875-8d21-563b3c0b86ed","2025-08-29_15h27.07.023",NA,NA,569.7696,569.7696,569.7696,570.1152,NA,NA,NA,NA,NA,NA,NA,TRUE,2,0.908,566.7679,569.7695,NA,NA,NA,NA,NA,30,38,0,26,26,47,1,2,27,"binary"
"4F8701E5339B4A7FBEB1C68BC4DB29A2",1,"0198f781-1c68-7ce1-b6ce-6cb5de3ee107","0198f767-55c9-7875-8d21-563b3c0b86ed","2025-08-29_15h27.07.023",NA,NA,573.1176,573.1176,573.1176,573.4697,NA,NA,NA,NA,NA,NA,NA,TRUE,1,1.3751,570.1158,573.1176,NA,NA,NA,NA,NA,45,26,0,27,27,54,1,2,28,"binary"
"4F8701E5339B4A7FBEB1C68BC4DB29A2",1,"0198f781-1c68-7ce1-b6ce-6cb5de3ee107","0198f767-55c9-7875-8d21-563b3c0b86ed","2025-08-29_15h27.07.023",NA,NA,576.4657,576.4657,576.4657,576.8178,NA,NA,NA,NA,NA,NA,NA,TRUE,2,1.3336,573.4706,576.4656,NA,NA,NA,NA,NA,100,54,0,28,28,89,1,2,29,"binary"
"4F8701E5339B4A7FBEB1C68BC4DB29A2",1,"0198f781-1c68-7ce1-b6ce-6cb5de3ee107","0198f767-55c9-7875-8d21-563b3c0b86ed","2025-08-29_15h27.07.023",NA,NA,579.8199,579.82,579.82,580.1655,NA,NA,NA,NA,NA,NA,NA,TRUE,2,1.2305,576.8187,579.8198,NA,NA,NA,NA,NA,60,47,0,29,29,70,1,2,30,"binary"
"4F8701E5339B4A7FBEB1C68BC4DB29A2",1,"0198f781-1c68-7ce1-b6ce-6cb5de3ee107","0198f767-55c9-7875-8d21-563b3c0b86ed","2025-08-29_15h27.07.023",NA,NA,583.1681,583.1681,583.1681,583.5198,NA,NA,NA,NA,NA,NA,NA,TRUE,2,2.2244,580.1662,583.168,NA,NA,NA,NA,NA,40,33,0,30,30,49,1,2,31,"binary"
"4F8701E5339B4A7FBEB1C68BC4DB29A2",1,"0198f781-1c68-7ce1-b6ce-6cb5de3ee107","0198f767-55c9-7875-8d21-563b3c0b86ed","2025-08-29_15h27.07.023",NA,NA,586.516,586.5161,586.5161,586.8678,NA,NA,NA,NA,NA,NA,NA,TRUE,1,0.7606,583.5204,586.516,NA,NA,NA,NA,NA,28,32,0,31,31,38,1,2,32,"binary"
"4F8701E5339B4A7FBEB1C68BC4DB29A2",1,"0198f781-1c68-7ce1-b6ce-6cb5de3ee107","0198f767-55c9-7875-8d21-563b3c0b86ed","2025-08-29_15h27.07.023",NA,NA,589.8642,589.8643,589.8643,590.216,NA,NA,NA,NA,NA,NA,NA,TRUE,1,1.1322,586.8686,589.8642,NA,NA,NA,NA,NA,60,29,0,32,32,66,1,2,33,"binary"
"4F8701E5339B4A7FBEB1C68BC4DB29A2",1,"0198f781-1c68-7ce1-b6ce-6cb5de3ee107","0198f767-55c9-7875-8d21-563b3c0b86ed","2025-08-29_15h27.07.023",NA,NA,593.2189,593.2189,593.2189,593.564,NA,NA,NA,NA,NA,NA,NA,TRUE,1,1.4262,590.2175,593.2187,NA,NA,NA,NA,NA,180,46,0,33,33,100,1,2,34,"binary"
"4F8701E5339B4A7FBEB1C68BC4DB29A2",1,"0198f781-1c68-7ce1-b6ce-6cb5de3ee107","0198f767-55c9-7875-8d21-563b3c0b86ed","2025-08-29_15h27.07.023",NA,NA,596.5663,596.5663,596.5663,596.9184,NA,NA,NA,NA,NA,NA,NA,TRUE,1,0.9068,593.5648,596.5663,NA,NA,NA,NA,NA,30,27,0,34,34,43,1,2,35,"binary"
"4F8701E5339B4A7FBEB1C68BC4DB29A2",1,"0198f781-1c68-7ce1-b6ce-6cb5de3ee107","0198f767-55c9-7875-8d21-563b3c0b86ed","2025-08-29_15h27.07.023",NA,NA,599.9144,599.9144,599.9144,600.2661,NA,NA,NA,NA,NA,NA,NA,TRUE,1,0.941,596.9197,599.9144,NA,NA,NA,NA,NA,28,28,0,35,35,37,1,2,36,"binary"
"4F8701E5339B4A7FBEB1C68BC4DB29A2",1,"0198f781-1c68-7ce1-b6ce-6cb5de3ee107","0198f767-55c9-7875-8d21-563b3c0b86ed","2025-08-29_15h27.07.023",NA,NA,603.2692,603.2692,603.2692,603.6145,NA,NA,NA,NA,NA,NA,NA,TRUE,1,1.4998,600.2669,603.269,NA,NA,NA,NA,NA,95,54,0,36,36,83,1,2,37,"binary"
"4F8701E5339B4A7FBEB1C68BC4DB29A2",1,"0198f781-1c68-7ce1-b6ce-6cb5de3ee107","0198f767-55c9-7875-8d21-563b3c0b86ed","2025-08-29_15h27.07.023",NA,NA,606.6166,606.6167,606.6167,606.9686,NA,NA,NA,NA,NA,NA,NA,TRUE,2,1.1965,603.6152,606.6166,NA,NA,NA,NA,NA,150,47,0,37,37,94,1,2,38,"binary"
"4F8701E5339B4A7FBEB1C68BC4DB29A2",1,"0198f781-1c68-7ce1-b6ce-6cb5de3ee107","0198f767-55c9-7875-8d21-563b3c0b86ed","2025-08-29_15h27.07.023",NA,NA,609.9653,609.9653,609.9653,610.3164,NA,NA,NA,NA,NA,NA,NA,TRUE,1,0.9814,606.9693,609.9651,NA,NA,NA,NA,NA,12,25,0,38,38,12,1,2,39,"binary"
"4F8701E5339B4A7FBEB1C68BC4DB29A2",1,"0198f781-1c68-7ce1-b6ce-6cb5de3ee107","0198f767-55c9-7875-8d21-563b3c0b86ed","2025-08-29_15h27.07.023",NA,NA,613.319,613.3191,613.3191,613.6646,NA,NA,NA,NA,NA,NA,NA,TRUE,2,1.2195,610.3172,613.319,NA,NA,NA,NA,NA,25,35,0,39,39,34,1,2,40,"binary"
"4F8701E5339B4A7FBEB1C68BC4DB29A2",1,"0198f781-1c68-7ce1-b6ce-6cb5de3ee107","0198f767-55c9-7875-8d21-563b3c0b86ed","2025-08-29_15h27.07.023",NA,NA,616.667,616.667,616.667,617.0193,NA,NA,NA,NA,NA,NA,NA,TRUE,1,1.2626,613.6657,616.6669,NA,NA,NA,NA,NA,180,39,0,40,40,99,1,2,41,"binary"
"4F8701E5339B4A7FBEB1C68BC4DB29A2",1,"0198f781-1c68-7ce1-b6ce-6cb5de3ee107","0198f767-55c9-7875-8d21-563b3c0b86ed","2025-08-29_15h27.07.023",NA,NA,620.0157,620.0157,620.0157,620.3675,NA,NA,NA,NA,NA,NA,NA,TRUE,1,1.3917,617.0203,620.0155,NA,NA,NA,NA,NA,100,31,0,41,41,85,1,2,42,"binary"
"4F8701E5339B4A7FBEB1C68BC4DB29A2",1,"0198f781-1c68-7ce1-b6ce-6cb5de3ee107","0198f767-55c9-7875-8d21-563b3c0b86ed","2025-08-29_15h27.07.023",NA,NA,623.3698,623.3698,623.3699,623.7151,NA,NA,NA,NA,NA,NA,NA,TRUE,2,1.2705,620.3695,623.3696,NA,NA,NA,NA,NA,7,30,0,42,42,3,1,2,43,"binary"
"4F8701E5339B4A7FBEB1C68BC4DB29A2",1,"0198f781-1c68-7ce1-b6ce-6cb5de3ee107","0198f767-55c9-7875-8d21-563b3c0b86ed","2025-08-29_15h27.07.023",NA,NA,626.7179,626.718,626.7181,627.0696,NA,NA,NA,NA,NA,NA,NA,TRUE,2,1.3105,623.7168,626.7178,NA,NA,NA,NA,NA,95,47,0,43,43,82,1,2,44,"binary"
"4F8701E5339B4A7FBEB1C68BC4DB29A2",1,"0198f781-1c68-7ce1-b6ce-6cb5de3ee107","0198f767-55c9-7875-8d21-563b3c0b86ed","2025-08-29_15h27.07.023",NA,NA,630.066,630.066,630.066,630.4178,NA,NA,NA,NA,NA,NA,NA,TRUE,1,1.1438,627.0709,630.0659,NA,NA,NA,NA,NA,200,54,0,44,44,107,1,2,45,"binary"
"4F8701E5339B4A7FBEB1C68BC4DB29A2",1,"0198f781-1c68-7ce1-b6ce-6cb5de3ee107","0198f767-55c9-7875-8d21-563b3c0b86ed","2025-08-29_15h27.07.023",NA,NA,633.4201,633.4201,633.4201,633.7656,NA,NA,NA,NA,NA,NA,NA,TRUE,2,1.2003,630.4194,633.4199,NA,NA,NA,NA,NA,45,40,0,45,45,58,1,2,46,"binary"
"4F8701E5339B4A7FBEB1C68BC4DB29A2",1,"0198f781-1c68-7ce1-b6ce-6cb5de3ee107","0198f767-55c9-7875-8d21-563b3c0b86ed","2025-08-29_15h27.07.023",NA,NA,636.7685,636.7685,636.7685,637.114,NA,NA,NA,NA,NA,NA,NA,TRUE,1,1.9109,633.7671,636.7683,NA,NA,NA,NA,NA,180,35,0,46,46,98,1,2,47,"binary"
"4F8701E5339B4A7FBEB1C68BC4DB29A2",1,"0198f781-1c68-7ce1-b6ce-6cb5de3ee107","0198f767-55c9-7875-8d21-563b3c0b86ed","2025-08-29_15h27.07.023",NA,NA,640.1162,640.1162,640.1162,640.4683,NA,NA,NA,NA,NA,NA,NA,TRUE,1,1.0771,637.1156,640.1161,NA,NA,NA,NA,NA,100,39,0,47,47,87,1,2,48,"binary"
"4F8701E5339B4A7FBEB1C68BC4DB29A2",1,"0198f781-1c68-7ce1-b6ce-6cb5de3ee107","0198f767-55c9-7875-8d21-563b3c0b86ed","2025-08-29_15h27.07.023",NA,NA,643.4641,643.4642,643.4642,643.816,NA,NA,NA,NA,NA,NA,NA,TRUE,2,1.2403,640.4699,643.4641,NA,NA,NA,NA,NA,10,30,0,48,48,10,1,2,49,"binary"
"4F8701E5339B4A7FBEB1C68BC4DB29A2",1,"0198f781-1c68-7ce1-b6ce-6cb5de3ee107","0198f767-55c9-7875-8d21-563b3c0b86ed","2025-08-29_15h27.07.023",NA,NA,646.8186,646.8187,646.8187,647.1641,NA,NA,NA,NA,NA,NA,NA,TRUE,2,1.5247,643.8176,646.8184,NA,NA,NA,NA,NA,21,32,0,49,49,28,1,2,50,"binary"
"4F8701E5339B4A7FBEB1C68BC4DB29A2",1,"0198f781-1c68-7ce1-b6ce-6cb5de3ee107","0198f767-55c9-7875-8d21-563b3c0b86ed","2025-08-29_15h27.07.023",NA,NA,650.1665,650.1666,650.1666,650.5183,NA,NA,NA,NA,NA,NA,NA,TRUE,1,0.9131,647.1659,650.1664,NA,NA,NA,NA,NA,100,38,0,50,50,86,1,2,51,"binary"
"4F8701E5339B4A7FBEB1C68BC4DB29A2",1,"0198f781-1c68-7ce1-b6ce-6cb5de3ee107","0198f767-55c9-7875-8d21-563b3c0b86ed","2025-08-29_15h27.07.023",NA,NA,653.5148,653.5148,653.5148,653.8664,NA,NA,NA,NA,NA,NA,NA,TRUE,2,1.7971,650.5202,653.5146,NA,NA,NA,NA,NA,21,30,0,51,51,27,1,2,52,"binary"
"4F8701E5339B4A7FBEB1C68BC4DB29A2",1,"0198f781-1c68-7ce1-b6ce-6cb5de3ee107","0198f767-55c9-7875-8d21-563b3c0b86ed","2025-08-29_15h27.07.023",NA,NA,656.8686,656.8687,656.8687,657.2142,NA,NA,NA,NA,NA,NA,NA,TRUE,1,1.4921,653.868,656.8684,NA,NA,NA,NA,NA,50,27,0,52,52,60,1,2,53,"binary"
"4F8701E5339B4A7FBEB1C68BC4DB29A2",1,"0198f781-1c68-7ce1-b6ce-6cb5de3ee107","0198f767-55c9-7875-8d21-563b3c0b86ed","2025-08-29_15h27.07.023",NA,NA,660.2169,660.2169,660.2169,660.5688,NA,NA,NA,NA,NA,NA,NA,TRUE,2,0.952,657.2158,660.2167,NA,NA,NA,NA,NA,10,32,0,53,53,11,1,2,54,"binary"
"4F8701E5339B4A7FBEB1C68BC4DB29A2",1,"0198f781-1c68-7ce1-b6ce-6cb5de3ee107","0198f767-55c9-7875-8d21-563b3c0b86ed","2025-08-29_15h27.07.023",NA,NA,663.5651,663.5651,663.5651,663.9171,NA,NA,NA,NA,NA,NA,NA,TRUE,2,1.3749,660.5705,663.5649,NA,NA,NA,NA,NA,150,54,0,54,54,95,1,2,55,"binary"
"4F8701E5339B4A7FBEB1C68BC4DB29A2",1,"0198f781-1c68-7ce1-b6ce-6cb5de3ee107","0198f767-55c9-7875-8d21-563b3c0b86ed","2025-08-29_15h27.07.023",NA,NA,666.9192,666.9193,666.9193,667.2647,NA,NA,NA,NA,NA,NA,NA,TRUE,2,1.5518,663.9188,666.919,NA,NA,NA,NA,NA,10,29,0,55,55,9,1,2,56,"binary"
"4F8701E5339B4A7FBEB1C68BC4DB29A2",1,"0198f781-1c68-7ce1-b6ce-6cb5de3ee107","0198f767-55c9-7875-8d21-563b3c0b86ed","2025-08-29_15h27.07.023",NA,NA,670.2673,670.2673,670.2673,670.6189,NA,NA,NA,NA,NA,NA,NA,TRUE,2,1.1775,667.2663,670.2672,NA,NA,NA,NA,NA,28,46,0,56,56,41,1,2,57,"binary"
"4F8701E5339B4A7FBEB1C68BC4DB29A2",1,"0198f781-1c68-7ce1-b6ce-6cb5de3ee107","0198f767-55c9-7875-8d21-563b3c0b86ed","2025-08-29_15h27.07.023",NA,NA,673.6157,673.6157,673.6157,673.967,NA,NA,NA,NA,NA,NA,NA,TRUE,1,1.4594,670.6209,673.6154,NA,NA,NA,NA,NA,50,30,0,57,57,61,1,2,58,"binary"
"4F8701E5339B4A7FBEB1C68BC4DB29A2",1,"0198f781-1c68-7ce1-b6ce-6cb5de3ee107","0198f767-55c9-7875-8d21-563b3c0b86ed","2025-08-29_15h27.07.023",NA,NA,676.9697,676.9697,676.9697,677.3152,NA,NA,NA,NA,NA,NA,NA,TRUE,1,0.8828,673.9688,676.9695,NA,NA,NA,NA,NA,30,26,0,58,58,42,1,2,59,"binary"
"4F8701E5339B4A7FBEB1C68BC4DB29A2",1,"0198f781-1c68-7ce1-b6ce-6cb5de3ee107","0198f767-55c9-7875-8d21-563b3c0b86ed","2025-08-29_15h27.07.023",NA,NA,680.3178,680.3179,680.3179,680.6695,NA,NA,NA,NA,NA,NA,NA,TRUE,1,1.0922,677.3168,680.3177,NA,NA,NA,NA,NA,90,30,0,59,59,73,1,2,60,"binary"
"4F8701E5339B4A7FBEB1C68BC4DB29A2",1,"0198f781-1c68-7ce1-b6ce-6cb5de3ee107","0198f767-55c9-7875-8d21-563b3c0b86ed","2025-08-29_15h27.07.023",NA,NA,683.6658,683.6658,683.6658,684.0175,NA,NA,NA,NA,NA,NA,NA,TRUE,2,1.8461,680.6713,683.6657,NA,NA,NA,NA,NA,40,35,0,60,60,50,1,2,61,"binary"
"4F8701E5339B4A7FBEB1C68BC4DB29A2",1,"0198f781-1c68-7ce1-b6ce-6cb5de3ee107","0198f767-55c9-7875-8d21-563b3c0b86ed","2025-08-29_15h27.07.023",NA,NA,687.014,687.014,687.0141,687.3657,NA,NA,NA,NA,NA,NA,NA,TRUE,1,1.2873,684.019,687.0139,NA,NA,NA,NA,NA,14,25,0,61,61,18,1,2,62,"binary"
"4F8701E5339B4A7FBEB1C68BC4DB29A2",1,"0198f781-1c68-7ce1-b6ce-6cb5de3ee107","0198f767-55c9-7875-8d21-563b3c0b86ed","2025-08-29_15h27.07.023",NA,NA,690.3686,690.3686,690.3686,690.7199,NA,NA,NA,NA,NA,NA,NA,TRUE,2,1.8772,687.3672,690.3684,NA,NA,NA,NA,NA,7,28,0,62,62,2,1,2,63,"binary"
"4F8701E5339B4A7FBEB1C68BC4DB29A2",1,"0198f781-1c68-7ce1-b6ce-6cb5de3ee107","0198f767-55c9-7875-8d21-563b3c0b86ed","2025-08-29_15h27.07.023",NA,NA,693.7163,693.7164,693.7164,694.068,NA,NA,NA,NA,NA,NA,NA,TRUE,2,0.8848,690.7213,693.7162,NA,NA,NA,NA,NA,90,46,0,63,63,76,1,2,64,"binary"
"4F8701E5339B4A7FBEB1C68BC4DB29A2",1,"0198f781-1c68-7ce1-b6ce-6cb5de3ee107","0198f767-55c9-7875-8d21-563b3c0b86ed","2025-08-29_15h27.07.023",NA,NA,697.0642,697.0642,697.0643,697.4159,NA,NA,NA,NA,NA,NA,NA,TRUE,1,0.9573,694.0693,697.0641,NA,NA,NA,NA,NA,90,26,0,64,64,72,1,2,65,"binary"
"4F8701E5339B4A7FBEB1C68BC4DB29A2",1,"0198f781-1c68-7ce1-b6ce-6cb5de3ee107","0198f767-55c9-7875-8d21-563b3c0b86ed","2025-08-29_15h27.07.023",NA,NA,700.4185,700.4186,700.4186,700.764,NA,NA,NA,NA,NA,NA,NA,TRUE,2,1.2134,697.4173,700.4184,NA,NA,NA,NA,NA,12,33,0,65,65,16,1,2,66,"binary"
"4F8701E5339B4A7FBEB1C68BC4DB29A2",1,"0198f781-1c68-7ce1-b6ce-6cb5de3ee107","0198f767-55c9-7875-8d21-563b3c0b86ed","2025-08-29_15h27.07.023",NA,NA,703.7677,703.7677,703.7677,704.1183,NA,NA,NA,NA,NA,NA,NA,TRUE,2,0.9491,700.7655,703.7676,NA,NA,NA,NA,NA,25,33,0,66,66,33,1,2,67,"binary"
"4F8701E5339B4A7FBEB1C68BC4DB29A2",1,"0198f781-1c68-7ce1-b6ce-6cb5de3ee107","0198f767-55c9-7875-8d21-563b3c0b86ed","2025-08-29_15h27.07.023",NA,NA,707.1146,707.1146,707.1147,707.4664,NA,NA,NA,NA,NA,NA,NA,TRUE,2,1.8888,704.1199,707.1144,NA,NA,NA,NA,NA,45,31,0,67,67,56,1,2,68,"binary"
"4F8701E5339B4A7FBEB1C68BC4DB29A2",1,"0198f781-1c68-7ce1-b6ce-6cb5de3ee107","0198f767-55c9-7875-8d21-563b3c0b86ed","2025-08-29_15h27.07.023",NA,NA,710.469,710.469,710.469,710.8144,NA,NA,NA,NA,NA,NA,NA,TRUE,1,1.79,707.4677,710.4688,NA,NA,NA,NA,NA,200,39,0,68,68,105,1,2,69,"binary"
"4F8701E5339B4A7FBEB1C68BC4DB29A2",1,"0198f781-1c68-7ce1-b6ce-6cb5de3ee107","0198f767-55c9-7875-8d21-563b3c0b86ed","2025-08-29_15h27.07.023",NA,NA,713.8171,713.8171,713.8171,714.1686,NA,NA,NA,NA,NA,NA,NA,TRUE,2,0.9293,710.8157,713.8169,NA,NA,NA,NA,NA,25,29,0,69,69,31,1,2,70,"binary"
"4F8701E5339B4A7FBEB1C68BC4DB29A2",1,"0198f781-1c68-7ce1-b6ce-6cb5de3ee107","0198f767-55c9-7875-8d21-563b3c0b86ed","2025-08-29_15h27.07.023",NA,NA,717.1649,717.165,717.165,717.5168,NA,NA,NA,NA,NA,NA,NA,TRUE,2,1.2883,714.1701,717.1649,NA,NA,NA,NA,NA,7,32,0,70,70,4,1,2,71,"binary"
"4F8701E5339B4A7FBEB1C68BC4DB29A2",1,"0198f781-1c68-7ce1-b6ce-6cb5de3ee107","0198f767-55c9-7875-8d21-563b3c0b86ed","2025-08-29_15h27.07.023",NA,NA,720.5203,720.5203,720.5203,720.8649,NA,NA,NA,NA,NA,NA,NA,TRUE,2,1.7287,717.5183,720.5201,NA,NA,NA,NA,NA,95,33,0,71,71,79,1,2,72,"binary"
"4F8701E5339B4A7FBEB1C68BC4DB29A2",1,"0198f781-1c68-7ce1-b6ce-6cb5de3ee107","0198f767-55c9-7875-8d21-563b3c0b86ed","2025-08-29_15h27.07.023",NA,NA,723.8679,723.8679,723.8679,724.2188,NA,NA,NA,NA,NA,NA,NA,TRUE,1,0.8557,720.8663,723.8677,NA,NA,NA,NA,NA,100,26,0,72,72,84,1,2,73,"binary"
"4F8701E5339B4A7FBEB1C68BC4DB29A2",1,"0198f781-1c68-7ce1-b6ce-6cb5de3ee107","0198f767-55c9-7875-8d21-563b3c0b86ed","2025-08-29_15h27.07.023",NA,NA,727.2156,727.2156,727.2156,727.5671,NA,NA,NA,NA,NA,NA,NA,TRUE,2,1.2674,724.2209,727.2153,NA,NA,NA,NA,NA,14,39,0,73,73,23,1,2,74,"binary"
"4F8701E5339B4A7FBEB1C68BC4DB29A2",1,"0198f781-1c68-7ce1-b6ce-6cb5de3ee107","0198f767-55c9-7875-8d21-563b3c0b86ed","2025-08-29_15h27.07.023",NA,NA,730.5705,730.5705,730.5705,730.9152,NA,NA,NA,NA,NA,NA,NA,TRUE,1,0.9442,727.5688,730.5702,NA,NA,NA,NA,NA,180,27,0,74,74,96,1,2,75,"binary"
"4F8701E5339B4A7FBEB1C68BC4DB29A2",1,"0198f781-1c68-7ce1-b6ce-6cb5de3ee107","0198f767-55c9-7875-8d21-563b3c0b86ed","2025-08-29_15h27.07.023",NA,NA,733.9178,733.9178,733.9178,734.2695,NA,NA,NA,NA,NA,NA,NA,TRUE,1,1.8695,730.917,733.9176,NA,NA,NA,NA,NA,150,35,0,75,75,92,1,2,76,"binary"
"4F8701E5339B4A7FBEB1C68BC4DB29A2",1,"0198f781-1c68-7ce1-b6ce-6cb5de3ee107","0198f767-55c9-7875-8d21-563b3c0b86ed","2025-08-29_15h27.07.023",NA,NA,737.2657,737.2657,737.2657,737.6175,NA,NA,NA,NA,NA,NA,NA,TRUE,2,0.7377,734.2713,737.2655,NA,NA,NA,NA,NA,45,46,0,76,76,59,1,2,77,"binary"
"4F8701E5339B4A7FBEB1C68BC4DB29A2",1,"0198f781-1c68-7ce1-b6ce-6cb5de3ee107","0198f767-55c9-7875-8d21-563b3c0b86ed","2025-08-29_15h27.07.023",NA,NA,740.62,740.6201,740.6201,740.9653,NA,NA,NA,NA,NA,NA,NA,TRUE,2,1.5664,737.6191,740.6199,NA,NA,NA,NA,NA,90,33,0,77,77,74,1,2,78,"binary"
"4F8701E5339B4A7FBEB1C68BC4DB29A2",1,"0198f781-1c68-7ce1-b6ce-6cb5de3ee107","0198f767-55c9-7875-8d21-563b3c0b86ed","2025-08-29_15h27.07.023",NA,NA,743.9681,743.9681,743.9681,744.3198,NA,NA,NA,NA,NA,NA,NA,TRUE,2,1.4254,740.9673,743.9679,NA,NA,NA,NA,NA,90,54,0,78,78,77,1,2,79,"binary"
"4F8701E5339B4A7FBEB1C68BC4DB29A2",1,"0198f781-1c68-7ce1-b6ce-6cb5de3ee107","0198f767-55c9-7875-8d21-563b3c0b86ed","2025-08-29_15h27.07.023",NA,NA,747.3161,747.3162,747.3162,747.6676,NA,NA,NA,NA,NA,NA,NA,TRUE,2,0.7069,744.3215,747.3159,NA,NA,NA,NA,NA,40,27,0,79,79,48,1,2,80,"binary"
"4F8701E5339B4A7FBEB1C68BC4DB29A2",1,"0198f781-1c68-7ce1-b6ce-6cb5de3ee107","0198f767-55c9-7875-8d21-563b3c0b86ed","2025-08-29_15h27.07.023",NA,NA,750.6642,750.6642,750.6642,751.0158,NA,NA,NA,NA,NA,NA,NA,TRUE,1,1.1058,747.6692,750.664,NA,NA,NA,NA,NA,200,47,0,80,80,106,1,2,81,"binary"
"4F8701E5339B4A7FBEB1C68BC4DB29A2",1,"0198f781-1c68-7ce1-b6ce-6cb5de3ee107","0198f767-55c9-7875-8d21-563b3c0b86ed","2025-08-29_15h27.07.023",NA,NA,754.0182,754.0183,754.0183,754.3642,NA,NA,NA,NA,NA,NA,NA,TRUE,2,1.1341,751.0175,754.0181,NA,NA,NA,NA,NA,50,46,0,81,81,64,1,2,82,"binary"
"4F8701E5339B4A7FBEB1C68BC4DB29A2",1,"0198f781-1c68-7ce1-b6ce-6cb5de3ee107","0198f767-55c9-7875-8d21-563b3c0b86ed","2025-08-29_15h27.07.023",NA,NA,757.3667,757.3667,757.3667,757.7179,NA,NA,NA,NA,NA,NA,NA,TRUE,1,0.8154,754.3657,757.3664,NA,NA,NA,NA,NA,21,27,0,82,82,25,1,2,83,"binary"
"4F8701E5339B4A7FBEB1C68BC4DB29A2",1,"0198f781-1c68-7ce1-b6ce-6cb5de3ee107","0198f767-55c9-7875-8d21-563b3c0b86ed","2025-08-29_15h27.07.023",NA,NA,760.7147,760.7147,760.7147,761.0661,NA,NA,NA,NA,NA,NA,NA,TRUE,2,0.8787,757.7195,760.7146,NA,NA,NA,NA,NA,7,35,0,83,83,5,1,2,84,"binary"
"4F8701E5339B4A7FBEB1C68BC4DB29A2",1,"0198f781-1c68-7ce1-b6ce-6cb5de3ee107","0198f767-55c9-7875-8d21-563b3c0b86ed","2025-08-29_15h27.07.023",NA,NA,764.0686,764.0686,764.0686,764.4141,NA,NA,NA,NA,NA,NA,NA,TRUE,1,1.255,761.068,764.0685,NA,NA,NA,NA,NA,200,28,0,84,84,103,1,2,85,"binary"
"4F8701E5339B4A7FBEB1C68BC4DB29A2",1,"0198f781-1c68-7ce1-b6ce-6cb5de3ee107","0198f767-55c9-7875-8d21-563b3c0b86ed","2025-08-29_15h27.07.023",NA,NA,767.417,767.417,767.417,767.7686,NA,NA,NA,NA,NA,NA,NA,TRUE,2,1.1226,764.4158,767.4168,NA,NA,NA,NA,NA,12,35,0,85,85,17,1,2,86,"binary"
"4F8701E5339B4A7FBEB1C68BC4DB29A2",1,"0198f781-1c68-7ce1-b6ce-6cb5de3ee107","0198f767-55c9-7875-8d21-563b3c0b86ed","2025-08-29_15h27.07.023",NA,NA,770.7651,770.7652,770.7652,771.1167,NA,NA,NA,NA,NA,NA,NA,TRUE,1,0.9741,767.7701,770.765,NA,NA,NA,NA,NA,10,27,0,86,86,8,1,2,87,"binary"
"4F8701E5339B4A7FBEB1C68BC4DB29A2",1,"0198f781-1c68-7ce1-b6ce-6cb5de3ee107","0198f767-55c9-7875-8d21-563b3c0b86ed","2025-08-29_15h27.07.023",NA,NA,774.1189,774.119,774.119,774.4647,NA,NA,NA,NA,NA,NA,NA,TRUE,1,1.8715,771.1185,774.1187,NA,NA,NA,NA,NA,25,27,0,87,87,30,1,2,88,"binary"
"4F8701E5339B4A7FBEB1C68BC4DB29A2",1,"0198f781-1c68-7ce1-b6ce-6cb5de3ee107","0198f767-55c9-7875-8d21-563b3c0b86ed","2025-08-29_15h27.07.023",NA,NA,777.4674,777.4674,777.4674,777.8189,NA,NA,NA,NA,NA,NA,NA,TRUE,2,0.7823,774.4665,777.4671,NA,NA,NA,NA,NA,50,40,0,88,88,63,1,2,89,"binary"
"4F8701E5339B4A7FBEB1C68BC4DB29A2",1,"0198f781-1c68-7ce1-b6ce-6cb5de3ee107","0198f767-55c9-7875-8d21-563b3c0b86ed","2025-08-29_15h27.07.023",NA,NA,780.8153,780.8153,780.8154,781.1672,NA,NA,NA,NA,NA,NA,NA,TRUE,2,1.1549,777.8204,780.8151,NA,NA,NA,NA,NA,28,35,0,89,89,39,1,2,90,"binary"
"4F8701E5339B4A7FBEB1C68BC4DB29A2",1,"0198f781-1c68-7ce1-b6ce-6cb5de3ee107","0198f767-55c9-7875-8d21-563b3c0b86ed","2025-08-29_15h27.07.023",NA,NA,784.1696,784.1696,784.1696,784.5148,NA,NA,NA,NA,NA,NA,NA,TRUE,2,0.7208,781.1698,784.1694,NA,NA,NA,NA,NA,40,40,0,90,90,51,1,2,91,"binary"
"4F8701E5339B4A7FBEB1C68BC4DB29A2",1,"0198f781-1c68-7ce1-b6ce-6cb5de3ee107","0198f767-55c9-7875-8d21-563b3c0b86ed","2025-08-29_15h27.07.023",NA,NA,787.5179,787.518,787.518,787.8693,NA,NA,NA,NA,NA,NA,NA,TRUE,2,1.9806,784.5167,787.5177,NA,NA,NA,NA,NA,28,39,0,91,91,40,1,2,92,"binary"
"4F8701E5339B4A7FBEB1C68BC4DB29A2",1,"0198f781-1c68-7ce1-b6ce-6cb5de3ee107","0198f767-55c9-7875-8d21-563b3c0b86ed","2025-08-29_15h27.07.023",NA,NA,790.8657,790.8658,790.8658,791.2173,NA,NA,NA,NA,NA,NA,NA,TRUE,1,0.8149,787.871,790.8655,NA,NA,NA,NA,NA,10,25,0,92,92,6,1,2,93,"binary"
"4F8701E5339B4A7FBEB1C68BC4DB29A2",1,"0198f781-1c68-7ce1-b6ce-6cb5de3ee107","0198f767-55c9-7875-8d21-563b3c0b86ed","2025-08-29_15h27.07.023",NA,NA,794.22,794.2201,794.2201,794.5653,NA,NA,NA,NA,NA,NA,NA,TRUE,1,1.022,791.2195,794.2198,NA,NA,NA,NA,NA,12,28,0,93,93,14,1,2,94,"binary"
"4F8701E5339B4A7FBEB1C68BC4DB29A2",1,"0198f781-1c68-7ce1-b6ce-6cb5de3ee107","0198f767-55c9-7875-8d21-563b3c0b86ed","2025-08-29_15h27.07.023",NA,NA,797.5682,797.5682,797.5683,797.9197,NA,NA,NA,NA,NA,NA,NA,TRUE,2,1.0911,794.567,797.568,NA,NA,NA,NA,NA,14,28,0,94,94,20,1,2,95,"binary"
"4F8701E5339B4A7FBEB1C68BC4DB29A2",1,"0198f781-1c68-7ce1-b6ce-6cb5de3ee107","0198f767-55c9-7875-8d21-563b3c0b86ed","2025-08-29_15h27.07.023",NA,NA,800.916,800.9161,800.9161,801.2678,NA,NA,NA,NA,NA,NA,NA,TRUE,2,1.1912,797.9213,800.9158,NA,NA,NA,NA,NA,100,46,0,95,95,88,1,2,96,"binary"
"4F8701E5339B4A7FBEB1C68BC4DB29A2",1,"0198f781-1c68-7ce1-b6ce-6cb5de3ee107","0198f767-55c9-7875-8d21-563b3c0b86ed","2025-08-29_15h27.07.023",NA,NA,804.2644,804.2645,804.2645,804.6164,NA,NA,NA,NA,NA,NA,NA,TRUE,1,1.2015,801.2696,804.2642,NA,NA,NA,NA,NA,25,31,0,96,96,32,1,2,97,"binary"
"4F8701E5339B4A7FBEB1C68BC4DB29A2",1,"0198f781-1c68-7ce1-b6ce-6cb5de3ee107","0198f767-55c9-7875-8d21-563b3c0b86ed","2025-08-29_15h27.07.023",NA,NA,807.6183,807.6183,807.6183,807.9698,NA,NA,NA,NA,NA,NA,NA,TRUE,2,1.426,804.6183,807.6181,NA,NA,NA,NA,NA,180,54,0,97,97,101,1,2,98,"binary"
"4F8701E5339B4A7FBEB1C68BC4DB29A2",1,"0198f781-1c68-7ce1-b6ce-6cb5de3ee107","0198f767-55c9-7875-8d21-563b3c0b86ed","2025-08-29_15h27.07.023",NA,NA,810.9664,810.9665,810.9665,811.3185,NA,NA,NA,NA,NA,NA,NA,TRUE,2,1.0286,807.9716,810.9663,NA,NA,NA,NA,NA,45,29,0,98,98,55,1,2,99,"binary"
"4F8701E5339B4A7FBEB1C68BC4DB29A2",1,"0198f781-1c68-7ce1-b6ce-6cb5de3ee107","0198f767-55c9-7875-8d21-563b3c0b86ed","2025-08-29_15h27.07.023",NA,NA,814.3152,814.3153,814.3153,814.6658,NA,NA,NA,NA,NA,NA,NA,TRUE,1,1.0161,811.3201,814.3151,NA,NA,NA,NA,NA,200,35,0,99,99,104,1,2,100,"binary"
"4F8701E5339B4A7FBEB1C68BC4DB29A2",1,"0198f781-1c68-7ce1-b6ce-6cb5de3ee107","0198f767-55c9-7875-8d21-563b3c0b86ed","2025-08-29_15h27.07.023",NA,NA,817.6689,817.6691,817.6691,818.0142,NA,NA,NA,NA,NA,NA,NA,TRUE,2,1.041,814.6683,817.6687,NA,NA,NA,NA,NA,60,33,0,100,100,67,1,2,101,"binary"
"4F8701E5339B4A7FBEB1C68BC4DB29A2",1,"0198f781-1c68-7ce1-b6ce-6cb5de3ee107","0198f767-55c9-7875-8d21-563b3c0b86ed","2025-08-29_15h27.07.023",NA,NA,821.0169,821.0169,821.0169,821.3684,NA,NA,NA,NA,NA,NA,NA,TRUE,1,1.389,818.0156,821.0169,NA,NA,NA,NA,NA,150,31,0,101,101,90,1,2,102,"binary"
"4F8701E5339B4A7FBEB1C68BC4DB29A2",1,"0198f781-1c68-7ce1-b6ce-6cb5de3ee107","0198f767-55c9-7875-8d21-563b3c0b86ed","2025-08-29_15h27.07.023",NA,NA,824.3652,824.3652,824.3652,824.7166,NA,NA,NA,NA,NA,NA,NA,TRUE,1,1.0902,821.3699,824.3651,NA,NA,NA,NA,NA,200,26,0,102,102,102,1,2,103,"binary"
"4F8701E5339B4A7FBEB1C68BC4DB29A2",1,"0198f781-1c68-7ce1-b6ce-6cb5de3ee107","0198f767-55c9-7875-8d21-563b3c0b86ed","2025-08-29_15h27.07.023",NA,NA,827.7193,827.7193,827.7193,828.0643,NA,NA,NA,NA,NA,NA,NA,TRUE,1,1.0782,824.7182,827.7192,NA,NA,NA,NA,NA,50,35,0,103,103,62,1,2,104,"binary"
"4F8701E5339B4A7FBEB1C68BC4DB29A2",1,"0198f781-1c68-7ce1-b6ce-6cb5de3ee107","0198f767-55c9-7875-8d21-563b3c0b86ed","2025-08-29_15h27.07.023",NA,NA,831.0671,831.0671,831.0671,831.4188,NA,NA,NA,NA,NA,NA,NA,TRUE,2,1.4935,828.066,831.067,NA,NA,NA,NA,NA,14,35,0,104,104,22,1,2,105,"binary"
"4F8701E5339B4A7FBEB1C68BC4DB29A2",1,"0198f781-1c68-7ce1-b6ce-6cb5de3ee107","0198f767-55c9-7875-8d21-563b3c0b86ed","2025-08-29_15h27.07.023",NA,NA,834.415,834.415,834.4151,834.7674,NA,NA,NA,NA,NA,NA,NA,TRUE,2,0.9762,831.4202,834.4148,NA,NA,NA,NA,NA,21,38,0,105,105,29,1,2,106,"binary"
"4F8701E5339B4A7FBEB1C68BC4DB29A2",1,"0198f781-1c68-7ce1-b6ce-6cb5de3ee107","0198f767-55c9-7875-8d21-563b3c0b86ed","2025-08-29_15h27.07.023",NA,NA,837.7695,837.7695,837.7696,838.115,NA,NA,NA,NA,NA,NA,NA,TRUE,2,0.7478,834.7693,837.7694,NA,NA,NA,NA,NA,40,47,0,106,106,52,1,2,107,"binary"
"4F8701E5339B4A7FBEB1C68BC4DB29A2",1,"0198f781-1c68-7ce1-b6ce-6cb5de3ee107","0198f767-55c9-7875-8d21-563b3c0b86ed","2025-08-29_15h27.07.023",NA,NA,841.1173,841.1173,841.1173,841.4693,NA,NA,NA,NA,NA,NA,NA,TRUE,2,1.4382,838.1166,841.1172,NA,NA,NA,NA,NA,12,31,0,107,107,15,1,2,108,"binary"
