"participant","session","assignmentId","projectId","date","practiceTrial.started","practiceTrial.stopped","tooLate.started","tooLate.stopped","blank.started","blank.stopped","trials_pract.thisRepN","trials_pract.thisTrialN","trials_pract.thisN","trials_pract.thisIndex","trials_pract.ran","delay_pract","amount_pract","responseMade","key","rt","trial.started","trial.stopped","trials.thisRepN","trials.thisTrialN","trials.thisN","trials.thisIndex","trials.ran","delay","amount","trials_2.thisRepN","trials_2.thisTrialN","trials_2.thisN","trials_2.thisIndex","trials_2.ran","block","trial","taskType"
"502060A98610498DBC32348A33A1EE33",1,"0198f77c-2a2e-7f20-ab1d-aaaa472b39ae","0198f767-55c9-7875-8d21-563b3c0b86ed","2025-08-29_15h30.57.825",60.4147,63.3875,63.3885,63.3957,63.3957,63.7374,0,0,0,4,1,30,40,TRUE,2,1.9027,NA,NA,NA,NA,NA,NA,NA,NA,NA,NA,NA,NA,NA,NA,0,1,"binary"
"502060A98610498DBC32348A33A1EE33",1,"0198f77c-2a2e-7f20-ab1d-aaaa472b39ae","0198f767-55c9-7875-8d21-563b3c0b86ed","2025-08-29_15h30.57.825",63.7407,66.7372,66.7374,66.7374,66.7374,67.0872,0,1,1,1,1,100,50,TRUE,1,1.9311,NA,NA,NA,NA,NA,NA,NA,NA,NA,NA,NA,NA,NA,NA,0,2,"binary"
"502060A98610498DBC32348A33A1EE33",1,"0198f77c-2a2e-7f20-ab1d-aaaa472b39ae","0198f767-55c9-7875-8d21-563b3c0b86ed","2025-08-29_15h30.57.825",67.0892,70.0872,70.0875,70.0875,70.0875,70.4373,0,2,2,2,1,14,45,TRUE,2,1.9137,NA,NA,NA,NA,NA,NA,NA,NA,NA,NA,NA,NA,NA,NA,0,3,"binary"
"502060A98610498DBC32348A33A1EE33",1,"0198f77c-2a2e-7f20-ab1d-aaaa472b39ae","0198f767-55c9-7875-8d21-563b3c0b86ed","2025-08-29_15h30.57.825",70.4392,73.437,73.4371,73.4372,73.4372,73.7873,0,3,3,0,1,7,30,TRUE,2,2.3611,NA,NA,NA,NA,NA,NA,NA,NA,NA,NA,NA,NA,NA,NA,0,4,"binary"
"502060A98610498DBC32348A33A1EE33",1,"0198f77c-2a2e-7f20-ab1d-aaaa472b39ae","0198f767-55c9-7875-8d21-563b3c0b86ed","2025-08-29_15h30.57.825",73.7893,76.7873,76.7874,76.7875,76.7875,77.1373,0,4,4,3,1,3,27,TRUE,2,1.5622,NA,NA,NA,NA,NA,NA,NA,NA,NA,NA,NA,NA,NA,NA,0,5,"binary"
"502060A98610498DBC32348A33A1EE33",1,"0198f77c-2a2e-7f20-ab1d-aaaa472b39ae","0198f767-55c9-7875-8d21-563b3c0b86ed","2025-08-29_15h30.57.825",NA,NA,106.1715,106.1717,106.1718,106.5202,NA,NA,NA,NA,NA,NA,NA,TRUE,1,2.1218,103.1931,106.1711,0,0,0,95,1,150,54,NA,NA,NA,NA,NA,1,1,"binary"
"502060A98610498DBC32348A33A1EE33",1,"0198f77c-2a2e-7f20-ab1d-aaaa472b39ae","0198f767-55c9-7875-8d21-563b3c0b86ed","2025-08-29_15h30.57.825",NA,NA,109.521,109.521,109.521,109.8708,NA,NA,NA,NA,NA,NA,NA,TRUE,1,1.4794,106.5222,109.5208,0,1,1,67,1,60,33,NA,NA,NA,NA,NA,1,2,"binary"
"502060A98610498DBC32348A33A1EE33",1,"0198f77c-2a2e-7f20-ab1d-aaaa472b39ae","0198f767-55c9-7875-8d21-563b3c0b86ed","2025-08-29_15h30.57.825",NA,NA,112.8709,112.8709,112.8709,113.2207,NA,NA,NA,NA,NA,NA,NA,TRUE,1,1.5464,109.8725,112.8708,0,2,2,39,1,28,35,NA,NA,NA,NA,NA,1,3,"binary"
"502060A98610498DBC32348A33A1EE33",1,"0198f77c-2a2e-7f20-ab1d-aaaa472b39ae","0198f767-55c9-7875-8d21-563b3c0b86ed","2025-08-29_15h30.57.825",NA,NA,116.2211,116.2211,116.2211,116.5709,NA,NA,NA,NA,NA,NA,NA,TRUE,1,1.1943,113.2221,116.2209,0,3,3,78,1,95,31,NA,NA,NA,NA,NA,1,4,"binary"
"502060A98610498DBC32348A33A1EE33",1,"0198f77c-2a2e-7f20-ab1d-aaaa472b39ae","0198f767-55c9-7875-8d21-563b3c0b86ed","2025-08-29_15h30.57.825",NA,NA,119.571,119.571,119.571,119.92,NA,NA,NA,NA,NA,NA,NA,TRUE,1,1.2224,116.5727,119.5708,0,4,4,74,1,90,33,NA,NA,NA,NA,NA,1,5,"binary"
"502060A98610498DBC32348A33A1EE33",1,"0198f77c-2a2e-7f20-ab1d-aaaa472b39ae","0198f767-55c9-7875-8d21-563b3c0b86ed","2025-08-29_15h30.57.825",NA,NA,122.9207,122.9208,122.9208,123.2708,NA,NA,NA,NA,NA,NA,NA,TRUE,1,1.0678,119.9216,122.9206,0,5,5,90,1,150,31,NA,NA,NA,NA,NA,1,6,"binary"
"502060A98610498DBC32348A33A1EE33",1,"0198f77c-2a2e-7f20-ab1d-aaaa472b39ae","0198f767-55c9-7875-8d21-563b3c0b86ed","2025-08-29_15h30.57.825",NA,NA,126.2702,126.2702,126.2703,126.6209,NA,NA,NA,NA,NA,NA,NA,TRUE,1,2.1459,123.2726,126.2701,0,6,6,76,1,90,46,NA,NA,NA,NA,NA,1,7,"binary"
"502060A98610498DBC32348A33A1EE33",1,"0198f77c-2a2e-7f20-ab1d-aaaa472b39ae","0198f767-55c9-7875-8d21-563b3c0b86ed","2025-08-29_15h30.57.825",NA,NA,129.6211,129.6211,129.6211,129.9709,NA,NA,NA,NA,NA,NA,NA,TRUE,2,1.6957,126.6226,129.621,0,7,7,15,1,12,31,NA,NA,NA,NA,NA,1,8,"binary"
"502060A98610498DBC32348A33A1EE33",1,"0198f77c-2a2e-7f20-ab1d-aaaa472b39ae","0198f767-55c9-7875-8d21-563b3c0b86ed","2025-08-29_15h30.57.825",NA,NA,132.9704,132.9704,132.9704,133.321,NA,NA,NA,NA,NA,NA,NA,TRUE,2,1.4584,129.9727,132.9702,0,8,8,4,1,7,32,NA,NA,NA,NA,NA,1,9,"binary"
"502060A98610498DBC32348A33A1EE33",1,"0198f77c-2a2e-7f20-ab1d-aaaa472b39ae","0198f767-55c9-7875-8d21-563b3c0b86ed","2025-08-29_15h30.57.825",NA,NA,136.3211,136.3211,136.3212,136.6709,NA,NA,NA,NA,NA,NA,NA,TRUE,1,1.3415,133.3225,136.321,0,9,9,105,1,200,39,NA,NA,NA,NA,NA,1,10,"binary"
"502060A98610498DBC32348A33A1EE33",1,"0198f77c-2a2e-7f20-ab1d-aaaa472b39ae","0198f767-55c9-7875-8d21-563b3c0b86ed","2025-08-29_15h30.57.825",NA,NA,139.671,139.6711,139.6711,140.0211,NA,NA,NA,NA,NA,NA,NA,TRUE,1,1.9962,136.6727,139.6709,0,10,10,8,1,10,27,NA,NA,NA,NA,NA,1,11,"binary"
"502060A98610498DBC32348A33A1EE33",1,"0198f77c-2a2e-7f20-ab1d-aaaa472b39ae","0198f767-55c9-7875-8d21-563b3c0b86ed","2025-08-29_15h30.57.825",NA,NA,143.0211,143.0212,143.0212,143.371,NA,NA,NA,NA,NA,NA,NA,TRUE,1,1.1157,140.0232,143.021,0,11,11,100,1,180,46,NA,NA,NA,NA,NA,1,12,"binary"
"502060A98610498DBC32348A33A1EE33",1,"0198f77c-2a2e-7f20-ab1d-aaaa472b39ae","0198f767-55c9-7875-8d21-563b3c0b86ed","2025-08-29_15h30.57.825",NA,NA,146.3712,146.3713,146.3713,146.7211,NA,NA,NA,NA,NA,NA,NA,TRUE,1,2.6899,143.3727,146.3711,0,12,12,58,1,45,40,NA,NA,NA,NA,NA,1,13,"binary"
"502060A98610498DBC32348A33A1EE33",1,"0198f77c-2a2e-7f20-ab1d-aaaa472b39ae","0198f767-55c9-7875-8d21-563b3c0b86ed","2025-08-29_15h30.57.825",NA,NA,149.7212,149.7213,149.7213,150.0701,NA,NA,NA,NA,NA,NA,NA,TRUE,2,1.6061,146.7228,149.7211,0,13,13,5,1,7,35,NA,NA,NA,NA,NA,1,14,"binary"
"502060A98610498DBC32348A33A1EE33",1,"0198f77c-2a2e-7f20-ab1d-aaaa472b39ae","0198f767-55c9-7875-8d21-563b3c0b86ed","2025-08-29_15h30.57.825",NA,NA,153.0711,153.321,153.3211,153.4211,NA,NA,NA,NA,NA,NA,NA,FALSE,NA,NA,150.0718,153.0709,0,14,14,44,1,30,29,NA,NA,NA,NA,NA,1,15,"binary"
"502060A98610498DBC32348A33A1EE33",1,"0198f77c-2a2e-7f20-ab1d-aaaa472b39ae","0198f767-55c9-7875-8d21-563b3c0b86ed","2025-08-29_15h30.57.825",NA,NA,156.4214,156.4214,156.4214,156.7706,NA,NA,NA,NA,NA,NA,NA,TRUE,2,0.4389,153.4229,156.4213,0,15,15,22,1,14,35,NA,NA,NA,NA,NA,1,16,"binary"
"502060A98610498DBC32348A33A1EE33",1,"0198f77c-2a2e-7f20-ab1d-aaaa472b39ae","0198f767-55c9-7875-8d21-563b3c0b86ed","2025-08-29_15h30.57.825",NA,NA,159.771,159.7711,159.7711,160.121,NA,NA,NA,NA,NA,NA,NA,TRUE,1,1.3639,156.7719,159.7709,0,16,16,45,1,30,30,NA,NA,NA,NA,NA,1,17,"binary"
"502060A98610498DBC32348A33A1EE33",1,"0198f77c-2a2e-7f20-ab1d-aaaa472b39ae","0198f767-55c9-7875-8d21-563b3c0b86ed","2025-08-29_15h30.57.825",NA,NA,163.1209,163.121,163.121,163.4711,NA,NA,NA,NA,NA,NA,NA,TRUE,2,1.529,160.1228,163.1208,0,17,17,56,1,45,31,NA,NA,NA,NA,NA,1,18,"binary"
"502060A98610498DBC32348A33A1EE33",1,"0198f77c-2a2e-7f20-ab1d-aaaa472b39ae","0198f767-55c9-7875-8d21-563b3c0b86ed","2025-08-29_15h30.57.825",NA,NA,166.4712,166.4712,166.4712,166.821,NA,NA,NA,NA,NA,NA,NA,TRUE,1,1.2957,163.4729,166.4711,0,18,18,93,1,150,40,NA,NA,NA,NA,NA,1,19,"binary"
"502060A98610498DBC32348A33A1EE33",1,"0198f77c-2a2e-7f20-ab1d-aaaa472b39ae","0198f767-55c9-7875-8d21-563b3c0b86ed","2025-08-29_15h30.57.825",NA,NA,169.821,169.821,169.8211,170.1711,NA,NA,NA,NA,NA,NA,NA,TRUE,1,1.3155,166.8228,169.8209,0,19,19,7,1,10,26,NA,NA,NA,NA,NA,1,20,"binary"
"502060A98610498DBC32348A33A1EE33",1,"0198f77c-2a2e-7f20-ab1d-aaaa472b39ae","0198f767-55c9-7875-8d21-563b3c0b86ed","2025-08-29_15h30.57.825",NA,NA,173.1713,173.1713,173.1713,173.5211,NA,NA,NA,NA,NA,NA,NA,TRUE,2,1.2487,170.1728,173.1711,0,20,20,11,1,10,32,NA,NA,NA,NA,NA,1,21,"binary"
"502060A98610498DBC32348A33A1EE33",1,"0198f77c-2a2e-7f20-ab1d-aaaa472b39ae","0198f767-55c9-7875-8d21-563b3c0b86ed","2025-08-29_15h30.57.825",NA,NA,176.5214,176.5214,176.5214,176.8711,NA,NA,NA,NA,NA,NA,NA,TRUE,2,1.5461,173.5228,176.5212,0,21,21,52,1,40,47,NA,NA,NA,NA,NA,1,22,"binary"
"502060A98610498DBC32348A33A1EE33",1,"0198f77c-2a2e-7f20-ab1d-aaaa472b39ae","0198f767-55c9-7875-8d21-563b3c0b86ed","2025-08-29_15h30.57.825",NA,NA,179.8712,179.8713,179.8713,180.2203,NA,NA,NA,NA,NA,NA,NA,TRUE,1,1.5467,176.8726,179.8711,0,22,22,9,1,10,29,NA,NA,NA,NA,NA,1,23,"binary"
"502060A98610498DBC32348A33A1EE33",1,"0198f77c-2a2e-7f20-ab1d-aaaa472b39ae","0198f767-55c9-7875-8d21-563b3c0b86ed","2025-08-29_15h30.57.825",NA,NA,183.2214,183.2214,183.2214,183.5713,NA,NA,NA,NA,NA,NA,NA,TRUE,1,1.3647,180.2218,183.2213,0,23,23,57,1,45,35,NA,NA,NA,NA,NA,1,24,"binary"
"502060A98610498DBC32348A33A1EE33",1,"0198f77c-2a2e-7f20-ab1d-aaaa472b39ae","0198f767-55c9-7875-8d21-563b3c0b86ed","2025-08-29_15h30.57.825",NA,NA,186.5712,186.5712,186.5712,186.9206,NA,NA,NA,NA,NA,NA,NA,TRUE,1,0.9294,183.5731,186.5711,0,24,24,99,1,180,39,NA,NA,NA,NA,NA,1,25,"binary"
"502060A98610498DBC32348A33A1EE33",1,"0198f77c-2a2e-7f20-ab1d-aaaa472b39ae","0198f767-55c9-7875-8d21-563b3c0b86ed","2025-08-29_15h30.57.825",NA,NA,189.9215,189.9215,189.9215,190.2713,NA,NA,NA,NA,NA,NA,NA,TRUE,2,1.4662,186.9223,189.9213,0,25,25,18,1,14,25,NA,NA,NA,NA,NA,1,26,"binary"
"502060A98610498DBC32348A33A1EE33",1,"0198f77c-2a2e-7f20-ab1d-aaaa472b39ae","0198f767-55c9-7875-8d21-563b3c0b86ed","2025-08-29_15h30.57.825",NA,NA,193.2715,193.2716,193.2716,193.6212,NA,NA,NA,NA,NA,NA,NA,TRUE,1,1.6801,190.2732,193.2714,0,26,26,64,1,50,46,NA,NA,NA,NA,NA,1,27,"binary"
"502060A98610498DBC32348A33A1EE33",1,"0198f77c-2a2e-7f20-ab1d-aaaa472b39ae","0198f767-55c9-7875-8d21-563b3c0b86ed","2025-08-29_15h30.57.825",NA,NA,196.6215,196.6215,196.6215,196.971,NA,NA,NA,NA,NA,NA,NA,TRUE,1,1.2454,193.623,196.6213,0,27,27,80,1,95,35,NA,NA,NA,NA,NA,1,28,"binary"
"502060A98610498DBC32348A33A1EE33",1,"0198f77c-2a2e-7f20-ab1d-aaaa472b39ae","0198f767-55c9-7875-8d21-563b3c0b86ed","2025-08-29_15h30.57.825",NA,NA,199.9715,199.9715,199.9715,200.3213,NA,NA,NA,NA,NA,NA,NA,TRUE,1,1.1643,196.9726,199.9713,0,28,28,88,1,100,46,NA,NA,NA,NA,NA,1,29,"binary"
"502060A98610498DBC32348A33A1EE33",1,"0198f77c-2a2e-7f20-ab1d-aaaa472b39ae","0198f767-55c9-7875-8d21-563b3c0b86ed","2025-08-29_15h30.57.825",NA,NA,203.3206,203.3206,203.3206,203.6712,NA,NA,NA,NA,NA,NA,NA,TRUE,1,0.8895,200.3229,203.3205,0,29,29,91,1,150,33,NA,NA,NA,NA,NA,1,30,"binary"
"502060A98610498DBC32348A33A1EE33",1,"0198f77c-2a2e-7f20-ab1d-aaaa472b39ae","0198f767-55c9-7875-8d21-563b3c0b86ed","2025-08-29_15h30.57.825",NA,NA,206.6715,206.6716,206.6716,207.0214,NA,NA,NA,NA,NA,NA,NA,TRUE,1,0.8795,203.6729,206.6713,0,30,30,96,1,180,27,NA,NA,NA,NA,NA,1,31,"binary"
"502060A98610498DBC32348A33A1EE33",1,"0198f77c-2a2e-7f20-ab1d-aaaa472b39ae","0198f767-55c9-7875-8d21-563b3c0b86ed","2025-08-29_15h30.57.825",NA,NA,210.0212,210.0213,210.0213,210.3714,NA,NA,NA,NA,NA,NA,NA,TRUE,1,1.1387,207.0234,210.0211,0,31,31,60,1,50,27,NA,NA,NA,NA,NA,1,32,"binary"
"502060A98610498DBC32348A33A1EE33",1,"0198f77c-2a2e-7f20-ab1d-aaaa472b39ae","0198f767-55c9-7875-8d21-563b3c0b86ed","2025-08-29_15h30.57.825",NA,NA,213.3715,213.3716,213.3716,213.7213,NA,NA,NA,NA,NA,NA,NA,TRUE,1,1.3295,210.3731,213.3714,0,32,32,36,1,28,26,NA,NA,NA,NA,NA,1,33,"binary"
"502060A98610498DBC32348A33A1EE33",1,"0198f77c-2a2e-7f20-ab1d-aaaa472b39ae","0198f767-55c9-7875-8d21-563b3c0b86ed","2025-08-29_15h30.57.825",NA,NA,216.7216,216.7216,216.7216,217.0714,NA,NA,NA,NA,NA,NA,NA,TRUE,1,0.8629,213.723,216.7215,0,33,33,55,1,45,29,NA,NA,NA,NA,NA,1,34,"binary"
"502060A98610498DBC32348A33A1EE33",1,"0198f77c-2a2e-7f20-ab1d-aaaa472b39ae","0198f767-55c9-7875-8d21-563b3c0b86ed","2025-08-29_15h30.57.825",NA,NA,220.0712,220.0712,220.0713,220.4214,NA,NA,NA,NA,NA,NA,NA,TRUE,2,1.5133,217.0731,220.0711,0,34,34,35,1,25,46,NA,NA,NA,NA,NA,1,35,"binary"
"502060A98610498DBC32348A33A1EE33",1,"0198f77c-2a2e-7f20-ab1d-aaaa472b39ae","0198f767-55c9-7875-8d21-563b3c0b86ed","2025-08-29_15h30.57.825",NA,NA,223.4216,223.4216,223.4216,223.7713,NA,NA,NA,NA,NA,NA,NA,TRUE,1,0.9653,220.4233,223.4215,0,35,35,94,1,150,47,NA,NA,NA,NA,NA,1,36,"binary"
"502060A98610498DBC32348A33A1EE33",1,"0198f77c-2a2e-7f20-ab1d-aaaa472b39ae","0198f767-55c9-7875-8d21-563b3c0b86ed","2025-08-29_15h30.57.825",NA,NA,226.7715,226.7715,226.7715,227.1215,NA,NA,NA,NA,NA,NA,NA,TRUE,2,1.779,223.7731,226.7714,0,36,36,20,1,14,28,NA,NA,NA,NA,NA,1,37,"binary"
"502060A98610498DBC32348A33A1EE33",1,"0198f77c-2a2e-7f20-ab1d-aaaa472b39ae","0198f767-55c9-7875-8d21-563b3c0b86ed","2025-08-29_15h30.57.825",NA,NA,230.1216,230.1216,230.1217,230.4715,NA,NA,NA,NA,NA,NA,NA,TRUE,1,1.6628,227.1232,230.1215,0,37,37,37,1,28,28,NA,NA,NA,NA,NA,1,38,"binary"
"502060A98610498DBC32348A33A1EE33",1,"0198f77c-2a2e-7f20-ab1d-aaaa472b39ae","0198f767-55c9-7875-8d21-563b3c0b86ed","2025-08-29_15h30.57.825",NA,NA,233.4717,233.4717,233.4717,233.8214,NA,NA,NA,NA,NA,NA,NA,TRUE,2,1.946,230.4731,233.4716,0,38,38,27,1,21,30,NA,NA,NA,NA,NA,1,39,"binary"
"502060A98610498DBC32348A33A1EE33",1,"0198f77c-2a2e-7f20-ab1d-aaaa472b39ae","0198f767-55c9-7875-8d21-563b3c0b86ed","2025-08-29_15h30.57.825",NA,NA,236.8216,236.8217,236.8217,237.1715,NA,NA,NA,NA,NA,NA,NA,TRUE,1,1.5301,233.8231,236.8215,0,39,39,24,1,21,26,NA,NA,NA,NA,NA,1,40,"binary"
"502060A98610498DBC32348A33A1EE33",1,"0198f77c-2a2e-7f20-ab1d-aaaa472b39ae","0198f767-55c9-7875-8d21-563b3c0b86ed","2025-08-29_15h30.57.825",NA,NA,240.1717,240.1717,240.1718,240.5213,NA,NA,NA,NA,NA,NA,NA,TRUE,1,1.6138,237.1732,240.1716,0,40,40,77,1,90,54,NA,NA,NA,NA,NA,1,41,"binary"
"502060A98610498DBC32348A33A1EE33",1,"0198f77c-2a2e-7f20-ab1d-aaaa472b39ae","0198f767-55c9-7875-8d21-563b3c0b86ed","2025-08-29_15h30.57.825",NA,NA,243.5216,243.5217,243.5217,243.8715,NA,NA,NA,NA,NA,NA,NA,TRUE,2,1.2119,240.523,243.5216,0,41,41,23,1,14,39,NA,NA,NA,NA,NA,1,42,"binary"
"502060A98610498DBC32348A33A1EE33",1,"0198f77c-2a2e-7f20-ab1d-aaaa472b39ae","0198f767-55c9-7875-8d21-563b3c0b86ed","2025-08-29_15h30.57.825",NA,NA,246.8717,246.8717,246.8717,247.2216,NA,NA,NA,NA,NA,NA,NA,TRUE,1,1.5968,243.8729,246.8716,0,42,42,59,1,45,46,NA,NA,NA,NA,NA,1,43,"binary"
"502060A98610498DBC32348A33A1EE33",1,"0198f77c-2a2e-7f20-ab1d-aaaa472b39ae","0198f767-55c9-7875-8d21-563b3c0b86ed","2025-08-29_15h30.57.825",NA,NA,250.2217,250.2217,250.2217,250.5715,NA,NA,NA,NA,NA,NA,NA,TRUE,1,1.7648,247.223,250.2216,0,43,43,41,1,28,46,NA,NA,NA,NA,NA,1,44,"binary"
"502060A98610498DBC32348A33A1EE33",1,"0198f77c-2a2e-7f20-ab1d-aaaa472b39ae","0198f767-55c9-7875-8d21-563b3c0b86ed","2025-08-29_15h30.57.825",NA,NA,253.5718,253.5718,253.5718,253.9216,NA,NA,NA,NA,NA,NA,NA,TRUE,1,1.2508,250.5733,253.5716,0,44,44,63,1,50,40,NA,NA,NA,NA,NA,1,45,"binary"
"502060A98610498DBC32348A33A1EE33",1,"0198f77c-2a2e-7f20-ab1d-aaaa472b39ae","0198f767-55c9-7875-8d21-563b3c0b86ed","2025-08-29_15h30.57.825",NA,NA,256.922,256.9221,256.9221,257.2716,NA,NA,NA,NA,NA,NA,NA,TRUE,1,1.2789,253.9234,256.9219,0,45,45,1,1,7,26,NA,NA,NA,NA,NA,1,46,"binary"
"502060A98610498DBC32348A33A1EE33",1,"0198f77c-2a2e-7f20-ab1d-aaaa472b39ae","0198f767-55c9-7875-8d21-563b3c0b86ed","2025-08-29_15h30.57.825",NA,NA,260.2717,260.2718,260.2718,260.6216,NA,NA,NA,NA,NA,NA,NA,TRUE,1,1.046,257.2733,260.2716,0,46,46,6,1,10,25,NA,NA,NA,NA,NA,1,47,"binary"
"502060A98610498DBC32348A33A1EE33",1,"0198f77c-2a2e-7f20-ab1d-aaaa472b39ae","0198f767-55c9-7875-8d21-563b3c0b86ed","2025-08-29_15h30.57.825",NA,NA,263.6218,263.6218,263.6218,263.9717,NA,NA,NA,NA,NA,NA,NA,TRUE,1,1.0287,260.6233,263.6217,0,47,47,54,1,45,26,NA,NA,NA,NA,NA,1,48,"binary"
"502060A98610498DBC32348A33A1EE33",1,"0198f77c-2a2e-7f20-ab1d-aaaa472b39ae","0198f767-55c9-7875-8d21-563b3c0b86ed","2025-08-29_15h30.57.825",NA,NA,266.9718,266.9718,266.9719,267.3215,NA,NA,NA,NA,NA,NA,NA,TRUE,1,0.8713,263.9735,266.9717,0,48,48,31,1,25,29,NA,NA,NA,NA,NA,1,49,"binary"
"502060A98610498DBC32348A33A1EE33",1,"0198f77c-2a2e-7f20-ab1d-aaaa472b39ae","0198f767-55c9-7875-8d21-563b3c0b86ed","2025-08-29_15h30.57.825",NA,NA,270.3218,270.3218,270.3218,270.6709,NA,NA,NA,NA,NA,NA,NA,TRUE,1,0.8487,267.3233,270.3217,0,49,49,102,1,200,26,NA,NA,NA,NA,NA,1,50,"binary"
"502060A98610498DBC32348A33A1EE33",1,"0198f77c-2a2e-7f20-ab1d-aaaa472b39ae","0198f767-55c9-7875-8d21-563b3c0b86ed","2025-08-29_15h30.57.825",NA,NA,273.6719,273.6719,273.6719,274.0217,NA,NA,NA,NA,NA,NA,NA,TRUE,1,1.014,270.6725,273.6717,0,50,50,42,1,30,26,NA,NA,NA,NA,NA,1,51,"binary"
"502060A98610498DBC32348A33A1EE33",1,"0198f77c-2a2e-7f20-ab1d-aaaa472b39ae","0198f767-55c9-7875-8d21-563b3c0b86ed","2025-08-29_15h30.57.825",NA,NA,277.0219,277.022,277.022,277.3717,NA,NA,NA,NA,NA,NA,NA,TRUE,1,1.0476,274.0237,277.0218,0,51,51,82,1,95,47,NA,NA,NA,NA,NA,1,52,"binary"
"502060A98610498DBC32348A33A1EE33",1,"0198f77c-2a2e-7f20-ab1d-aaaa472b39ae","0198f767-55c9-7875-8d21-563b3c0b86ed","2025-08-29_15h30.57.825",NA,NA,280.372,280.372,280.372,280.7218,NA,NA,NA,NA,NA,NA,NA,TRUE,1,1.0793,277.3735,280.3717,0,52,52,43,1,30,27,NA,NA,NA,NA,NA,1,53,"binary"
"502060A98610498DBC32348A33A1EE33",1,"0198f77c-2a2e-7f20-ab1d-aaaa472b39ae","0198f767-55c9-7875-8d21-563b3c0b86ed","2025-08-29_15h30.57.825",NA,NA,283.721,283.721,283.7211,284.0714,NA,NA,NA,NA,NA,NA,NA,TRUE,1,0.9124,280.7235,283.7209,0,53,53,84,1,100,26,NA,NA,NA,NA,NA,1,54,"binary"
"502060A98610498DBC32348A33A1EE33",1,"0198f77c-2a2e-7f20-ab1d-aaaa472b39ae","0198f767-55c9-7875-8d21-563b3c0b86ed","2025-08-29_15h30.57.825",NA,NA,287.0717,287.0717,287.0717,287.4218,NA,NA,NA,NA,NA,NA,NA,TRUE,1,0.7356,284.0731,287.0715,0,54,54,104,1,200,35,NA,NA,NA,NA,NA,1,55,"binary"
"502060A98610498DBC32348A33A1EE33",1,"0198f77c-2a2e-7f20-ab1d-aaaa472b39ae","0198f767-55c9-7875-8d21-563b3c0b86ed","2025-08-29_15h30.57.825",NA,NA,290.422,290.422,290.422,290.7718,NA,NA,NA,NA,NA,NA,NA,TRUE,1,1.2999,287.4235,290.4218,0,55,55,14,1,12,28,NA,NA,NA,NA,NA,1,56,"binary"
"502060A98610498DBC32348A33A1EE33",1,"0198f77c-2a2e-7f20-ab1d-aaaa472b39ae","0198f767-55c9-7875-8d21-563b3c0b86ed","2025-08-29_15h30.57.825",NA,NA,293.7719,293.772,293.772,294.1219,NA,NA,NA,NA,NA,NA,NA,TRUE,2,1.0717,290.7734,293.7718,0,56,56,17,1,12,35,NA,NA,NA,NA,NA,1,57,"binary"
"502060A98610498DBC32348A33A1EE33",1,"0198f77c-2a2e-7f20-ab1d-aaaa472b39ae","0198f767-55c9-7875-8d21-563b3c0b86ed","2025-08-29_15h30.57.825",NA,NA,297.122,297.1221,297.1221,297.4718,NA,NA,NA,NA,NA,NA,NA,TRUE,1,1.2952,294.1239,297.1219,0,57,57,62,1,50,35,NA,NA,NA,NA,NA,1,58,"binary"
"502060A98610498DBC32348A33A1EE33",1,"0198f77c-2a2e-7f20-ab1d-aaaa472b39ae","0198f767-55c9-7875-8d21-563b3c0b86ed","2025-08-29_15h30.57.825",NA,NA,300.472,300.4721,300.4721,300.8215,NA,NA,NA,NA,NA,NA,NA,TRUE,1,0.9892,297.4736,300.4719,0,58,58,87,1,100,39,NA,NA,NA,NA,NA,1,59,"binary"
"502060A98610498DBC32348A33A1EE33",1,"0198f77c-2a2e-7f20-ab1d-aaaa472b39ae","0198f767-55c9-7875-8d21-563b3c0b86ed","2025-08-29_15h30.57.825",NA,NA,303.822,303.8221,303.8221,304.1719,NA,NA,NA,NA,NA,NA,NA,TRUE,2,1.1317,300.8225,303.8218,0,59,59,53,1,40,54,NA,NA,NA,NA,NA,1,60,"binary"
"502060A98610498DBC32348A33A1EE33",1,"0198f77c-2a2e-7f20-ab1d-aaaa472b39ae","0198f767-55c9-7875-8d21-563b3c0b86ed","2025-08-29_15h30.57.825",NA,NA,307.1712,307.1712,307.1712,307.5219,NA,NA,NA,NA,NA,NA,NA,TRUE,1,1.1072,304.1737,307.171,0,60,60,98,1,180,35,NA,NA,NA,NA,NA,1,61,"binary"
"502060A98610498DBC32348A33A1EE33",1,"0198f77c-2a2e-7f20-ab1d-aaaa472b39ae","0198f767-55c9-7875-8d21-563b3c0b86ed","2025-08-29_15h30.57.825",NA,NA,310.522,310.5221,310.5221,310.8719,NA,NA,NA,NA,NA,NA,NA,TRUE,1,1.6297,307.5236,310.522,0,61,61,19,1,14,26,NA,NA,NA,NA,NA,1,62,"binary"
"502060A98610498DBC32348A33A1EE33",1,"0198f77c-2a2e-7f20-ab1d-aaaa472b39ae","0198f767-55c9-7875-8d21-563b3c0b86ed","2025-08-29_15h30.57.825",NA,NA,313.872,313.872,313.872,314.2219,NA,NA,NA,NA,NA,NA,NA,TRUE,1,0.8646,310.8734,313.8719,0,62,62,107,1,200,54,NA,NA,NA,NA,NA,1,63,"binary"
"502060A98610498DBC32348A33A1EE33",1,"0198f77c-2a2e-7f20-ab1d-aaaa472b39ae","0198f767-55c9-7875-8d21-563b3c0b86ed","2025-08-29_15h30.57.825",NA,NA,317.2221,317.2221,317.2221,317.5719,NA,NA,NA,NA,NA,NA,NA,TRUE,1,1.1141,314.2233,317.2219,0,63,63,92,1,150,35,NA,NA,NA,NA,NA,1,64,"binary"
"502060A98610498DBC32348A33A1EE33",1,"0198f77c-2a2e-7f20-ab1d-aaaa472b39ae","0198f767-55c9-7875-8d21-563b3c0b86ed","2025-08-29_15h30.57.825",NA,NA,320.572,320.5721,320.5721,320.922,NA,NA,NA,NA,NA,NA,NA,TRUE,1,0.9461,317.5737,320.5719,0,64,64,85,1,100,31,NA,NA,NA,NA,NA,1,65,"binary"
"502060A98610498DBC32348A33A1EE33",1,"0198f77c-2a2e-7f20-ab1d-aaaa472b39ae","0198f767-55c9-7875-8d21-563b3c0b86ed","2025-08-29_15h30.57.825",NA,NA,323.923,323.923,323.9231,324.2719,NA,NA,NA,NA,NA,NA,NA,TRUE,1,1.0795,320.9238,323.9228,0,65,65,103,1,200,28,NA,NA,NA,NA,NA,1,66,"binary"
"502060A98610498DBC32348A33A1EE33",1,"0198f77c-2a2e-7f20-ab1d-aaaa472b39ae","0198f767-55c9-7875-8d21-563b3c0b86ed","2025-08-29_15h30.57.825",NA,NA,327.2723,327.2724,327.2724,327.622,NA,NA,NA,NA,NA,NA,NA,TRUE,1,0.9461,324.2738,327.2722,0,66,66,40,1,28,39,NA,NA,NA,NA,NA,1,67,"binary"
"502060A98610498DBC32348A33A1EE33",1,"0198f77c-2a2e-7f20-ab1d-aaaa472b39ae","0198f767-55c9-7875-8d21-563b3c0b86ed","2025-08-29_15h30.57.825",NA,NA,330.6212,330.6212,330.6212,330.9712,NA,NA,NA,NA,NA,NA,NA,TRUE,1,0.9573,327.6237,330.6211,0,67,67,83,1,95,54,NA,NA,NA,NA,NA,1,68,"binary"
"502060A98610498DBC32348A33A1EE33",1,"0198f77c-2a2e-7f20-ab1d-aaaa472b39ae","0198f767-55c9-7875-8d21-563b3c0b86ed","2025-08-29_15h30.57.825",NA,NA,333.9722,333.9722,333.9722,334.321,NA,NA,NA,NA,NA,NA,NA,TRUE,1,1.0804,330.9729,333.9721,0,68,68,47,1,30,38,NA,NA,NA,NA,NA,1,69,"binary"
"502060A98610498DBC32348A33A1EE33",1,"0198f77c-2a2e-7f20-ab1d-aaaa472b39ae","0198f767-55c9-7875-8d21-563b3c0b86ed","2025-08-29_15h30.57.825",NA,NA,337.3222,337.3222,337.3222,337.6721,NA,NA,NA,NA,NA,NA,NA,TRUE,1,0.8638,334.3227,337.322,0,69,69,30,1,25,27,NA,NA,NA,NA,NA,1,70,"binary"
"502060A98610498DBC32348A33A1EE33",1,"0198f77c-2a2e-7f20-ab1d-aaaa472b39ae","0198f767-55c9-7875-8d21-563b3c0b86ed","2025-08-29_15h30.57.825",NA,NA,340.6722,340.6723,340.6723,341.0219,NA,NA,NA,NA,NA,NA,NA,TRUE,1,0.8791,337.6738,340.6721,0,70,70,97,1,180,31,NA,NA,NA,NA,NA,1,71,"binary"
"502060A98610498DBC32348A33A1EE33",1,"0198f77c-2a2e-7f20-ab1d-aaaa472b39ae","0198f767-55c9-7875-8d21-563b3c0b86ed","2025-08-29_15h30.57.825",NA,NA,344.0223,344.0223,344.0223,344.3721,NA,NA,NA,NA,NA,NA,NA,TRUE,1,0.8784,341.0237,344.0221,0,71,71,49,1,40,33,NA,NA,NA,NA,NA,1,72,"binary"
"502060A98610498DBC32348A33A1EE33",1,"0198f77c-2a2e-7f20-ab1d-aaaa472b39ae","0198f767-55c9-7875-8d21-563b3c0b86ed","2025-08-29_15h30.57.825",NA,NA,347.3724,347.3724,347.3724,347.7221,NA,NA,NA,NA,NA,NA,NA,TRUE,1,1.2627,344.3738,347.3722,0,72,72,13,1,12,26,NA,NA,NA,NA,NA,1,73,"binary"
"502060A98610498DBC32348A33A1EE33",1,"0198f77c-2a2e-7f20-ab1d-aaaa472b39ae","0198f767-55c9-7875-8d21-563b3c0b86ed","2025-08-29_15h30.57.825",NA,NA,350.7222,350.7223,350.7223,351.0721,NA,NA,NA,NA,NA,NA,NA,TRUE,1,1.2987,347.7238,350.7221,0,73,73,28,1,21,32,NA,NA,NA,NA,NA,1,74,"binary"
"502060A98610498DBC32348A33A1EE33",1,"0198f77c-2a2e-7f20-ab1d-aaaa472b39ae","0198f767-55c9-7875-8d21-563b3c0b86ed","2025-08-29_15h30.57.825",NA,NA,354.0723,354.0724,354.0724,354.4221,NA,NA,NA,NA,NA,NA,NA,TRUE,1,1.1962,351.0739,354.0722,0,74,74,71,1,60,54,NA,NA,NA,NA,NA,1,75,"binary"
"502060A98610498DBC32348A33A1EE33",1,"0198f77c-2a2e-7f20-ab1d-aaaa472b39ae","0198f767-55c9-7875-8d21-563b3c0b86ed","2025-08-29_15h30.57.825",NA,NA,357.4223,357.4224,357.4224,357.7722,NA,NA,NA,NA,NA,NA,NA,TRUE,1,0.8631,354.4241,357.4221,0,75,75,89,1,100,54,NA,NA,NA,NA,NA,1,76,"binary"
"502060A98610498DBC32348A33A1EE33",1,"0198f77c-2a2e-7f20-ab1d-aaaa472b39ae","0198f767-55c9-7875-8d21-563b3c0b86ed","2025-08-29_15h30.57.825",NA,NA,360.7723,360.7723,360.7723,361.122,NA,NA,NA,NA,NA,NA,NA,TRUE,1,0.8951,357.7739,360.7721,0,76,76,101,1,180,54,NA,NA,NA,NA,NA,1,77,"binary"
"502060A98610498DBC32348A33A1EE33",1,"0198f77c-2a2e-7f20-ab1d-aaaa472b39ae","0198f767-55c9-7875-8d21-563b3c0b86ed","2025-08-29_15h30.57.825",NA,NA,364.1224,364.1224,364.1224,364.4722,NA,NA,NA,NA,NA,NA,NA,TRUE,2,1.3272,361.1225,364.1223,0,77,77,21,1,14,32,NA,NA,NA,NA,NA,1,78,"binary"
"502060A98610498DBC32348A33A1EE33",1,"0198f77c-2a2e-7f20-ab1d-aaaa472b39ae","0198f767-55c9-7875-8d21-563b3c0b86ed","2025-08-29_15h30.57.825",NA,NA,367.4723,367.4725,367.4725,367.8221,NA,NA,NA,NA,NA,NA,NA,TRUE,1,1.4989,364.474,367.4722,0,78,78,26,1,21,29,NA,NA,NA,NA,NA,1,79,"binary"
"502060A98610498DBC32348A33A1EE33",1,"0198f77c-2a2e-7f20-ab1d-aaaa472b39ae","0198f767-55c9-7875-8d21-563b3c0b86ed","2025-08-29_15h30.57.825",NA,NA,370.8224,370.8225,370.8225,371.1722,NA,NA,NA,NA,NA,NA,NA,TRUE,1,0.8795,367.824,370.8222,0,79,79,66,1,60,29,NA,NA,NA,NA,NA,1,80,"binary"
"502060A98610498DBC32348A33A1EE33",1,"0198f77c-2a2e-7f20-ab1d-aaaa472b39ae","0198f767-55c9-7875-8d21-563b3c0b86ed","2025-08-29_15h30.57.825",NA,NA,374.1722,374.1723,374.1723,374.5223,NA,NA,NA,NA,NA,NA,NA,TRUE,1,0.929,371.174,374.1722,0,80,80,70,1,60,47,NA,NA,NA,NA,NA,1,81,"binary"
"502060A98610498DBC32348A33A1EE33",1,"0198f77c-2a2e-7f20-ab1d-aaaa472b39ae","0198f767-55c9-7875-8d21-563b3c0b86ed","2025-08-29_15h30.57.825",NA,NA,377.5224,377.5225,377.5225,377.8722,NA,NA,NA,NA,NA,NA,NA,TRUE,1,0.7803,374.524,377.5223,0,81,81,86,1,100,38,NA,NA,NA,NA,NA,1,82,"binary"
"502060A98610498DBC32348A33A1EE33",1,"0198f77c-2a2e-7f20-ab1d-aaaa472b39ae","0198f767-55c9-7875-8d21-563b3c0b86ed","2025-08-29_15h30.57.825",NA,NA,380.8723,380.8723,380.8724,381.2213,NA,NA,NA,NA,NA,NA,NA,TRUE,1,1.0972,377.8738,380.8722,0,82,82,65,1,50,54,NA,NA,NA,NA,NA,1,83,"binary"
"502060A98610498DBC32348A33A1EE33",1,"0198f77c-2a2e-7f20-ab1d-aaaa472b39ae","0198f767-55c9-7875-8d21-563b3c0b86ed","2025-08-29_15h30.57.825",NA,NA,384.2216,384.2216,384.2216,384.5724,NA,NA,NA,NA,NA,NA,NA,TRUE,2,1.6636,381.2225,384.2214,0,83,83,29,1,21,38,NA,NA,NA,NA,NA,1,84,"binary"
"502060A98610498DBC32348A33A1EE33",1,"0198f77c-2a2e-7f20-ab1d-aaaa472b39ae","0198f767-55c9-7875-8d21-563b3c0b86ed","2025-08-29_15h30.57.825",NA,NA,387.5721,387.5721,387.5722,387.9214,NA,NA,NA,NA,NA,NA,NA,TRUE,1,0.8622,384.574,387.572,0,84,84,48,1,40,27,NA,NA,NA,NA,NA,1,85,"binary"
"502060A98610498DBC32348A33A1EE33",1,"0198f77c-2a2e-7f20-ab1d-aaaa472b39ae","0198f767-55c9-7875-8d21-563b3c0b86ed","2025-08-29_15h30.57.825",NA,NA,390.9225,390.9225,390.9225,391.2723,NA,NA,NA,NA,NA,NA,NA,TRUE,2,1.5841,387.9232,390.9224,0,85,85,16,1,12,33,NA,NA,NA,NA,NA,1,86,"binary"
"502060A98610498DBC32348A33A1EE33",1,"0198f77c-2a2e-7f20-ab1d-aaaa472b39ae","0198f767-55c9-7875-8d21-563b3c0b86ed","2025-08-29_15h30.57.825",NA,NA,394.2726,394.2726,394.2726,394.6224,NA,NA,NA,NA,NA,NA,NA,TRUE,1,1.3128,391.274,394.2724,0,86,86,69,1,60,40,NA,NA,NA,NA,NA,1,87,"binary"
"502060A98610498DBC32348A33A1EE33",1,"0198f77c-2a2e-7f20-ab1d-aaaa472b39ae","0198f767-55c9-7875-8d21-563b3c0b86ed","2025-08-29_15h30.57.825",NA,NA,397.6226,397.6227,397.6227,397.9725,NA,NA,NA,NA,NA,NA,NA,TRUE,1,1.2625,394.6241,397.6225,0,87,87,32,1,25,31,NA,NA,NA,NA,NA,1,88,"binary"
"502060A98610498DBC32348A33A1EE33",1,"0198f77c-2a2e-7f20-ab1d-aaaa472b39ae","0198f767-55c9-7875-8d21-563b3c0b86ed","2025-08-29_15h30.57.825",NA,NA,400.9725,400.9725,400.9725,401.3223,NA,NA,NA,NA,NA,NA,NA,TRUE,1,1.0625,397.9741,400.9723,0,88,88,33,1,25,33,NA,NA,NA,NA,NA,1,89,"binary"
"502060A98610498DBC32348A33A1EE33",1,"0198f77c-2a2e-7f20-ab1d-aaaa472b39ae","0198f767-55c9-7875-8d21-563b3c0b86ed","2025-08-29_15h30.57.825",NA,NA,404.3226,404.3226,404.3227,404.6725,NA,NA,NA,NA,NA,NA,NA,TRUE,1,1.3791,401.3241,404.3224,0,89,89,81,1,95,40,NA,NA,NA,NA,NA,1,90,"binary"
"502060A98610498DBC32348A33A1EE33",1,"0198f77c-2a2e-7f20-ab1d-aaaa472b39ae","0198f767-55c9-7875-8d21-563b3c0b86ed","2025-08-29_15h30.57.825",NA,NA,407.672,407.6721,407.6721,408.0214,NA,NA,NA,NA,NA,NA,NA,TRUE,1,1.2451,404.6741,407.6719,0,90,90,61,1,50,30,NA,NA,NA,NA,NA,1,91,"binary"
"502060A98610498DBC32348A33A1EE33",1,"0198f77c-2a2e-7f20-ab1d-aaaa472b39ae","0198f767-55c9-7875-8d21-563b3c0b86ed","2025-08-29_15h30.57.825",NA,NA,411.0227,411.0228,411.0228,411.3725,NA,NA,NA,NA,NA,NA,NA,TRUE,1,1.4291,408.0233,411.0225,0,91,91,38,1,28,32,NA,NA,NA,NA,NA,1,92,"binary"
"502060A98610498DBC32348A33A1EE33",1,"0198f77c-2a2e-7f20-ab1d-aaaa472b39ae","0198f767-55c9-7875-8d21-563b3c0b86ed","2025-08-29_15h30.57.825",NA,NA,414.3728,414.3728,414.3728,414.7225,NA,NA,NA,NA,NA,NA,NA,TRUE,1,1.3455,411.3742,414.3727,0,92,92,25,1,21,27,NA,NA,NA,NA,NA,1,93,"binary"
"502060A98610498DBC32348A33A1EE33",1,"0198f77c-2a2e-7f20-ab1d-aaaa472b39ae","0198f767-55c9-7875-8d21-563b3c0b86ed","2025-08-29_15h30.57.825",NA,NA,417.7226,417.7227,417.7227,418.0725,NA,NA,NA,NA,NA,NA,NA,TRUE,1,0.9783,414.7241,417.7225,0,93,93,46,1,30,32,NA,NA,NA,NA,NA,1,94,"binary"
"502060A98610498DBC32348A33A1EE33",1,"0198f77c-2a2e-7f20-ab1d-aaaa472b39ae","0198f767-55c9-7875-8d21-563b3c0b86ed","2025-08-29_15h30.57.825",NA,NA,421.0719,421.072,421.072,421.4226,NA,NA,NA,NA,NA,NA,NA,TRUE,2,1.2627,418.0741,421.0716,0,94,94,2,1,7,28,NA,NA,NA,NA,NA,1,95,"binary"
"502060A98610498DBC32348A33A1EE33",1,"0198f77c-2a2e-7f20-ab1d-aaaa472b39ae","0198f767-55c9-7875-8d21-563b3c0b86ed","2025-08-29_15h30.57.825",NA,NA,424.4226,424.4226,424.4226,424.7725,NA,NA,NA,NA,NA,NA,NA,TRUE,2,0.8131,421.4241,424.4225,0,95,95,3,1,7,30,NA,NA,NA,NA,NA,1,96,"binary"
"502060A98610498DBC32348A33A1EE33",1,"0198f77c-2a2e-7f20-ab1d-aaaa472b39ae","0198f767-55c9-7875-8d21-563b3c0b86ed","2025-08-29_15h30.57.825",NA,NA,427.772,427.772,427.772,428.1224,NA,NA,NA,NA,NA,NA,NA,TRUE,1,1.3339,424.7742,427.7718,0,96,96,12,1,12,25,NA,NA,NA,NA,NA,1,97,"binary"
"502060A98610498DBC32348A33A1EE33",1,"0198f77c-2a2e-7f20-ab1d-aaaa472b39ae","0198f767-55c9-7875-8d21-563b3c0b86ed","2025-08-29_15h30.57.825",NA,NA,431.1227,431.1228,431.1228,431.4725,NA,NA,NA,NA,NA,NA,NA,TRUE,1,1.1961,428.1242,431.1226,0,97,97,0,1,7,25,NA,NA,NA,NA,NA,1,98,"binary"
"502060A98610498DBC32348A33A1EE33",1,"0198f77c-2a2e-7f20-ab1d-aaaa472b39ae","0198f767-55c9-7875-8d21-563b3c0b86ed","2025-08-29_15h30.57.825",NA,NA,434.4727,434.4727,434.4727,434.8224,NA,NA,NA,NA,NA,NA,NA,TRUE,1,0.9486,431.474,434.4726,0,98,98,72,1,90,26,NA,NA,NA,NA,NA,1,99,"binary"
"502060A98610498DBC32348A33A1EE33",1,"0198f77c-2a2e-7f20-ab1d-aaaa472b39ae","0198f767-55c9-7875-8d21-563b3c0b86ed","2025-08-29_15h30.57.825",NA,NA,437.8225,437.8226,437.8226,438.1725,NA,NA,NA,NA,NA,NA,NA,TRUE,1,0.9964,434.8241,437.8224,0,99,99,51,1,40,40,NA,NA,NA,NA,NA,1,100,"binary"
"502060A98610498DBC32348A33A1EE33",1,"0198f77c-2a2e-7f20-ab1d-aaaa472b39ae","0198f767-55c9-7875-8d21-563b3c0b86ed","2025-08-29_15h30.57.825",NA,NA,441.173,441.173,441.173,441.5218,NA,NA,NA,NA,NA,NA,NA,TRUE,1,0.9222,438.1741,441.1728,0,100,100,73,1,90,30,NA,NA,NA,NA,NA,1,101,"binary"
"502060A98610498DBC32348A33A1EE33",1,"0198f77c-2a2e-7f20-ab1d-aaaa472b39ae","0198f767-55c9-7875-8d21-563b3c0b86ed","2025-08-29_15h30.57.825",NA,NA,444.5228,444.5228,444.5228,444.8726,NA,NA,NA,NA,NA,NA,NA,TRUE,1,0.913,441.5236,444.5227,0,101,101,50,1,40,35,NA,NA,NA,NA,NA,1,102,"binary"
"502060A98610498DBC32348A33A1EE33",1,"0198f77c-2a2e-7f20-ab1d-aaaa472b39ae","0198f767-55c9-7875-8d21-563b3c0b86ed","2025-08-29_15h30.57.825",NA,NA,447.8728,447.8728,447.8729,448.2229,NA,NA,NA,NA,NA,NA,NA,TRUE,1,0.8578,444.8742,447.8727,0,102,102,68,1,60,35,NA,NA,NA,NA,NA,1,103,"binary"
"502060A98610498DBC32348A33A1EE33",1,"0198f77c-2a2e-7f20-ab1d-aaaa472b39ae","0198f767-55c9-7875-8d21-563b3c0b86ed","2025-08-29_15h30.57.825",NA,NA,451.2218,451.2218,451.2218,451.5728,NA,NA,NA,NA,NA,NA,NA,TRUE,1,1.0464,448.2244,451.2216,0,103,103,106,1,200,47,NA,NA,NA,NA,NA,1,104,"binary"
"502060A98610498DBC32348A33A1EE33",1,"0198f77c-2a2e-7f20-ab1d-aaaa472b39ae","0198f767-55c9-7875-8d21-563b3c0b86ed","2025-08-29_15h30.57.825",NA,NA,454.5726,454.5727,454.5727,454.9227,NA,NA,NA,NA,NA,NA,NA,TRUE,1,1.0125,451.5745,454.5726,0,104,104,75,1,90,40,NA,NA,NA,NA,NA,1,105,"binary"
"502060A98610498DBC32348A33A1EE33",1,"0198f77c-2a2e-7f20-ab1d-aaaa472b39ae","0198f767-55c9-7875-8d21-563b3c0b86ed","2025-08-29_15h30.57.825",NA,NA,457.9229,457.9229,457.9229,458.2727,NA,NA,NA,NA,NA,NA,NA,TRUE,1,0.9951,454.9243,457.9227,0,105,105,34,1,25,35,NA,NA,NA,NA,NA,1,106,"binary"
"502060A98610498DBC32348A33A1EE33",1,"0198f77c-2a2e-7f20-ab1d-aaaa472b39ae","0198f767-55c9-7875-8d21-563b3c0b86ed","2025-08-29_15h30.57.825",NA,NA,461.2729,461.273,461.273,461.6227,NA,NA,NA,NA,NA,NA,NA,TRUE,1,0.913,458.2746,461.2727,0,106,106,79,1,95,33,NA,NA,NA,NA,NA,1,107,"binary"
"502060A98610498DBC32348A33A1EE33",1,"0198f77c-2a2e-7f20-ab1d-aaaa472b39ae","0198f767-55c9-7875-8d21-563b3c0b86ed","2025-08-29_15h30.57.825",NA,NA,464.6229,464.6229,464.6229,464.9728,NA,NA,NA,NA,NA,NA,NA,TRUE,2,0.9626,461.6247,464.6228,0,107,107,10,1,10,30,NA,NA,NA,NA,NA,1,108,"binary"
"502060A98610498DBC32348A33A1EE33",1,"0198f77c-2a2e-7f20-ab1d-aaaa472b39ae","0198f767-55c9-7875-8d21-563b3c0b86ed","2025-08-29_15h30.57.825",NA,NA,471.523,471.523,471.523,471.8728,NA,NA,NA,NA,NA,NA,NA,TRUE,1,1.3469,468.5413,471.5228,NA,NA,NA,NA,NA,150,54,0,0,0,95,1,2,1,"binary"
"502060A98610498DBC32348A33A1EE33",1,"0198f77c-2a2e-7f20-ab1d-aaaa472b39ae","0198f767-55c9-7875-8d21-563b3c0b86ed","2025-08-29_15h30.57.825",NA,NA,474.873,474.873,474.873,475.2227,NA,NA,NA,NA,NA,NA,NA,TRUE,1,1.3474,471.8745,474.8728,NA,NA,NA,NA,NA,150,31,0,1,1,90,1,2,2,"binary"
"502060A98610498DBC32348A33A1EE33",1,"0198f77c-2a2e-7f20-ab1d-aaaa472b39ae","0198f767-55c9-7875-8d21-563b3c0b86ed","2025-08-29_15h30.57.825",NA,NA,478.223,478.223,478.223,478.5728,NA,NA,NA,NA,NA,NA,NA,TRUE,1,1.1229,475.2243,478.2229,NA,NA,NA,NA,NA,45,29,0,2,2,55,1,2,3,"binary"
"502060A98610498DBC32348A33A1EE33",1,"0198f77c-2a2e-7f20-ab1d-aaaa472b39ae","0198f767-55c9-7875-8d21-563b3c0b86ed","2025-08-29_15h30.57.825",NA,NA,481.573,481.573,481.573,481.923,NA,NA,NA,NA,NA,NA,NA,TRUE,1,0.7576,478.5744,481.5729,NA,NA,NA,NA,NA,50,54,0,3,3,65,1,2,4,"binary"
"502060A98610498DBC32348A33A1EE33",1,"0198f77c-2a2e-7f20-ab1d-aaaa472b39ae","0198f767-55c9-7875-8d21-563b3c0b86ed","2025-08-29_15h30.57.825",NA,NA,484.923,484.9231,484.9231,485.2729,NA,NA,NA,NA,NA,NA,NA,TRUE,1,0.9615,481.9253,484.9229,NA,NA,NA,NA,NA,7,26,0,4,4,1,1,2,5,"binary"
"502060A98610498DBC32348A33A1EE33",1,"0198f77c-2a2e-7f20-ab1d-aaaa472b39ae","0198f767-55c9-7875-8d21-563b3c0b86ed","2025-08-29_15h30.57.825",NA,NA,488.2731,488.2732,488.2732,488.6229,NA,NA,NA,NA,NA,NA,NA,TRUE,1,0.7625,485.2748,488.273,NA,NA,NA,NA,NA,28,26,0,5,5,36,1,2,6,"binary"
"502060A98610498DBC32348A33A1EE33",1,"0198f77c-2a2e-7f20-ab1d-aaaa472b39ae","0198f767-55c9-7875-8d21-563b3c0b86ed","2025-08-29_15h30.57.825",NA,NA,491.6231,491.6232,491.6232,491.9729,NA,NA,NA,NA,NA,NA,NA,TRUE,1,0.7979,488.6247,491.623,NA,NA,NA,NA,NA,150,47,0,6,6,94,1,2,7,"binary"
"502060A98610498DBC32348A33A1EE33",1,"0198f77c-2a2e-7f20-ab1d-aaaa472b39ae","0198f767-55c9-7875-8d21-563b3c0b86ed","2025-08-29_15h30.57.825",NA,NA,494.9731,494.9732,494.9732,495.3227,NA,NA,NA,NA,NA,NA,NA,TRUE,1,0.7958,491.9748,494.9729,NA,NA,NA,NA,NA,14,26,0,7,7,19,1,2,8,"binary"
"502060A98610498DBC32348A33A1EE33",1,"0198f77c-2a2e-7f20-ab1d-aaaa472b39ae","0198f767-55c9-7875-8d21-563b3c0b86ed","2025-08-29_15h30.57.825",NA,NA,498.3229,498.3229,498.3229,498.6729,NA,NA,NA,NA,NA,NA,NA,TRUE,2,1.5126,495.3244,498.3227,NA,NA,NA,NA,NA,30,38,0,8,8,47,1,2,9,"binary"
"502060A98610498DBC32348A33A1EE33",1,"0198f77c-2a2e-7f20-ab1d-aaaa472b39ae","0198f767-55c9-7875-8d21-563b3c0b86ed","2025-08-29_15h30.57.825",NA,NA,501.6731,501.6731,501.6731,502.023,NA,NA,NA,NA,NA,NA,NA,TRUE,1,0.9806,498.6746,501.673,NA,NA,NA,NA,NA,45,31,0,9,9,56,1,2,10,"binary"
"502060A98610498DBC32348A33A1EE33",1,"0198f77c-2a2e-7f20-ab1d-aaaa472b39ae","0198f767-55c9-7875-8d21-563b3c0b86ed","2025-08-29_15h30.57.825",NA,NA,505.0231,505.0232,505.0232,505.373,NA,NA,NA,NA,NA,NA,NA,TRUE,1,0.4783,502.0248,505.023,NA,NA,NA,NA,NA,21,29,0,10,10,26,1,2,11,"binary"
"502060A98610498DBC32348A33A1EE33",1,"0198f77c-2a2e-7f20-ab1d-aaaa472b39ae","0198f767-55c9-7875-8d21-563b3c0b86ed","2025-08-29_15h30.57.825",NA,NA,508.3731,508.3732,508.3732,508.723,NA,NA,NA,NA,NA,NA,NA,TRUE,1,1.1161,505.3747,508.373,NA,NA,NA,NA,NA,12,28,0,11,11,14,1,2,12,"binary"
"502060A98610498DBC32348A33A1EE33",1,"0198f77c-2a2e-7f20-ab1d-aaaa472b39ae","0198f767-55c9-7875-8d21-563b3c0b86ed","2025-08-29_15h30.57.825",NA,NA,511.7233,511.7233,511.7233,512.073,NA,NA,NA,NA,NA,NA,NA,TRUE,1,1.382,508.7249,511.7231,NA,NA,NA,NA,NA,28,35,0,12,12,39,1,2,13,"binary"
"502060A98610498DBC32348A33A1EE33",1,"0198f77c-2a2e-7f20-ab1d-aaaa472b39ae","0198f767-55c9-7875-8d21-563b3c0b86ed","2025-08-29_15h30.57.825",NA,NA,515.0731,515.0731,515.0731,515.423,NA,NA,NA,NA,NA,NA,NA,TRUE,2,1.0793,512.0748,515.0729,NA,NA,NA,NA,NA,7,35,0,13,13,5,1,2,14,"binary"
"502060A98610498DBC32348A33A1EE33",1,"0198f77c-2a2e-7f20-ab1d-aaaa472b39ae","0198f767-55c9-7875-8d21-563b3c0b86ed","2025-08-29_15h30.57.825",NA,NA,518.4232,518.4232,518.4232,518.773,NA,NA,NA,NA,NA,NA,NA,TRUE,2,1.3804,515.4248,518.4231,NA,NA,NA,NA,NA,12,31,0,14,14,15,1,2,15,"binary"
"502060A98610498DBC32348A33A1EE33",1,"0198f77c-2a2e-7f20-ab1d-aaaa472b39ae","0198f767-55c9-7875-8d21-563b3c0b86ed","2025-08-29_15h30.57.825",NA,NA,521.7732,521.7732,521.7733,522.123,NA,NA,NA,NA,NA,NA,NA,TRUE,1,1.6804,518.7748,521.7731,NA,NA,NA,NA,NA,7,28,0,15,15,2,1,2,16,"binary"
"502060A98610498DBC32348A33A1EE33",1,"0198f77c-2a2e-7f20-ab1d-aaaa472b39ae","0198f767-55c9-7875-8d21-563b3c0b86ed","2025-08-29_15h30.57.825",NA,NA,525.1233,525.1233,525.1233,525.473,NA,NA,NA,NA,NA,NA,NA,TRUE,1,1.0623,522.1248,525.1232,NA,NA,NA,NA,NA,60,33,0,16,16,67,1,2,17,"binary"
"502060A98610498DBC32348A33A1EE33",1,"0198f77c-2a2e-7f20-ab1d-aaaa472b39ae","0198f767-55c9-7875-8d21-563b3c0b86ed","2025-08-29_15h30.57.825",NA,NA,528.4732,528.4732,528.4732,528.8229,NA,NA,NA,NA,NA,NA,NA,TRUE,1,0.8633,525.4748,528.4731,NA,NA,NA,NA,NA,60,40,0,17,17,69,1,2,18,"binary"
"502060A98610498DBC32348A33A1EE33",1,"0198f77c-2a2e-7f20-ab1d-aaaa472b39ae","0198f767-55c9-7875-8d21-563b3c0b86ed","2025-08-29_15h30.57.825",NA,NA,531.8232,531.8233,531.8233,532.173,NA,NA,NA,NA,NA,NA,NA,TRUE,1,0.9965,528.8248,531.823,NA,NA,NA,NA,NA,25,31,0,18,18,32,1,2,19,"binary"
"502060A98610498DBC32348A33A1EE33",1,"0198f77c-2a2e-7f20-ab1d-aaaa472b39ae","0198f767-55c9-7875-8d21-563b3c0b86ed","2025-08-29_15h30.57.825",NA,NA,535.1732,535.1732,535.1732,535.5231,NA,NA,NA,NA,NA,NA,NA,TRUE,1,0.7789,532.1748,535.1729,NA,NA,NA,NA,NA,95,40,0,19,19,81,1,2,20,"binary"
"502060A98610498DBC32348A33A1EE33",1,"0198f77c-2a2e-7f20-ab1d-aaaa472b39ae","0198f767-55c9-7875-8d21-563b3c0b86ed","2025-08-29_15h30.57.825",NA,NA,538.5233,538.5233,538.5233,538.8732,NA,NA,NA,NA,NA,NA,NA,TRUE,1,0.8145,535.5249,538.5232,NA,NA,NA,NA,NA,40,33,0,20,20,49,1,2,21,"binary"
"502060A98610498DBC32348A33A1EE33",1,"0198f77c-2a2e-7f20-ab1d-aaaa472b39ae","0198f767-55c9-7875-8d21-563b3c0b86ed","2025-08-29_15h30.57.825",NA,NA,541.8732,541.8732,541.8732,542.223,NA,NA,NA,NA,NA,NA,NA,TRUE,1,0.9472,538.8741,541.8731,NA,NA,NA,NA,NA,95,31,0,21,21,78,1,2,22,"binary"
"502060A98610498DBC32348A33A1EE33",1,"0198f77c-2a2e-7f20-ab1d-aaaa472b39ae","0198f767-55c9-7875-8d21-563b3c0b86ed","2025-08-29_15h30.57.825",NA,NA,545.2231,545.2232,545.2232,545.573,NA,NA,NA,NA,NA,NA,NA,TRUE,1,0.7639,542.2243,545.223,NA,NA,NA,NA,NA,40,54,0,22,22,53,1,2,23,"binary"
"502060A98610498DBC32348A33A1EE33",1,"0198f77c-2a2e-7f20-ab1d-aaaa472b39ae","0198f767-55c9-7875-8d21-563b3c0b86ed","2025-08-29_15h30.57.825",NA,NA,548.5734,548.5734,548.5734,548.9231,NA,NA,NA,NA,NA,NA,NA,TRUE,1,0.8308,545.5749,548.5732,NA,NA,NA,NA,NA,95,47,0,23,23,82,1,2,24,"binary"
"502060A98610498DBC32348A33A1EE33",1,"0198f77c-2a2e-7f20-ab1d-aaaa472b39ae","0198f767-55c9-7875-8d21-563b3c0b86ed","2025-08-29_15h30.57.825",NA,NA,551.9234,551.9235,551.9235,552.2734,NA,NA,NA,NA,NA,NA,NA,TRUE,1,0.7658,548.9248,551.9232,NA,NA,NA,NA,NA,30,29,0,24,24,44,1,2,25,"binary"
"502060A98610498DBC32348A33A1EE33",1,"0198f77c-2a2e-7f20-ab1d-aaaa472b39ae","0198f767-55c9-7875-8d21-563b3c0b86ed","2025-08-29_15h30.57.825",NA,NA,555.2735,555.2735,555.2736,555.6232,NA,NA,NA,NA,NA,NA,NA,TRUE,1,0.8972,552.2757,555.2733,NA,NA,NA,NA,NA,21,26,0,25,25,24,1,2,26,"binary"
"502060A98610498DBC32348A33A1EE33",1,"0198f77c-2a2e-7f20-ab1d-aaaa472b39ae","0198f767-55c9-7875-8d21-563b3c0b86ed","2025-08-29_15h30.57.825",NA,NA,558.6234,558.6234,558.6234,558.973,NA,NA,NA,NA,NA,NA,NA,TRUE,1,0.9123,555.6251,558.6233,NA,NA,NA,NA,NA,25,29,0,26,26,31,1,2,27,"binary"
"502060A98610498DBC32348A33A1EE33",1,"0198f77c-2a2e-7f20-ab1d-aaaa472b39ae","0198f767-55c9-7875-8d21-563b3c0b86ed","2025-08-29_15h30.57.825",NA,NA,561.9735,561.9735,561.9735,562.323,NA,NA,NA,NA,NA,NA,NA,TRUE,2,1.2095,558.9735,561.9732,NA,NA,NA,NA,NA,12,25,0,27,27,12,1,2,28,"binary"
"502060A98610498DBC32348A33A1EE33",1,"0198f77c-2a2e-7f20-ab1d-aaaa472b39ae","0198f767-55c9-7875-8d21-563b3c0b86ed","2025-08-29_15h30.57.825",NA,NA,565.3226,565.3226,565.3226,565.6733,NA,NA,NA,NA,NA,NA,NA,TRUE,1,1.0012,562.3245,565.3225,NA,NA,NA,NA,NA,95,54,0,28,28,83,1,2,29,"binary"
"502060A98610498DBC32348A33A1EE33",1,"0198f77c-2a2e-7f20-ab1d-aaaa472b39ae","0198f767-55c9-7875-8d21-563b3c0b86ed","2025-08-29_15h30.57.825",NA,NA,568.6735,568.6735,568.6735,569.0233,NA,NA,NA,NA,NA,NA,NA,TRUE,1,0.8619,565.675,568.6733,NA,NA,NA,NA,NA,90,40,0,29,29,75,1,2,30,"binary"
"502060A98610498DBC32348A33A1EE33",1,"0198f77c-2a2e-7f20-ab1d-aaaa472b39ae","0198f767-55c9-7875-8d21-563b3c0b86ed","2025-08-29_15h30.57.825",NA,NA,572.0234,572.0235,572.0235,572.3733,NA,NA,NA,NA,NA,NA,NA,TRUE,1,0.9148,569.0249,572.0233,NA,NA,NA,NA,NA,100,38,0,30,30,86,1,2,31,"binary"
"502060A98610498DBC32348A33A1EE33",1,"0198f77c-2a2e-7f20-ab1d-aaaa472b39ae","0198f767-55c9-7875-8d21-563b3c0b86ed","2025-08-29_15h30.57.825",NA,NA,575.3734,575.3734,575.3734,575.7233,NA,NA,NA,NA,NA,NA,NA,TRUE,1,0.9575,572.3751,575.3733,NA,NA,NA,NA,NA,25,33,0,31,31,33,1,2,32,"binary"
"502060A98610498DBC32348A33A1EE33",1,"0198f77c-2a2e-7f20-ab1d-aaaa472b39ae","0198f767-55c9-7875-8d21-563b3c0b86ed","2025-08-29_15h30.57.825",NA,NA,578.7235,578.7235,578.7235,579.0734,NA,NA,NA,NA,NA,NA,NA,TRUE,1,1.1067,575.7251,578.7234,NA,NA,NA,NA,NA,28,39,0,32,32,40,1,2,33,"binary"
"502060A98610498DBC32348A33A1EE33",1,"0198f77c-2a2e-7f20-ab1d-aaaa472b39ae","0198f767-55c9-7875-8d21-563b3c0b86ed","2025-08-29_15h30.57.825",NA,NA,582.0733,582.0734,582.0734,582.4233,NA,NA,NA,NA,NA,NA,NA,TRUE,1,0.88,579.0754,582.0732,NA,NA,NA,NA,NA,40,35,0,33,33,50,1,2,34,"binary"
"502060A98610498DBC32348A33A1EE33",1,"0198f77c-2a2e-7f20-ab1d-aaaa472b39ae","0198f767-55c9-7875-8d21-563b3c0b86ed","2025-08-29_15h30.57.825",NA,NA,585.423,585.4231,585.4231,585.7734,NA,NA,NA,NA,NA,NA,NA,TRUE,1,1.1981,582.4249,585.4229,NA,NA,NA,NA,NA,28,32,0,34,34,38,1,2,35,"binary"
"502060A98610498DBC32348A33A1EE33",1,"0198f77c-2a2e-7f20-ab1d-aaaa472b39ae","0198f767-55c9-7875-8d21-563b3c0b86ed","2025-08-29_15h30.57.825",NA,NA,588.7735,588.7736,588.7736,589.1231,NA,NA,NA,NA,NA,NA,NA,TRUE,1,1.3451,585.775,588.7734,NA,NA,NA,NA,NA,12,26,0,35,35,13,1,2,36,"binary"
"502060A98610498DBC32348A33A1EE33",1,"0198f77c-2a2e-7f20-ab1d-aaaa472b39ae","0198f767-55c9-7875-8d21-563b3c0b86ed","2025-08-29_15h30.57.825",NA,NA,592.1236,592.1237,592.1237,592.4735,NA,NA,NA,NA,NA,NA,NA,TRUE,2,1.1164,589.1239,592.1236,NA,NA,NA,NA,NA,12,35,0,36,36,17,1,2,37,"binary"
"502060A98610498DBC32348A33A1EE33",1,"0198f77c-2a2e-7f20-ab1d-aaaa472b39ae","0198f767-55c9-7875-8d21-563b3c0b86ed","2025-08-29_15h30.57.825",NA,NA,595.4736,595.4736,595.4736,595.8234,NA,NA,NA,NA,NA,NA,NA,TRUE,1,1.198,592.4753,595.4735,NA,NA,NA,NA,NA,200,26,0,37,37,102,1,2,38,"binary"
"502060A98610498DBC32348A33A1EE33",1,"0198f77c-2a2e-7f20-ab1d-aaaa472b39ae","0198f767-55c9-7875-8d21-563b3c0b86ed","2025-08-29_15h30.57.825",NA,NA,598.8236,598.8236,598.8236,599.1735,NA,NA,NA,NA,NA,NA,NA,TRUE,1,0.9643,595.8252,598.8235,NA,NA,NA,NA,NA,95,35,0,38,38,80,1,2,39,"binary"
"502060A98610498DBC32348A33A1EE33",1,"0198f77c-2a2e-7f20-ab1d-aaaa472b39ae","0198f767-55c9-7875-8d21-563b3c0b86ed","2025-08-29_15h30.57.825",NA,NA,602.1736,602.1736,602.1736,602.5235,NA,NA,NA,NA,NA,NA,NA,TRUE,1,1.0124,599.1752,602.1735,NA,NA,NA,NA,NA,45,40,0,39,39,58,1,2,40,"binary"
"502060A98610498DBC32348A33A1EE33",1,"0198f77c-2a2e-7f20-ab1d-aaaa472b39ae","0198f767-55c9-7875-8d21-563b3c0b86ed","2025-08-29_15h30.57.825",NA,NA,605.5236,605.5237,605.5237,605.8735,NA,NA,NA,NA,NA,NA,NA,TRUE,1,0.8818,602.5252,605.5235,NA,NA,NA,NA,NA,60,35,0,40,40,68,1,2,41,"binary"
"502060A98610498DBC32348A33A1EE33",1,"0198f77c-2a2e-7f20-ab1d-aaaa472b39ae","0198f767-55c9-7875-8d21-563b3c0b86ed","2025-08-29_15h30.57.825",NA,NA,608.8736,608.8736,608.8736,609.2236,NA,NA,NA,NA,NA,NA,NA,TRUE,1,1.2305,605.875,608.8735,NA,NA,NA,NA,NA,10,27,0,41,41,8,1,2,42,"binary"
"502060A98610498DBC32348A33A1EE33",1,"0198f77c-2a2e-7f20-ab1d-aaaa472b39ae","0198f767-55c9-7875-8d21-563b3c0b86ed","2025-08-29_15h30.57.825",NA,NA,612.2237,612.2237,612.2238,612.5736,NA,NA,NA,NA,NA,NA,NA,TRUE,1,0.9143,609.2251,612.2236,NA,NA,NA,NA,NA,40,47,0,42,42,52,1,2,43,"binary"
"502060A98610498DBC32348A33A1EE33",1,"0198f77c-2a2e-7f20-ab1d-aaaa472b39ae","0198f767-55c9-7875-8d21-563b3c0b86ed","2025-08-29_15h30.57.825",NA,NA,615.5737,615.5737,615.5738,615.9235,NA,NA,NA,NA,NA,NA,NA,TRUE,1,1.2127,612.5753,615.5736,NA,NA,NA,NA,NA,10,26,0,43,43,7,1,2,44,"binary"
"502060A98610498DBC32348A33A1EE33",1,"0198f77c-2a2e-7f20-ab1d-aaaa472b39ae","0198f767-55c9-7875-8d21-563b3c0b86ed","2025-08-29_15h30.57.825",NA,NA,618.9237,618.9238,618.9238,619.2736,NA,NA,NA,NA,NA,NA,NA,TRUE,1,0.9225,615.9253,618.9236,NA,NA,NA,NA,NA,150,40,0,44,44,93,1,2,45,"binary"
"502060A98610498DBC32348A33A1EE33",1,"0198f77c-2a2e-7f20-ab1d-aaaa472b39ae","0198f767-55c9-7875-8d21-563b3c0b86ed","2025-08-29_15h30.57.825",NA,NA,622.2738,622.2738,622.2738,622.6236,NA,NA,NA,NA,NA,NA,NA,TRUE,1,0.9151,619.2757,622.2737,NA,NA,NA,NA,NA,150,35,0,45,45,92,1,2,46,"binary"
"502060A98610498DBC32348A33A1EE33",1,"0198f77c-2a2e-7f20-ab1d-aaaa472b39ae","0198f767-55c9-7875-8d21-563b3c0b86ed","2025-08-29_15h30.57.825",NA,NA,625.6237,625.6237,625.6238,625.9737,NA,NA,NA,NA,NA,NA,NA,TRUE,2,1.2621,622.6254,625.6236,NA,NA,NA,NA,NA,10,32,0,46,46,11,1,2,47,"binary"
"502060A98610498DBC32348A33A1EE33",1,"0198f77c-2a2e-7f20-ab1d-aaaa472b39ae","0198f767-55c9-7875-8d21-563b3c0b86ed","2025-08-29_15h30.57.825",NA,NA,628.9739,628.9739,628.9739,629.3234,NA,NA,NA,NA,NA,NA,NA,TRUE,1,0.945,625.9757,628.9737,NA,NA,NA,NA,NA,30,26,0,47,47,42,1,2,48,"binary"
"502060A98610498DBC32348A33A1EE33",1,"0198f77c-2a2e-7f20-ab1d-aaaa472b39ae","0198f767-55c9-7875-8d21-563b3c0b86ed","2025-08-29_15h30.57.825",NA,NA,632.3236,632.3236,632.3236,632.6728,NA,NA,NA,NA,NA,NA,NA,TRUE,1,1.3298,629.3252,632.3235,NA,NA,NA,NA,NA,28,46,0,48,48,41,1,2,49,"binary"
"502060A98610498DBC32348A33A1EE33",1,"0198f77c-2a2e-7f20-ab1d-aaaa472b39ae","0198f767-55c9-7875-8d21-563b3c0b86ed","2025-08-29_15h30.57.825",NA,NA,635.6732,635.6733,635.6733,636.0237,NA,NA,NA,NA,NA,NA,NA,TRUE,1,0.9643,632.6745,635.6731,NA,NA,NA,NA,NA,50,46,0,49,49,64,1,2,50,"binary"
"502060A98610498DBC32348A33A1EE33",1,"0198f77c-2a2e-7f20-ab1d-aaaa472b39ae","0198f767-55c9-7875-8d21-563b3c0b86ed","2025-08-29_15h30.57.825",NA,NA,639.0238,639.0239,639.0239,639.3736,NA,NA,NA,NA,NA,NA,NA,TRUE,1,1.2799,636.0253,639.0237,NA,NA,NA,NA,NA,14,25,0,50,50,18,1,2,51,"binary"
"502060A98610498DBC32348A33A1EE33",1,"0198f77c-2a2e-7f20-ab1d-aaaa472b39ae","0198f767-55c9-7875-8d21-563b3c0b86ed","2025-08-29_15h30.57.825",NA,NA,642.3738,642.3739,642.3739,642.7236,NA,NA,NA,NA,NA,NA,NA,TRUE,1,0.9958,639.3753,642.3737,NA,NA,NA,NA,NA,200,35,0,51,51,104,1,2,52,"binary"
"502060A98610498DBC32348A33A1EE33",1,"0198f77c-2a2e-7f20-ab1d-aaaa472b39ae","0198f767-55c9-7875-8d21-563b3c0b86ed","2025-08-29_15h30.57.825",NA,NA,645.724,645.724,645.724,646.0738,NA,NA,NA,NA,NA,NA,NA,TRUE,1,0.9963,642.7255,645.7238,NA,NA,NA,NA,NA,25,46,0,52,52,35,1,2,53,"binary"
"502060A98610498DBC32348A33A1EE33",1,"0198f77c-2a2e-7f20-ab1d-aaaa472b39ae","0198f767-55c9-7875-8d21-563b3c0b86ed","2025-08-29_15h30.57.825",NA,NA,649.0738,649.0738,649.0739,649.4237,NA,NA,NA,NA,NA,NA,NA,TRUE,1,0.3561,646.0757,649.0738,NA,NA,NA,NA,NA,180,46,0,53,53,100,1,2,54,"binary"
"502060A98610498DBC32348A33A1EE33",1,"0198f77c-2a2e-7f20-ab1d-aaaa472b39ae","0198f767-55c9-7875-8d21-563b3c0b86ed","2025-08-29_15h30.57.825",NA,NA,652.4238,652.4239,652.4239,652.7738,NA,NA,NA,NA,NA,NA,NA,TRUE,2,1.3073,649.4252,652.4238,NA,NA,NA,NA,NA,12,33,0,54,54,16,1,2,55,"binary"
"502060A98610498DBC32348A33A1EE33",1,"0198f77c-2a2e-7f20-ab1d-aaaa472b39ae","0198f767-55c9-7875-8d21-563b3c0b86ed","2025-08-29_15h30.57.825",NA,NA,655.7739,655.7739,655.7739,656.1237,NA,NA,NA,NA,NA,NA,NA,TRUE,1,0.9965,652.7755,655.7738,NA,NA,NA,NA,NA,60,47,0,55,55,70,1,2,56,"binary"
"502060A98610498DBC32348A33A1EE33",1,"0198f77c-2a2e-7f20-ab1d-aaaa472b39ae","0198f767-55c9-7875-8d21-563b3c0b86ed","2025-08-29_15h30.57.825",NA,NA,659.1235,659.1235,659.1236,659.4737,NA,NA,NA,NA,NA,NA,NA,TRUE,1,0.9642,656.1256,659.1233,NA,NA,NA,NA,NA,30,30,0,56,56,45,1,2,57,"binary"
"502060A98610498DBC32348A33A1EE33",1,"0198f77c-2a2e-7f20-ab1d-aaaa472b39ae","0198f767-55c9-7875-8d21-563b3c0b86ed","2025-08-29_15h30.57.825",NA,NA,662.474,662.4741,662.4741,662.8238,NA,NA,NA,NA,NA,NA,NA,TRUE,1,1.3641,659.4756,662.4738,NA,NA,NA,NA,NA,90,33,0,57,57,74,1,2,58,"binary"
"502060A98610498DBC32348A33A1EE33",1,"0198f77c-2a2e-7f20-ab1d-aaaa472b39ae","0198f767-55c9-7875-8d21-563b3c0b86ed","2025-08-29_15h30.57.825",NA,NA,665.8239,666.0736,666.0736,666.1735,NA,NA,NA,NA,NA,NA,NA,FALSE,NA,NA,662.8256,665.8238,NA,NA,NA,NA,NA,50,35,0,58,58,62,1,2,59,"binary"
"502060A98610498DBC32348A33A1EE33",1,"0198f77c-2a2e-7f20-ab1d-aaaa472b39ae","0198f767-55c9-7875-8d21-563b3c0b86ed","2025-08-29_15h30.57.825",NA,NA,668.4072,668.4073,668.4073,669.5238,NA,NA,NA,NA,NA,NA,NA,TRUE,1,0.1783,666.1754,668.407,NA,NA,NA,NA,NA,21,30,0,59,59,27,1,2,60,"binary"
"502060A98610498DBC32348A33A1EE33",1,"0198f77c-2a2e-7f20-ab1d-aaaa472b39ae","0198f767-55c9-7875-8d21-563b3c0b86ed","2025-08-29_15h30.57.825",NA,NA,672.5238,672.5239,672.5239,672.8735,NA,NA,NA,NA,NA,NA,NA,TRUE,1,0.8906,669.5258,672.5237,NA,NA,NA,NA,NA,21,38,0,60,60,29,1,2,61,"binary"
"502060A98610498DBC32348A33A1EE33",1,"0198f77c-2a2e-7f20-ab1d-aaaa472b39ae","0198f767-55c9-7875-8d21-563b3c0b86ed","2025-08-29_15h30.57.825",NA,NA,675.8736,675.8736,675.8736,676.2236,NA,NA,NA,NA,NA,NA,NA,TRUE,1,0.8481,672.8746,675.8735,NA,NA,NA,NA,NA,100,54,0,61,61,89,1,2,62,"binary"
"502060A98610498DBC32348A33A1EE33",1,"0198f77c-2a2e-7f20-ab1d-aaaa472b39ae","0198f767-55c9-7875-8d21-563b3c0b86ed","2025-08-29_15h30.57.825",NA,NA,679.2239,679.224,679.224,679.5739,NA,NA,NA,NA,NA,NA,NA,TRUE,1,0.8632,676.2251,679.2238,NA,NA,NA,NA,NA,40,27,0,62,62,48,1,2,63,"binary"
"502060A98610498DBC32348A33A1EE33",1,"0198f77c-2a2e-7f20-ab1d-aaaa472b39ae","0198f767-55c9-7875-8d21-563b3c0b86ed","2025-08-29_15h30.57.825",NA,NA,682.574,682.574,682.574,682.9239,NA,NA,NA,NA,NA,NA,NA,TRUE,1,0.7505,679.5755,682.5739,NA,NA,NA,NA,NA,95,33,0,63,63,79,1,2,64,"binary"
"502060A98610498DBC32348A33A1EE33",1,"0198f77c-2a2e-7f20-ab1d-aaaa472b39ae","0198f767-55c9-7875-8d21-563b3c0b86ed","2025-08-29_15h30.57.825",NA,NA,685.924,685.9241,685.9241,686.274,NA,NA,NA,NA,NA,NA,NA,TRUE,1,0.7609,682.9259,685.9239,NA,NA,NA,NA,NA,50,40,0,64,64,63,1,2,65,"binary"
"502060A98610498DBC32348A33A1EE33",1,"0198f77c-2a2e-7f20-ab1d-aaaa472b39ae","0198f767-55c9-7875-8d21-563b3c0b86ed","2025-08-29_15h30.57.825",NA,NA,689.2742,689.2743,689.2743,689.624,NA,NA,NA,NA,NA,NA,NA,TRUE,1,0.8156,686.276,689.2741,NA,NA,NA,NA,NA,180,31,0,65,65,97,1,2,66,"binary"
"502060A98610498DBC32348A33A1EE33",1,"0198f77c-2a2e-7f20-ab1d-aaaa472b39ae","0198f767-55c9-7875-8d21-563b3c0b86ed","2025-08-29_15h30.57.825",NA,NA,692.6241,692.6242,692.6242,692.974,NA,NA,NA,NA,NA,NA,NA,TRUE,1,0.8944,689.626,692.6239,NA,NA,NA,NA,NA,90,26,0,66,66,72,1,2,67,"binary"
"502060A98610498DBC32348A33A1EE33",1,"0198f77c-2a2e-7f20-ab1d-aaaa472b39ae","0198f767-55c9-7875-8d21-563b3c0b86ed","2025-08-29_15h30.57.825",NA,NA,695.9742,695.9742,695.9742,696.3239,NA,NA,NA,NA,NA,NA,NA,TRUE,1,0.8286,692.976,695.9741,NA,NA,NA,NA,NA,14,39,0,67,67,23,1,2,68,"binary"
"502060A98610498DBC32348A33A1EE33",1,"0198f77c-2a2e-7f20-ab1d-aaaa472b39ae","0198f767-55c9-7875-8d21-563b3c0b86ed","2025-08-29_15h30.57.825",NA,NA,699.3241,699.3241,699.3241,699.6739,NA,NA,NA,NA,NA,NA,NA,TRUE,1,0.9658,696.3255,699.324,NA,NA,NA,NA,NA,45,46,0,68,68,59,1,2,69,"binary"
"502060A98610498DBC32348A33A1EE33",1,"0198f77c-2a2e-7f20-ab1d-aaaa472b39ae","0198f767-55c9-7875-8d21-563b3c0b86ed","2025-08-29_15h30.57.825",NA,NA,702.674,702.6741,702.6741,703.0237,NA,NA,NA,NA,NA,NA,NA,TRUE,2,1.012,699.6757,702.6739,NA,NA,NA,NA,NA,7,32,0,69,69,4,1,2,70,"binary"
"502060A98610498DBC32348A33A1EE33",1,"0198f77c-2a2e-7f20-ab1d-aaaa472b39ae","0198f767-55c9-7875-8d21-563b3c0b86ed","2025-08-29_15h30.57.825",NA,NA,706.0242,706.0243,706.0243,706.374,NA,NA,NA,NA,NA,NA,NA,TRUE,1,0.9457,703.0256,706.024,NA,NA,NA,NA,NA,180,54,0,70,70,101,1,2,71,"binary"
"502060A98610498DBC32348A33A1EE33",1,"0198f77c-2a2e-7f20-ab1d-aaaa472b39ae","0198f767-55c9-7875-8d21-563b3c0b86ed","2025-08-29_15h30.57.825",NA,NA,709.3742,709.3742,709.3742,709.724,NA,NA,NA,NA,NA,NA,NA,TRUE,1,0.998,706.376,709.374,NA,NA,NA,NA,NA,90,54,0,71,71,77,1,2,72,"binary"
"502060A98610498DBC32348A33A1EE33",1,"0198f77c-2a2e-7f20-ab1d-aaaa472b39ae","0198f767-55c9-7875-8d21-563b3c0b86ed","2025-08-29_15h30.57.825",NA,NA,712.7241,712.7242,712.7242,713.0739,NA,NA,NA,NA,NA,NA,NA,TRUE,1,0.991,709.7259,712.724,NA,NA,NA,NA,NA,40,40,0,72,72,51,1,2,73,"binary"
"502060A98610498DBC32348A33A1EE33",1,"0198f77c-2a2e-7f20-ab1d-aaaa472b39ae","0198f767-55c9-7875-8d21-563b3c0b86ed","2025-08-29_15h30.57.825",NA,NA,716.0742,716.0743,716.0744,716.4241,NA,NA,NA,NA,NA,NA,NA,TRUE,1,0.927,713.0759,716.0741,NA,NA,NA,NA,NA,45,35,0,73,73,57,1,2,74,"binary"
"502060A98610498DBC32348A33A1EE33",1,"0198f77c-2a2e-7f20-ab1d-aaaa472b39ae","0198f767-55c9-7875-8d21-563b3c0b86ed","2025-08-29_15h30.57.825",NA,NA,719.4242,719.4243,719.4243,719.7733,NA,NA,NA,NA,NA,NA,NA,TRUE,1,0.9956,716.4261,719.4241,NA,NA,NA,NA,NA,10,25,0,74,74,6,1,2,75,"binary"
"502060A98610498DBC32348A33A1EE33",1,"0198f77c-2a2e-7f20-ab1d-aaaa472b39ae","0198f767-55c9-7875-8d21-563b3c0b86ed","2025-08-29_15h30.57.825",NA,NA,722.7746,722.7748,722.7748,723.1241,NA,NA,NA,NA,NA,NA,NA,TRUE,1,0.7818,719.775,722.7738,NA,NA,NA,NA,NA,90,46,0,75,75,76,1,2,76,"binary"
"502060A98610498DBC32348A33A1EE33",1,"0198f77c-2a2e-7f20-ab1d-aaaa472b39ae","0198f767-55c9-7875-8d21-563b3c0b86ed","2025-08-29_15h30.57.825",NA,NA,726.1235,726.1236,726.1236,726.474,NA,NA,NA,NA,NA,NA,NA,TRUE,1,0.7274,723.1265,726.1234,NA,NA,NA,NA,NA,200,47,0,76,76,106,1,2,77,"binary"
"502060A98610498DBC32348A33A1EE33",1,"0198f77c-2a2e-7f20-ab1d-aaaa472b39ae","0198f767-55c9-7875-8d21-563b3c0b86ed","2025-08-29_15h30.57.825",NA,NA,729.4742,729.4743,729.4743,729.8241,NA,NA,NA,NA,NA,NA,NA,TRUE,1,0.9794,726.4757,729.4741,NA,NA,NA,NA,NA,180,27,0,77,77,96,1,2,78,"binary"
"502060A98610498DBC32348A33A1EE33",1,"0198f77c-2a2e-7f20-ab1d-aaaa472b39ae","0198f767-55c9-7875-8d21-563b3c0b86ed","2025-08-29_15h30.57.825",NA,NA,732.8242,732.8242,732.8243,733.1742,NA,NA,NA,NA,NA,NA,NA,TRUE,1,1.1615,729.8258,732.824,NA,NA,NA,NA,NA,50,30,0,78,78,61,1,2,79,"binary"
"502060A98610498DBC32348A33A1EE33",1,"0198f77c-2a2e-7f20-ab1d-aaaa472b39ae","0198f767-55c9-7875-8d21-563b3c0b86ed","2025-08-29_15h30.57.825",NA,NA,736.1744,736.1744,736.1744,736.5241,NA,NA,NA,NA,NA,NA,NA,TRUE,1,0.7797,733.1762,736.1741,NA,NA,NA,NA,NA,100,26,0,79,79,84,1,2,80,"binary"
"502060A98610498DBC32348A33A1EE33",1,"0198f77c-2a2e-7f20-ab1d-aaaa472b39ae","0198f767-55c9-7875-8d21-563b3c0b86ed","2025-08-29_15h30.57.825",NA,NA,739.5245,739.5245,739.5245,739.8742,NA,NA,NA,NA,NA,NA,NA,TRUE,1,1.1619,736.5257,739.5243,NA,NA,NA,NA,NA,180,39,0,80,80,99,1,2,81,"binary"
"502060A98610498DBC32348A33A1EE33",1,"0198f77c-2a2e-7f20-ab1d-aaaa472b39ae","0198f767-55c9-7875-8d21-563b3c0b86ed","2025-08-29_15h30.57.825",NA,NA,742.8743,742.8744,742.8744,743.2241,NA,NA,NA,NA,NA,NA,NA,TRUE,1,0.8962,739.8757,742.8742,NA,NA,NA,NA,NA,200,28,0,81,81,103,1,2,82,"binary"
"502060A98610498DBC32348A33A1EE33",1,"0198f77c-2a2e-7f20-ab1d-aaaa472b39ae","0198f767-55c9-7875-8d21-563b3c0b86ed","2025-08-29_15h30.57.825",NA,NA,746.2242,746.2242,746.2242,746.5741,NA,NA,NA,NA,NA,NA,NA,TRUE,1,0.83,743.226,746.2241,NA,NA,NA,NA,NA,21,27,0,82,82,25,1,2,83,"binary"
"502060A98610498DBC32348A33A1EE33",1,"0198f77c-2a2e-7f20-ab1d-aaaa472b39ae","0198f767-55c9-7875-8d21-563b3c0b86ed","2025-08-29_15h30.57.825",NA,NA,749.5744,749.5745,749.5745,749.9242,NA,NA,NA,NA,NA,NA,NA,TRUE,1,0.662,746.5758,749.5743,NA,NA,NA,NA,NA,10,29,0,83,83,9,1,2,84,"binary"
"502060A98610498DBC32348A33A1EE33",1,"0198f77c-2a2e-7f20-ab1d-aaaa472b39ae","0198f767-55c9-7875-8d21-563b3c0b86ed","2025-08-29_15h30.57.825",NA,NA,752.9243,752.9243,752.9243,753.2735,NA,NA,NA,NA,NA,NA,NA,TRUE,2,0.9451,749.9259,752.9242,NA,NA,NA,NA,NA,7,30,0,84,84,3,1,2,85,"binary"
"502060A98610498DBC32348A33A1EE33",1,"0198f77c-2a2e-7f20-ab1d-aaaa472b39ae","0198f767-55c9-7875-8d21-563b3c0b86ed","2025-08-29_15h30.57.825",NA,NA,756.274,756.274,756.274,756.6241,NA,NA,NA,NA,NA,NA,NA,TRUE,1,1,753.275,756.2739,NA,NA,NA,NA,NA,200,39,0,85,85,105,1,2,86,"binary"
"502060A98610498DBC32348A33A1EE33",1,"0198f77c-2a2e-7f20-ab1d-aaaa472b39ae","0198f767-55c9-7875-8d21-563b3c0b86ed","2025-08-29_15h30.57.825",NA,NA,759.6244,759.6244,759.6244,759.9743,NA,NA,NA,NA,NA,NA,NA,TRUE,1,0.6958,756.6257,759.6243,NA,NA,NA,NA,NA,200,54,0,86,86,107,1,2,87,"binary"
"502060A98610498DBC32348A33A1EE33",1,"0198f77c-2a2e-7f20-ab1d-aaaa472b39ae","0198f767-55c9-7875-8d21-563b3c0b86ed","2025-08-29_15h30.57.825",NA,NA,762.9744,762.9744,762.9744,763.3242,NA,NA,NA,NA,NA,NA,NA,TRUE,1,1.1961,759.9759,762.9742,NA,NA,NA,NA,NA,21,32,0,87,87,28,1,2,88,"binary"
"502060A98610498DBC32348A33A1EE33",1,"0198f77c-2a2e-7f20-ab1d-aaaa472b39ae","0198f767-55c9-7875-8d21-563b3c0b86ed","2025-08-29_15h30.57.825",NA,NA,766.3244,766.3244,766.3245,766.6744,NA,NA,NA,NA,NA,NA,NA,TRUE,1,0.9461,763.3258,766.3243,NA,NA,NA,NA,NA,180,35,0,88,88,98,1,2,89,"binary"
"502060A98610498DBC32348A33A1EE33",1,"0198f77c-2a2e-7f20-ab1d-aaaa472b39ae","0198f767-55c9-7875-8d21-563b3c0b86ed","2025-08-29_15h30.57.825",NA,NA,769.6745,769.6745,769.6745,770.0242,NA,NA,NA,NA,NA,NA,NA,TRUE,1,1.2116,766.6762,769.6743,NA,NA,NA,NA,NA,100,31,0,89,89,85,1,2,90,"binary"
"502060A98610498DBC32348A33A1EE33",1,"0198f77c-2a2e-7f20-ab1d-aaaa472b39ae","0198f767-55c9-7875-8d21-563b3c0b86ed","2025-08-29_15h30.57.825",NA,NA,773.0245,773.0245,773.0245,773.3742,NA,NA,NA,NA,NA,NA,NA,TRUE,1,0.9464,770.0259,773.0243,NA,NA,NA,NA,NA,90,30,0,90,90,73,1,2,91,"binary"
"502060A98610498DBC32348A33A1EE33",1,"0198f77c-2a2e-7f20-ab1d-aaaa472b39ae","0198f767-55c9-7875-8d21-563b3c0b86ed","2025-08-29_15h30.57.825",NA,NA,776.3745,776.3745,776.3746,776.7244,NA,NA,NA,NA,NA,NA,NA,TRUE,1,0.9622,773.3759,776.3743,NA,NA,NA,NA,NA,45,26,0,91,91,54,1,2,92,"binary"
"502060A98610498DBC32348A33A1EE33",1,"0198f77c-2a2e-7f20-ab1d-aaaa472b39ae","0198f767-55c9-7875-8d21-563b3c0b86ed","2025-08-29_15h30.57.825",NA,NA,779.7246,779.7246,779.7246,780.0743,NA,NA,NA,NA,NA,NA,NA,TRUE,2,1.4618,776.726,779.7245,NA,NA,NA,NA,NA,14,35,0,92,92,22,1,2,93,"binary"
"502060A98610498DBC32348A33A1EE33",1,"0198f77c-2a2e-7f20-ab1d-aaaa472b39ae","0198f767-55c9-7875-8d21-563b3c0b86ed","2025-08-29_15h30.57.825",NA,NA,783.0744,783.0744,783.0745,783.4244,NA,NA,NA,NA,NA,NA,NA,TRUE,1,1.0657,780.076,783.0742,NA,NA,NA,NA,NA,60,29,0,93,93,66,1,2,94,"binary"
"502060A98610498DBC32348A33A1EE33",1,"0198f77c-2a2e-7f20-ab1d-aaaa472b39ae","0198f767-55c9-7875-8d21-563b3c0b86ed","2025-08-29_15h30.57.825",NA,NA,786.4245,786.4245,786.4245,786.7744,NA,NA,NA,NA,NA,NA,NA,TRUE,1,0.6898,783.4264,786.4244,NA,NA,NA,NA,NA,150,33,0,94,94,91,1,2,95,"binary"
"502060A98610498DBC32348A33A1EE33",1,"0198f77c-2a2e-7f20-ab1d-aaaa472b39ae","0198f767-55c9-7875-8d21-563b3c0b86ed","2025-08-29_15h30.57.825",NA,NA,789.7747,789.7748,789.7748,790.1244,NA,NA,NA,NA,NA,NA,NA,TRUE,1,0.8792,786.776,789.7745,NA,NA,NA,NA,NA,100,46,0,95,95,88,1,2,96,"binary"
"502060A98610498DBC32348A33A1EE33",1,"0198f77c-2a2e-7f20-ab1d-aaaa472b39ae","0198f767-55c9-7875-8d21-563b3c0b86ed","2025-08-29_15h30.57.825",NA,NA,793.1245,793.1246,793.1246,793.4734,NA,NA,NA,NA,NA,NA,NA,TRUE,1,1.0835,790.126,793.1243,NA,NA,NA,NA,NA,7,25,0,96,96,0,1,2,97,"binary"
"502060A98610498DBC32348A33A1EE33",1,"0198f77c-2a2e-7f20-ab1d-aaaa472b39ae","0198f767-55c9-7875-8d21-563b3c0b86ed","2025-08-29_15h30.57.825",NA,NA,796.4746,796.4746,796.4746,796.8244,NA,NA,NA,NA,NA,NA,NA,TRUE,1,0.9466,793.4751,796.4745,NA,NA,NA,NA,NA,14,32,0,97,97,21,1,2,98,"binary"
"502060A98610498DBC32348A33A1EE33",1,"0198f77c-2a2e-7f20-ab1d-aaaa472b39ae","0198f767-55c9-7875-8d21-563b3c0b86ed","2025-08-29_15h30.57.825",NA,NA,799.8242,799.8242,799.8242,800.1744,NA,NA,NA,NA,NA,NA,NA,TRUE,1,0.9454,796.8261,799.824,NA,NA,NA,NA,NA,30,32,0,98,98,46,1,2,99,"binary"
"502060A98610498DBC32348A33A1EE33",1,"0198f77c-2a2e-7f20-ab1d-aaaa472b39ae","0198f767-55c9-7875-8d21-563b3c0b86ed","2025-08-29_15h30.57.825",NA,NA,803.1746,803.1746,803.1747,803.5244,NA,NA,NA,NA,NA,NA,NA,TRUE,1,1.0339,800.1759,803.1745,NA,NA,NA,NA,NA,10,30,0,99,99,10,1,2,100,"binary"
"502060A98610498DBC32348A33A1EE33",1,"0198f77c-2a2e-7f20-ab1d-aaaa472b39ae","0198f767-55c9-7875-8d21-563b3c0b86ed","2025-08-29_15h30.57.825",NA,NA,806.5247,806.5247,806.5247,806.8744,NA,NA,NA,NA,NA,NA,NA,TRUE,1,0.9618,803.5261,806.5245,NA,NA,NA,NA,NA,60,54,0,100,100,71,1,2,101,"binary"
"502060A98610498DBC32348A33A1EE33",1,"0198f77c-2a2e-7f20-ab1d-aaaa472b39ae","0198f767-55c9-7875-8d21-563b3c0b86ed","2025-08-29_15h30.57.825",NA,NA,809.8746,809.8747,809.8747,810.2245,NA,NA,NA,NA,NA,NA,NA,TRUE,1,0.9792,806.8759,809.8745,NA,NA,NA,NA,NA,30,27,0,101,101,43,1,2,102,"binary"
"502060A98610498DBC32348A33A1EE33",1,"0198f77c-2a2e-7f20-ab1d-aaaa472b39ae","0198f767-55c9-7875-8d21-563b3c0b86ed","2025-08-29_15h30.57.825",NA,NA,813.2243,813.2243,813.2243,813.5746,NA,NA,NA,NA,NA,NA,NA,TRUE,1,0.796,810.226,813.2242,NA,NA,NA,NA,NA,14,28,0,102,102,20,1,2,103,"binary"
"502060A98610498DBC32348A33A1EE33",1,"0198f77c-2a2e-7f20-ab1d-aaaa472b39ae","0198f767-55c9-7875-8d21-563b3c0b86ed","2025-08-29_15h30.57.825",NA,NA,816.5746,816.5746,816.5746,816.9244,NA,NA,NA,NA,NA,NA,NA,TRUE,1,0.9605,813.5771,816.5745,NA,NA,NA,NA,NA,25,27,0,103,103,30,1,2,104,"binary"
"502060A98610498DBC32348A33A1EE33",1,"0198f77c-2a2e-7f20-ab1d-aaaa472b39ae","0198f767-55c9-7875-8d21-563b3c0b86ed","2025-08-29_15h30.57.825",NA,NA,819.9247,819.9248,819.9249,820.2746,NA,NA,NA,NA,NA,NA,NA,TRUE,1,1.0406,816.9262,819.9246,NA,NA,NA,NA,NA,25,35,0,104,104,34,1,2,105,"binary"
"502060A98610498DBC32348A33A1EE33",1,"0198f77c-2a2e-7f20-ab1d-aaaa472b39ae","0198f767-55c9-7875-8d21-563b3c0b86ed","2025-08-29_15h30.57.825",NA,NA,823.2747,823.2747,823.2748,823.6243,NA,NA,NA,NA,NA,NA,NA,TRUE,1,0.9148,820.2767,823.2746,NA,NA,NA,NA,NA,28,28,0,105,105,37,1,2,106,"binary"
"502060A98610498DBC32348A33A1EE33",1,"0198f77c-2a2e-7f20-ab1d-aaaa472b39ae","0198f767-55c9-7875-8d21-563b3c0b86ed","2025-08-29_15h30.57.825",NA,NA,826.6247,826.6248,826.6248,826.9747,NA,NA,NA,NA,NA,NA,NA,TRUE,1,0.7957,823.6261,826.6246,NA,NA,NA,NA,NA,100,39,0,106,106,87,1,2,107,"binary"
"502060A98610498DBC32348A33A1EE33",1,"0198f77c-2a2e-7f20-ab1d-aaaa472b39ae","0198f767-55c9-7875-8d21-563b3c0b86ed","2025-08-29_15h30.57.825",NA,NA,829.9748,829.9749,829.9749,830.3245,NA,NA,NA,NA,NA,NA,NA,TRUE,1,0.729,826.9766,829.9746,NA,NA,NA,NA,NA,50,27,0,107,107,60,1,2,108,"binary"
