"participant","session","assignmentId","projectId","date","practiceTrial.started","practiceTrial.stopped","tooLate.started","tooLate.stopped","blank.started","blank.stopped","trials_pract.thisRepN","trials_pract.thisTrialN","trials_pract.thisN","trials_pract.thisIndex","trials_pract.ran","delay_pract","amount_pract","responseMade","key","rt","trial.started","trial.stopped","trials.thisRepN","trials.thisTrialN","trials.thisN","trials.thisIndex","trials.ran","delay","amount","trials_2.thisRepN","trials_2.thisTrialN","trials_2.thisN","trials_2.thisIndex","trials_2.ran","block","trial","taskType"
"58DE05E999F346AEBEBC368880619A05",1,"01990a9b-7043-726d-bb5f-8e63996d87d1","01990a83-7673-7c0c-a792-bbd8fbbaf673","2025-09-02_06h26.50.393",18.8513,21.8092,21.8108,21.8229,21.8231,22.1617,0,0,0,2,1,14,45,TRUE,2,1.7889,NA,NA,NA,NA,NA,NA,NA,NA,NA,NA,NA,NA,NA,NA,0,1,"binary"
"58DE05E999F346AEBEBC368880619A05",1,"01990a9b-7043-726d-bb5f-8e63996d87d1","01990a83-7673-7c0c-a792-bbd8fbbaf673","2025-09-02_06h26.50.393",22.1666,25.1608,25.161,25.161,25.161,25.5115,0,1,1,4,1,30,40,TRUE,2,1.7954,NA,NA,NA,NA,NA,NA,NA,NA,NA,NA,NA,NA,NA,NA,0,2,"binary"
"58DE05E999F346AEBEBC368880619A05",1,"01990a9b-7043-726d-bb5f-8e63996d87d1","01990a83-7673-7c0c-a792-bbd8fbbaf673","2025-09-02_06h26.50.393",25.5171,28.5088,28.509,28.509,28.5091,28.8602,0,2,2,0,1,7,30,TRUE,2,2.0999,NA,NA,NA,NA,NA,NA,NA,NA,NA,NA,NA,NA,NA,NA,0,3,"binary"
"58DE05E999F346AEBEBC368880619A05",1,"01990a9b-7043-726d-bb5f-8e63996d87d1","01990a83-7673-7c0c-a792-bbd8fbbaf673","2025-09-02_06h26.50.393",28.8674,31.8591,31.8593,31.8594,31.8594,32.209,0,3,3,3,1,3,27,TRUE,1,0.9252,NA,NA,NA,NA,NA,NA,NA,NA,NA,NA,NA,NA,NA,NA,0,4,"binary"
"58DE05E999F346AEBEBC368880619A05",1,"01990a9b-7043-726d-bb5f-8e63996d87d1","01990a83-7673-7c0c-a792-bbd8fbbaf673","2025-09-02_06h26.50.393",32.2158,35.2086,35.2088,35.2088,35.2089,35.5594,0,4,4,1,1,100,50,TRUE,1,1.5444,NA,NA,NA,NA,NA,NA,NA,NA,NA,NA,NA,NA,NA,NA,0,5,"binary"
"58DE05E999F346AEBEBC368880619A05",1,"01990a9b-7043-726d-bb5f-8e63996d87d1","01990a83-7673-7c0c-a792-bbd8fbbaf673","2025-09-02_06h26.50.393",NA,NA,62.727,62.7276,62.7278,63.0717,NA,NA,NA,NA,NA,NA,NA,TRUE,1,1.1364,59.7598,62.7263,0,0,0,54,1,45,26,NA,NA,NA,NA,NA,1,1,"binary"
"58DE05E999F346AEBEBC368880619A05",1,"01990a9b-7043-726d-bb5f-8e63996d87d1","01990a83-7673-7c0c-a792-bbd8fbbaf673","2025-09-02_06h26.50.393",NA,NA,66.0761,66.0761,66.0763,66.4256,NA,NA,NA,NA,NA,NA,NA,TRUE,1,0.9181,63.0779,66.076,0,1,1,105,1,200,39,NA,NA,NA,NA,NA,1,2,"binary"
"58DE05E999F346AEBEBC368880619A05",1,"01990a9b-7043-726d-bb5f-8e63996d87d1","01990a83-7673-7c0c-a792-bbd8fbbaf673","2025-09-02_06h26.50.393",NA,NA,69.4255,69.4256,69.4256,69.7747,NA,NA,NA,NA,NA,NA,NA,TRUE,1,0.7766,66.4326,69.425,0,2,2,55,1,45,29,NA,NA,NA,NA,NA,1,3,"binary"
"58DE05E999F346AEBEBC368880619A05",1,"01990a9b-7043-726d-bb5f-8e63996d87d1","01990a83-7673-7c0c-a792-bbd8fbbaf673","2025-09-02_06h26.50.393",NA,NA,72.775,72.7751,72.7751,73.1248,NA,NA,NA,NA,NA,NA,NA,TRUE,1,0.7441,69.7821,72.7745,0,3,3,94,1,150,47,NA,NA,NA,NA,NA,1,4,"binary"
"58DE05E999F346AEBEBC368880619A05",1,"01990a9b-7043-726d-bb5f-8e63996d87d1","01990a83-7673-7c0c-a792-bbd8fbbaf673","2025-09-02_06h26.50.393",NA,NA,76.1287,76.1287,76.1288,76.4748,NA,NA,NA,NA,NA,NA,NA,TRUE,1,1.1749,73.1329,76.1284,0,4,4,18,1,14,25,NA,NA,NA,NA,NA,1,5,"binary"
"58DE05E999F346AEBEBC368880619A05",1,"01990a9b-7043-726d-bb5f-8e63996d87d1","01990a83-7673-7c0c-a792-bbd8fbbaf673","2025-09-02_06h26.50.393",NA,NA,79.4804,79.4805,79.4805,79.8259,NA,NA,NA,NA,NA,NA,NA,TRUE,1,0.8962,76.4798,79.4796,0,5,5,89,1,100,54,NA,NA,NA,NA,NA,1,6,"binary"
"58DE05E999F346AEBEBC368880619A05",1,"01990a9b-7043-726d-bb5f-8e63996d87d1","01990a83-7673-7c0c-a792-bbd8fbbaf673","2025-09-02_06h26.50.393",NA,NA,82.8279,82.8281,82.8281,83.1759,NA,NA,NA,NA,NA,NA,NA,TRUE,1,0.7591,79.8294,82.8274,0,6,6,99,1,180,39,NA,NA,NA,NA,NA,1,7,"binary"
"58DE05E999F346AEBEBC368880619A05",1,"01990a9b-7043-726d-bb5f-8e63996d87d1","01990a83-7673-7c0c-a792-bbd8fbbaf673","2025-09-02_06h26.50.393",NA,NA,86.1773,86.1776,86.1777,86.525,NA,NA,NA,NA,NA,NA,NA,TRUE,1,0.7749,83.1827,86.1772,0,7,7,100,1,180,46,NA,NA,NA,NA,NA,1,8,"binary"
"58DE05E999F346AEBEBC368880619A05",1,"01990a9b-7043-726d-bb5f-8e63996d87d1","01990a83-7673-7c0c-a792-bbd8fbbaf673","2025-09-02_06h26.50.393",NA,NA,89.5307,89.5309,89.5309,89.8749,NA,NA,NA,NA,NA,NA,NA,TRUE,1,1.1994,86.5289,89.5301,0,8,8,74,1,90,33,NA,NA,NA,NA,NA,1,9,"binary"
"58DE05E999F346AEBEBC368880619A05",1,"01990a9b-7043-726d-bb5f-8e63996d87d1","01990a83-7673-7c0c-a792-bbd8fbbaf673","2025-09-02_06h26.50.393",NA,NA,92.8784,92.8786,92.8787,93.2257,NA,NA,NA,NA,NA,NA,NA,TRUE,1,0.7449,89.8817,92.8776,0,9,9,45,1,30,30,NA,NA,NA,NA,NA,1,10,"binary"
"58DE05E999F346AEBEBC368880619A05",1,"01990a9b-7043-726d-bb5f-8e63996d87d1","01990a83-7673-7c0c-a792-bbd8fbbaf673","2025-09-02_06h26.50.393",NA,NA,96.2253,96.2255,96.2256,96.5763,NA,NA,NA,NA,NA,NA,NA,TRUE,1,0.9639,93.233,96.2252,0,10,10,34,1,25,35,NA,NA,NA,NA,NA,1,11,"binary"
"58DE05E999F346AEBEBC368880619A05",1,"01990a9b-7043-726d-bb5f-8e63996d87d1","01990a83-7673-7c0c-a792-bbd8fbbaf673","2025-09-02_06h26.50.393",NA,NA,99.5772,99.5773,99.5773,99.9268,NA,NA,NA,NA,NA,NA,NA,TRUE,1,0.6942,96.5821,99.5766,0,11,11,43,1,30,27,NA,NA,NA,NA,NA,1,12,"binary"
"58DE05E999F346AEBEBC368880619A05",1,"01990a9b-7043-726d-bb5f-8e63996d87d1","01990a83-7673-7c0c-a792-bbd8fbbaf673","2025-09-02_06h26.50.393",NA,NA,102.9265,102.9266,102.9266,103.2782,NA,NA,NA,NA,NA,NA,NA,TRUE,1,0.7577,99.9325,102.9255,0,12,12,9,1,10,29,NA,NA,NA,NA,NA,1,13,"binary"
"58DE05E999F346AEBEBC368880619A05",1,"01990a9b-7043-726d-bb5f-8e63996d87d1","01990a83-7673-7c0c-a792-bbd8fbbaf673","2025-09-02_06h26.50.393",NA,NA,106.2765,106.2765,106.2765,106.6269,NA,NA,NA,NA,NA,NA,NA,TRUE,1,0.8797,103.2811,106.2764,0,13,13,104,1,200,35,NA,NA,NA,NA,NA,1,14,"binary"
"58DE05E999F346AEBEBC368880619A05",1,"01990a9b-7043-726d-bb5f-8e63996d87d1","01990a83-7673-7c0c-a792-bbd8fbbaf673","2025-09-02_06h26.50.393",NA,NA,109.6282,109.6285,109.6286,109.9747,NA,NA,NA,NA,NA,NA,NA,TRUE,1,1.1424,106.6322,109.6274,0,14,14,85,1,100,31,NA,NA,NA,NA,NA,1,15,"binary"
"58DE05E999F346AEBEBC368880619A05",1,"01990a9b-7043-726d-bb5f-8e63996d87d1","01990a83-7673-7c0c-a792-bbd8fbbaf673","2025-09-02_06h26.50.393",NA,NA,112.9765,112.9767,112.9768,113.3254,NA,NA,NA,NA,NA,NA,NA,TRUE,1,0.9236,109.9826,112.9754,0,15,15,58,1,45,40,NA,NA,NA,NA,NA,1,16,"binary"
"58DE05E999F346AEBEBC368880619A05",1,"01990a9b-7043-726d-bb5f-8e63996d87d1","01990a83-7673-7c0c-a792-bbd8fbbaf673","2025-09-02_06h26.50.393",NA,NA,116.3256,116.3256,116.3257,116.6789,NA,NA,NA,NA,NA,NA,NA,TRUE,2,1.4779,113.3318,116.3253,0,16,16,21,1,14,32,NA,NA,NA,NA,NA,1,17,"binary"
"58DE05E999F346AEBEBC368880619A05",1,"01990a9b-7043-726d-bb5f-8e63996d87d1","01990a83-7673-7c0c-a792-bbd8fbbaf673","2025-09-02_06h26.50.393",NA,NA,119.6775,119.6776,119.6776,120.024,NA,NA,NA,NA,NA,NA,NA,TRUE,2,1.5258,116.6838,119.6767,0,17,17,29,1,21,38,NA,NA,NA,NA,NA,1,18,"binary"
"58DE05E999F346AEBEBC368880619A05",1,"01990a9b-7043-726d-bb5f-8e63996d87d1","01990a83-7673-7c0c-a792-bbd8fbbaf673","2025-09-02_06h26.50.393",NA,NA,123.0244,123.0244,123.0244,123.3768,NA,NA,NA,NA,NA,NA,NA,TRUE,1,0.9122,120.0315,123.0238,0,18,18,37,1,28,28,NA,NA,NA,NA,NA,1,19,"binary"
"58DE05E999F346AEBEBC368880619A05",1,"01990a9b-7043-726d-bb5f-8e63996d87d1","01990a83-7673-7c0c-a792-bbd8fbbaf673","2025-09-02_06h26.50.393",NA,NA,126.3749,126.3749,126.3749,126.7251,NA,NA,NA,NA,NA,NA,NA,TRUE,1,0.6763,123.3821,126.3746,0,19,19,82,1,95,47,NA,NA,NA,NA,NA,1,20,"binary"
"58DE05E999F346AEBEBC368880619A05",1,"01990a9b-7043-726d-bb5f-8e63996d87d1","01990a83-7673-7c0c-a792-bbd8fbbaf673","2025-09-02_06h26.50.393",NA,NA,129.7254,129.7256,129.7256,130.0749,NA,NA,NA,NA,NA,NA,NA,TRUE,1,0.6663,126.7311,129.7248,0,20,20,24,1,21,26,NA,NA,NA,NA,NA,1,21,"binary"
"58DE05E999F346AEBEBC368880619A05",1,"01990a9b-7043-726d-bb5f-8e63996d87d1","01990a83-7673-7c0c-a792-bbd8fbbaf673","2025-09-02_06h26.50.393",NA,NA,133.075,133.0752,133.0752,133.4242,NA,NA,NA,NA,NA,NA,NA,TRUE,1,0.8282,130.0811,133.0746,0,21,21,69,1,60,40,NA,NA,NA,NA,NA,1,22,"binary"
"58DE05E999F346AEBEBC368880619A05",1,"01990a9b-7043-726d-bb5f-8e63996d87d1","01990a83-7673-7c0c-a792-bbd8fbbaf673","2025-09-02_06h26.50.393",NA,NA,136.4255,136.4256,136.4257,136.7757,NA,NA,NA,NA,NA,NA,NA,TRUE,1,0.6955,133.4291,136.4253,0,22,22,75,1,90,40,NA,NA,NA,NA,NA,1,23,"binary"
"58DE05E999F346AEBEBC368880619A05",1,"01990a9b-7043-726d-bb5f-8e63996d87d1","01990a83-7673-7c0c-a792-bbd8fbbaf673","2025-09-02_06h26.50.393",NA,NA,139.7753,139.7754,139.7754,140.124,NA,NA,NA,NA,NA,NA,NA,TRUE,1,0.7458,136.781,139.7747,0,23,23,39,1,28,35,NA,NA,NA,NA,NA,1,24,"binary"
"58DE05E999F346AEBEBC368880619A05",1,"01990a9b-7043-726d-bb5f-8e63996d87d1","01990a83-7673-7c0c-a792-bbd8fbbaf673","2025-09-02_06h26.50.393",NA,NA,143.1244,143.1244,143.1245,143.4744,NA,NA,NA,NA,NA,NA,NA,TRUE,1,0.5975,140.1286,143.1236,0,24,24,41,1,28,46,NA,NA,NA,NA,NA,1,25,"binary"
"58DE05E999F346AEBEBC368880619A05",1,"01990a9b-7043-726d-bb5f-8e63996d87d1","01990a83-7673-7c0c-a792-bbd8fbbaf673","2025-09-02_06h26.50.393",NA,NA,146.4741,146.4742,146.4742,146.8254,NA,NA,NA,NA,NA,NA,NA,TRUE,1,0.5923,143.4813,146.4739,0,25,25,106,1,200,47,NA,NA,NA,NA,NA,1,26,"binary"
"58DE05E999F346AEBEBC368880619A05",1,"01990a9b-7043-726d-bb5f-8e63996d87d1","01990a83-7673-7c0c-a792-bbd8fbbaf673","2025-09-02_06h26.50.393",NA,NA,149.8241,149.8242,149.8242,150.174,NA,NA,NA,NA,NA,NA,NA,TRUE,1,1.2455,146.8308,149.8237,0,26,26,83,1,95,54,NA,NA,NA,NA,NA,1,27,"binary"
"58DE05E999F346AEBEBC368880619A05",1,"01990a9b-7043-726d-bb5f-8e63996d87d1","01990a83-7673-7c0c-a792-bbd8fbbaf673","2025-09-02_06h26.50.393",NA,NA,153.1766,153.1768,153.1768,153.5247,NA,NA,NA,NA,NA,NA,NA,TRUE,1,1.7573,150.1811,153.1759,0,27,27,49,1,40,33,NA,NA,NA,NA,NA,1,28,"binary"
"58DE05E999F346AEBEBC368880619A05",1,"01990a9b-7043-726d-bb5f-8e63996d87d1","01990a83-7673-7c0c-a792-bbd8fbbaf673","2025-09-02_06h26.50.393",NA,NA,156.5248,156.5248,156.5248,156.8752,NA,NA,NA,NA,NA,NA,NA,TRUE,1,1.3977,153.5308,156.5247,0,28,28,60,1,50,27,NA,NA,NA,NA,NA,1,29,"binary"
"58DE05E999F346AEBEBC368880619A05",1,"01990a9b-7043-726d-bb5f-8e63996d87d1","01990a83-7673-7c0c-a792-bbd8fbbaf673","2025-09-02_06h26.50.393",NA,NA,159.8784,159.8787,159.8787,160.2257,NA,NA,NA,NA,NA,NA,NA,TRUE,1,0.8766,156.8825,159.8778,0,29,29,42,1,30,26,NA,NA,NA,NA,NA,1,30,"binary"
"58DE05E999F346AEBEBC368880619A05",1,"01990a9b-7043-726d-bb5f-8e63996d87d1","01990a83-7673-7c0c-a792-bbd8fbbaf673","2025-09-02_06h26.50.393",NA,NA,163.2242,163.2243,163.2243,163.5751,NA,NA,NA,NA,NA,NA,NA,TRUE,1,0.8249,160.232,163.2236,0,30,30,61,1,50,30,NA,NA,NA,NA,NA,1,31,"binary"
"58DE05E999F346AEBEBC368880619A05",1,"01990a9b-7043-726d-bb5f-8e63996d87d1","01990a83-7673-7c0c-a792-bbd8fbbaf673","2025-09-02_06h26.50.393",NA,NA,166.5744,166.5744,166.5744,166.9242,NA,NA,NA,NA,NA,NA,NA,TRUE,1,0.926,163.5803,166.5742,0,31,31,63,1,50,40,NA,NA,NA,NA,NA,1,32,"binary"
"58DE05E999F346AEBEBC368880619A05",1,"01990a9b-7043-726d-bb5f-8e63996d87d1","01990a83-7673-7c0c-a792-bbd8fbbaf673","2025-09-02_06h26.50.393",NA,NA,169.9259,169.9261,169.9261,170.2741,NA,NA,NA,NA,NA,NA,NA,TRUE,1,0.829,166.9307,169.9252,0,32,32,73,1,90,30,NA,NA,NA,NA,NA,1,33,"binary"
"58DE05E999F346AEBEBC368880619A05",1,"01990a9b-7043-726d-bb5f-8e63996d87d1","01990a83-7673-7c0c-a792-bbd8fbbaf673","2025-09-02_06h26.50.393",NA,NA,173.2747,173.2748,173.2748,173.6244,NA,NA,NA,NA,NA,NA,NA,TRUE,1,1.0294,170.2801,173.2743,0,33,33,87,1,100,39,NA,NA,NA,NA,NA,1,34,"binary"
"58DE05E999F346AEBEBC368880619A05",1,"01990a9b-7043-726d-bb5f-8e63996d87d1","01990a83-7673-7c0c-a792-bbd8fbbaf673","2025-09-02_06h26.50.393",NA,NA,176.6256,176.6258,176.6259,176.9747,NA,NA,NA,NA,NA,NA,NA,TRUE,1,1.0582,173.6319,176.6248,0,34,34,14,1,12,28,NA,NA,NA,NA,NA,1,35,"binary"
"58DE05E999F346AEBEBC368880619A05",1,"01990a9b-7043-726d-bb5f-8e63996d87d1","01990a83-7673-7c0c-a792-bbd8fbbaf673","2025-09-02_06h26.50.393",NA,NA,179.9746,179.9747,179.9747,180.3238,NA,NA,NA,NA,NA,NA,NA,TRUE,1,1.0141,176.9795,179.9744,0,35,35,67,1,60,33,NA,NA,NA,NA,NA,1,36,"binary"
"58DE05E999F346AEBEBC368880619A05",1,"01990a9b-7043-726d-bb5f-8e63996d87d1","01990a83-7673-7c0c-a792-bbd8fbbaf673","2025-09-02_06h26.50.393",NA,NA,183.3264,183.3266,183.3266,183.6756,NA,NA,NA,NA,NA,NA,NA,TRUE,2,1.0801,180.3299,183.3258,0,36,36,47,1,30,38,NA,NA,NA,NA,NA,1,37,"binary"
"58DE05E999F346AEBEBC368880619A05",1,"01990a9b-7043-726d-bb5f-8e63996d87d1","01990a83-7673-7c0c-a792-bbd8fbbaf673","2025-09-02_06h26.50.393",NA,NA,186.676,186.6761,186.6762,187.0246,NA,NA,NA,NA,NA,NA,NA,TRUE,2,1.8949,183.6814,186.675,0,37,37,20,1,14,28,NA,NA,NA,NA,NA,1,38,"binary"
"58DE05E999F346AEBEBC368880619A05",1,"01990a9b-7043-726d-bb5f-8e63996d87d1","01990a83-7673-7c0c-a792-bbd8fbbaf673","2025-09-02_06h26.50.393",NA,NA,190.0235,190.0235,190.0236,190.3765,NA,NA,NA,NA,NA,NA,NA,TRUE,1,0.9942,187.0311,190.0234,0,38,38,95,1,150,54,NA,NA,NA,NA,NA,1,39,"binary"
"58DE05E999F346AEBEBC368880619A05",1,"01990a9b-7043-726d-bb5f-8e63996d87d1","01990a83-7673-7c0c-a792-bbd8fbbaf673","2025-09-02_06h26.50.393",NA,NA,193.3756,193.3758,193.3758,193.7249,NA,NA,NA,NA,NA,NA,NA,TRUE,1,1.7927,190.3812,193.3747,0,39,39,32,1,25,31,NA,NA,NA,NA,NA,1,40,"binary"
"58DE05E999F346AEBEBC368880619A05",1,"01990a9b-7043-726d-bb5f-8e63996d87d1","01990a83-7673-7c0c-a792-bbd8fbbaf673","2025-09-02_06h26.50.393",NA,NA,196.7255,196.7256,196.7257,197.075,NA,NA,NA,NA,NA,NA,NA,TRUE,1,2.0258,193.7319,196.7245,0,40,40,91,1,150,33,NA,NA,NA,NA,NA,1,41,"binary"
"58DE05E999F346AEBEBC368880619A05",1,"01990a9b-7043-726d-bb5f-8e63996d87d1","01990a83-7673-7c0c-a792-bbd8fbbaf673","2025-09-02_06h26.50.393",NA,NA,200.0761,200.0761,200.0762,200.4235,NA,NA,NA,NA,NA,NA,NA,TRUE,1,1.1638,197.0802,200.0759,0,41,41,38,1,28,32,NA,NA,NA,NA,NA,1,42,"binary"
"58DE05E999F346AEBEBC368880619A05",1,"01990a9b-7043-726d-bb5f-8e63996d87d1","01990a83-7673-7c0c-a792-bbd8fbbaf673","2025-09-02_06h26.50.393",NA,NA,203.4263,203.4264,203.4266,203.7744,NA,NA,NA,NA,NA,NA,NA,TRUE,2,1.5231,200.4313,203.4255,0,42,42,52,1,40,47,NA,NA,NA,NA,NA,1,43,"binary"
"58DE05E999F346AEBEBC368880619A05",1,"01990a9b-7043-726d-bb5f-8e63996d87d1","01990a83-7673-7c0c-a792-bbd8fbbaf673","2025-09-02_06h26.50.393",NA,NA,206.7746,206.7747,206.7747,207.1257,NA,NA,NA,NA,NA,NA,NA,TRUE,1,1.0646,203.7781,206.7741,0,43,43,81,1,95,40,NA,NA,NA,NA,NA,1,44,"binary"
"58DE05E999F346AEBEBC368880619A05",1,"01990a9b-7043-726d-bb5f-8e63996d87d1","01990a83-7673-7c0c-a792-bbd8fbbaf673","2025-09-02_06h26.50.393",NA,NA,210.1258,210.1259,210.1259,210.4759,NA,NA,NA,NA,NA,NA,NA,TRUE,2,1.3387,207.1314,210.1255,0,44,44,22,1,14,35,NA,NA,NA,NA,NA,1,45,"binary"
"58DE05E999F346AEBEBC368880619A05",1,"01990a9b-7043-726d-bb5f-8e63996d87d1","01990a83-7673-7c0c-a792-bbd8fbbaf673","2025-09-02_06h26.50.393",NA,NA,213.4745,213.4746,213.4747,213.7935,NA,NA,NA,NA,NA,NA,NA,TRUE,1,0.9251,210.4812,213.4737,0,45,45,72,1,90,26,NA,NA,NA,NA,NA,1,46,"binary"
"58DE05E999F346AEBEBC368880619A05",1,"01990a9b-7043-726d-bb5f-8e63996d87d1","01990a83-7673-7c0c-a792-bbd8fbbaf673","2025-09-02_06h26.50.393",NA,NA,216.8242,216.8243,216.8243,217.1743,NA,NA,NA,NA,NA,NA,NA,TRUE,1,0.6794,213.7983,216.8238,0,46,46,84,1,100,26,NA,NA,NA,NA,NA,1,47,"binary"
"58DE05E999F346AEBEBC368880619A05",1,"01990a9b-7043-726d-bb5f-8e63996d87d1","01990a83-7673-7c0c-a792-bbd8fbbaf673","2025-09-02_06h26.50.393",NA,NA,220.1743,220.1744,220.1744,220.5247,NA,NA,NA,NA,NA,NA,NA,TRUE,1,0.8766,217.1811,220.174,0,47,47,70,1,60,47,NA,NA,NA,NA,NA,1,48,"binary"
"58DE05E999F346AEBEBC368880619A05",1,"01990a9b-7043-726d-bb5f-8e63996d87d1","01990a83-7673-7c0c-a792-bbd8fbbaf673","2025-09-02_06h26.50.393",NA,NA,223.5271,223.5271,223.5271,223.8745,NA,NA,NA,NA,NA,NA,NA,TRUE,1,0.8466,220.53,223.5265,0,48,48,88,1,100,46,NA,NA,NA,NA,NA,1,49,"binary"
"58DE05E999F346AEBEBC368880619A05",1,"01990a9b-7043-726d-bb5f-8e63996d87d1","01990a83-7673-7c0c-a792-bbd8fbbaf673","2025-09-02_06h26.50.393",NA,NA,226.8767,226.8768,226.8768,227.2247,NA,NA,NA,NA,NA,NA,NA,TRUE,1,0.596,223.8792,226.876,0,49,49,23,1,14,39,NA,NA,NA,NA,NA,1,50,"binary"
"58DE05E999F346AEBEBC368880619A05",1,"01990a9b-7043-726d-bb5f-8e63996d87d1","01990a83-7673-7c0c-a792-bbd8fbbaf673","2025-09-02_06h26.50.393",NA,NA,230.2256,230.2257,230.2258,230.5737,NA,NA,NA,NA,NA,NA,NA,TRUE,1,0.8774,227.2308,230.2254,0,50,50,92,1,150,35,NA,NA,NA,NA,NA,1,51,"binary"
"58DE05E999F346AEBEBC368880619A05",1,"01990a9b-7043-726d-bb5f-8e63996d87d1","01990a83-7673-7c0c-a792-bbd8fbbaf673","2025-09-02_06h26.50.393",NA,NA,233.5744,233.5744,233.5744,233.9236,NA,NA,NA,NA,NA,NA,NA,TRUE,1,1.4316,230.5796,233.574,0,51,51,31,1,25,29,NA,NA,NA,NA,NA,1,52,"binary"
"58DE05E999F346AEBEBC368880619A05",1,"01990a9b-7043-726d-bb5f-8e63996d87d1","01990a83-7673-7c0c-a792-bbd8fbbaf673","2025-09-02_06h26.50.393",NA,NA,236.9239,236.9239,236.9239,237.275,NA,NA,NA,NA,NA,NA,NA,TRUE,1,1.7434,233.9308,236.9231,0,52,52,50,1,40,35,NA,NA,NA,NA,NA,1,53,"binary"
"58DE05E999F346AEBEBC368880619A05",1,"01990a9b-7043-726d-bb5f-8e63996d87d1","01990a83-7673-7c0c-a792-bbd8fbbaf673","2025-09-02_06h26.50.393",NA,NA,240.2735,240.2735,240.2735,240.6228,NA,NA,NA,NA,NA,NA,NA,TRUE,2,1.5777,237.2805,240.2733,0,53,53,53,1,40,54,NA,NA,NA,NA,NA,1,54,"binary"
"58DE05E999F346AEBEBC368880619A05",1,"01990a9b-7043-726d-bb5f-8e63996d87d1","01990a83-7673-7c0c-a792-bbd8fbbaf673","2025-09-02_06h26.50.393",NA,NA,243.6234,243.6235,243.6235,243.9728,NA,NA,NA,NA,NA,NA,NA,TRUE,1,1.1278,240.6302,243.6228,0,54,54,76,1,90,46,NA,NA,NA,NA,NA,1,55,"binary"
"58DE05E999F346AEBEBC368880619A05",1,"01990a9b-7043-726d-bb5f-8e63996d87d1","01990a83-7673-7c0c-a792-bbd8fbbaf673","2025-09-02_06h26.50.393",NA,NA,246.9769,246.9771,246.9772,247.3372,NA,NA,NA,NA,NA,NA,NA,TRUE,1,1.0398,243.9802,246.9762,0,55,55,48,1,40,27,NA,NA,NA,NA,NA,1,56,"binary"
"58DE05E999F346AEBEBC368880619A05",1,"01990a9b-7043-726d-bb5f-8e63996d87d1","01990a83-7673-7c0c-a792-bbd8fbbaf673","2025-09-02_06h26.50.393",NA,NA,250.3227,250.3227,250.3227,250.6751,NA,NA,NA,NA,NA,NA,NA,TRUE,2,1.0474,247.3498,250.3224,0,56,56,16,1,12,33,NA,NA,NA,NA,NA,1,57,"binary"
"58DE05E999F346AEBEBC368880619A05",1,"01990a9b-7043-726d-bb5f-8e63996d87d1","01990a83-7673-7c0c-a792-bbd8fbbaf673","2025-09-02_06h26.50.393",NA,NA,253.6769,253.6771,253.6771,254.0245,NA,NA,NA,NA,NA,NA,NA,TRUE,1,0.8748,250.6809,253.6761,0,57,57,62,1,50,35,NA,NA,NA,NA,NA,1,58,"binary"
"58DE05E999F346AEBEBC368880619A05",1,"01990a9b-7043-726d-bb5f-8e63996d87d1","01990a83-7673-7c0c-a792-bbd8fbbaf673","2025-09-02_06h26.50.393",NA,NA,257.0276,257.0277,257.0277,257.3727,NA,NA,NA,NA,NA,NA,NA,TRUE,2,0.8943,254.0305,257.027,0,58,58,15,1,12,31,NA,NA,NA,NA,NA,1,59,"binary"
"58DE05E999F346AEBEBC368880619A05",1,"01990a9b-7043-726d-bb5f-8e63996d87d1","01990a83-7673-7c0c-a792-bbd8fbbaf673","2025-09-02_06h26.50.393",NA,NA,260.375,260.3752,260.3752,260.7247,NA,NA,NA,NA,NA,NA,NA,TRUE,1,1.6266,257.3806,260.3749,0,59,59,7,1,10,26,NA,NA,NA,NA,NA,1,60,"binary"
"58DE05E999F346AEBEBC368880619A05",1,"01990a9b-7043-726d-bb5f-8e63996d87d1","01990a83-7673-7c0c-a792-bbd8fbbaf673","2025-09-02_06h26.50.393",NA,NA,263.7248,263.725,263.7251,264.075,NA,NA,NA,NA,NA,NA,NA,TRUE,1,1.0418,260.7306,263.7241,0,60,60,36,1,28,26,NA,NA,NA,NA,NA,1,61,"binary"
"58DE05E999F346AEBEBC368880619A05",1,"01990a9b-7043-726d-bb5f-8e63996d87d1","01990a83-7673-7c0c-a792-bbd8fbbaf673","2025-09-02_06h26.50.393",NA,NA,267.075,267.0751,267.0751,267.4225,NA,NA,NA,NA,NA,NA,NA,TRUE,1,0.779,264.0792,267.0742,0,61,61,97,1,180,31,NA,NA,NA,NA,NA,1,62,"binary"
"58DE05E999F346AEBEBC368880619A05",1,"01990a9b-7043-726d-bb5f-8e63996d87d1","01990a83-7673-7c0c-a792-bbd8fbbaf673","2025-09-02_06h26.50.393",NA,NA,270.424,270.424,270.424,270.7742,NA,NA,NA,NA,NA,NA,NA,TRUE,1,1.2262,267.43,270.4239,0,62,62,25,1,21,27,NA,NA,NA,NA,NA,1,63,"binary"
"58DE05E999F346AEBEBC368880619A05",1,"01990a9b-7043-726d-bb5f-8e63996d87d1","01990a83-7673-7c0c-a792-bbd8fbbaf673","2025-09-02_06h26.50.393",NA,NA,273.7747,273.7747,273.7747,274.1239,NA,NA,NA,NA,NA,NA,NA,TRUE,1,1.1289,270.7796,273.774,0,63,63,71,1,60,54,NA,NA,NA,NA,NA,1,64,"binary"
"58DE05E999F346AEBEBC368880619A05",1,"01990a9b-7043-726d-bb5f-8e63996d87d1","01990a83-7673-7c0c-a792-bbd8fbbaf673","2025-09-02_06h26.50.393",NA,NA,277.1231,277.1231,277.1232,277.4748,NA,NA,NA,NA,NA,NA,NA,TRUE,1,2.0266,274.1311,277.1224,0,64,64,27,1,21,30,NA,NA,NA,NA,NA,1,65,"binary"
"58DE05E999F346AEBEBC368880619A05",1,"01990a9b-7043-726d-bb5f-8e63996d87d1","01990a83-7673-7c0c-a792-bbd8fbbaf673","2025-09-02_06h26.50.393",NA,NA,280.4749,280.4751,280.4751,280.8237,NA,NA,NA,NA,NA,NA,NA,TRUE,1,1.0263,277.4795,280.4747,0,65,65,44,1,30,29,NA,NA,NA,NA,NA,1,66,"binary"
"58DE05E999F346AEBEBC368880619A05",1,"01990a9b-7043-726d-bb5f-8e63996d87d1","01990a83-7673-7c0c-a792-bbd8fbbaf673","2025-09-02_06h26.50.393",NA,NA,283.8245,283.8247,283.8247,284.1724,NA,NA,NA,NA,NA,NA,NA,TRUE,1,0.8599,280.8295,283.8241,0,66,66,80,1,95,35,NA,NA,NA,NA,NA,1,67,"binary"
"58DE05E999F346AEBEBC368880619A05",1,"01990a9b-7043-726d-bb5f-8e63996d87d1","01990a83-7673-7c0c-a792-bbd8fbbaf673","2025-09-02_06h26.50.393",NA,NA,287.1733,287.1733,287.1734,287.5224,NA,NA,NA,NA,NA,NA,NA,TRUE,2,2.5283,284.1799,287.1725,0,67,67,4,1,7,32,NA,NA,NA,NA,NA,1,68,"binary"
"58DE05E999F346AEBEBC368880619A05",1,"01990a9b-7043-726d-bb5f-8e63996d87d1","01990a83-7673-7c0c-a792-bbd8fbbaf673","2025-09-02_06h26.50.393",NA,NA,290.5252,290.5253,290.5254,290.8721,NA,NA,NA,NA,NA,NA,NA,TRUE,1,2.0758,287.5295,290.525,0,68,68,33,1,25,33,NA,NA,NA,NA,NA,1,69,"binary"
"58DE05E999F346AEBEBC368880619A05",1,"01990a9b-7043-726d-bb5f-8e63996d87d1","01990a83-7673-7c0c-a792-bbd8fbbaf673","2025-09-02_06h26.50.393",NA,NA,293.874,293.874,293.8741,294.2256,NA,NA,NA,NA,NA,NA,NA,TRUE,1,1.0284,290.8802,293.8732,0,69,69,79,1,95,33,NA,NA,NA,NA,NA,1,70,"binary"
"58DE05E999F346AEBEBC368880619A05",1,"01990a9b-7043-726d-bb5f-8e63996d87d1","01990a83-7673-7c0c-a792-bbd8fbbaf673","2025-09-02_06h26.50.393",NA,NA,297.2227,297.2228,297.2229,297.5733,NA,NA,NA,NA,NA,NA,NA,TRUE,1,1.6116,294.2304,297.2219,0,70,70,2,1,7,28,NA,NA,NA,NA,NA,1,71,"binary"
"58DE05E999F346AEBEBC368880619A05",1,"01990a9b-7043-726d-bb5f-8e63996d87d1","01990a83-7673-7c0c-a792-bbd8fbbaf673","2025-09-02_06h26.50.393",NA,NA,300.5751,300.5752,300.5752,300.9218,NA,NA,NA,NA,NA,NA,NA,TRUE,1,1.7772,297.5795,300.575,0,71,71,56,1,45,31,NA,NA,NA,NA,NA,1,72,"binary"
"58DE05E999F346AEBEBC368880619A05",1,"01990a9b-7043-726d-bb5f-8e63996d87d1","01990a83-7673-7c0c-a792-bbd8fbbaf673","2025-09-02_06h26.50.393",NA,NA,303.9243,303.9244,303.9244,304.2745,NA,NA,NA,NA,NA,NA,NA,TRUE,1,1.0276,300.9297,303.9233,0,72,72,66,1,60,29,NA,NA,NA,NA,NA,1,73,"binary"
"58DE05E999F346AEBEBC368880619A05",1,"01990a9b-7043-726d-bb5f-8e63996d87d1","01990a83-7673-7c0c-a792-bbd8fbbaf673","2025-09-02_06h26.50.393",NA,NA,307.2756,307.2757,307.2757,307.6215,NA,NA,NA,NA,NA,NA,NA,TRUE,1,1.6442,304.2798,307.2751,0,73,73,57,1,45,35,NA,NA,NA,NA,NA,1,74,"binary"
"58DE05E999F346AEBEBC368880619A05",1,"01990a9b-7043-726d-bb5f-8e63996d87d1","01990a83-7673-7c0c-a792-bbd8fbbaf673","2025-09-02_06h26.50.393",NA,NA,310.6229,310.6229,310.6231,310.9735,NA,NA,NA,NA,NA,NA,NA,TRUE,1,0.8906,307.6292,310.6227,0,74,74,35,1,25,46,NA,NA,NA,NA,NA,1,75,"binary"
"58DE05E999F346AEBEBC368880619A05",1,"01990a9b-7043-726d-bb5f-8e63996d87d1","01990a83-7673-7c0c-a792-bbd8fbbaf673","2025-09-02_06h26.50.393",NA,NA,313.9737,313.9737,313.9738,314.3227,NA,NA,NA,NA,NA,NA,NA,TRUE,1,1.4579,310.9809,313.9729,0,75,75,1,1,7,26,NA,NA,NA,NA,NA,1,76,"binary"
"58DE05E999F346AEBEBC368880619A05",1,"01990a9b-7043-726d-bb5f-8e63996d87d1","01990a83-7673-7c0c-a792-bbd8fbbaf673","2025-09-02_06h26.50.393",NA,NA,317.3252,317.3253,317.3254,317.6722,NA,NA,NA,NA,NA,NA,NA,TRUE,1,0.9923,314.3298,317.3247,0,76,76,101,1,180,54,NA,NA,NA,NA,NA,1,77,"binary"
"58DE05E999F346AEBEBC368880619A05",1,"01990a9b-7043-726d-bb5f-8e63996d87d1","01990a83-7673-7c0c-a792-bbd8fbbaf673","2025-09-02_06h26.50.393",NA,NA,320.6724,320.6726,320.6726,321.0245,NA,NA,NA,NA,NA,NA,NA,TRUE,1,1.5132,317.6788,320.6722,0,77,77,102,1,200,26,NA,NA,NA,NA,NA,1,78,"binary"
"58DE05E999F346AEBEBC368880619A05",1,"01990a9b-7043-726d-bb5f-8e63996d87d1","01990a83-7673-7c0c-a792-bbd8fbbaf673","2025-09-02_06h26.50.393",NA,NA,324.0219,324.0219,324.0219,324.3715,NA,NA,NA,NA,NA,NA,NA,TRUE,2,0.979,321.0299,324.0215,0,78,78,11,1,10,32,NA,NA,NA,NA,NA,1,79,"binary"
"58DE05E999F346AEBEBC368880619A05",1,"01990a9b-7043-726d-bb5f-8e63996d87d1","01990a83-7673-7c0c-a792-bbd8fbbaf673","2025-09-02_06h26.50.393",NA,NA,327.3719,327.3719,327.3719,327.7234,NA,NA,NA,NA,NA,NA,NA,TRUE,1,0.9821,324.3758,327.3715,0,79,79,8,1,10,27,NA,NA,NA,NA,NA,1,80,"binary"
"58DE05E999F346AEBEBC368880619A05",1,"01990a9b-7043-726d-bb5f-8e63996d87d1","01990a83-7673-7c0c-a792-bbd8fbbaf673","2025-09-02_06h26.50.393",NA,NA,330.7234,330.7234,330.7234,331.0713,NA,NA,NA,NA,NA,NA,NA,TRUE,2,1.3076,327.7303,330.7232,0,80,80,28,1,21,32,NA,NA,NA,NA,NA,1,81,"binary"
"58DE05E999F346AEBEBC368880619A05",1,"01990a9b-7043-726d-bb5f-8e63996d87d1","01990a83-7673-7c0c-a792-bbd8fbbaf673","2025-09-02_06h26.50.393",NA,NA,334.0718,334.0718,334.0718,334.4221,NA,NA,NA,NA,NA,NA,NA,TRUE,1,1.0299,331.0785,334.0712,0,81,81,77,1,90,54,NA,NA,NA,NA,NA,1,82,"binary"
"58DE05E999F346AEBEBC368880619A05",1,"01990a9b-7043-726d-bb5f-8e63996d87d1","01990a83-7673-7c0c-a792-bbd8fbbaf673","2025-09-02_06h26.50.393",NA,NA,337.4232,337.4232,337.4237,337.7711,NA,NA,NA,NA,NA,NA,NA,TRUE,1,0.826,334.4294,337.4221,0,82,82,103,1,200,28,NA,NA,NA,NA,NA,1,83,"binary"
"58DE05E999F346AEBEBC368880619A05",1,"01990a9b-7043-726d-bb5f-8e63996d87d1","01990a83-7673-7c0c-a792-bbd8fbbaf673","2025-09-02_06h26.50.393",NA,NA,340.7724,340.7725,340.7725,341.1213,NA,NA,NA,NA,NA,NA,NA,TRUE,2,2.1136,337.7791,340.7723,0,83,83,3,1,7,30,NA,NA,NA,NA,NA,1,84,"binary"
"58DE05E999F346AEBEBC368880619A05",1,"01990a9b-7043-726d-bb5f-8e63996d87d1","01990a83-7673-7c0c-a792-bbd8fbbaf673","2025-09-02_06h26.50.393",NA,NA,344.1225,344.1225,344.1225,344.4717,NA,NA,NA,NA,NA,NA,NA,TRUE,1,0.9974,341.1265,344.1218,0,84,84,78,1,95,31,NA,NA,NA,NA,NA,1,85,"binary"
"58DE05E999F346AEBEBC368880619A05",1,"01990a9b-7043-726d-bb5f-8e63996d87d1","01990a83-7673-7c0c-a792-bbd8fbbaf673","2025-09-02_06h26.50.393",NA,NA,347.4754,347.4756,347.4757,347.8211,NA,NA,NA,NA,NA,NA,NA,TRUE,1,0.8314,344.4787,347.4748,0,85,85,96,1,180,27,NA,NA,NA,NA,NA,1,86,"binary"
"58DE05E999F346AEBEBC368880619A05",1,"01990a9b-7043-726d-bb5f-8e63996d87d1","01990a83-7673-7c0c-a792-bbd8fbbaf673","2025-09-02_06h26.50.393",NA,NA,350.8226,350.8226,350.8226,351.1738,NA,NA,NA,NA,NA,NA,NA,TRUE,1,1.2634,347.8281,350.8226,0,86,86,17,1,12,35,NA,NA,NA,NA,NA,1,87,"binary"
"58DE05E999F346AEBEBC368880619A05",1,"01990a9b-7043-726d-bb5f-8e63996d87d1","01990a83-7673-7c0c-a792-bbd8fbbaf673","2025-09-02_06h26.50.393",NA,NA,354.1738,354.174,354.1742,354.5216,NA,NA,NA,NA,NA,NA,NA,TRUE,1,1.5215,351.1791,354.173,0,87,87,19,1,14,26,NA,NA,NA,NA,NA,1,88,"binary"
"58DE05E999F346AEBEBC368880619A05",1,"01990a9b-7043-726d-bb5f-8e63996d87d1","01990a83-7673-7c0c-a792-bbd8fbbaf673","2025-09-02_06h26.50.393",NA,NA,357.5238,357.5238,357.5238,357.8743,NA,NA,NA,NA,NA,NA,NA,TRUE,1,2.9637,354.5282,357.523,0,88,88,107,1,200,54,NA,NA,NA,NA,NA,1,89,"binary"
"58DE05E999F346AEBEBC368880619A05",1,"01990a9b-7043-726d-bb5f-8e63996d87d1","01990a83-7673-7c0c-a792-bbd8fbbaf673","2025-09-02_06h26.50.393",NA,NA,360.8733,361.121,361.1211,361.2243,NA,NA,NA,NA,NA,NA,NA,FALSE,NA,NA,357.8791,360.8731,0,89,89,90,1,150,31,NA,NA,NA,NA,NA,1,90,"binary"
"58DE05E999F346AEBEBC368880619A05",1,"01990a9b-7043-726d-bb5f-8e63996d87d1","01990a83-7673-7c0c-a792-bbd8fbbaf673","2025-09-02_06h26.50.393",NA,NA,364.2267,364.2269,364.2269,364.5718,NA,NA,NA,NA,NA,NA,NA,TRUE,1,1.6873,361.2294,364.2261,0,90,90,65,1,50,54,NA,NA,NA,NA,NA,1,91,"binary"
"58DE05E999F346AEBEBC368880619A05",1,"01990a9b-7043-726d-bb5f-8e63996d87d1","01990a83-7673-7c0c-a792-bbd8fbbaf673","2025-09-02_06h26.50.393",NA,NA,367.574,367.574,367.574,367.9217,NA,NA,NA,NA,NA,NA,NA,TRUE,1,0.9627,364.578,367.5735,0,91,91,26,1,21,29,NA,NA,NA,NA,NA,1,92,"binary"
"58DE05E999F346AEBEBC368880619A05",1,"01990a9b-7043-726d-bb5f-8e63996d87d1","01990a83-7673-7c0c-a792-bbd8fbbaf673","2025-09-02_06h26.50.393",NA,NA,370.9231,370.9231,370.9232,371.2712,NA,NA,NA,NA,NA,NA,NA,TRUE,1,1.1433,367.9284,370.9229,0,92,92,51,1,40,40,NA,NA,NA,NA,NA,1,93,"binary"
"58DE05E999F346AEBEBC368880619A05",1,"01990a9b-7043-726d-bb5f-8e63996d87d1","01990a83-7673-7c0c-a792-bbd8fbbaf673","2025-09-02_06h26.50.393",NA,NA,374.2712,374.2718,374.2718,374.6209,NA,NA,NA,NA,NA,NA,NA,TRUE,1,1.1919,371.2785,374.2706,0,93,93,64,1,50,46,NA,NA,NA,NA,NA,1,94,"binary"
"58DE05E999F346AEBEBC368880619A05",1,"01990a9b-7043-726d-bb5f-8e63996d87d1","01990a83-7673-7c0c-a792-bbd8fbbaf673","2025-09-02_06h26.50.393",NA,NA,377.6221,377.6222,377.6222,377.9711,NA,NA,NA,NA,NA,NA,NA,TRUE,2,1.5309,374.6282,377.6216,0,94,94,5,1,7,35,NA,NA,NA,NA,NA,1,95,"binary"
"58DE05E999F346AEBEBC368880619A05",1,"01990a9b-7043-726d-bb5f-8e63996d87d1","01990a83-7673-7c0c-a792-bbd8fbbaf673","2025-09-02_06h26.50.393",NA,NA,380.9716,381.2218,381.2218,381.3206,NA,NA,NA,NA,NA,NA,NA,FALSE,NA,NA,377.9771,380.9715,0,95,95,40,1,28,39,NA,NA,NA,NA,NA,1,96,"binary"
"58DE05E999F346AEBEBC368880619A05",1,"01990a9b-7043-726d-bb5f-8e63996d87d1","01990a83-7673-7c0c-a792-bbd8fbbaf673","2025-09-02_06h26.50.393",NA,NA,384.321,384.321,384.3211,384.6727,NA,NA,NA,NA,NA,NA,NA,TRUE,2,2.1646,381.3281,384.3205,0,96,96,10,1,10,30,NA,NA,NA,NA,NA,1,97,"binary"
"58DE05E999F346AEBEBC368880619A05",1,"01990a9b-7043-726d-bb5f-8e63996d87d1","01990a83-7673-7c0c-a792-bbd8fbbaf673","2025-09-02_06h26.50.393",NA,NA,387.6721,387.6722,387.6723,388.021,NA,NA,NA,NA,NA,NA,NA,TRUE,1,1.0764,384.6793,387.6715,0,97,97,98,1,180,35,NA,NA,NA,NA,NA,1,98,"binary"
"58DE05E999F346AEBEBC368880619A05",1,"01990a9b-7043-726d-bb5f-8e63996d87d1","01990a83-7673-7c0c-a792-bbd8fbbaf673","2025-09-02_06h26.50.393",NA,NA,391.0207,391.0207,391.0208,391.3714,NA,NA,NA,NA,NA,NA,NA,TRUE,1,1.2309,388.0276,391.0206,0,98,98,0,1,7,25,NA,NA,NA,NA,NA,1,99,"binary"
"58DE05E999F346AEBEBC368880619A05",1,"01990a9b-7043-726d-bb5f-8e63996d87d1","01990a83-7673-7c0c-a792-bbd8fbbaf673","2025-09-02_06h26.50.393",NA,NA,394.3711,394.6233,394.6234,394.7215,NA,NA,NA,NA,NA,NA,NA,FALSE,NA,NA,391.3781,394.3702,0,99,99,59,1,45,46,NA,NA,NA,NA,NA,1,100,"binary"
"58DE05E999F346AEBEBC368880619A05",1,"01990a9b-7043-726d-bb5f-8e63996d87d1","01990a83-7673-7c0c-a792-bbd8fbbaf673","2025-09-02_06h26.50.393",NA,NA,397.7218,397.7219,397.7219,398.0714,NA,NA,NA,NA,NA,NA,NA,TRUE,1,1.377,394.7264,397.721,0,100,100,13,1,12,26,NA,NA,NA,NA,NA,1,101,"binary"
"58DE05E999F346AEBEBC368880619A05",1,"01990a9b-7043-726d-bb5f-8e63996d87d1","01990a83-7673-7c0c-a792-bbd8fbbaf673","2025-09-02_06h26.50.393",NA,NA,401.0706,401.0706,401.0706,401.4203,NA,NA,NA,NA,NA,NA,NA,TRUE,1,1.2442,398.0782,401.0704,0,101,101,93,1,150,40,NA,NA,NA,NA,NA,1,102,"binary"
"58DE05E999F346AEBEBC368880619A05",1,"01990a9b-7043-726d-bb5f-8e63996d87d1","01990a83-7673-7c0c-a792-bbd8fbbaf673","2025-09-02_06h26.50.393",NA,NA,404.4217,404.4218,404.4219,404.7736,NA,NA,NA,NA,NA,NA,NA,TRUE,1,1.4601,401.4291,404.421,0,102,102,30,1,25,27,NA,NA,NA,NA,NA,1,103,"binary"
"58DE05E999F346AEBEBC368880619A05",1,"01990a9b-7043-726d-bb5f-8e63996d87d1","01990a83-7673-7c0c-a792-bbd8fbbaf673","2025-09-02_06h26.50.393",NA,NA,407.7707,407.7708,407.7708,408.1216,NA,NA,NA,NA,NA,NA,NA,TRUE,1,2.6926,404.7777,407.7703,0,103,103,12,1,12,25,NA,NA,NA,NA,NA,1,104,"binary"
"58DE05E999F346AEBEBC368880619A05",1,"01990a9b-7043-726d-bb5f-8e63996d87d1","01990a83-7673-7c0c-a792-bbd8fbbaf673","2025-09-02_06h26.50.393",NA,NA,411.1208,411.3712,411.3712,411.4714,NA,NA,NA,NA,NA,NA,NA,FALSE,NA,NA,408.1282,411.1206,0,104,104,46,1,30,32,NA,NA,NA,NA,NA,1,105,"binary"
"58DE05E999F346AEBEBC368880619A05",1,"01990a9b-7043-726d-bb5f-8e63996d87d1","01990a83-7673-7c0c-a792-bbd8fbbaf673","2025-09-02_06h26.50.393",NA,NA,414.4717,414.4717,414.4717,414.8204,NA,NA,NA,NA,NA,NA,NA,TRUE,1,1.111,411.479,414.4707,0,105,105,86,1,100,38,NA,NA,NA,NA,NA,1,106,"binary"
"58DE05E999F346AEBEBC368880619A05",1,"01990a9b-7043-726d-bb5f-8e63996d87d1","01990a83-7673-7c0c-a792-bbd8fbbaf673","2025-09-02_06h26.50.393",NA,NA,417.821,417.8211,417.8211,418.1703,NA,NA,NA,NA,NA,NA,NA,TRUE,1,0.6678,414.8235,417.8205,0,106,106,68,1,60,35,NA,NA,NA,NA,NA,1,107,"binary"
"58DE05E999F346AEBEBC368880619A05",1,"01990a9b-7043-726d-bb5f-8e63996d87d1","01990a83-7673-7c0c-a792-bbd8fbbaf673","2025-09-02_06h26.50.393",NA,NA,421.1714,421.1714,421.1715,421.5223,NA,NA,NA,NA,NA,NA,NA,TRUE,1,0.7041,418.1785,421.1711,0,107,107,6,1,10,25,NA,NA,NA,NA,NA,1,108,"binary"
"58DE05E999F346AEBEBC368880619A05",1,"01990a9b-7043-726d-bb5f-8e63996d87d1","01990a83-7673-7c0c-a792-bbd8fbbaf673","2025-09-02_06h26.50.393",NA,NA,430.3384,430.3385,430.3386,430.6884,NA,NA,NA,NA,NA,NA,NA,TRUE,2,2.7215,427.4248,430.3382,NA,NA,NA,NA,NA,21,32,0,0,0,28,1,2,1,"binary"
"58DE05E999F346AEBEBC368880619A05",1,"01990a9b-7043-726d-bb5f-8e63996d87d1","01990a83-7673-7c0c-a792-bbd8fbbaf673","2025-09-02_06h26.50.393",NA,NA,433.6884,433.6885,433.6886,434.0402,NA,NA,NA,NA,NA,NA,NA,TRUE,1,1.3464,430.6959,433.6877,NA,NA,NA,NA,NA,60,35,0,1,1,68,1,2,2,"binary"
"58DE05E999F346AEBEBC368880619A05",1,"01990a9b-7043-726d-bb5f-8e63996d87d1","01990a83-7673-7c0c-a792-bbd8fbbaf673","2025-09-02_06h26.50.393",NA,NA,437.0378,437.0378,437.0379,437.3893,NA,NA,NA,NA,NA,NA,NA,TRUE,1,1.2176,434.0439,437.0377,NA,NA,NA,NA,NA,25,31,0,2,2,32,1,2,3,"binary"
"58DE05E999F346AEBEBC368880619A05",1,"01990a9b-7043-726d-bb5f-8e63996d87d1","01990a83-7673-7c0c-a792-bbd8fbbaf673","2025-09-02_06h26.50.393",NA,NA,440.3882,440.3883,440.3883,440.7375,NA,NA,NA,NA,NA,NA,NA,TRUE,1,2.1471,437.3952,440.3872,NA,NA,NA,NA,NA,45,35,0,3,3,57,1,2,4,"binary"
"58DE05E999F346AEBEBC368880619A05",1,"01990a9b-7043-726d-bb5f-8e63996d87d1","01990a83-7673-7c0c-a792-bbd8fbbaf673","2025-09-02_06h26.50.393",NA,NA,443.7407,443.7408,443.7408,444.0877,NA,NA,NA,NA,NA,NA,NA,TRUE,1,1.0955,440.745,443.74,NA,NA,NA,NA,NA,90,33,0,4,4,74,1,2,5,"binary"
"58DE05E999F346AEBEBC368880619A05",1,"01990a9b-7043-726d-bb5f-8e63996d87d1","01990a83-7673-7c0c-a792-bbd8fbbaf673","2025-09-02_06h26.50.393",NA,NA,447.0885,447.0885,447.0886,447.4386,NA,NA,NA,NA,NA,NA,NA,TRUE,1,0.7007,444.094,447.0884,NA,NA,NA,NA,NA,7,26,0,5,5,1,1,2,6,"binary"
"58DE05E999F346AEBEBC368880619A05",1,"01990a9b-7043-726d-bb5f-8e63996d87d1","01990a83-7673-7c0c-a792-bbd8fbbaf673","2025-09-02_06h26.50.393",NA,NA,450.4373,450.4374,450.4374,450.7864,NA,NA,NA,NA,NA,NA,NA,TRUE,1,0.6962,447.4452,450.4366,NA,NA,NA,NA,NA,90,46,0,6,6,76,1,2,7,"binary"
"58DE05E999F346AEBEBC368880619A05",1,"01990a9b-7043-726d-bb5f-8e63996d87d1","01990a83-7673-7c0c-a792-bbd8fbbaf673","2025-09-02_06h26.50.393",NA,NA,453.7869,453.7869,453.7869,454.1365,NA,NA,NA,NA,NA,NA,NA,TRUE,1,0.8643,450.7933,453.7865,NA,NA,NA,NA,NA,7,32,0,7,7,4,1,2,8,"binary"
"58DE05E999F346AEBEBC368880619A05",1,"01990a9b-7043-726d-bb5f-8e63996d87d1","01990a83-7673-7c0c-a792-bbd8fbbaf673","2025-09-02_06h26.50.393",NA,NA,457.1378,457.1379,457.1379,457.4867,NA,NA,NA,NA,NA,NA,NA,TRUE,1,0.798,454.1451,457.1376,NA,NA,NA,NA,NA,60,54,0,8,8,71,1,2,9,"binary"
"58DE05E999F346AEBEBC368880619A05",1,"01990a9b-7043-726d-bb5f-8e63996d87d1","01990a83-7673-7c0c-a792-bbd8fbbaf673","2025-09-02_06h26.50.393",NA,NA,460.4887,460.4889,460.4889,460.837,NA,NA,NA,NA,NA,NA,NA,TRUE,1,0.5451,457.4941,460.4879,NA,NA,NA,NA,NA,45,40,0,9,9,58,1,2,10,"binary"
"58DE05E999F346AEBEBC368880619A05",1,"01990a9b-7043-726d-bb5f-8e63996d87d1","01990a83-7673-7c0c-a792-bbd8fbbaf673","2025-09-02_06h26.50.393",NA,NA,463.8379,463.838,463.838,464.1881,NA,NA,NA,NA,NA,NA,NA,TRUE,1,1.0328,460.843,463.8373,NA,NA,NA,NA,NA,25,46,0,10,10,35,1,2,11,"binary"
"58DE05E999F346AEBEBC368880619A05",1,"01990a9b-7043-726d-bb5f-8e63996d87d1","01990a83-7673-7c0c-a792-bbd8fbbaf673","2025-09-02_06h26.50.393",NA,NA,467.1879,467.1881,467.1881,467.5364,NA,NA,NA,NA,NA,NA,NA,TRUE,1,1.0314,464.195,467.1877,NA,NA,NA,NA,NA,40,35,0,11,11,50,1,2,12,"binary"
"58DE05E999F346AEBEBC368880619A05",1,"01990a9b-7043-726d-bb5f-8e63996d87d1","01990a83-7673-7c0c-a792-bbd8fbbaf673","2025-09-02_06h26.50.393",NA,NA,470.5368,470.5369,470.537,470.8877,NA,NA,NA,NA,NA,NA,NA,TRUE,1,1.2837,467.5393,470.5364,NA,NA,NA,NA,NA,21,29,0,12,12,26,1,2,13,"binary"
"58DE05E999F346AEBEBC368880619A05",1,"01990a9b-7043-726d-bb5f-8e63996d87d1","01990a83-7673-7c0c-a792-bbd8fbbaf673","2025-09-02_06h26.50.393",NA,NA,473.8891,473.8896,473.8898,474.2362,NA,NA,NA,NA,NA,NA,NA,TRUE,2,1.3478,470.8943,473.8885,NA,NA,NA,NA,NA,21,38,0,13,13,29,1,2,14,"binary"
"58DE05E999F346AEBEBC368880619A05",1,"01990a9b-7043-726d-bb5f-8e63996d87d1","01990a83-7673-7c0c-a792-bbd8fbbaf673","2025-09-02_06h26.50.393",NA,NA,477.2376,477.2376,477.2377,477.5896,NA,NA,NA,NA,NA,NA,NA,TRUE,1,1.0814,474.2406,477.2373,NA,NA,NA,NA,NA,28,28,0,14,14,37,1,2,15,"binary"
"58DE05E999F346AEBEBC368880619A05",1,"01990a9b-7043-726d-bb5f-8e63996d87d1","01990a83-7673-7c0c-a792-bbd8fbbaf673","2025-09-02_06h26.50.393",NA,NA,480.5898,480.5898,480.5898,480.9363,NA,NA,NA,NA,NA,NA,NA,TRUE,1,0.8515,477.5932,480.5894,NA,NA,NA,NA,NA,150,35,0,15,15,92,1,2,16,"binary"
"58DE05E999F346AEBEBC368880619A05",1,"01990a9b-7043-726d-bb5f-8e63996d87d1","01990a83-7673-7c0c-a792-bbd8fbbaf673","2025-09-02_06h26.50.393",NA,NA,483.9382,483.9384,483.9384,484.2884,NA,NA,NA,NA,NA,NA,NA,TRUE,1,1.9661,480.944,483.9375,NA,NA,NA,NA,NA,95,31,0,16,16,78,1,2,17,"binary"
"58DE05E999F346AEBEBC368880619A05",1,"01990a9b-7043-726d-bb5f-8e63996d87d1","01990a83-7673-7c0c-a792-bbd8fbbaf673","2025-09-02_06h26.50.393",NA,NA,487.3002,487.3003,487.3003,487.6386,NA,NA,NA,NA,NA,NA,NA,TRUE,2,1.5681,484.2927,487.3002,NA,NA,NA,NA,NA,12,31,0,17,17,15,1,2,18,"binary"
"58DE05E999F346AEBEBC368880619A05",1,"01990a9b-7043-726d-bb5f-8e63996d87d1","01990a83-7673-7c0c-a792-bbd8fbbaf673","2025-09-02_06h26.50.393",NA,NA,490.6368,490.6369,490.6369,490.9877,NA,NA,NA,NA,NA,NA,NA,TRUE,2,1.5827,487.6444,490.636,NA,NA,NA,NA,NA,40,47,0,18,18,52,1,2,19,"binary"
"58DE05E999F346AEBEBC368880619A05",1,"01990a9b-7043-726d-bb5f-8e63996d87d1","01990a83-7673-7c0c-a792-bbd8fbbaf673","2025-09-02_06h26.50.393",NA,NA,493.9876,493.9877,493.9877,494.3358,NA,NA,NA,NA,NA,NA,NA,TRUE,1,0.6014,490.9938,493.987,NA,NA,NA,NA,NA,150,40,0,19,19,93,1,2,20,"binary"
"58DE05E999F346AEBEBC368880619A05",1,"01990a9b-7043-726d-bb5f-8e63996d87d1","01990a83-7673-7c0c-a792-bbd8fbbaf673","2025-09-02_06h26.50.393",NA,NA,497.3374,497.3374,497.3375,497.686,NA,NA,NA,NA,NA,NA,NA,TRUE,2,2.2098,494.3485,497.3372,NA,NA,NA,NA,NA,50,46,0,20,20,64,1,2,21,"binary"
"58DE05E999F346AEBEBC368880619A05",1,"01990a9b-7043-726d-bb5f-8e63996d87d1","01990a83-7673-7c0c-a792-bbd8fbbaf673","2025-09-02_06h26.50.393",NA,NA,500.6863,500.6863,500.6863,501.0371,NA,NA,NA,NA,NA,NA,NA,TRUE,2,1.084,497.6935,500.6856,NA,NA,NA,NA,NA,12,33,0,21,21,16,1,2,22,"binary"
"58DE05E999F346AEBEBC368880619A05",1,"01990a9b-7043-726d-bb5f-8e63996d87d1","01990a83-7673-7c0c-a792-bbd8fbbaf673","2025-09-02_06h26.50.393",NA,NA,504.0361,504.0361,504.0361,504.3868,NA,NA,NA,NA,NA,NA,NA,TRUE,1,1.0158,501.0432,504.0356,NA,NA,NA,NA,NA,60,47,0,22,22,70,1,2,23,"binary"
"58DE05E999F346AEBEBC368880619A05",1,"01990a9b-7043-726d-bb5f-8e63996d87d1","01990a83-7673-7c0c-a792-bbd8fbbaf673","2025-09-02_06h26.50.393",NA,NA,507.3896,507.3896,507.3896,507.7359,NA,NA,NA,NA,NA,NA,NA,TRUE,1,0.796,504.3946,507.3895,NA,NA,NA,NA,NA,180,54,0,23,23,101,1,2,24,"binary"
"58DE05E999F346AEBEBC368880619A05",1,"01990a9b-7043-726d-bb5f-8e63996d87d1","01990a83-7673-7c0c-a792-bbd8fbbaf673","2025-09-02_06h26.50.393",NA,NA,510.7394,510.7395,510.7397,511.0862,NA,NA,NA,NA,NA,NA,NA,TRUE,1,0.7809,507.7436,510.7386,NA,NA,NA,NA,NA,30,26,0,24,24,42,1,2,25,"binary"
"58DE05E999F346AEBEBC368880619A05",1,"01990a9b-7043-726d-bb5f-8e63996d87d1","01990a83-7673-7c0c-a792-bbd8fbbaf673","2025-09-02_06h26.50.393",NA,NA,514.0859,514.0859,514.0859,514.4357,NA,NA,NA,NA,NA,NA,NA,TRUE,2,0.9666,511.0924,514.0855,NA,NA,NA,NA,NA,7,28,0,25,25,2,1,2,26,"binary"
"58DE05E999F346AEBEBC368880619A05",1,"01990a9b-7043-726d-bb5f-8e63996d87d1","01990a83-7673-7c0c-a792-bbd8fbbaf673","2025-09-02_06h26.50.393",NA,NA,517.4373,517.4374,517.4374,517.7865,NA,NA,NA,NA,NA,NA,NA,TRUE,1,0.9798,514.4438,517.4371,NA,NA,NA,NA,NA,50,30,0,26,26,61,1,2,27,"binary"
"58DE05E999F346AEBEBC368880619A05",1,"01990a9b-7043-726d-bb5f-8e63996d87d1","01990a83-7673-7c0c-a792-bbd8fbbaf673","2025-09-02_06h26.50.393",NA,NA,520.7872,520.7872,520.7872,521.1357,NA,NA,NA,NA,NA,NA,NA,TRUE,2,1.0697,517.7924,520.7866,NA,NA,NA,NA,NA,14,32,0,27,27,21,1,2,28,"binary"
"58DE05E999F346AEBEBC368880619A05",1,"01990a9b-7043-726d-bb5f-8e63996d87d1","01990a83-7673-7c0c-a792-bbd8fbbaf673","2025-09-02_06h26.50.393",NA,NA,524.1396,524.1396,524.1397,524.4863,NA,NA,NA,NA,NA,NA,NA,TRUE,1,1.0009,521.1428,524.139,NA,NA,NA,NA,NA,180,27,0,28,28,96,1,2,29,"binary"
"58DE05E999F346AEBEBC368880619A05",1,"01990a9b-7043-726d-bb5f-8e63996d87d1","01990a83-7673-7c0c-a792-bbd8fbbaf673","2025-09-02_06h26.50.393",NA,NA,527.4876,527.4877,527.4877,527.8359,NA,NA,NA,NA,NA,NA,NA,TRUE,2,1.0642,524.4933,527.4873,NA,NA,NA,NA,NA,40,54,0,29,29,53,1,2,30,"binary"
"58DE05E999F346AEBEBC368880619A05",1,"01990a9b-7043-726d-bb5f-8e63996d87d1","01990a83-7673-7c0c-a792-bbd8fbbaf673","2025-09-02_06h26.50.393",NA,NA,530.8359,530.8359,530.836,531.1868,NA,NA,NA,NA,NA,NA,NA,TRUE,2,0.9344,527.8422,530.8353,NA,NA,NA,NA,NA,45,46,0,30,30,59,1,2,31,"binary"
"58DE05E999F346AEBEBC368880619A05",1,"01990a9b-7043-726d-bb5f-8e63996d87d1","01990a83-7673-7c0c-a792-bbd8fbbaf673","2025-09-02_06h26.50.393",NA,NA,534.1864,534.1864,534.1865,534.5396,NA,NA,NA,NA,NA,NA,NA,TRUE,1,0.9109,531.1937,534.1857,NA,NA,NA,NA,NA,50,27,0,31,31,60,1,2,32,"binary"
"58DE05E999F346AEBEBC368880619A05",1,"01990a9b-7043-726d-bb5f-8e63996d87d1","01990a83-7673-7c0c-a792-bbd8fbbaf673","2025-09-02_06h26.50.393",NA,NA,537.5363,537.5363,537.5364,537.8853,NA,NA,NA,NA,NA,NA,NA,TRUE,1,0.7652,534.5432,537.5361,NA,NA,NA,NA,NA,200,54,0,32,32,107,1,2,33,"binary"
"58DE05E999F346AEBEBC368880619A05",1,"01990a9b-7043-726d-bb5f-8e63996d87d1","01990a83-7673-7c0c-a792-bbd8fbbaf673","2025-09-02_06h26.50.393",NA,NA,540.8925,540.8926,540.8927,541.2353,NA,NA,NA,NA,NA,NA,NA,TRUE,1,1.7191,537.8902,540.8916,NA,NA,NA,NA,NA,25,29,0,33,33,31,1,2,34,"binary"
"58DE05E999F346AEBEBC368880619A05",1,"01990a9b-7043-726d-bb5f-8e63996d87d1","01990a83-7673-7c0c-a792-bbd8fbbaf673","2025-09-02_06h26.50.393",NA,NA,544.236,544.2361,544.2361,544.5862,NA,NA,NA,NA,NA,NA,NA,TRUE,1,1.0326,541.2431,544.2353,NA,NA,NA,NA,NA,95,54,0,34,34,83,1,2,35,"binary"
"58DE05E999F346AEBEBC368880619A05",1,"01990a9b-7043-726d-bb5f-8e63996d87d1","01990a83-7673-7c0c-a792-bbd8fbbaf673","2025-09-02_06h26.50.393",NA,NA,547.5866,547.5866,547.5866,547.9371,NA,NA,NA,NA,NA,NA,NA,TRUE,1,0.7161,544.5931,547.5864,NA,NA,NA,NA,NA,180,35,0,35,35,98,1,2,36,"binary"
"58DE05E999F346AEBEBC368880619A05",1,"01990a9b-7043-726d-bb5f-8e63996d87d1","01990a83-7673-7c0c-a792-bbd8fbbaf673","2025-09-02_06h26.50.393",NA,NA,550.9359,550.9361,550.9361,551.2862,NA,NA,NA,NA,NA,NA,NA,TRUE,1,1.3499,547.9425,550.9352,NA,NA,NA,NA,NA,21,27,0,36,36,25,1,2,37,"binary"
"58DE05E999F346AEBEBC368880619A05",1,"01990a9b-7043-726d-bb5f-8e63996d87d1","01990a83-7673-7c0c-a792-bbd8fbbaf673","2025-09-02_06h26.50.393",NA,NA,554.2873,554.2873,554.2873,554.6357,NA,NA,NA,NA,NA,NA,NA,TRUE,1,0.9817,551.2929,554.2868,NA,NA,NA,NA,NA,90,30,0,37,37,73,1,2,38,"binary"
"58DE05E999F346AEBEBC368880619A05",1,"01990a9b-7043-726d-bb5f-8e63996d87d1","01990a83-7673-7c0c-a792-bbd8fbbaf673","2025-09-02_06h26.50.393",NA,NA,557.6372,557.6373,557.6373,557.9865,NA,NA,NA,NA,NA,NA,NA,TRUE,2,1.982,554.6424,557.6363,NA,NA,NA,NA,NA,50,54,0,38,38,65,1,2,39,"binary"
"58DE05E999F346AEBEBC368880619A05",1,"01990a9b-7043-726d-bb5f-8e63996d87d1","01990a83-7673-7c0c-a792-bbd8fbbaf673","2025-09-02_06h26.50.393",NA,NA,560.9855,560.9855,560.9855,561.3354,NA,NA,NA,NA,NA,NA,NA,TRUE,1,0.5958,557.9936,560.9853,NA,NA,NA,NA,NA,10,27,0,39,39,8,1,2,40,"binary"
"58DE05E999F346AEBEBC368880619A05",1,"01990a9b-7043-726d-bb5f-8e63996d87d1","01990a83-7673-7c0c-a792-bbd8fbbaf673","2025-09-02_06h26.50.393",NA,NA,564.337,564.337,564.3371,564.6875,NA,NA,NA,NA,NA,NA,NA,TRUE,1,1.1978,561.342,564.3364,NA,NA,NA,NA,NA,30,27,0,40,40,43,1,2,41,"binary"
"58DE05E999F346AEBEBC368880619A05",1,"01990a9b-7043-726d-bb5f-8e63996d87d1","01990a83-7673-7c0c-a792-bbd8fbbaf673","2025-09-02_06h26.50.393",NA,NA,567.7044,567.7046,567.7046,568.0373,NA,NA,NA,NA,NA,NA,NA,TRUE,2,2.2445,564.6931,567.7037,NA,NA,NA,NA,NA,28,32,0,41,41,38,1,2,42,"binary"
"58DE05E999F346AEBEBC368880619A05",1,"01990a9b-7043-726d-bb5f-8e63996d87d1","01990a83-7673-7c0c-a792-bbd8fbbaf673","2025-09-02_06h26.50.393",NA,NA,571.0364,571.0364,571.0365,571.3857,NA,NA,NA,NA,NA,NA,NA,TRUE,1,0.6328,568.0421,571.0364,NA,NA,NA,NA,NA,21,26,0,42,42,24,1,2,43,"binary"
"58DE05E999F346AEBEBC368880619A05",1,"01990a9b-7043-726d-bb5f-8e63996d87d1","01990a83-7673-7c0c-a792-bbd8fbbaf673","2025-09-02_06h26.50.393",NA,NA,574.3869,574.387,574.3871,574.7531,NA,NA,NA,NA,NA,NA,NA,TRUE,1,0.6975,571.3936,574.3862,NA,NA,NA,NA,NA,90,26,0,43,43,72,1,2,44,"binary"
"58DE05E999F346AEBEBC368880619A05",1,"01990a9b-7043-726d-bb5f-8e63996d87d1","01990a83-7673-7c0c-a792-bbd8fbbaf673","2025-09-02_06h26.50.393",NA,NA,577.736,577.736,577.736,578.1033,NA,NA,NA,NA,NA,NA,NA,TRUE,2,0.8084,574.7602,577.7355,NA,NA,NA,NA,NA,10,30,0,44,44,10,1,2,45,"binary"
"58DE05E999F346AEBEBC368880619A05",1,"01990a9b-7043-726d-bb5f-8e63996d87d1","01990a83-7673-7c0c-a792-bbd8fbbaf673","2025-09-02_06h26.50.393",NA,NA,581.0858,581.0859,581.086,581.4534,NA,NA,NA,NA,NA,NA,NA,TRUE,2,0.8302,578.1084,581.0855,NA,NA,NA,NA,NA,10,29,0,45,45,9,1,2,46,"binary"
"58DE05E999F346AEBEBC368880619A05",1,"01990a9b-7043-726d-bb5f-8e63996d87d1","01990a83-7673-7c0c-a792-bbd8fbbaf673","2025-09-02_06h26.50.393",NA,NA,584.4546,584.4547,584.4547,584.786,NA,NA,NA,NA,NA,NA,NA,TRUE,2,0.859,581.4603,584.4537,NA,NA,NA,NA,NA,12,35,0,46,46,17,1,2,47,"binary"
"58DE05E999F346AEBEBC368880619A05",1,"01990a9b-7043-726d-bb5f-8e63996d87d1","01990a83-7673-7c0c-a792-bbd8fbbaf673","2025-09-02_06h26.50.393",NA,NA,587.7869,587.7869,587.787,588.1389,NA,NA,NA,NA,NA,NA,NA,TRUE,1,1.0517,584.7918,587.7862,NA,NA,NA,NA,NA,100,39,0,47,47,87,1,2,48,"binary"
"58DE05E999F346AEBEBC368880619A05",1,"01990a9b-7043-726d-bb5f-8e63996d87d1","01990a83-7673-7c0c-a792-bbd8fbbaf673","2025-09-02_06h26.50.393",NA,NA,591.1515,591.1515,591.1516,591.5033,NA,NA,NA,NA,NA,NA,NA,TRUE,2,1.3333,588.1431,591.1514,NA,NA,NA,NA,NA,21,30,0,48,48,27,1,2,49,"binary"
"58DE05E999F346AEBEBC368880619A05",1,"01990a9b-7043-726d-bb5f-8e63996d87d1","01990a83-7673-7c0c-a792-bbd8fbbaf673","2025-09-02_06h26.50.393",NA,NA,594.5043,594.5045,594.5045,594.8522,NA,NA,NA,NA,NA,NA,NA,TRUE,1,1.3252,591.5094,594.5036,NA,NA,NA,NA,NA,90,40,0,49,49,75,1,2,50,"binary"
"58DE05E999F346AEBEBC368880619A05",1,"01990a9b-7043-726d-bb5f-8e63996d87d1","01990a83-7673-7c0c-a792-bbd8fbbaf673","2025-09-02_06h26.50.393",NA,NA,597.8368,597.837,597.837,598.2021,NA,NA,NA,NA,NA,NA,NA,TRUE,2,1.6426,594.8593,597.8363,NA,NA,NA,NA,NA,40,40,0,50,50,51,1,2,51,"binary"
"58DE05E999F346AEBEBC368880619A05",1,"01990a9b-7043-726d-bb5f-8e63996d87d1","01990a83-7673-7c0c-a792-bbd8fbbaf673","2025-09-02_06h26.50.393",NA,NA,601.2044,601.2048,601.2048,601.5356,NA,NA,NA,NA,NA,NA,NA,TRUE,2,0.8105,598.2091,601.2041,NA,NA,NA,NA,NA,10,32,0,51,51,11,1,2,52,"binary"
"58DE05E999F346AEBEBC368880619A05",1,"01990a9b-7043-726d-bb5f-8e63996d87d1","01990a83-7673-7c0c-a792-bbd8fbbaf673","2025-09-02_06h26.50.393",NA,NA,604.553,604.5531,604.5531,604.8868,NA,NA,NA,NA,NA,NA,NA,TRUE,1,0.998,601.542,604.5526,NA,NA,NA,NA,NA,60,29,0,52,52,66,1,2,53,"binary"
"58DE05E999F346AEBEBC368880619A05",1,"01990a9b-7043-726d-bb5f-8e63996d87d1","01990a83-7673-7c0c-a792-bbd8fbbaf673","2025-09-02_06h26.50.393",NA,NA,607.8868,607.8869,607.8869,608.2354,NA,NA,NA,NA,NA,NA,NA,TRUE,2,1.2944,604.893,607.886,NA,NA,NA,NA,NA,30,38,0,53,53,47,1,2,54,"binary"
"58DE05E999F346AEBEBC368880619A05",1,"01990a9b-7043-726d-bb5f-8e63996d87d1","01990a83-7673-7c0c-a792-bbd8fbbaf673","2025-09-02_06h26.50.393",NA,NA,611.2383,611.2384,611.2385,611.6014,NA,NA,NA,NA,NA,NA,NA,TRUE,1,1.0562,608.243,611.2381,NA,NA,NA,NA,NA,12,25,0,54,54,12,1,2,55,"binary"
"58DE05E999F346AEBEBC368880619A05",1,"01990a9b-7043-726d-bb5f-8e63996d87d1","01990a83-7673-7c0c-a792-bbd8fbbaf673","2025-09-02_06h26.50.393",NA,NA,614.6051,614.6052,614.6052,614.9361,NA,NA,NA,NA,NA,NA,NA,TRUE,2,0.9796,611.6061,614.6043,NA,NA,NA,NA,NA,14,39,0,55,55,23,1,2,56,"binary"
"58DE05E999F346AEBEBC368880619A05",1,"01990a9b-7043-726d-bb5f-8e63996d87d1","01990a83-7673-7c0c-a792-bbd8fbbaf673","2025-09-02_06h26.50.393",NA,NA,617.9374,617.9376,617.9376,618.2866,NA,NA,NA,NA,NA,NA,NA,TRUE,1,1.0525,614.9407,617.9367,NA,NA,NA,NA,NA,10,26,0,56,56,7,1,2,57,"binary"
"58DE05E999F346AEBEBC368880619A05",1,"01990a9b-7043-726d-bb5f-8e63996d87d1","01990a83-7673-7c0c-a792-bbd8fbbaf673","2025-09-02_06h26.50.393",NA,NA,621.2951,621.2951,621.2951,621.6512,NA,NA,NA,NA,NA,NA,NA,TRUE,2,0.7672,618.2911,621.295,NA,NA,NA,NA,NA,14,35,0,57,57,22,1,2,58,"binary"
"58DE05E999F346AEBEBC368880619A05",1,"01990a9b-7043-726d-bb5f-8e63996d87d1","01990a83-7673-7c0c-a792-bbd8fbbaf673","2025-09-02_06h26.50.393",NA,NA,624.6371,624.6372,624.6372,625.0008,NA,NA,NA,NA,NA,NA,NA,TRUE,1,0.86,621.6588,624.6362,NA,NA,NA,NA,NA,200,35,0,58,58,104,1,2,59,"binary"
"58DE05E999F346AEBEBC368880619A05",1,"01990a9b-7043-726d-bb5f-8e63996d87d1","01990a83-7673-7c0c-a792-bbd8fbbaf673","2025-09-02_06h26.50.393",NA,NA,627.9882,627.9882,627.9883,628.3369,NA,NA,NA,NA,NA,NA,NA,TRUE,2,1.3118,625.006,627.9872,NA,NA,NA,NA,NA,28,39,0,59,59,40,1,2,60,"binary"
"58DE05E999F346AEBEBC368880619A05",1,"01990a9b-7043-726d-bb5f-8e63996d87d1","01990a83-7673-7c0c-a792-bbd8fbbaf673","2025-09-02_06h26.50.393",NA,NA,631.3356,631.3356,631.3356,631.7023,NA,NA,NA,NA,NA,NA,NA,TRUE,1,1.6992,628.3418,631.3353,NA,NA,NA,NA,NA,60,40,0,60,60,69,1,2,61,"binary"
"58DE05E999F346AEBEBC368880619A05",1,"01990a9b-7043-726d-bb5f-8e63996d87d1","01990a83-7673-7c0c-a792-bbd8fbbaf673","2025-09-02_06h26.50.393",NA,NA,634.6864,634.6865,634.6866,635.0356,NA,NA,NA,NA,NA,NA,NA,TRUE,1,1.0451,631.7068,634.6856,NA,NA,NA,NA,NA,10,25,0,61,61,6,1,2,62,"binary"
"58DE05E999F346AEBEBC368880619A05",1,"01990a9b-7043-726d-bb5f-8e63996d87d1","01990a83-7673-7c0c-a792-bbd8fbbaf673","2025-09-02_06h26.50.393",NA,NA,638.0355,638.0356,638.0356,638.4031,NA,NA,NA,NA,NA,NA,NA,TRUE,1,0.9474,635.0414,638.0351,NA,NA,NA,NA,NA,100,46,0,62,62,88,1,2,63,"binary"
"58DE05E999F346AEBEBC368880619A05",1,"01990a9b-7043-726d-bb5f-8e63996d87d1","01990a83-7673-7c0c-a792-bbd8fbbaf673","2025-09-02_06h26.50.393",NA,NA,641.3855,641.3855,641.3856,641.7355,NA,NA,NA,NA,NA,NA,NA,TRUE,1,0.6932,638.4087,641.3853,NA,NA,NA,NA,NA,180,46,0,63,63,100,1,2,64,"binary"
"58DE05E999F346AEBEBC368880619A05",1,"01990a9b-7043-726d-bb5f-8e63996d87d1","01990a83-7673-7c0c-a792-bbd8fbbaf673","2025-09-02_06h26.50.393",NA,NA,644.7369,644.7369,644.737,645.0856,NA,NA,NA,NA,NA,NA,NA,TRUE,1,0.9595,641.7429,644.7363,NA,NA,NA,NA,NA,7,25,0,64,64,0,1,2,65,"binary"
"58DE05E999F346AEBEBC368880619A05",1,"01990a9b-7043-726d-bb5f-8e63996d87d1","01990a83-7673-7c0c-a792-bbd8fbbaf673","2025-09-02_06h26.50.393",NA,NA,648.0862,648.0863,648.0863,648.4376,NA,NA,NA,NA,NA,NA,NA,TRUE,1,0.8008,645.0918,648.0857,NA,NA,NA,NA,NA,100,31,0,65,65,85,1,2,66,"binary"
"58DE05E999F346AEBEBC368880619A05",1,"01990a9b-7043-726d-bb5f-8e63996d87d1","01990a83-7673-7c0c-a792-bbd8fbbaf673","2025-09-02_06h26.50.393",NA,NA,651.4523,651.4525,651.4525,651.8037,NA,NA,NA,NA,NA,NA,NA,TRUE,1,0.8638,648.4427,651.4521,NA,NA,NA,NA,NA,95,35,0,66,66,80,1,2,67,"binary"
"58DE05E999F346AEBEBC368880619A05",1,"01990a9b-7043-726d-bb5f-8e63996d87d1","01990a83-7673-7c0c-a792-bbd8fbbaf673","2025-09-02_06h26.50.393",NA,NA,654.8007,654.8008,654.8008,655.1365,NA,NA,NA,NA,NA,NA,NA,TRUE,1,0.7465,651.8065,654.8003,NA,NA,NA,NA,NA,150,47,0,67,67,94,1,2,68,"binary"
"58DE05E999F346AEBEBC368880619A05",1,"01990a9b-7043-726d-bb5f-8e63996d87d1","01990a83-7673-7c0c-a792-bbd8fbbaf673","2025-09-02_06h26.50.393",NA,NA,658.1374,658.1375,658.1375,658.504,NA,NA,NA,NA,NA,NA,NA,TRUE,1,0.7163,655.1418,658.1367,NA,NA,NA,NA,NA,14,26,0,68,68,19,1,2,69,"binary"
"58DE05E999F346AEBEBC368880619A05",1,"01990a9b-7043-726d-bb5f-8e63996d87d1","01990a83-7673-7c0c-a792-bbd8fbbaf673","2025-09-02_06h26.50.393",NA,NA,661.4854,661.4855,661.4856,661.8519,NA,NA,NA,NA,NA,NA,NA,TRUE,2,1.2085,658.5086,661.4853,NA,NA,NA,NA,NA,25,35,0,69,69,34,1,2,70,"binary"
"58DE05E999F346AEBEBC368880619A05",1,"01990a9b-7043-726d-bb5f-8e63996d87d1","01990a83-7673-7c0c-a792-bbd8fbbaf673","2025-09-02_06h26.50.393",NA,NA,664.8358,664.8359,664.836,665.1854,NA,NA,NA,NA,NA,NA,NA,TRUE,1,0.7419,661.8591,664.8352,NA,NA,NA,NA,NA,200,28,0,70,70,103,1,2,71,"binary"
"58DE05E999F346AEBEBC368880619A05",1,"01990a9b-7043-726d-bb5f-8e63996d87d1","01990a83-7673-7c0c-a792-bbd8fbbaf673","2025-09-02_06h26.50.393",NA,NA,668.2009,668.2011,668.2012,668.5356,NA,NA,NA,NA,NA,NA,NA,TRUE,1,1.2991,665.1924,668.2003,NA,NA,NA,NA,NA,150,54,0,71,71,95,1,2,72,"binary"
"58DE05E999F346AEBEBC368880619A05",1,"01990a9b-7043-726d-bb5f-8e63996d87d1","01990a83-7673-7c0c-a792-bbd8fbbaf673","2025-09-02_06h26.50.393",NA,NA,671.5501,671.5502,671.5502,671.9002,NA,NA,NA,NA,NA,NA,NA,TRUE,2,1.784,668.5401,671.55,NA,NA,NA,NA,NA,30,30,0,72,72,45,1,2,73,"binary"
"58DE05E999F346AEBEBC368880619A05",1,"01990a9b-7043-726d-bb5f-8e63996d87d1","01990a83-7673-7c0c-a792-bbd8fbbaf673","2025-09-02_06h26.50.393",NA,NA,674.9011,674.9013,674.9013,675.2517,NA,NA,NA,NA,NA,NA,NA,TRUE,1,1.4091,671.908,674.9005,NA,NA,NA,NA,NA,45,29,0,73,73,55,1,2,74,"binary"
"58DE05E999F346AEBEBC368880619A05",1,"01990a9b-7043-726d-bb5f-8e63996d87d1","01990a83-7673-7c0c-a792-bbd8fbbaf673","2025-09-02_06h26.50.393",NA,NA,678.2361,678.2363,678.2363,678.6002,NA,NA,NA,NA,NA,NA,NA,TRUE,2,0.8737,675.2589,678.2354,NA,NA,NA,NA,NA,30,32,0,74,74,46,1,2,75,"binary"
"58DE05E999F346AEBEBC368880619A05",1,"01990a9b-7043-726d-bb5f-8e63996d87d1","01990a83-7673-7c0c-a792-bbd8fbbaf673","2025-09-02_06h26.50.393",NA,NA,681.6006,681.6006,681.6007,681.9373,NA,NA,NA,NA,NA,NA,NA,TRUE,1,1.3438,678.6082,681.6004,NA,NA,NA,NA,NA,90,54,0,75,75,77,1,2,76,"binary"
"58DE05E999F346AEBEBC368880619A05",1,"01990a9b-7043-726d-bb5f-8e63996d87d1","01990a83-7673-7c0c-a792-bbd8fbbaf673","2025-09-02_06h26.50.393",NA,NA,684.9514,684.9516,684.9517,685.2999,NA,NA,NA,NA,NA,NA,NA,TRUE,1,1.2469,681.9421,684.9508,NA,NA,NA,NA,NA,40,27,0,76,76,48,1,2,77,"binary"
"58DE05E999F346AEBEBC368880619A05",1,"01990a9b-7043-726d-bb5f-8e63996d87d1","01990a83-7673-7c0c-a792-bbd8fbbaf673","2025-09-02_06h26.50.393",NA,NA,688.3018,688.3019,688.3019,688.6351,NA,NA,NA,NA,NA,NA,NA,TRUE,1,1.1006,685.303,688.3014,NA,NA,NA,NA,NA,95,33,0,77,77,79,1,2,78,"binary"
"58DE05E999F346AEBEBC368880619A05",1,"01990a9b-7043-726d-bb5f-8e63996d87d1","01990a83-7673-7c0c-a792-bbd8fbbaf673","2025-09-02_06h26.50.393",NA,NA,691.6503,691.6506,691.6506,691.9852,NA,NA,NA,NA,NA,NA,NA,TRUE,2,1.1456,688.6418,691.6501,NA,NA,NA,NA,NA,30,29,0,78,78,44,1,2,79,"binary"
"58DE05E999F346AEBEBC368880619A05",1,"01990a9b-7043-726d-bb5f-8e63996d87d1","01990a83-7673-7c0c-a792-bbd8fbbaf673","2025-09-02_06h26.50.393",NA,NA,695.0022,695.0022,695.0023,695.3358,NA,NA,NA,NA,NA,NA,NA,TRUE,1,0.9115,691.9917,695.0012,NA,NA,NA,NA,NA,180,31,0,79,79,97,1,2,80,"binary"
"58DE05E999F346AEBEBC368880619A05",1,"01990a9b-7043-726d-bb5f-8e63996d87d1","01990a83-7673-7c0c-a792-bbd8fbbaf673","2025-09-02_06h26.50.393",NA,NA,698.3526,698.3526,698.3528,698.7009,NA,NA,NA,NA,NA,NA,NA,TRUE,1,0.7656,695.3407,698.352,NA,NA,NA,NA,NA,45,26,0,80,80,54,1,2,81,"binary"
"58DE05E999F346AEBEBC368880619A05",1,"01990a9b-7043-726d-bb5f-8e63996d87d1","01990a83-7673-7c0c-a792-bbd8fbbaf673","2025-09-02_06h26.50.393",NA,NA,701.6868,701.687,701.687,702.0506,NA,NA,NA,NA,NA,NA,NA,TRUE,1,0.7573,698.7079,701.6865,NA,NA,NA,NA,NA,12,26,0,81,81,13,1,2,82,"binary"
"58DE05E999F346AEBEBC368880619A05",1,"01990a9b-7043-726d-bb5f-8e63996d87d1","01990a83-7673-7c0c-a792-bbd8fbbaf673","2025-09-02_06h26.50.393",NA,NA,705.0512,705.0512,705.0513,705.4007,NA,NA,NA,NA,NA,NA,NA,TRUE,2,0.914,702.0567,705.0508,NA,NA,NA,NA,NA,25,33,0,82,82,33,1,2,83,"binary"
"58DE05E999F346AEBEBC368880619A05",1,"01990a9b-7043-726d-bb5f-8e63996d87d1","01990a83-7673-7c0c-a792-bbd8fbbaf673","2025-09-02_06h26.50.393",NA,NA,708.4022,708.4023,708.4024,708.7504,NA,NA,NA,NA,NA,NA,NA,TRUE,2,0.8425,705.4077,708.4013,NA,NA,NA,NA,NA,12,28,0,83,83,14,1,2,84,"binary"
"58DE05E999F346AEBEBC368880619A05",1,"01990a9b-7043-726d-bb5f-8e63996d87d1","01990a83-7673-7c0c-a792-bbd8fbbaf673","2025-09-02_06h26.50.393",NA,NA,711.7502,711.7503,711.7504,712.0854,NA,NA,NA,NA,NA,NA,NA,TRUE,1,0.8788,708.7574,711.7499,NA,NA,NA,NA,NA,150,33,0,84,84,91,1,2,85,"binary"
"58DE05E999F346AEBEBC368880619A05",1,"01990a9b-7043-726d-bb5f-8e63996d87d1","01990a83-7673-7c0c-a792-bbd8fbbaf673","2025-09-02_06h26.50.393",NA,NA,715.1006,715.1008,715.1008,715.4497,NA,NA,NA,NA,NA,NA,NA,TRUE,2,1.369,712.0891,715.0999,NA,NA,NA,NA,NA,28,35,0,85,85,39,1,2,86,"binary"
"58DE05E999F346AEBEBC368880619A05",1,"01990a9b-7043-726d-bb5f-8e63996d87d1","01990a83-7673-7c0c-a792-bbd8fbbaf673","2025-09-02_06h26.50.393",NA,NA,718.4505,718.4507,718.4507,718.7869,NA,NA,NA,NA,NA,NA,NA,TRUE,1,0.8413,715.4577,718.4499,NA,NA,NA,NA,NA,25,27,0,86,86,30,1,2,87,"binary"
"58DE05E999F346AEBEBC368880619A05",1,"01990a9b-7043-726d-bb5f-8e63996d87d1","01990a83-7673-7c0c-a792-bbd8fbbaf673","2025-09-02_06h26.50.393",NA,NA,721.8006,721.8006,721.8007,722.1501,NA,NA,NA,NA,NA,NA,NA,TRUE,1,0.7673,718.7905,721.8005,NA,NA,NA,NA,NA,200,39,0,87,87,105,1,2,88,"binary"
"58DE05E999F346AEBEBC368880619A05",1,"01990a9b-7043-726d-bb5f-8e63996d87d1","01990a83-7673-7c0c-a792-bbd8fbbaf673","2025-09-02_06h26.50.393",NA,NA,725.154,725.1541,725.1541,725.4995,NA,NA,NA,NA,NA,NA,NA,TRUE,1,0.7909,722.1567,725.1533,NA,NA,NA,NA,NA,14,25,0,88,88,18,1,2,89,"binary"
"58DE05E999F346AEBEBC368880619A05",1,"01990a9b-7043-726d-bb5f-8e63996d87d1","01990a83-7673-7c0c-a792-bbd8fbbaf673","2025-09-02_06h26.50.393",NA,NA,728.5007,728.5008,728.5008,728.8354,NA,NA,NA,NA,NA,NA,NA,TRUE,2,1.2588,725.508,728.4998,NA,NA,NA,NA,NA,50,35,0,89,89,62,1,2,90,"binary"
"58DE05E999F346AEBEBC368880619A05",1,"01990a9b-7043-726d-bb5f-8e63996d87d1","01990a83-7673-7c0c-a792-bbd8fbbaf673","2025-09-02_06h26.50.393",NA,NA,731.8528,731.8529,731.8529,732.2003,NA,NA,NA,NA,NA,NA,NA,TRUE,1,1.0011,728.8399,731.8526,NA,NA,NA,NA,NA,100,26,0,90,90,84,1,2,91,"binary"
"58DE05E999F346AEBEBC368880619A05",1,"01990a9b-7043-726d-bb5f-8e63996d87d1","01990a83-7673-7c0c-a792-bbd8fbbaf673","2025-09-02_06h26.50.393",NA,NA,735.186,735.1861,735.1862,735.5499,NA,NA,NA,NA,NA,NA,NA,TRUE,2,1.1924,732.2075,735.1853,NA,NA,NA,NA,NA,40,33,0,91,91,49,1,2,92,"binary"
"58DE05E999F346AEBEBC368880619A05",1,"01990a9b-7043-726d-bb5f-8e63996d87d1","01990a83-7673-7c0c-a792-bbd8fbbaf673","2025-09-02_06h26.50.393",NA,NA,738.5512,738.5513,738.5513,738.9004,NA,NA,NA,NA,NA,NA,NA,TRUE,1,1.3794,735.5563,738.5507,NA,NA,NA,NA,NA,100,38,0,92,92,86,1,2,93,"binary"
"58DE05E999F346AEBEBC368880619A05",1,"01990a9b-7043-726d-bb5f-8e63996d87d1","01990a83-7673-7c0c-a792-bbd8fbbaf673","2025-09-02_06h26.50.393",NA,NA,741.8862,741.8862,741.8862,742.2511,NA,NA,NA,NA,NA,NA,NA,TRUE,2,1.026,738.9075,741.886,NA,NA,NA,NA,NA,28,46,0,93,93,41,1,2,94,"binary"
"58DE05E999F346AEBEBC368880619A05",1,"01990a9b-7043-726d-bb5f-8e63996d87d1","01990a83-7673-7c0c-a792-bbd8fbbaf673","2025-09-02_06h26.50.393",NA,NA,745.252,745.252,745.252,745.6013,NA,NA,NA,NA,NA,NA,NA,TRUE,2,2.5369,742.2583,745.2511,NA,NA,NA,NA,NA,50,40,0,94,94,63,1,2,95,"binary"
"58DE05E999F346AEBEBC368880619A05",1,"01990a9b-7043-726d-bb5f-8e63996d87d1","01990a83-7673-7c0c-a792-bbd8fbbaf673","2025-09-02_06h26.50.393",NA,NA,748.6018,748.602,748.602,748.9498,NA,NA,NA,NA,NA,NA,NA,TRUE,2,0.9577,745.6072,748.601,NA,NA,NA,NA,NA,7,35,0,95,95,5,1,2,96,"binary"
"58DE05E999F346AEBEBC368880619A05",1,"01990a9b-7043-726d-bb5f-8e63996d87d1","01990a83-7673-7c0c-a792-bbd8fbbaf673","2025-09-02_06h26.50.393",NA,NA,751.9516,751.9517,751.9518,752.3009,NA,NA,NA,NA,NA,NA,NA,TRUE,1,0.7308,748.9546,751.9514,NA,NA,NA,NA,NA,95,40,0,96,96,81,1,2,97,"binary"
"58DE05E999F346AEBEBC368880619A05",1,"01990a9b-7043-726d-bb5f-8e63996d87d1","01990a83-7673-7c0c-a792-bbd8fbbaf673","2025-09-02_06h26.50.393",NA,NA,755.3,755.3001,755.3001,755.6499,NA,NA,NA,NA,NA,NA,NA,TRUE,1,1.5091,752.3071,755.2995,NA,NA,NA,NA,NA,60,33,0,97,97,67,1,2,98,"binary"
"58DE05E999F346AEBEBC368880619A05",1,"01990a9b-7043-726d-bb5f-8e63996d87d1","01990a83-7673-7c0c-a792-bbd8fbbaf673","2025-09-02_06h26.50.393",NA,NA,758.6526,758.6527,758.6528,759.0004,NA,NA,NA,NA,NA,NA,NA,TRUE,1,0.7756,755.6571,758.6518,NA,NA,NA,NA,NA,200,26,0,98,98,102,1,2,99,"binary"
"58DE05E999F346AEBEBC368880619A05",1,"01990a9b-7043-726d-bb5f-8e63996d87d1","01990a83-7673-7c0c-a792-bbd8fbbaf673","2025-09-02_06h26.50.393",NA,NA,761.9999,762,762,762.3498,NA,NA,NA,NA,NA,NA,NA,TRUE,2,0.8934,759.0076,761.9998,NA,NA,NA,NA,NA,7,30,0,99,99,3,1,2,100,"binary"
"58DE05E999F346AEBEBC368880619A05",1,"01990a9b-7043-726d-bb5f-8e63996d87d1","01990a83-7673-7c0c-a792-bbd8fbbaf673","2025-09-02_06h26.50.393",NA,NA,765.3492,765.3495,765.3495,765.7026,NA,NA,NA,NA,NA,NA,NA,TRUE,1,1.2603,762.3562,765.3487,NA,NA,NA,NA,NA,180,39,0,100,100,99,1,2,101,"binary"
"58DE05E999F346AEBEBC368880619A05",1,"01990a9b-7043-726d-bb5f-8e63996d87d1","01990a83-7673-7c0c-a792-bbd8fbbaf673","2025-09-02_06h26.50.393",NA,NA,768.7001,768.7003,768.7003,769.0505,NA,NA,NA,NA,NA,NA,NA,TRUE,1,0.8076,765.7077,768.6993,NA,NA,NA,NA,NA,95,47,0,101,101,82,1,2,102,"binary"
"58DE05E999F346AEBEBC368880619A05",1,"01990a9b-7043-726d-bb5f-8e63996d87d1","01990a83-7673-7c0c-a792-bbd8fbbaf673","2025-09-02_06h26.50.393",NA,NA,772.0496,772.0498,772.0498,772.399,NA,NA,NA,NA,NA,NA,NA,TRUE,1,0.8783,769.0563,772.0495,NA,NA,NA,NA,NA,200,47,0,102,102,106,1,2,103,"binary"
"58DE05E999F346AEBEBC368880619A05",1,"01990a9b-7043-726d-bb5f-8e63996d87d1","01990a83-7673-7c0c-a792-bbd8fbbaf673","2025-09-02_06h26.50.393",NA,NA,775.4006,775.4007,775.4008,775.7504,NA,NA,NA,NA,NA,NA,NA,TRUE,1,0.958,772.4077,775.3999,NA,NA,NA,NA,NA,150,31,0,103,103,90,1,2,104,"binary"
"58DE05E999F346AEBEBC368880619A05",1,"01990a9b-7043-726d-bb5f-8e63996d87d1","01990a83-7673-7c0c-a792-bbd8fbbaf673","2025-09-02_06h26.50.393",NA,NA,778.7503,778.7504,778.7504,779.1,NA,NA,NA,NA,NA,NA,NA,TRUE,1,2.2067,775.7581,778.7495,NA,NA,NA,NA,NA,45,31,0,104,104,56,1,2,105,"binary"
"58DE05E999F346AEBEBC368880619A05",1,"01990a9b-7043-726d-bb5f-8e63996d87d1","01990a83-7673-7c0c-a792-bbd8fbbaf673","2025-09-02_06h26.50.393",NA,NA,782.1028,782.1029,782.103,782.4491,NA,NA,NA,NA,NA,NA,NA,TRUE,2,1.5925,779.1069,782.1026,NA,NA,NA,NA,NA,14,28,0,105,105,20,1,2,106,"binary"
"58DE05E999F346AEBEBC368880619A05",1,"01990a9b-7043-726d-bb5f-8e63996d87d1","01990a83-7673-7c0c-a792-bbd8fbbaf673","2025-09-02_06h26.50.393",NA,NA,785.4516,785.4518,785.4518,785.7998,NA,NA,NA,NA,NA,NA,NA,TRUE,1,1.1242,782.4543,785.4508,NA,NA,NA,NA,NA,100,54,0,106,106,89,1,2,107,"binary"
"58DE05E999F346AEBEBC368880619A05",1,"01990a9b-7043-726d-bb5f-8e63996d87d1","01990a83-7673-7c0c-a792-bbd8fbbaf673","2025-09-02_06h26.50.393",NA,NA,788.7991,788.7992,788.7992,789.1492,NA,NA,NA,NA,NA,NA,NA,TRUE,1,0.7805,785.8058,788.7986,NA,NA,NA,NA,NA,28,26,0,107,107,36,1,2,108,"binary"
