"participant","session","assignmentId","projectId","date","practiceTrial.started","practiceTrial.stopped","tooLate.started","tooLate.stopped","blank.started","blank.stopped","trials_pract.thisRepN","trials_pract.thisTrialN","trials_pract.thisN","trials_pract.thisIndex","trials_pract.ran","delay_pract","amount_pract","responseMade","key","rt","trial.started","trial.stopped","trials.thisRepN","trials.thisTrialN","trials.thisN","trials.thisIndex","trials.ran","delay","amount","trials_2.thisRepN","trials_2.thisTrialN","trials_2.thisN","trials_2.thisIndex","trials_2.ran","block","trial","taskType"
"5AADF83B390246E2AABDFD4E90713B2B",1,"01990a9c-0cde-780e-8dcf-e298c8dcfaf5","01990a83-7673-7c0c-a792-bbd8fbbaf673","2025-09-02_09h27.23.981",150.8815,153.86,153.8614,153.8681,153.8683,154.2089,0,0,0,3,1,3,27,TRUE,1,2.074,NA,NA,NA,NA,NA,NA,NA,NA,NA,NA,NA,NA,NA,NA,0,1,"binary"
"5AADF83B390246E2AABDFD4E90713B2B",1,"01990a9c-0cde-780e-8dcf-e298c8dcfaf5","01990a83-7673-7c0c-a792-bbd8fbbaf673","2025-09-02_09h27.23.981",154.2125,157.2097,157.2099,157.21,157.21,157.5596,0,1,1,1,1,100,50,TRUE,1,2.092,NA,NA,NA,NA,NA,NA,NA,NA,NA,NA,NA,NA,NA,NA,0,2,"binary"
"5AADF83B390246E2AABDFD4E90713B2B",1,"01990a9c-0cde-780e-8dcf-e298c8dcfaf5","01990a83-7673-7c0c-a792-bbd8fbbaf673","2025-09-02_09h27.23.981",157.562,160.5596,160.5597,160.5598,160.5599,160.9096,0,2,2,4,1,30,40,TRUE,2,2.7045,NA,NA,NA,NA,NA,NA,NA,NA,NA,NA,NA,NA,NA,NA,0,3,"binary"
"5AADF83B390246E2AABDFD4E90713B2B",1,"01990a9c-0cde-780e-8dcf-e298c8dcfaf5","01990a83-7673-7c0c-a792-bbd8fbbaf673","2025-09-02_09h27.23.981",160.9121,163.9095,163.9098,163.9099,163.9099,164.2584,0,3,3,2,1,14,45,TRUE,2,2.2539,NA,NA,NA,NA,NA,NA,NA,NA,NA,NA,NA,NA,NA,NA,0,4,"binary"
"5AADF83B390246E2AABDFD4E90713B2B",1,"01990a9c-0cde-780e-8dcf-e298c8dcfaf5","01990a83-7673-7c0c-a792-bbd8fbbaf673","2025-09-02_09h27.23.981",164.26,167.2587,167.2588,167.259,167.259,167.6095,0,4,4,0,1,7,30,TRUE,1,2.1645,NA,NA,NA,NA,NA,NA,NA,NA,NA,NA,NA,NA,NA,NA,0,5,"binary"
"5AADF83B390246E2AABDFD4E90713B2B",1,"01990a9c-0cde-780e-8dcf-e298c8dcfaf5","01990a83-7673-7c0c-a792-bbd8fbbaf673","2025-09-02_09h27.23.981",NA,NA,229.7761,229.7765,229.7766,230.1255,NA,NA,NA,NA,NA,NA,NA,TRUE,1,1.6905,226.8018,229.7756,0,0,0,59,1,45,46,NA,NA,NA,NA,NA,1,1,"binary"
"5AADF83B390246E2AABDFD4E90713B2B",1,"01990a9c-0cde-780e-8dcf-e298c8dcfaf5","01990a83-7673-7c0c-a792-bbd8fbbaf673","2025-09-02_09h27.23.981",NA,NA,233.1254,233.1255,233.1255,233.4751,NA,NA,NA,NA,NA,NA,NA,TRUE,1,1.236,230.1279,233.1251,0,1,1,69,1,60,40,NA,NA,NA,NA,NA,1,2,"binary"
"5AADF83B390246E2AABDFD4E90713B2B",1,"01990a9c-0cde-780e-8dcf-e298c8dcfaf5","01990a83-7673-7c0c-a792-bbd8fbbaf673","2025-09-02_09h27.23.981",NA,NA,236.4754,236.4755,236.4755,236.8252,NA,NA,NA,NA,NA,NA,NA,TRUE,1,1.1224,233.477,236.4752,0,2,2,56,1,45,31,NA,NA,NA,NA,NA,1,3,"binary"
"5AADF83B390246E2AABDFD4E90713B2B",1,"01990a9c-0cde-780e-8dcf-e298c8dcfaf5","01990a83-7673-7c0c-a792-bbd8fbbaf673","2025-09-02_09h27.23.981",NA,NA,239.8244,239.8244,239.8244,240.175,NA,NA,NA,NA,NA,NA,NA,TRUE,1,1.7872,236.8279,239.8243,0,3,3,99,1,180,39,NA,NA,NA,NA,NA,1,4,"binary"
"5AADF83B390246E2AABDFD4E90713B2B",1,"01990a9c-0cde-780e-8dcf-e298c8dcfaf5","01990a83-7673-7c0c-a792-bbd8fbbaf673","2025-09-02_09h27.23.981",NA,NA,243.1752,243.1755,243.1755,243.525,NA,NA,NA,NA,NA,NA,NA,TRUE,1,1.3886,240.1769,243.175,0,4,4,102,1,200,26,NA,NA,NA,NA,NA,1,5,"binary"
"5AADF83B390246E2AABDFD4E90713B2B",1,"01990a9c-0cde-780e-8dcf-e298c8dcfaf5","01990a83-7673-7c0c-a792-bbd8fbbaf673","2025-09-02_09h27.23.981",NA,NA,246.5252,246.5253,246.5253,246.8748,NA,NA,NA,NA,NA,NA,NA,TRUE,1,1.2266,243.527,246.525,0,5,5,9,1,10,29,NA,NA,NA,NA,NA,1,6,"binary"
"5AADF83B390246E2AABDFD4E90713B2B",1,"01990a9c-0cde-780e-8dcf-e298c8dcfaf5","01990a83-7673-7c0c-a792-bbd8fbbaf673","2025-09-02_09h27.23.981",NA,NA,249.8752,249.8753,249.8753,250.2244,NA,NA,NA,NA,NA,NA,NA,TRUE,1,2.1098,246.8763,249.875,0,6,6,45,1,30,30,NA,NA,NA,NA,NA,1,7,"binary"
"5AADF83B390246E2AABDFD4E90713B2B",1,"01990a9c-0cde-780e-8dcf-e298c8dcfaf5","01990a83-7673-7c0c-a792-bbd8fbbaf673","2025-09-02_09h27.23.981",NA,NA,253.2245,253.2246,253.2246,253.575,NA,NA,NA,NA,NA,NA,NA,TRUE,1,0.9434,250.226,253.2243,0,7,7,96,1,180,27,NA,NA,NA,NA,NA,1,8,"binary"
"5AADF83B390246E2AABDFD4E90713B2B",1,"01990a9c-0cde-780e-8dcf-e298c8dcfaf5","01990a83-7673-7c0c-a792-bbd8fbbaf673","2025-09-02_09h27.23.981",NA,NA,256.5751,256.5752,256.5752,256.9248,NA,NA,NA,NA,NA,NA,NA,TRUE,1,0.8577,253.5769,256.5748,0,8,8,65,1,50,54,NA,NA,NA,NA,NA,1,9,"binary"
"5AADF83B390246E2AABDFD4E90713B2B",1,"01990a9c-0cde-780e-8dcf-e298c8dcfaf5","01990a83-7673-7c0c-a792-bbd8fbbaf673","2025-09-02_09h27.23.981",NA,NA,259.9252,259.9252,259.9253,260.2744,NA,NA,NA,NA,NA,NA,NA,TRUE,1,1.0599,256.9263,259.925,0,9,9,81,1,95,40,NA,NA,NA,NA,NA,1,10,"binary"
"5AADF83B390246E2AABDFD4E90713B2B",1,"01990a9c-0cde-780e-8dcf-e298c8dcfaf5","01990a83-7673-7c0c-a792-bbd8fbbaf673","2025-09-02_09h27.23.981",NA,NA,263.2748,263.275,263.275,263.6245,NA,NA,NA,NA,NA,NA,NA,TRUE,1,1.16,260.2759,263.2748,0,10,10,33,1,25,33,NA,NA,NA,NA,NA,1,11,"binary"
"5AADF83B390246E2AABDFD4E90713B2B",1,"01990a9c-0cde-780e-8dcf-e298c8dcfaf5","01990a83-7673-7c0c-a792-bbd8fbbaf673","2025-09-02_09h27.23.981",NA,NA,266.6245,266.6246,266.6246,266.9748,NA,NA,NA,NA,NA,NA,NA,TRUE,1,0.9827,263.626,266.6244,0,11,11,73,1,90,30,NA,NA,NA,NA,NA,1,12,"binary"
"5AADF83B390246E2AABDFD4E90713B2B",1,"01990a9c-0cde-780e-8dcf-e298c8dcfaf5","01990a83-7673-7c0c-a792-bbd8fbbaf673","2025-09-02_09h27.23.981",NA,NA,269.9739,269.9739,269.974,270.3247,NA,NA,NA,NA,NA,NA,NA,TRUE,1,2.1724,266.9767,269.9738,0,12,12,4,1,7,32,NA,NA,NA,NA,NA,1,13,"binary"
"5AADF83B390246E2AABDFD4E90713B2B",1,"01990a9c-0cde-780e-8dcf-e298c8dcfaf5","01990a83-7673-7c0c-a792-bbd8fbbaf673","2025-09-02_09h27.23.981",NA,NA,273.3237,273.3238,273.3239,273.6745,NA,NA,NA,NA,NA,NA,NA,TRUE,1,0.9923,270.3266,273.3236,0,13,13,100,1,180,46,NA,NA,NA,NA,NA,1,14,"binary"
"5AADF83B390246E2AABDFD4E90713B2B",1,"01990a9c-0cde-780e-8dcf-e298c8dcfaf5","01990a83-7673-7c0c-a792-bbd8fbbaf673","2025-09-02_09h27.23.981",NA,NA,276.6745,276.6746,276.6746,277.0237,NA,NA,NA,NA,NA,NA,NA,TRUE,1,0.844,273.676,276.6743,0,14,14,61,1,50,30,NA,NA,NA,NA,NA,1,15,"binary"
"5AADF83B390246E2AABDFD4E90713B2B",1,"01990a9c-0cde-780e-8dcf-e298c8dcfaf5","01990a83-7673-7c0c-a792-bbd8fbbaf673","2025-09-02_09h27.23.981",NA,NA,280.0247,280.0248,280.0248,280.3737,NA,NA,NA,NA,NA,NA,NA,TRUE,1,0.8758,277.0256,280.0245,0,15,15,64,1,50,46,NA,NA,NA,NA,NA,1,16,"binary"
"5AADF83B390246E2AABDFD4E90713B2B",1,"01990a9c-0cde-780e-8dcf-e298c8dcfaf5","01990a83-7673-7c0c-a792-bbd8fbbaf673","2025-09-02_09h27.23.981",NA,NA,283.3741,283.3741,283.3743,283.7245,NA,NA,NA,NA,NA,NA,NA,TRUE,1,0.862,280.3752,283.374,0,16,16,79,1,95,33,NA,NA,NA,NA,NA,1,17,"binary"
"5AADF83B390246E2AABDFD4E90713B2B",1,"01990a9c-0cde-780e-8dcf-e298c8dcfaf5","01990a83-7673-7c0c-a792-bbd8fbbaf673","2025-09-02_09h27.23.981",NA,NA,286.7246,286.7246,286.7246,287.0744,NA,NA,NA,NA,NA,NA,NA,TRUE,1,1.222,283.7265,286.7245,0,17,17,68,1,60,35,NA,NA,NA,NA,NA,1,18,"binary"
"5AADF83B390246E2AABDFD4E90713B2B",1,"01990a9c-0cde-780e-8dcf-e298c8dcfaf5","01990a83-7673-7c0c-a792-bbd8fbbaf673","2025-09-02_09h27.23.981",NA,NA,290.0746,290.0746,290.0746,290.4233,NA,NA,NA,NA,NA,NA,NA,TRUE,1,1.1067,287.0763,290.0745,0,18,18,98,1,180,35,NA,NA,NA,NA,NA,1,19,"binary"
"5AADF83B390246E2AABDFD4E90713B2B",1,"01990a9c-0cde-780e-8dcf-e298c8dcfaf5","01990a83-7673-7c0c-a792-bbd8fbbaf673","2025-09-02_09h27.23.981",NA,NA,293.4235,293.4235,293.4235,293.7744,NA,NA,NA,NA,NA,NA,NA,TRUE,1,2.5279,290.4247,293.4234,0,19,19,54,1,45,26,NA,NA,NA,NA,NA,1,20,"binary"
"5AADF83B390246E2AABDFD4E90713B2B",1,"01990a9c-0cde-780e-8dcf-e298c8dcfaf5","01990a83-7673-7c0c-a792-bbd8fbbaf673","2025-09-02_09h27.23.981",NA,NA,296.7739,296.7739,296.7739,297.1242,NA,NA,NA,NA,NA,NA,NA,TRUE,1,1.3901,293.7763,296.7738,0,20,20,20,1,14,28,NA,NA,NA,NA,NA,1,21,"binary"
"5AADF83B390246E2AABDFD4E90713B2B",1,"01990a9c-0cde-780e-8dcf-e298c8dcfaf5","01990a83-7673-7c0c-a792-bbd8fbbaf673","2025-09-02_09h27.23.981",NA,NA,300.1237,300.3737,300.3737,300.4743,NA,NA,NA,NA,NA,NA,NA,FALSE,NA,NA,297.1257,300.1236,0,21,21,48,1,40,27,NA,NA,NA,NA,NA,1,22,"binary"
"5AADF83B390246E2AABDFD4E90713B2B",1,"01990a9c-0cde-780e-8dcf-e298c8dcfaf5","01990a83-7673-7c0c-a792-bbd8fbbaf673","2025-09-02_09h27.23.981",NA,NA,303.4733,303.4733,303.4733,303.8243,NA,NA,NA,NA,NA,NA,NA,TRUE,1,0.8239,300.4763,303.4732,0,22,22,94,1,150,47,NA,NA,NA,NA,NA,1,23,"binary"
"5AADF83B390246E2AABDFD4E90713B2B",1,"01990a9c-0cde-780e-8dcf-e298c8dcfaf5","01990a83-7673-7c0c-a792-bbd8fbbaf673","2025-09-02_09h27.23.981",NA,NA,306.8246,306.8246,306.8246,307.1741,NA,NA,NA,NA,NA,NA,NA,TRUE,1,2.1552,303.8265,306.8244,0,23,23,16,1,12,33,NA,NA,NA,NA,NA,1,24,"binary"
"5AADF83B390246E2AABDFD4E90713B2B",1,"01990a9c-0cde-780e-8dcf-e298c8dcfaf5","01990a83-7673-7c0c-a792-bbd8fbbaf673","2025-09-02_09h27.23.981",NA,NA,310.1742,310.1742,310.1742,310.5231,NA,NA,NA,NA,NA,NA,NA,TRUE,1,1.4296,307.176,310.1741,0,24,24,2,1,7,28,NA,NA,NA,NA,NA,1,25,"binary"
"5AADF83B390246E2AABDFD4E90713B2B",1,"01990a9c-0cde-780e-8dcf-e298c8dcfaf5","01990a83-7673-7c0c-a792-bbd8fbbaf673","2025-09-02_09h27.23.981",NA,NA,313.5242,313.5242,313.5242,313.8737,NA,NA,NA,NA,NA,NA,NA,TRUE,1,0.8283,310.5248,313.5241,0,25,25,106,1,200,47,NA,NA,NA,NA,NA,1,26,"binary"
"5AADF83B390246E2AABDFD4E90713B2B",1,"01990a9c-0cde-780e-8dcf-e298c8dcfaf5","01990a83-7673-7c0c-a792-bbd8fbbaf673","2025-09-02_09h27.23.981",NA,NA,316.8742,316.8743,316.8743,317.2233,NA,NA,NA,NA,NA,NA,NA,TRUE,1,1.0601,313.8751,316.874,0,26,26,103,1,200,28,NA,NA,NA,NA,NA,1,27,"binary"
"5AADF83B390246E2AABDFD4E90713B2B",1,"01990a9c-0cde-780e-8dcf-e298c8dcfaf5","01990a83-7673-7c0c-a792-bbd8fbbaf673","2025-09-02_09h27.23.981",NA,NA,320.2231,320.2231,320.2231,320.574,NA,NA,NA,NA,NA,NA,NA,TRUE,1,1.2746,317.2254,320.223,0,27,27,42,1,30,26,NA,NA,NA,NA,NA,1,28,"binary"
"5AADF83B390246E2AABDFD4E90713B2B",1,"01990a9c-0cde-780e-8dcf-e298c8dcfaf5","01990a83-7673-7c0c-a792-bbd8fbbaf673","2025-09-02_09h27.23.981",NA,NA,323.5734,323.5734,323.5734,323.924,NA,NA,NA,NA,NA,NA,NA,TRUE,1,1.0571,320.5759,323.5733,0,28,28,89,1,100,54,NA,NA,NA,NA,NA,1,29,"binary"
"5AADF83B390246E2AABDFD4E90713B2B",1,"01990a9c-0cde-780e-8dcf-e298c8dcfaf5","01990a83-7673-7c0c-a792-bbd8fbbaf673","2025-09-02_09h27.23.981",NA,NA,326.9229,326.923,326.923,327.2739,NA,NA,NA,NA,NA,NA,NA,TRUE,1,0.956,323.9259,326.9228,0,29,29,92,1,150,35,NA,NA,NA,NA,NA,1,30,"binary"
"5AADF83B390246E2AABDFD4E90713B2B",1,"01990a9c-0cde-780e-8dcf-e298c8dcfaf5","01990a83-7673-7c0c-a792-bbd8fbbaf673","2025-09-02_09h27.23.981",NA,NA,330.274,330.274,330.274,330.6228,NA,NA,NA,NA,NA,NA,NA,TRUE,1,0.7493,327.2757,330.2739,0,30,30,40,1,28,39,NA,NA,NA,NA,NA,1,31,"binary"
"5AADF83B390246E2AABDFD4E90713B2B",1,"01990a9c-0cde-780e-8dcf-e298c8dcfaf5","01990a83-7673-7c0c-a792-bbd8fbbaf673","2025-09-02_09h27.23.981",NA,NA,333.6241,333.6241,333.6241,333.9738,NA,NA,NA,NA,NA,NA,NA,TRUE,1,1.3331,330.6243,333.6239,0,31,31,95,1,150,54,NA,NA,NA,NA,NA,1,32,"binary"
"5AADF83B390246E2AABDFD4E90713B2B",1,"01990a9c-0cde-780e-8dcf-e298c8dcfaf5","01990a83-7673-7c0c-a792-bbd8fbbaf673","2025-09-02_09h27.23.981",NA,NA,336.9738,336.9739,336.9739,337.3231,NA,NA,NA,NA,NA,NA,NA,TRUE,1,1.2884,333.9758,336.9737,0,32,32,82,1,95,47,NA,NA,NA,NA,NA,1,33,"binary"
"5AADF83B390246E2AABDFD4E90713B2B",1,"01990a9c-0cde-780e-8dcf-e298c8dcfaf5","01990a83-7673-7c0c-a792-bbd8fbbaf673","2025-09-02_09h27.23.981",NA,NA,340.3233,340.3233,340.3234,340.6737,NA,NA,NA,NA,NA,NA,NA,TRUE,1,1.0789,337.3251,340.3231,0,33,33,58,1,45,40,NA,NA,NA,NA,NA,1,34,"binary"
"5AADF83B390246E2AABDFD4E90713B2B",1,"01990a9c-0cde-780e-8dcf-e298c8dcfaf5","01990a83-7673-7c0c-a792-bbd8fbbaf673","2025-09-02_09h27.23.981",NA,NA,343.6738,343.6739,343.6739,344.0237,NA,NA,NA,NA,NA,NA,NA,TRUE,1,1.5761,340.6752,343.6737,0,34,34,12,1,12,25,NA,NA,NA,NA,NA,1,35,"binary"
"5AADF83B390246E2AABDFD4E90713B2B",1,"01990a9c-0cde-780e-8dcf-e298c8dcfaf5","01990a83-7673-7c0c-a792-bbd8fbbaf673","2025-09-02_09h27.23.981",NA,NA,347.0239,347.0239,347.024,347.3738,NA,NA,NA,NA,NA,NA,NA,TRUE,1,0.8114,344.0259,347.0238,0,35,35,70,1,60,47,NA,NA,NA,NA,NA,1,36,"binary"
"5AADF83B390246E2AABDFD4E90713B2B",1,"01990a9c-0cde-780e-8dcf-e298c8dcfaf5","01990a83-7673-7c0c-a792-bbd8fbbaf673","2025-09-02_09h27.23.981",NA,NA,350.3738,350.3738,350.3739,350.7235,NA,NA,NA,NA,NA,NA,NA,TRUE,1,1.0873,347.3757,350.3736,0,36,36,85,1,100,31,NA,NA,NA,NA,NA,1,37,"binary"
"5AADF83B390246E2AABDFD4E90713B2B",1,"01990a9c-0cde-780e-8dcf-e298c8dcfaf5","01990a83-7673-7c0c-a792-bbd8fbbaf673","2025-09-02_09h27.23.981",NA,NA,353.7235,353.7235,353.7235,354.0735,NA,NA,NA,NA,NA,NA,NA,TRUE,1,1.2803,350.7249,353.7233,0,37,37,62,1,50,35,NA,NA,NA,NA,NA,1,38,"binary"
"5AADF83B390246E2AABDFD4E90713B2B",1,"01990a9c-0cde-780e-8dcf-e298c8dcfaf5","01990a83-7673-7c0c-a792-bbd8fbbaf673","2025-09-02_09h27.23.981",NA,NA,357.0736,357.0737,357.0737,357.4227,NA,NA,NA,NA,NA,NA,NA,TRUE,1,1.4636,354.0755,357.0734,0,38,38,10,1,10,30,NA,NA,NA,NA,NA,1,39,"binary"
"5AADF83B390246E2AABDFD4E90713B2B",1,"01990a9c-0cde-780e-8dcf-e298c8dcfaf5","01990a83-7673-7c0c-a792-bbd8fbbaf673","2025-09-02_09h27.23.981",NA,NA,360.4226,360.4226,360.4227,360.7735,NA,NA,NA,NA,NA,NA,NA,TRUE,1,0.9218,357.4242,360.4225,0,39,39,105,1,200,39,NA,NA,NA,NA,NA,1,40,"binary"
"5AADF83B390246E2AABDFD4E90713B2B",1,"01990a9c-0cde-780e-8dcf-e298c8dcfaf5","01990a83-7673-7c0c-a792-bbd8fbbaf673","2025-09-02_09h27.23.981",NA,NA,363.7736,363.7737,363.7737,364.1231,NA,NA,NA,NA,NA,NA,NA,TRUE,1,1.0045,360.7754,363.7735,0,40,40,71,1,60,54,NA,NA,NA,NA,NA,1,41,"binary"
"5AADF83B390246E2AABDFD4E90713B2B",1,"01990a9c-0cde-780e-8dcf-e298c8dcfaf5","01990a83-7673-7c0c-a792-bbd8fbbaf673","2025-09-02_09h27.23.981",NA,NA,367.1234,367.1234,367.1234,367.4725,NA,NA,NA,NA,NA,NA,NA,TRUE,1,0.8409,364.125,367.1233,0,41,41,75,1,90,40,NA,NA,NA,NA,NA,1,42,"binary"
"5AADF83B390246E2AABDFD4E90713B2B",1,"01990a9c-0cde-780e-8dcf-e298c8dcfaf5","01990a83-7673-7c0c-a792-bbd8fbbaf673","2025-09-02_09h27.23.981",NA,NA,370.4733,370.4734,370.4734,370.8228,NA,NA,NA,NA,NA,NA,NA,TRUE,1,1.133,367.4746,370.4732,0,42,42,52,1,40,47,NA,NA,NA,NA,NA,1,43,"binary"
"5AADF83B390246E2AABDFD4E90713B2B",1,"01990a9c-0cde-780e-8dcf-e298c8dcfaf5","01990a83-7673-7c0c-a792-bbd8fbbaf673","2025-09-02_09h27.23.981",NA,NA,373.8233,373.8234,373.8234,374.1723,NA,NA,NA,NA,NA,NA,NA,TRUE,1,2.0142,370.8244,373.8231,0,43,43,5,1,7,35,NA,NA,NA,NA,NA,1,44,"binary"
"5AADF83B390246E2AABDFD4E90713B2B",1,"01990a9c-0cde-780e-8dcf-e298c8dcfaf5","01990a83-7673-7c0c-a792-bbd8fbbaf673","2025-09-02_09h27.23.981",NA,NA,377.1735,377.1736,377.1736,377.5234,NA,NA,NA,NA,NA,NA,NA,TRUE,1,1.3824,374.1743,377.1734,0,44,44,11,1,10,32,NA,NA,NA,NA,NA,1,45,"binary"
"5AADF83B390246E2AABDFD4E90713B2B",1,"01990a9c-0cde-780e-8dcf-e298c8dcfaf5","01990a83-7673-7c0c-a792-bbd8fbbaf673","2025-09-02_09h27.23.981",NA,NA,380.5228,380.5228,380.5228,380.8732,NA,NA,NA,NA,NA,NA,NA,TRUE,1,1.2733,377.5253,380.5226,0,45,45,90,1,150,31,NA,NA,NA,NA,NA,1,46,"binary"
"5AADF83B390246E2AABDFD4E90713B2B",1,"01990a9c-0cde-780e-8dcf-e298c8dcfaf5","01990a83-7673-7c0c-a792-bbd8fbbaf673","2025-09-02_09h27.23.981",NA,NA,383.8724,383.8725,383.8725,384.2221,NA,NA,NA,NA,NA,NA,NA,TRUE,1,1.4105,380.8749,383.8723,0,46,46,67,1,60,33,NA,NA,NA,NA,NA,1,47,"binary"
"5AADF83B390246E2AABDFD4E90713B2B",1,"01990a9c-0cde-780e-8dcf-e298c8dcfaf5","01990a83-7673-7c0c-a792-bbd8fbbaf673","2025-09-02_09h27.23.981",NA,NA,387.2225,387.2225,387.2225,387.5722,NA,NA,NA,NA,NA,NA,NA,TRUE,1,1.4177,384.2236,387.2224,0,47,47,23,1,14,39,NA,NA,NA,NA,NA,1,48,"binary"
"5AADF83B390246E2AABDFD4E90713B2B",1,"01990a9c-0cde-780e-8dcf-e298c8dcfaf5","01990a83-7673-7c0c-a792-bbd8fbbaf673","2025-09-02_09h27.23.981",NA,NA,390.5733,390.5733,390.5734,390.9223,NA,NA,NA,NA,NA,NA,NA,TRUE,1,1.6761,387.5745,390.5731,0,48,48,0,1,7,25,NA,NA,NA,NA,NA,1,49,"binary"
"5AADF83B390246E2AABDFD4E90713B2B",1,"01990a9c-0cde-780e-8dcf-e298c8dcfaf5","01990a83-7673-7c0c-a792-bbd8fbbaf673","2025-09-02_09h27.23.981",NA,NA,393.9232,393.9233,393.9233,394.2723,NA,NA,NA,NA,NA,NA,NA,TRUE,1,0.9664,390.9242,393.923,0,49,49,21,1,14,32,NA,NA,NA,NA,NA,1,50,"binary"
"5AADF83B390246E2AABDFD4E90713B2B",1,"01990a9c-0cde-780e-8dcf-e298c8dcfaf5","01990a83-7673-7c0c-a792-bbd8fbbaf673","2025-09-02_09h27.23.981",NA,NA,397.2732,397.2732,397.2732,397.6216,NA,NA,NA,NA,NA,NA,NA,TRUE,1,1.1835,394.2738,397.273,0,50,50,49,1,40,33,NA,NA,NA,NA,NA,1,51,"binary"
"5AADF83B390246E2AABDFD4E90713B2B",1,"01990a9c-0cde-780e-8dcf-e298c8dcfaf5","01990a83-7673-7c0c-a792-bbd8fbbaf673","2025-09-02_09h27.23.981",NA,NA,400.6217,400.6218,400.6218,400.9722,NA,NA,NA,NA,NA,NA,NA,TRUE,1,0.8883,397.6226,400.6217,0,51,51,38,1,28,32,NA,NA,NA,NA,NA,1,52,"binary"
"5AADF83B390246E2AABDFD4E90713B2B",1,"01990a9c-0cde-780e-8dcf-e298c8dcfaf5","01990a83-7673-7c0c-a792-bbd8fbbaf673","2025-09-02_09h27.23.981",NA,NA,403.9722,403.9722,403.9722,404.3225,NA,NA,NA,NA,NA,NA,NA,TRUE,1,0.9262,400.9732,403.9721,0,52,52,37,1,28,28,NA,NA,NA,NA,NA,1,53,"binary"
"5AADF83B390246E2AABDFD4E90713B2B",1,"01990a9c-0cde-780e-8dcf-e298c8dcfaf5","01990a83-7673-7c0c-a792-bbd8fbbaf673","2025-09-02_09h27.23.981",NA,NA,407.3219,407.3219,407.3219,407.6717,NA,NA,NA,NA,NA,NA,NA,TRUE,1,0.841,404.3235,407.3219,0,53,53,78,1,95,31,NA,NA,NA,NA,NA,1,54,"binary"
"5AADF83B390246E2AABDFD4E90713B2B",1,"01990a9c-0cde-780e-8dcf-e298c8dcfaf5","01990a83-7673-7c0c-a792-bbd8fbbaf673","2025-09-02_09h27.23.981",NA,NA,410.6716,410.6716,410.6716,411.0218,NA,NA,NA,NA,NA,NA,NA,TRUE,1,1.0582,407.6727,410.6715,0,54,54,53,1,40,54,NA,NA,NA,NA,NA,1,55,"binary"
"5AADF83B390246E2AABDFD4E90713B2B",1,"01990a9c-0cde-780e-8dcf-e298c8dcfaf5","01990a83-7673-7c0c-a792-bbd8fbbaf673","2025-09-02_09h27.23.981",NA,NA,414.0219,414.0219,414.0219,414.3723,NA,NA,NA,NA,NA,NA,NA,TRUE,1,1.1374,411.0227,414.0218,0,55,55,66,1,60,29,NA,NA,NA,NA,NA,1,56,"binary"
"5AADF83B390246E2AABDFD4E90713B2B",1,"01990a9c-0cde-780e-8dcf-e298c8dcfaf5","01990a83-7673-7c0c-a792-bbd8fbbaf673","2025-09-02_09h27.23.981",NA,NA,417.3725,417.3726,417.3726,417.7225,NA,NA,NA,NA,NA,NA,NA,TRUE,1,0.6554,414.3732,417.3724,0,56,56,60,1,50,27,NA,NA,NA,NA,NA,1,57,"binary"
"5AADF83B390246E2AABDFD4E90713B2B",1,"01990a9c-0cde-780e-8dcf-e298c8dcfaf5","01990a83-7673-7c0c-a792-bbd8fbbaf673","2025-09-02_09h27.23.981",NA,NA,420.7226,420.7227,420.7227,421.072,NA,NA,NA,NA,NA,NA,NA,TRUE,1,0.5064,417.7239,420.7226,0,57,57,14,1,12,28,NA,NA,NA,NA,NA,1,58,"binary"
"5AADF83B390246E2AABDFD4E90713B2B",1,"01990a9c-0cde-780e-8dcf-e298c8dcfaf5","01990a83-7673-7c0c-a792-bbd8fbbaf673","2025-09-02_09h27.23.981",NA,NA,424.0727,424.0727,424.0727,424.4217,NA,NA,NA,NA,NA,NA,NA,TRUE,1,1.218,421.0735,424.0726,0,58,58,1,1,7,26,NA,NA,NA,NA,NA,1,59,"binary"
"5AADF83B390246E2AABDFD4E90713B2B",1,"01990a9c-0cde-780e-8dcf-e298c8dcfaf5","01990a83-7673-7c0c-a792-bbd8fbbaf673","2025-09-02_09h27.23.981",NA,NA,427.4214,427.4215,427.4215,427.7725,NA,NA,NA,NA,NA,NA,NA,TRUE,1,0.9415,424.4231,427.4214,0,59,59,104,1,200,35,NA,NA,NA,NA,NA,1,60,"binary"
"5AADF83B390246E2AABDFD4E90713B2B",1,"01990a9c-0cde-780e-8dcf-e298c8dcfaf5","01990a83-7673-7c0c-a792-bbd8fbbaf673","2025-09-02_09h27.23.981",NA,NA,430.7726,430.7726,430.7726,431.1225,NA,NA,NA,NA,NA,NA,NA,TRUE,1,0.7288,427.7743,430.7725,0,60,60,77,1,90,54,NA,NA,NA,NA,NA,1,61,"binary"
"5AADF83B390246E2AABDFD4E90713B2B",1,"01990a9c-0cde-780e-8dcf-e298c8dcfaf5","01990a83-7673-7c0c-a792-bbd8fbbaf673","2025-09-02_09h27.23.981",NA,NA,434.1226,434.1226,434.1227,434.4724,NA,NA,NA,NA,NA,NA,NA,TRUE,1,0.5928,431.1244,434.1224,0,61,61,63,1,50,40,NA,NA,NA,NA,NA,1,62,"binary"
"5AADF83B390246E2AABDFD4E90713B2B",1,"01990a9c-0cde-780e-8dcf-e298c8dcfaf5","01990a83-7673-7c0c-a792-bbd8fbbaf673","2025-09-02_09h27.23.981",NA,NA,437.4723,437.4723,437.4724,437.8224,NA,NA,NA,NA,NA,NA,NA,TRUE,1,0.6669,434.4742,437.4723,0,62,62,86,1,100,38,NA,NA,NA,NA,NA,1,63,"binary"
"5AADF83B390246E2AABDFD4E90713B2B",1,"01990a9c-0cde-780e-8dcf-e298c8dcfaf5","01990a83-7673-7c0c-a792-bbd8fbbaf673","2025-09-02_09h27.23.981",NA,NA,440.8218,440.8218,440.8218,441.1724,NA,NA,NA,NA,NA,NA,NA,TRUE,1,0.5791,437.8244,440.8216,0,63,63,51,1,40,40,NA,NA,NA,NA,NA,1,64,"binary"
"5AADF83B390246E2AABDFD4E90713B2B",1,"01990a9c-0cde-780e-8dcf-e298c8dcfaf5","01990a83-7673-7c0c-a792-bbd8fbbaf673","2025-09-02_09h27.23.981",NA,NA,444.1713,444.1713,444.1714,444.5212,NA,NA,NA,NA,NA,NA,NA,TRUE,1,0.5036,441.1743,444.1713,0,64,64,41,1,28,46,NA,NA,NA,NA,NA,1,65,"binary"
"5AADF83B390246E2AABDFD4E90713B2B",1,"01990a9c-0cde-780e-8dcf-e298c8dcfaf5","01990a83-7673-7c0c-a792-bbd8fbbaf673","2025-09-02_09h27.23.981",NA,NA,447.5215,447.5216,447.5216,447.8721,NA,NA,NA,NA,NA,NA,NA,TRUE,1,0.8192,444.5228,447.5214,0,65,65,25,1,21,27,NA,NA,NA,NA,NA,1,66,"binary"
"5AADF83B390246E2AABDFD4E90713B2B",1,"01990a9c-0cde-780e-8dcf-e298c8dcfaf5","01990a83-7673-7c0c-a792-bbd8fbbaf673","2025-09-02_09h27.23.981",NA,NA,450.8723,450.8724,450.8724,451.2217,NA,NA,NA,NA,NA,NA,NA,TRUE,1,1.0586,447.8741,450.8722,0,66,66,8,1,10,27,NA,NA,NA,NA,NA,1,67,"binary"
"5AADF83B390246E2AABDFD4E90713B2B",1,"01990a9c-0cde-780e-8dcf-e298c8dcfaf5","01990a83-7673-7c0c-a792-bbd8fbbaf673","2025-09-02_09h27.23.981",NA,NA,454.2223,454.2224,454.2225,454.5719,NA,NA,NA,NA,NA,NA,NA,TRUE,1,0.8664,451.2235,454.2222,0,67,67,29,1,21,38,NA,NA,NA,NA,NA,1,68,"binary"
"5AADF83B390246E2AABDFD4E90713B2B",1,"01990a9c-0cde-780e-8dcf-e298c8dcfaf5","01990a83-7673-7c0c-a792-bbd8fbbaf673","2025-09-02_09h27.23.981",NA,NA,457.5722,457.5722,457.5722,457.922,NA,NA,NA,NA,NA,NA,NA,TRUE,1,0.5873,454.5734,457.572,0,68,68,91,1,150,33,NA,NA,NA,NA,NA,1,69,"binary"
"5AADF83B390246E2AABDFD4E90713B2B",1,"01990a9c-0cde-780e-8dcf-e298c8dcfaf5","01990a83-7673-7c0c-a792-bbd8fbbaf673","2025-09-02_09h27.23.981",NA,NA,460.9221,460.9221,460.9221,461.2721,NA,NA,NA,NA,NA,NA,NA,TRUE,1,0.4829,457.9234,460.9219,0,69,69,24,1,21,26,NA,NA,NA,NA,NA,1,70,"binary"
"5AADF83B390246E2AABDFD4E90713B2B",1,"01990a9c-0cde-780e-8dcf-e298c8dcfaf5","01990a83-7673-7c0c-a792-bbd8fbbaf673","2025-09-02_09h27.23.981",NA,NA,464.2721,464.2721,464.2721,464.6219,NA,NA,NA,NA,NA,NA,NA,TRUE,1,1.2627,461.2741,464.272,0,70,70,22,1,14,35,NA,NA,NA,NA,NA,1,71,"binary"
"5AADF83B390246E2AABDFD4E90713B2B",1,"01990a9c-0cde-780e-8dcf-e298c8dcfaf5","01990a83-7673-7c0c-a792-bbd8fbbaf673","2025-09-02_09h27.23.981",NA,NA,467.622,467.622,467.622,467.9718,NA,NA,NA,NA,NA,NA,NA,TRUE,1,1.0841,464.6235,467.6219,0,71,71,80,1,95,35,NA,NA,NA,NA,NA,1,72,"binary"
"5AADF83B390246E2AABDFD4E90713B2B",1,"01990a9c-0cde-780e-8dcf-e298c8dcfaf5","01990a83-7673-7c0c-a792-bbd8fbbaf673","2025-09-02_09h27.23.981",NA,NA,470.9721,470.9721,470.9721,471.3215,NA,NA,NA,NA,NA,NA,NA,TRUE,1,0.6779,467.9739,470.9719,0,72,72,93,1,150,40,NA,NA,NA,NA,NA,1,73,"binary"
"5AADF83B390246E2AABDFD4E90713B2B",1,"01990a9c-0cde-780e-8dcf-e298c8dcfaf5","01990a83-7673-7c0c-a792-bbd8fbbaf673","2025-09-02_09h27.23.981",NA,NA,474.3221,474.3221,474.3221,474.671,NA,NA,NA,NA,NA,NA,NA,TRUE,1,0.8319,471.3238,474.322,0,73,73,39,1,28,35,NA,NA,NA,NA,NA,1,74,"binary"
"5AADF83B390246E2AABDFD4E90713B2B",1,"01990a9c-0cde-780e-8dcf-e298c8dcfaf5","01990a83-7673-7c0c-a792-bbd8fbbaf673","2025-09-02_09h27.23.981",NA,NA,477.672,477.6721,477.6721,478.0217,NA,NA,NA,NA,NA,NA,NA,TRUE,1,0.7327,474.6724,477.6719,0,74,74,43,1,30,27,NA,NA,NA,NA,NA,1,75,"binary"
"5AADF83B390246E2AABDFD4E90713B2B",1,"01990a9c-0cde-780e-8dcf-e298c8dcfaf5","01990a83-7673-7c0c-a792-bbd8fbbaf673","2025-09-02_09h27.23.981",NA,NA,481.0209,481.0209,481.0209,481.371,NA,NA,NA,NA,NA,NA,NA,TRUE,1,0.3822,478.0236,481.0209,0,75,75,27,1,21,30,NA,NA,NA,NA,NA,1,76,"binary"
"5AADF83B390246E2AABDFD4E90713B2B",1,"01990a9c-0cde-780e-8dcf-e298c8dcfaf5","01990a83-7673-7c0c-a792-bbd8fbbaf673","2025-09-02_09h27.23.981",NA,NA,484.3714,484.3714,484.3714,484.7216,NA,NA,NA,NA,NA,NA,NA,TRUE,1,0.9721,481.3725,484.3713,0,76,76,13,1,12,26,NA,NA,NA,NA,NA,1,77,"binary"
"5AADF83B390246E2AABDFD4E90713B2B",1,"01990a9c-0cde-780e-8dcf-e298c8dcfaf5","01990a83-7673-7c0c-a792-bbd8fbbaf673","2025-09-02_09h27.23.981",NA,NA,487.7217,487.7217,487.7217,488.0718,NA,NA,NA,NA,NA,NA,NA,TRUE,1,1.1845,484.7231,487.7216,0,77,77,46,1,30,32,NA,NA,NA,NA,NA,1,78,"binary"
"5AADF83B390246E2AABDFD4E90713B2B",1,"01990a9c-0cde-780e-8dcf-e298c8dcfaf5","01990a83-7673-7c0c-a792-bbd8fbbaf673","2025-09-02_09h27.23.981",NA,NA,491.0717,491.0717,491.0717,491.4207,NA,NA,NA,NA,NA,NA,NA,TRUE,1,0.8968,488.0737,491.0716,0,78,78,30,1,25,27,NA,NA,NA,NA,NA,1,79,"binary"
"5AADF83B390246E2AABDFD4E90713B2B",1,"01990a9c-0cde-780e-8dcf-e298c8dcfaf5","01990a83-7673-7c0c-a792-bbd8fbbaf673","2025-09-02_09h27.23.981",NA,NA,494.421,494.421,494.4211,494.7709,NA,NA,NA,NA,NA,NA,NA,TRUE,1,0.9019,491.4224,494.4209,0,79,79,34,1,25,35,NA,NA,NA,NA,NA,1,80,"binary"
"5AADF83B390246E2AABDFD4E90713B2B",1,"01990a9c-0cde-780e-8dcf-e298c8dcfaf5","01990a83-7673-7c0c-a792-bbd8fbbaf673","2025-09-02_09h27.23.981",NA,NA,497.7709,497.7709,497.7709,498.1214,NA,NA,NA,NA,NA,NA,NA,TRUE,1,0.8004,494.7724,497.7707,0,80,80,107,1,200,54,NA,NA,NA,NA,NA,1,81,"binary"
"5AADF83B390246E2AABDFD4E90713B2B",1,"01990a9c-0cde-780e-8dcf-e298c8dcfaf5","01990a83-7673-7c0c-a792-bbd8fbbaf673","2025-09-02_09h27.23.981",NA,NA,501.1214,501.1214,501.1214,501.4714,NA,NA,NA,NA,NA,NA,NA,TRUE,1,0.6809,498.1235,501.1213,0,81,81,6,1,10,25,NA,NA,NA,NA,NA,1,82,"binary"
"5AADF83B390246E2AABDFD4E90713B2B",1,"01990a9c-0cde-780e-8dcf-e298c8dcfaf5","01990a83-7673-7c0c-a792-bbd8fbbaf673","2025-09-02_09h27.23.981",NA,NA,504.4707,504.4707,504.4707,504.8211,NA,NA,NA,NA,NA,NA,NA,TRUE,1,0.7227,501.4733,504.4705,0,82,82,72,1,90,26,NA,NA,NA,NA,NA,1,83,"binary"
"5AADF83B390246E2AABDFD4E90713B2B",1,"01990a9c-0cde-780e-8dcf-e298c8dcfaf5","01990a83-7673-7c0c-a792-bbd8fbbaf673","2025-09-02_09h27.23.981",NA,NA,507.8215,507.8216,507.8216,508.171,NA,NA,NA,NA,NA,NA,NA,TRUE,1,0.901,504.8219,507.8214,0,83,83,15,1,12,31,NA,NA,NA,NA,NA,1,84,"binary"
"5AADF83B390246E2AABDFD4E90713B2B",1,"01990a9c-0cde-780e-8dcf-e298c8dcfaf5","01990a83-7673-7c0c-a792-bbd8fbbaf673","2025-09-02_09h27.23.981",NA,NA,511.1709,511.1709,511.1709,511.5203,NA,NA,NA,NA,NA,NA,NA,TRUE,1,1.2008,508.173,511.1707,0,84,84,36,1,28,26,NA,NA,NA,NA,NA,1,85,"binary"
"5AADF83B390246E2AABDFD4E90713B2B",1,"01990a9c-0cde-780e-8dcf-e298c8dcfaf5","01990a83-7673-7c0c-a792-bbd8fbbaf673","2025-09-02_09h27.23.981",NA,NA,514.5214,514.5214,514.5214,514.8709,NA,NA,NA,NA,NA,NA,NA,TRUE,1,0.7674,511.5219,514.5213,0,85,85,76,1,90,46,NA,NA,NA,NA,NA,1,86,"binary"
"5AADF83B390246E2AABDFD4E90713B2B",1,"01990a9c-0cde-780e-8dcf-e298c8dcfaf5","01990a83-7673-7c0c-a792-bbd8fbbaf673","2025-09-02_09h27.23.981",NA,NA,517.8713,517.8713,517.8714,518.2213,NA,NA,NA,NA,NA,NA,NA,TRUE,1,0.5188,514.8717,517.8712,0,86,86,31,1,25,29,NA,NA,NA,NA,NA,1,87,"binary"
"5AADF83B390246E2AABDFD4E90713B2B",1,"01990a9c-0cde-780e-8dcf-e298c8dcfaf5","01990a83-7673-7c0c-a792-bbd8fbbaf673","2025-09-02_09h27.23.981",NA,NA,521.2214,521.2214,521.2215,521.5714,NA,NA,NA,NA,NA,NA,NA,TRUE,1,0.7837,518.2232,521.2213,0,87,87,44,1,30,29,NA,NA,NA,NA,NA,1,88,"binary"
"5AADF83B390246E2AABDFD4E90713B2B",1,"01990a9c-0cde-780e-8dcf-e298c8dcfaf5","01990a83-7673-7c0c-a792-bbd8fbbaf673","2025-09-02_09h27.23.981",NA,NA,524.5705,524.5705,524.5705,524.921,NA,NA,NA,NA,NA,NA,NA,TRUE,1,0.9465,521.5736,524.5704,0,88,88,50,1,40,35,NA,NA,NA,NA,NA,1,89,"binary"
"5AADF83B390246E2AABDFD4E90713B2B",1,"01990a9c-0cde-780e-8dcf-e298c8dcfaf5","01990a83-7673-7c0c-a792-bbd8fbbaf673","2025-09-02_09h27.23.981",NA,NA,527.9206,527.9207,527.9207,528.271,NA,NA,NA,NA,NA,NA,NA,TRUE,1,1.4676,524.9223,527.9205,0,89,89,32,1,25,31,NA,NA,NA,NA,NA,1,90,"binary"
"5AADF83B390246E2AABDFD4E90713B2B",1,"01990a9c-0cde-780e-8dcf-e298c8dcfaf5","01990a83-7673-7c0c-a792-bbd8fbbaf673","2025-09-02_09h27.23.981",NA,NA,531.2701,531.2701,531.2701,531.621,NA,NA,NA,NA,NA,NA,NA,TRUE,1,1.6733,528.2724,531.27,0,90,90,17,1,12,35,NA,NA,NA,NA,NA,1,91,"binary"
"5AADF83B390246E2AABDFD4E90713B2B",1,"01990a9c-0cde-780e-8dcf-e298c8dcfaf5","01990a83-7673-7c0c-a792-bbd8fbbaf673","2025-09-02_09h27.23.981",NA,NA,534.6213,534.6213,534.6213,534.9711,NA,NA,NA,NA,NA,NA,NA,TRUE,1,1.6034,531.6224,534.6211,0,91,91,88,1,100,46,NA,NA,NA,NA,NA,1,92,"binary"
"5AADF83B390246E2AABDFD4E90713B2B",1,"01990a9c-0cde-780e-8dcf-e298c8dcfaf5","01990a83-7673-7c0c-a792-bbd8fbbaf673","2025-09-02_09h27.23.981",NA,NA,537.9703,537.9704,537.9704,538.3205,NA,NA,NA,NA,NA,NA,NA,TRUE,1,1.7954,534.9729,537.9702,0,92,92,57,1,45,35,NA,NA,NA,NA,NA,1,93,"binary"
"5AADF83B390246E2AABDFD4E90713B2B",1,"01990a9c-0cde-780e-8dcf-e298c8dcfaf5","01990a83-7673-7c0c-a792-bbd8fbbaf673","2025-09-02_09h27.23.981",NA,NA,541.3211,541.3211,541.3211,541.6702,NA,NA,NA,NA,NA,NA,NA,TRUE,1,1.2368,538.3225,541.3209,0,93,93,28,1,21,32,NA,NA,NA,NA,NA,1,94,"binary"
"5AADF83B390246E2AABDFD4E90713B2B",1,"01990a9c-0cde-780e-8dcf-e298c8dcfaf5","01990a83-7673-7c0c-a792-bbd8fbbaf673","2025-09-02_09h27.23.981",NA,NA,544.67,544.67,544.6701,545.0209,NA,NA,NA,NA,NA,NA,NA,TRUE,1,0.4585,541.6717,544.6698,0,94,94,83,1,95,54,NA,NA,NA,NA,NA,1,95,"binary"
"5AADF83B390246E2AABDFD4E90713B2B",1,"01990a9c-0cde-780e-8dcf-e298c8dcfaf5","01990a83-7673-7c0c-a792-bbd8fbbaf673","2025-09-02_09h27.23.981",NA,NA,548.0211,548.0211,548.0211,548.3708,NA,NA,NA,NA,NA,NA,NA,TRUE,1,0.7465,545.0229,548.0209,0,95,95,7,1,10,26,NA,NA,NA,NA,NA,1,96,"binary"
"5AADF83B390246E2AABDFD4E90713B2B",1,"01990a9c-0cde-780e-8dcf-e298c8dcfaf5","01990a83-7673-7c0c-a792-bbd8fbbaf673","2025-09-02_09h27.23.981",NA,NA,551.3708,551.3709,551.3709,551.7207,NA,NA,NA,NA,NA,NA,NA,TRUE,1,1.1471,548.3729,551.3708,0,96,96,18,1,14,25,NA,NA,NA,NA,NA,1,97,"binary"
"5AADF83B390246E2AABDFD4E90713B2B",1,"01990a9c-0cde-780e-8dcf-e298c8dcfaf5","01990a83-7673-7c0c-a792-bbd8fbbaf673","2025-09-02_09h27.23.981",NA,NA,554.7201,554.7201,554.7201,555.0708,NA,NA,NA,NA,NA,NA,NA,TRUE,1,0.3265,551.7226,554.72,0,97,97,47,1,30,38,NA,NA,NA,NA,NA,1,98,"binary"
"5AADF83B390246E2AABDFD4E90713B2B",1,"01990a9c-0cde-780e-8dcf-e298c8dcfaf5","01990a83-7673-7c0c-a792-bbd8fbbaf673","2025-09-02_09h27.23.981",NA,NA,558.0697,558.0698,558.0698,558.4201,NA,NA,NA,NA,NA,NA,NA,TRUE,1,0.8926,555.0726,558.0696,0,98,98,84,1,100,26,NA,NA,NA,NA,NA,1,99,"binary"
"5AADF83B390246E2AABDFD4E90713B2B",1,"01990a9c-0cde-780e-8dcf-e298c8dcfaf5","01990a83-7673-7c0c-a792-bbd8fbbaf673","2025-09-02_09h27.23.981",NA,NA,561.4201,561.4201,561.4201,561.7706,NA,NA,NA,NA,NA,NA,NA,TRUE,1,1.2215,558.4217,561.42,0,99,99,101,1,180,54,NA,NA,NA,NA,NA,1,100,"binary"
"5AADF83B390246E2AABDFD4E90713B2B",1,"01990a9c-0cde-780e-8dcf-e298c8dcfaf5","01990a83-7673-7c0c-a792-bbd8fbbaf673","2025-09-02_09h27.23.981",NA,NA,564.7707,564.7708,564.7708,565.1195,NA,NA,NA,NA,NA,NA,NA,TRUE,1,1.3506,561.772,564.7705,0,100,100,35,1,25,46,NA,NA,NA,NA,NA,1,101,"binary"
"5AADF83B390246E2AABDFD4E90713B2B",1,"01990a9c-0cde-780e-8dcf-e298c8dcfaf5","01990a83-7673-7c0c-a792-bbd8fbbaf673","2025-09-02_09h27.23.981",NA,NA,568.1197,568.1197,568.1197,568.4699,NA,NA,NA,NA,NA,NA,NA,TRUE,1,0.8023,565.1211,568.1195,0,101,101,19,1,14,26,NA,NA,NA,NA,NA,1,102,"binary"
"5AADF83B390246E2AABDFD4E90713B2B",1,"01990a9c-0cde-780e-8dcf-e298c8dcfaf5","01990a83-7673-7c0c-a792-bbd8fbbaf673","2025-09-02_09h27.23.981",NA,NA,571.4698,571.4698,571.4698,571.8206,NA,NA,NA,NA,NA,NA,NA,TRUE,1,1.2507,568.4718,571.4697,0,102,102,74,1,90,33,NA,NA,NA,NA,NA,1,103,"binary"
"5AADF83B390246E2AABDFD4E90713B2B",1,"01990a9c-0cde-780e-8dcf-e298c8dcfaf5","01990a83-7673-7c0c-a792-bbd8fbbaf673","2025-09-02_09h27.23.981",NA,NA,574.8206,574.8206,574.8206,575.1706,NA,NA,NA,NA,NA,NA,NA,TRUE,1,0.5604,571.8224,574.8204,0,103,103,97,1,180,31,NA,NA,NA,NA,NA,1,104,"binary"
"5AADF83B390246E2AABDFD4E90713B2B",1,"01990a9c-0cde-780e-8dcf-e298c8dcfaf5","01990a83-7673-7c0c-a792-bbd8fbbaf673","2025-09-02_09h27.23.981",NA,NA,578.1705,578.1705,578.1705,578.5205,NA,NA,NA,NA,NA,NA,NA,TRUE,1,0.4298,575.1727,578.1704,0,104,104,26,1,21,29,NA,NA,NA,NA,NA,1,105,"binary"
"5AADF83B390246E2AABDFD4E90713B2B",1,"01990a9c-0cde-780e-8dcf-e298c8dcfaf5","01990a83-7673-7c0c-a792-bbd8fbbaf673","2025-09-02_09h27.23.981",NA,NA,581.5204,581.5204,581.5205,581.8697,NA,NA,NA,NA,NA,NA,NA,TRUE,1,0.9812,578.5225,581.5203,0,105,105,3,1,7,30,NA,NA,NA,NA,NA,1,106,"binary"
"5AADF83B390246E2AABDFD4E90713B2B",1,"01990a9c-0cde-780e-8dcf-e298c8dcfaf5","01990a83-7673-7c0c-a792-bbd8fbbaf673","2025-09-02_09h27.23.981",NA,NA,584.8696,584.8696,584.8696,585.2204,NA,NA,NA,NA,NA,NA,NA,TRUE,1,0.855,581.8712,584.8695,0,106,106,55,1,45,29,NA,NA,NA,NA,NA,1,107,"binary"
"5AADF83B390246E2AABDFD4E90713B2B",1,"01990a9c-0cde-780e-8dcf-e298c8dcfaf5","01990a83-7673-7c0c-a792-bbd8fbbaf673","2025-09-02_09h27.23.981",NA,NA,588.2206,588.2206,588.2206,588.5702,NA,NA,NA,NA,NA,NA,NA,TRUE,1,0.5151,585.2223,588.2204,0,107,107,87,1,100,39,NA,NA,NA,NA,NA,1,108,"binary"
"5AADF83B390246E2AABDFD4E90713B2B",1,"01990a9c-0cde-780e-8dcf-e298c8dcfaf5","01990a83-7673-7c0c-a792-bbd8fbbaf673","2025-09-02_09h27.23.981",NA,NA,821.5005,821.5005,821.5005,821.8503,NA,NA,NA,NA,NA,NA,NA,TRUE,1,2.2744,818.5246,821.5004,NA,NA,NA,NA,NA,14,39,0,0,0,23,1,2,1,"binary"
"5AADF83B390246E2AABDFD4E90713B2B",1,"01990a9c-0cde-780e-8dcf-e298c8dcfaf5","01990a83-7673-7c0c-a792-bbd8fbbaf673","2025-09-02_09h27.23.981",NA,NA,824.8506,824.8507,824.8507,825.2001,NA,NA,NA,NA,NA,NA,NA,TRUE,1,0.7351,821.8524,824.8504,NA,NA,NA,NA,NA,95,54,0,1,1,83,1,2,2,"binary"
"5AADF83B390246E2AABDFD4E90713B2B",1,"01990a9c-0cde-780e-8dcf-e298c8dcfaf5","01990a83-7673-7c0c-a792-bbd8fbbaf673","2025-09-02_09h27.23.981",NA,NA,828.2006,828.2006,828.2007,828.5498,NA,NA,NA,NA,NA,NA,NA,TRUE,1,0.9183,825.2016,828.2005,NA,NA,NA,NA,NA,150,35,0,2,2,92,1,2,3,"binary"
"5AADF83B390246E2AABDFD4E90713B2B",1,"01990a9c-0cde-780e-8dcf-e298c8dcfaf5","01990a83-7673-7c0c-a792-bbd8fbbaf673","2025-09-02_09h27.23.981",NA,NA,831.5504,831.5504,831.5505,831.9001,NA,NA,NA,NA,NA,NA,NA,TRUE,1,0.9169,828.5512,831.5502,NA,NA,NA,NA,NA,60,35,0,3,3,68,1,2,4,"binary"
"5AADF83B390246E2AABDFD4E90713B2B",1,"01990a9c-0cde-780e-8dcf-e298c8dcfaf5","01990a83-7673-7c0c-a792-bbd8fbbaf673","2025-09-02_09h27.23.981",NA,NA,834.9004,834.9004,834.9004,835.2498,NA,NA,NA,NA,NA,NA,NA,TRUE,1,0.7743,831.9017,834.9002,NA,NA,NA,NA,NA,28,26,0,4,4,36,1,2,5,"binary"
"5AADF83B390246E2AABDFD4E90713B2B",1,"01990a9c-0cde-780e-8dcf-e298c8dcfaf5","01990a83-7673-7c0c-a792-bbd8fbbaf673","2025-09-02_09h27.23.981",NA,NA,838.2496,838.2496,838.2496,838.5996,NA,NA,NA,NA,NA,NA,NA,TRUE,1,0.6006,835.2512,838.2494,NA,NA,NA,NA,NA,200,54,0,5,5,107,1,2,6,"binary"
"5AADF83B390246E2AABDFD4E90713B2B",1,"01990a9c-0cde-780e-8dcf-e298c8dcfaf5","01990a83-7673-7c0c-a792-bbd8fbbaf673","2025-09-02_09h27.23.981",NA,NA,841.5996,841.5997,841.5997,841.9501,NA,NA,NA,NA,NA,NA,NA,TRUE,1,0.4557,838.6015,841.5995,NA,NA,NA,NA,NA,45,46,0,6,6,59,1,2,7,"binary"
"5AADF83B390246E2AABDFD4E90713B2B",1,"01990a9c-0cde-780e-8dcf-e298c8dcfaf5","01990a83-7673-7c0c-a792-bbd8fbbaf673","2025-09-02_09h27.23.981",NA,NA,844.95,844.95,844.95,845.2999,NA,NA,NA,NA,NA,NA,NA,TRUE,1,0.6518,841.9521,844.9499,NA,NA,NA,NA,NA,21,27,0,7,7,25,1,2,8,"binary"
"5AADF83B390246E2AABDFD4E90713B2B",1,"01990a9c-0cde-780e-8dcf-e298c8dcfaf5","01990a83-7673-7c0c-a792-bbd8fbbaf673","2025-09-02_09h27.23.981",NA,NA,848.3,848.3001,848.3001,848.6501,NA,NA,NA,NA,NA,NA,NA,TRUE,1,0.7176,845.3014,848.2999,NA,NA,NA,NA,NA,25,31,0,8,8,32,1,2,9,"binary"
"5AADF83B390246E2AABDFD4E90713B2B",1,"01990a9c-0cde-780e-8dcf-e298c8dcfaf5","01990a83-7673-7c0c-a792-bbd8fbbaf673","2025-09-02_09h27.23.981",NA,NA,851.6501,851.6501,851.6501,851.9994,NA,NA,NA,NA,NA,NA,NA,TRUE,1,0.6941,848.6521,851.65,NA,NA,NA,NA,NA,30,38,0,9,9,47,1,2,10,"binary"
"5AADF83B390246E2AABDFD4E90713B2B",1,"01990a9c-0cde-780e-8dcf-e298c8dcfaf5","01990a83-7673-7c0c-a792-bbd8fbbaf673","2025-09-02_09h27.23.981",NA,NA,855,855,855,855.3496,NA,NA,NA,NA,NA,NA,NA,TRUE,1,0.7657,852.0008,854.9998,NA,NA,NA,NA,NA,30,26,0,10,10,42,1,2,11,"binary"
"5AADF83B390246E2AABDFD4E90713B2B",1,"01990a9c-0cde-780e-8dcf-e298c8dcfaf5","01990a83-7673-7c0c-a792-bbd8fbbaf673","2025-09-02_09h27.23.981",NA,NA,858.3495,858.3495,858.3495,858.6988,NA,NA,NA,NA,NA,NA,NA,TRUE,1,0.7479,855.3515,858.3494,NA,NA,NA,NA,NA,180,35,0,11,11,98,1,2,12,"binary"
"5AADF83B390246E2AABDFD4E90713B2B",1,"01990a9c-0cde-780e-8dcf-e298c8dcfaf5","01990a83-7673-7c0c-a792-bbd8fbbaf673","2025-09-02_09h27.23.981",NA,NA,861.6998,861.6999,861.7,862.0498,NA,NA,NA,NA,NA,NA,NA,TRUE,1,0.8566,858.7004,861.6997,NA,NA,NA,NA,NA,21,32,0,12,12,28,1,2,13,"binary"
"5AADF83B390246E2AABDFD4E90713B2B",1,"01990a9c-0cde-780e-8dcf-e298c8dcfaf5","01990a83-7673-7c0c-a792-bbd8fbbaf673","2025-09-02_09h27.23.981",NA,NA,865.0499,865.0499,865.05,865.3999,NA,NA,NA,NA,NA,NA,NA,TRUE,1,0.7886,862.0518,865.0498,NA,NA,NA,NA,NA,7,30,0,13,13,3,1,2,14,"binary"
"5AADF83B390246E2AABDFD4E90713B2B",1,"01990a9c-0cde-780e-8dcf-e298c8dcfaf5","01990a83-7673-7c0c-a792-bbd8fbbaf673","2025-09-02_09h27.23.981",NA,NA,868.4002,868.4003,868.4003,868.7497,NA,NA,NA,NA,NA,NA,NA,TRUE,1,0.8789,865.4019,868.4001,NA,NA,NA,NA,NA,100,39,0,14,14,87,1,2,15,"binary"
"5AADF83B390246E2AABDFD4E90713B2B",1,"01990a9c-0cde-780e-8dcf-e298c8dcfaf5","01990a83-7673-7c0c-a792-bbd8fbbaf673","2025-09-02_09h27.23.981",NA,NA,871.7497,871.7497,871.7498,872.0991,NA,NA,NA,NA,NA,NA,NA,TRUE,1,0.7934,868.7516,871.7496,NA,NA,NA,NA,NA,90,33,0,15,15,74,1,2,16,"binary"
"5AADF83B390246E2AABDFD4E90713B2B",1,"01990a9c-0cde-780e-8dcf-e298c8dcfaf5","01990a83-7673-7c0c-a792-bbd8fbbaf673","2025-09-02_09h27.23.981",NA,NA,875.0991,875.0991,875.0991,875.4497,NA,NA,NA,NA,NA,NA,NA,TRUE,1,0.7674,872.1007,875.0989,NA,NA,NA,NA,NA,21,29,0,16,16,26,1,2,17,"binary"
"5AADF83B390246E2AABDFD4E90713B2B",1,"01990a9c-0cde-780e-8dcf-e298c8dcfaf5","01990a83-7673-7c0c-a792-bbd8fbbaf673","2025-09-02_09h27.23.981",NA,NA,878.4497,878.4497,878.4497,878.7995,NA,NA,NA,NA,NA,NA,NA,TRUE,1,0.6972,875.4517,878.4495,NA,NA,NA,NA,NA,28,39,0,17,17,40,1,2,18,"binary"
"5AADF83B390246E2AABDFD4E90713B2B",1,"01990a9c-0cde-780e-8dcf-e298c8dcfaf5","01990a83-7673-7c0c-a792-bbd8fbbaf673","2025-09-02_09h27.23.981",NA,NA,881.7997,881.7997,881.7998,882.1495,NA,NA,NA,NA,NA,NA,NA,TRUE,1,0.8232,878.801,881.7995,NA,NA,NA,NA,NA,50,30,0,18,18,61,1,2,19,"binary"
"5AADF83B390246E2AABDFD4E90713B2B",1,"01990a9c-0cde-780e-8dcf-e298c8dcfaf5","01990a83-7673-7c0c-a792-bbd8fbbaf673","2025-09-02_09h27.23.981",NA,NA,885.1499,885.1499,885.1499,885.4989,NA,NA,NA,NA,NA,NA,NA,TRUE,1,0.751,882.1516,885.1497,NA,NA,NA,NA,NA,45,26,0,19,19,54,1,2,20,"binary"
"5AADF83B390246E2AABDFD4E90713B2B",1,"01990a9c-0cde-780e-8dcf-e298c8dcfaf5","01990a83-7673-7c0c-a792-bbd8fbbaf673","2025-09-02_09h27.23.981",NA,NA,888.4987,888.4988,888.4988,888.8485,NA,NA,NA,NA,NA,NA,NA,TRUE,1,1.1056,885.5005,888.4986,NA,NA,NA,NA,NA,10,27,0,20,20,8,1,2,21,"binary"
"5AADF83B390246E2AABDFD4E90713B2B",1,"01990a9c-0cde-780e-8dcf-e298c8dcfaf5","01990a83-7673-7c0c-a792-bbd8fbbaf673","2025-09-02_09h27.23.981",NA,NA,891.8495,891.8495,891.8496,892.1985,NA,NA,NA,NA,NA,NA,NA,TRUE,1,1.8661,888.8502,891.8494,NA,NA,NA,NA,NA,200,47,0,21,21,106,1,2,22,"binary"
"5AADF83B390246E2AABDFD4E90713B2B",1,"01990a9c-0cde-780e-8dcf-e298c8dcfaf5","01990a83-7673-7c0c-a792-bbd8fbbaf673","2025-09-02_09h27.23.981",NA,NA,895.1996,895.1997,895.1997,895.5495,NA,NA,NA,NA,NA,NA,NA,TRUE,1,1.4342,892.1999,895.1995,NA,NA,NA,NA,NA,40,54,0,22,22,53,1,2,23,"binary"
"5AADF83B390246E2AABDFD4E90713B2B",1,"01990a9c-0cde-780e-8dcf-e298c8dcfaf5","01990a83-7673-7c0c-a792-bbd8fbbaf673","2025-09-02_09h27.23.981",NA,NA,898.5493,898.5493,898.5493,898.8994,NA,NA,NA,NA,NA,NA,NA,TRUE,1,1.3508,895.5515,898.5492,NA,NA,NA,NA,NA,50,40,0,23,23,63,1,2,24,"binary"
"5AADF83B390246E2AABDFD4E90713B2B",1,"01990a9c-0cde-780e-8dcf-e298c8dcfaf5","01990a83-7673-7c0c-a792-bbd8fbbaf673","2025-09-02_09h27.23.981",NA,NA,901.8992,901.8993,901.8993,902.2493,NA,NA,NA,NA,NA,NA,NA,TRUE,1,1.4128,898.9014,901.8991,NA,NA,NA,NA,NA,45,35,0,24,24,57,1,2,25,"binary"
"5AADF83B390246E2AABDFD4E90713B2B",1,"01990a9c-0cde-780e-8dcf-e298c8dcfaf5","01990a83-7673-7c0c-a792-bbd8fbbaf673","2025-09-02_09h27.23.981",NA,NA,905.2492,905.2492,905.2493,905.5991,NA,NA,NA,NA,NA,NA,NA,TRUE,1,0.6277,902.2512,905.2491,NA,NA,NA,NA,NA,200,35,0,25,25,104,1,2,26,"binary"
"5AADF83B390246E2AABDFD4E90713B2B",1,"01990a9c-0cde-780e-8dcf-e298c8dcfaf5","01990a83-7673-7c0c-a792-bbd8fbbaf673","2025-09-02_09h27.23.981",NA,NA,908.5992,908.5993,908.5993,908.9491,NA,NA,NA,NA,NA,NA,NA,TRUE,1,0.3948,905.6012,908.5991,NA,NA,NA,NA,NA,150,47,0,26,26,94,1,2,27,"binary"
"5AADF83B390246E2AABDFD4E90713B2B",1,"01990a9c-0cde-780e-8dcf-e298c8dcfaf5","01990a83-7673-7c0c-a792-bbd8fbbaf673","2025-09-02_09h27.23.981",NA,NA,911.9494,911.9494,911.9494,912.2986,NA,NA,NA,NA,NA,NA,NA,TRUE,1,0.6599,908.9511,911.9492,NA,NA,NA,NA,NA,30,32,0,27,27,46,1,2,28,"binary"
"5AADF83B390246E2AABDFD4E90713B2B",1,"01990a9c-0cde-780e-8dcf-e298c8dcfaf5","01990a83-7673-7c0c-a792-bbd8fbbaf673","2025-09-02_09h27.23.981",NA,NA,915.2992,915.2992,915.2993,915.6484,NA,NA,NA,NA,NA,NA,NA,TRUE,1,0.6531,912.3001,915.299,NA,NA,NA,NA,NA,150,54,0,28,28,95,1,2,29,"binary"
"5AADF83B390246E2AABDFD4E90713B2B",1,"01990a9c-0cde-780e-8dcf-e298c8dcfaf5","01990a83-7673-7c0c-a792-bbd8fbbaf673","2025-09-02_09h27.23.981",NA,NA,918.6492,918.6492,918.6492,918.9989,NA,NA,NA,NA,NA,NA,NA,TRUE,1,0.45,915.6502,918.649,NA,NA,NA,NA,NA,14,32,0,29,29,21,1,2,30,"binary"
"5AADF83B390246E2AABDFD4E90713B2B",1,"01990a9c-0cde-780e-8dcf-e298c8dcfaf5","01990a83-7673-7c0c-a792-bbd8fbbaf673","2025-09-02_09h27.23.981",NA,NA,921.9992,921.9992,921.9992,922.3483,NA,NA,NA,NA,NA,NA,NA,TRUE,1,0.3175,919.0004,921.9989,NA,NA,NA,NA,NA,50,27,0,30,30,60,1,2,31,"binary"
"5AADF83B390246E2AABDFD4E90713B2B",1,"01990a9c-0cde-780e-8dcf-e298c8dcfaf5","01990a83-7673-7c0c-a792-bbd8fbbaf673","2025-09-02_09h27.23.981",NA,NA,925.3481,925.3482,925.3482,925.699,NA,NA,NA,NA,NA,NA,NA,TRUE,1,0.442,922.3502,925.3481,NA,NA,NA,NA,NA,95,40,0,31,31,81,1,2,32,"binary"
"5AADF83B390246E2AABDFD4E90713B2B",1,"01990a9c-0cde-780e-8dcf-e298c8dcfaf5","01990a83-7673-7c0c-a792-bbd8fbbaf673","2025-09-02_09h27.23.981",NA,NA,928.699,928.699,928.699,929.0487,NA,NA,NA,NA,NA,NA,NA,TRUE,1,0.2974,925.701,928.6989,NA,NA,NA,NA,NA,60,40,0,32,32,69,1,2,33,"binary"
"5AADF83B390246E2AABDFD4E90713B2B",1,"01990a9c-0cde-780e-8dcf-e298c8dcfaf5","01990a83-7673-7c0c-a792-bbd8fbbaf673","2025-09-02_09h27.23.981",NA,NA,932.0482,932.0482,932.0482,932.3989,NA,NA,NA,NA,NA,NA,NA,TRUE,1,0.367,929.0504,932.0482,NA,NA,NA,NA,NA,40,47,0,33,33,52,1,2,34,"binary"
"5AADF83B390246E2AABDFD4E90713B2B",1,"01990a9c-0cde-780e-8dcf-e298c8dcfaf5","01990a83-7673-7c0c-a792-bbd8fbbaf673","2025-09-02_09h27.23.981",NA,NA,935.3991,935.3991,935.3991,935.7489,NA,NA,NA,NA,NA,NA,NA,TRUE,1,0.3098,932.401,935.3988,NA,NA,NA,NA,NA,150,31,0,34,34,90,1,2,35,"binary"
"5AADF83B390246E2AABDFD4E90713B2B",1,"01990a9c-0cde-780e-8dcf-e298c8dcfaf5","01990a83-7673-7c0c-a792-bbd8fbbaf673","2025-09-02_09h27.23.981",NA,NA,938.749,938.7491,938.7491,939.0988,NA,NA,NA,NA,NA,NA,NA,TRUE,1,0.3474,935.7509,938.7489,NA,NA,NA,NA,NA,10,32,0,35,35,11,1,2,36,"binary"
"5AADF83B390246E2AABDFD4E90713B2B",1,"01990a9c-0cde-780e-8dcf-e298c8dcfaf5","01990a83-7673-7c0c-a792-bbd8fbbaf673","2025-09-02_09h27.23.981",NA,NA,942.0987,942.0988,942.0989,942.448,NA,NA,NA,NA,NA,NA,NA,TRUE,1,0.3662,939.1007,942.0986,NA,NA,NA,NA,NA,100,38,0,36,36,86,1,2,37,"binary"
"5AADF83B390246E2AABDFD4E90713B2B",1,"01990a9c-0cde-780e-8dcf-e298c8dcfaf5","01990a83-7673-7c0c-a792-bbd8fbbaf673","2025-09-02_09h27.23.981",NA,NA,945.4488,945.4488,945.4488,945.7974,NA,NA,NA,NA,NA,NA,NA,TRUE,1,0.4194,942.4496,945.4486,NA,NA,NA,NA,NA,90,30,0,37,37,73,1,2,38,"binary"
"5AADF83B390246E2AABDFD4E90713B2B",1,"01990a9c-0cde-780e-8dcf-e298c8dcfaf5","01990a83-7673-7c0c-a792-bbd8fbbaf673","2025-09-02_09h27.23.981",NA,NA,948.7985,948.7985,948.7986,949.1485,NA,NA,NA,NA,NA,NA,NA,TRUE,1,0.3874,945.7983,948.7984,NA,NA,NA,NA,NA,60,33,0,38,38,67,1,2,39,"binary"
"5AADF83B390246E2AABDFD4E90713B2B",1,"01990a9c-0cde-780e-8dcf-e298c8dcfaf5","01990a83-7673-7c0c-a792-bbd8fbbaf673","2025-09-02_09h27.23.981",NA,NA,952.1486,952.1487,952.1487,952.4986,NA,NA,NA,NA,NA,NA,NA,TRUE,1,0.524,949.1499,952.1485,NA,NA,NA,NA,NA,40,27,0,39,39,48,1,2,40,"binary"
"5AADF83B390246E2AABDFD4E90713B2B",1,"01990a9c-0cde-780e-8dcf-e298c8dcfaf5","01990a83-7673-7c0c-a792-bbd8fbbaf673","2025-09-02_09h27.23.981",NA,NA,955.4987,955.4987,955.4988,955.8487,NA,NA,NA,NA,NA,NA,NA,TRUE,1,0.5354,952.4999,955.4986,NA,NA,NA,NA,NA,25,27,0,40,40,30,1,2,41,"binary"
"5AADF83B390246E2AABDFD4E90713B2B",1,"01990a9c-0cde-780e-8dcf-e298c8dcfaf5","01990a83-7673-7c0c-a792-bbd8fbbaf673","2025-09-02_09h27.23.981",NA,NA,958.8484,958.8484,958.8484,959.1983,NA,NA,NA,NA,NA,NA,NA,TRUE,1,0.7506,955.8505,958.8482,NA,NA,NA,NA,NA,40,33,0,41,41,49,1,2,42,"binary"
"5AADF83B390246E2AABDFD4E90713B2B",1,"01990a9c-0cde-780e-8dcf-e298c8dcfaf5","01990a83-7673-7c0c-a792-bbd8fbbaf673","2025-09-02_09h27.23.981",NA,NA,962.1978,962.1978,962.1978,962.5483,NA,NA,NA,NA,NA,NA,NA,TRUE,1,1.2237,959.1999,962.1977,NA,NA,NA,NA,NA,28,28,0,42,42,37,1,2,43,"binary"
"5AADF83B390246E2AABDFD4E90713B2B",1,"01990a9c-0cde-780e-8dcf-e298c8dcfaf5","01990a83-7673-7c0c-a792-bbd8fbbaf673","2025-09-02_09h27.23.981",NA,NA,965.5485,965.5486,965.5486,965.8973,NA,NA,NA,NA,NA,NA,NA,TRUE,1,0.9504,962.5498,965.5484,NA,NA,NA,NA,NA,45,29,0,43,43,55,1,2,44,"binary"
"5AADF83B390246E2AABDFD4E90713B2B",1,"01990a9c-0cde-780e-8dcf-e298c8dcfaf5","01990a83-7673-7c0c-a792-bbd8fbbaf673","2025-09-02_09h27.23.981",NA,NA,968.8984,968.8984,968.8984,969.2477,NA,NA,NA,NA,NA,NA,NA,TRUE,1,0.8177,965.8988,968.8982,NA,NA,NA,NA,NA,100,26,0,44,44,84,1,2,45,"binary"
"5AADF83B390246E2AABDFD4E90713B2B",1,"01990a9c-0cde-780e-8dcf-e298c8dcfaf5","01990a83-7673-7c0c-a792-bbd8fbbaf673","2025-09-02_09h27.23.981",NA,NA,972.2483,972.2483,972.2483,972.5979,NA,NA,NA,NA,NA,NA,NA,TRUE,1,0.9256,969.2498,972.2482,NA,NA,NA,NA,NA,180,27,0,45,45,96,1,2,46,"binary"
"5AADF83B390246E2AABDFD4E90713B2B",1,"01990a9c-0cde-780e-8dcf-e298c8dcfaf5","01990a83-7673-7c0c-a792-bbd8fbbaf673","2025-09-02_09h27.23.981",NA,NA,975.5983,975.5983,975.5983,975.9483,NA,NA,NA,NA,NA,NA,NA,TRUE,1,1.0681,972.6001,975.5982,NA,NA,NA,NA,NA,100,31,0,46,46,85,1,2,47,"binary"
"5AADF83B390246E2AABDFD4E90713B2B",1,"01990a9c-0cde-780e-8dcf-e298c8dcfaf5","01990a83-7673-7c0c-a792-bbd8fbbaf673","2025-09-02_09h27.23.981",NA,NA,978.9477,978.9477,978.9477,979.2973,NA,NA,NA,NA,NA,NA,NA,TRUE,1,1.2103,975.9502,978.9476,NA,NA,NA,NA,NA,200,39,0,47,47,105,1,2,48,"binary"
"5AADF83B390246E2AABDFD4E90713B2B",1,"01990a9c-0cde-780e-8dcf-e298c8dcfaf5","01990a83-7673-7c0c-a792-bbd8fbbaf673","2025-09-02_09h27.23.981",NA,NA,982.2981,982.2982,982.2982,982.6481,NA,NA,NA,NA,NA,NA,NA,TRUE,1,0.9923,979.2988,982.298,NA,NA,NA,NA,NA,30,27,0,48,48,43,1,2,49,"binary"
"5AADF83B390246E2AABDFD4E90713B2B",1,"01990a9c-0cde-780e-8dcf-e298c8dcfaf5","01990a83-7673-7c0c-a792-bbd8fbbaf673","2025-09-02_09h27.23.981",NA,NA,985.6482,985.6483,985.6483,985.9981,NA,NA,NA,NA,NA,NA,NA,TRUE,1,1.1046,982.6501,985.6481,NA,NA,NA,NA,NA,60,29,0,49,49,66,1,2,50,"binary"
"5AADF83B390246E2AABDFD4E90713B2B",1,"01990a9c-0cde-780e-8dcf-e298c8dcfaf5","01990a83-7673-7c0c-a792-bbd8fbbaf673","2025-09-02_09h27.23.981",NA,NA,988.9979,988.9979,988.9979,989.3474,NA,NA,NA,NA,NA,NA,NA,TRUE,1,0.9542,986.0001,988.9978,NA,NA,NA,NA,NA,21,30,0,50,50,27,1,2,51,"binary"
"5AADF83B390246E2AABDFD4E90713B2B",1,"01990a9c-0cde-780e-8dcf-e298c8dcfaf5","01990a83-7673-7c0c-a792-bbd8fbbaf673","2025-09-02_09h27.23.981",NA,NA,992.348,992.348,992.348,992.6979,NA,NA,NA,NA,NA,NA,NA,TRUE,1,0.6482,989.3493,992.3479,NA,NA,NA,NA,NA,7,26,0,51,51,1,1,2,52,"binary"
"5AADF83B390246E2AABDFD4E90713B2B",1,"01990a9c-0cde-780e-8dcf-e298c8dcfaf5","01990a83-7673-7c0c-a792-bbd8fbbaf673","2025-09-02_09h27.23.981",NA,NA,995.6974,995.6974,995.6974,996.048,NA,NA,NA,NA,NA,NA,NA,TRUE,1,0.971,992.6999,995.6972,NA,NA,NA,NA,NA,12,33,0,52,52,16,1,2,53,"binary"
"5AADF83B390246E2AABDFD4E90713B2B",1,"01990a9c-0cde-780e-8dcf-e298c8dcfaf5","01990a83-7673-7c0c-a792-bbd8fbbaf673","2025-09-02_09h27.23.981",NA,NA,999.0482,999.0482,999.0482,999.3978,NA,NA,NA,NA,NA,NA,NA,TRUE,1,1.632,996.0498,999.0481,NA,NA,NA,NA,NA,10,25,0,53,53,6,1,2,54,"binary"
"5AADF83B390246E2AABDFD4E90713B2B",1,"01990a9c-0cde-780e-8dcf-e298c8dcfaf5","01990a83-7673-7c0c-a792-bbd8fbbaf673","2025-09-02_09h27.23.981",NA,NA,1002.3981,1002.3981,1002.3981,1002.7478,NA,NA,NA,NA,NA,NA,NA,TRUE,1,0.9786,999.3997,1002.3979,NA,NA,NA,NA,NA,95,35,0,54,54,80,1,2,55,"binary"
"5AADF83B390246E2AABDFD4E90713B2B",1,"01990a9c-0cde-780e-8dcf-e298c8dcfaf5","01990a83-7673-7c0c-a792-bbd8fbbaf673","2025-09-02_09h27.23.981",NA,NA,1005.7475,1005.7476,1005.7476,1006.0971,NA,NA,NA,NA,NA,NA,NA,TRUE,1,1.1147,1002.7497,1005.7475,NA,NA,NA,NA,NA,45,40,0,55,55,58,1,2,56,"binary"
"5AADF83B390246E2AABDFD4E90713B2B",1,"01990a9c-0cde-780e-8dcf-e298c8dcfaf5","01990a83-7673-7c0c-a792-bbd8fbbaf673","2025-09-02_09h27.23.981",NA,NA,1009.0976,1009.0976,1009.0976,1009.4477,NA,NA,NA,NA,NA,NA,NA,TRUE,1,0.5169,1006.0991,1009.0975,NA,NA,NA,NA,NA,50,54,0,56,56,65,1,2,57,"binary"
"5AADF83B390246E2AABDFD4E90713B2B",1,"01990a9c-0cde-780e-8dcf-e298c8dcfaf5","01990a83-7673-7c0c-a792-bbd8fbbaf673","2025-09-02_09h27.23.981",NA,NA,1012.4478,1012.4479,1012.4479,1012.7977,NA,NA,NA,NA,NA,NA,NA,TRUE,1,0.7794,1009.4496,1012.4476,NA,NA,NA,NA,NA,40,40,0,57,57,51,1,2,58,"binary"
"5AADF83B390246E2AABDFD4E90713B2B",1,"01990a9c-0cde-780e-8dcf-e298c8dcfaf5","01990a83-7673-7c0c-a792-bbd8fbbaf673","2025-09-02_09h27.23.981",NA,NA,1015.7972,1015.7972,1015.7972,1016.1478,NA,NA,NA,NA,NA,NA,NA,TRUE,1,0.7107,1012.7996,1015.7972,NA,NA,NA,NA,NA,30,29,0,58,58,44,1,2,59,"binary"
"5AADF83B390246E2AABDFD4E90713B2B",1,"01990a9c-0cde-780e-8dcf-e298c8dcfaf5","01990a83-7673-7c0c-a792-bbd8fbbaf673","2025-09-02_09h27.23.981",NA,NA,1019.1472,1019.1472,1019.1472,1019.4975,NA,NA,NA,NA,NA,NA,NA,TRUE,1,0.6813,1016.1499,1019.1471,NA,NA,NA,NA,NA,10,29,0,59,59,9,1,2,60,"binary"
"5AADF83B390246E2AABDFD4E90713B2B",1,"01990a9c-0cde-780e-8dcf-e298c8dcfaf5","01990a83-7673-7c0c-a792-bbd8fbbaf673","2025-09-02_09h27.23.981",NA,NA,1022.4978,1022.4978,1022.4978,1022.8476,NA,NA,NA,NA,NA,NA,NA,TRUE,1,0.6505,1019.4989,1022.4976,NA,NA,NA,NA,NA,180,54,0,60,60,101,1,2,61,"binary"
"5AADF83B390246E2AABDFD4E90713B2B",1,"01990a9c-0cde-780e-8dcf-e298c8dcfaf5","01990a83-7673-7c0c-a792-bbd8fbbaf673","2025-09-02_09h27.23.981",NA,NA,1025.8478,1025.8479,1025.8479,1026.1974,NA,NA,NA,NA,NA,NA,NA,TRUE,1,0.705,1022.8496,1025.8477,NA,NA,NA,NA,NA,14,28,0,61,61,20,1,2,62,"binary"
"5AADF83B390246E2AABDFD4E90713B2B",1,"01990a9c-0cde-780e-8dcf-e298c8dcfaf5","01990a83-7673-7c0c-a792-bbd8fbbaf673","2025-09-02_09h27.23.981",NA,NA,1029.1978,1029.1978,1029.1978,1029.5469,NA,NA,NA,NA,NA,NA,NA,TRUE,1,0.5178,1026.1989,1029.1976,NA,NA,NA,NA,NA,90,46,0,62,62,76,1,2,63,"binary"
"5AADF83B390246E2AABDFD4E90713B2B",1,"01990a9c-0cde-780e-8dcf-e298c8dcfaf5","01990a83-7673-7c0c-a792-bbd8fbbaf673","2025-09-02_09h27.23.981",NA,NA,1032.5475,1032.5475,1032.5475,1032.8964,NA,NA,NA,NA,NA,NA,NA,TRUE,1,0.4587,1029.5484,1032.5473,NA,NA,NA,NA,NA,21,26,0,63,63,24,1,2,64,"binary"
"5AADF83B390246E2AABDFD4E90713B2B",1,"01990a9c-0cde-780e-8dcf-e298c8dcfaf5","01990a83-7673-7c0c-a792-bbd8fbbaf673","2025-09-02_09h27.23.981",NA,NA,1035.8976,1035.8976,1035.8977,1036.2475,NA,NA,NA,NA,NA,NA,NA,TRUE,1,0.5183,1032.8979,1035.8974,NA,NA,NA,NA,NA,95,33,0,64,64,79,1,2,65,"binary"
"5AADF83B390246E2AABDFD4E90713B2B",1,"01990a9c-0cde-780e-8dcf-e298c8dcfaf5","01990a83-7673-7c0c-a792-bbd8fbbaf673","2025-09-02_09h27.23.981",NA,NA,1039.2475,1039.2475,1039.2475,1039.5974,NA,NA,NA,NA,NA,NA,NA,TRUE,1,0.5469,1036.2495,1039.2474,NA,NA,NA,NA,NA,12,28,0,65,65,14,1,2,66,"binary"
"5AADF83B390246E2AABDFD4E90713B2B",1,"01990a9c-0cde-780e-8dcf-e298c8dcfaf5","01990a83-7673-7c0c-a792-bbd8fbbaf673","2025-09-02_09h27.23.981",NA,NA,1042.5975,1042.5975,1042.5975,1042.9473,NA,NA,NA,NA,NA,NA,NA,TRUE,1,0.5823,1039.5988,1042.5973,NA,NA,NA,NA,NA,45,31,0,66,66,56,1,2,67,"binary"
"5AADF83B390246E2AABDFD4E90713B2B",1,"01990a9c-0cde-780e-8dcf-e298c8dcfaf5","01990a83-7673-7c0c-a792-bbd8fbbaf673","2025-09-02_09h27.23.981",NA,NA,1045.9469,1045.9469,1045.9469,1046.2964,NA,NA,NA,NA,NA,NA,NA,TRUE,1,0.7614,1042.9493,1045.9469,NA,NA,NA,NA,NA,14,35,0,67,67,22,1,2,68,"binary"
"5AADF83B390246E2AABDFD4E90713B2B",1,"01990a9c-0cde-780e-8dcf-e298c8dcfaf5","01990a83-7673-7c0c-a792-bbd8fbbaf673","2025-09-02_09h27.23.981",NA,NA,1049.2967,1049.2967,1049.2967,1049.6472,NA,NA,NA,NA,NA,NA,NA,TRUE,1,0.7847,1046.2978,1049.2965,NA,NA,NA,NA,NA,10,30,0,68,68,10,1,2,69,"binary"
"5AADF83B390246E2AABDFD4E90713B2B",1,"01990a9c-0cde-780e-8dcf-e298c8dcfaf5","01990a83-7673-7c0c-a792-bbd8fbbaf673","2025-09-02_09h27.23.981",NA,NA,1052.6467,1052.6467,1052.6467,1052.9963,NA,NA,NA,NA,NA,NA,NA,TRUE,1,1.1707,1049.6491,1052.6467,NA,NA,NA,NA,NA,7,28,0,69,69,2,1,2,70,"binary"
"5AADF83B390246E2AABDFD4E90713B2B",1,"01990a9c-0cde-780e-8dcf-e298c8dcfaf5","01990a83-7673-7c0c-a792-bbd8fbbaf673","2025-09-02_09h27.23.981",NA,NA,1055.9972,1055.9973,1055.9973,1056.3463,NA,NA,NA,NA,NA,NA,NA,TRUE,1,1.0032,1052.9983,1055.9972,NA,NA,NA,NA,NA,12,35,0,70,70,17,1,2,71,"binary"
"5AADF83B390246E2AABDFD4E90713B2B",1,"01990a9c-0cde-780e-8dcf-e298c8dcfaf5","01990a83-7673-7c0c-a792-bbd8fbbaf673","2025-09-02_09h27.23.981",NA,NA,1059.3472,1059.3473,1059.3474,1059.697,NA,NA,NA,NA,NA,NA,NA,TRUE,1,1.3832,1056.3481,1059.347,NA,NA,NA,NA,NA,25,29,0,71,71,31,1,2,72,"binary"
"5AADF83B390246E2AABDFD4E90713B2B",1,"01990a9c-0cde-780e-8dcf-e298c8dcfaf5","01990a83-7673-7c0c-a792-bbd8fbbaf673","2025-09-02_09h27.23.981",NA,NA,1062.6971,1062.6971,1062.6971,1063.0469,NA,NA,NA,NA,NA,NA,NA,TRUE,1,1.2407,1059.6986,1062.697,NA,NA,NA,NA,NA,50,35,0,72,72,62,1,2,73,"binary"
"5AADF83B390246E2AABDFD4E90713B2B",1,"01990a9c-0cde-780e-8dcf-e298c8dcfaf5","01990a83-7673-7c0c-a792-bbd8fbbaf673","2025-09-02_09h27.23.981",NA,NA,1066.047,1066.0471,1066.0471,1066.397,NA,NA,NA,NA,NA,NA,NA,TRUE,1,0.8835,1063.0483,1066.0469,NA,NA,NA,NA,NA,150,33,0,73,73,91,1,2,74,"binary"
"5AADF83B390246E2AABDFD4E90713B2B",1,"01990a9c-0cde-780e-8dcf-e298c8dcfaf5","01990a83-7673-7c0c-a792-bbd8fbbaf673","2025-09-02_09h27.23.981",NA,NA,1069.3972,1069.3972,1069.3972,1069.7469,NA,NA,NA,NA,NA,NA,NA,TRUE,1,1.4316,1066.3986,1069.397,NA,NA,NA,NA,NA,28,35,0,74,74,39,1,2,75,"binary"
"5AADF83B390246E2AABDFD4E90713B2B",1,"01990a9c-0cde-780e-8dcf-e298c8dcfaf5","01990a83-7673-7c0c-a792-bbd8fbbaf673","2025-09-02_09h27.23.981",NA,NA,1072.7469,1072.747,1072.747,1073.0969,NA,NA,NA,NA,NA,NA,NA,TRUE,1,1.6323,1069.7487,1072.7468,NA,NA,NA,NA,NA,100,54,0,75,75,89,1,2,76,"binary"
"5AADF83B390246E2AABDFD4E90713B2B",1,"01990a9c-0cde-780e-8dcf-e298c8dcfaf5","01990a83-7673-7c0c-a792-bbd8fbbaf673","2025-09-02_09h27.23.981",NA,NA,1076.0962,1076.0963,1076.0963,1076.4468,NA,NA,NA,NA,NA,NA,NA,TRUE,1,1.082,1073.0985,1076.0962,NA,NA,NA,NA,NA,25,33,0,76,76,33,1,2,77,"binary"
"5AADF83B390246E2AABDFD4E90713B2B",1,"01990a9c-0cde-780e-8dcf-e298c8dcfaf5","01990a83-7673-7c0c-a792-bbd8fbbaf673","2025-09-02_09h27.23.981",NA,NA,1079.4461,1079.4461,1079.4461,1079.7963,NA,NA,NA,NA,NA,NA,NA,TRUE,1,1.0123,1076.4487,1079.446,NA,NA,NA,NA,NA,7,25,0,77,77,0,1,2,78,"binary"
"5AADF83B390246E2AABDFD4E90713B2B",1,"01990a9c-0cde-780e-8dcf-e298c8dcfaf5","01990a83-7673-7c0c-a792-bbd8fbbaf673","2025-09-02_09h27.23.981",NA,NA,1082.7967,1082.7968,1082.7968,1083.1467,NA,NA,NA,NA,NA,NA,NA,TRUE,1,0.6272,1079.7983,1082.7967,NA,NA,NA,NA,NA,12,26,0,78,78,13,1,2,79,"binary"
"5AADF83B390246E2AABDFD4E90713B2B",1,"01990a9c-0cde-780e-8dcf-e298c8dcfaf5","01990a83-7673-7c0c-a792-bbd8fbbaf673","2025-09-02_09h27.23.981",NA,NA,1086.147,1086.147,1086.1471,1086.496,NA,NA,NA,NA,NA,NA,NA,TRUE,1,1.1945,1083.1486,1086.1469,NA,NA,NA,NA,NA,90,54,0,79,79,77,1,2,80,"binary"
"5AADF83B390246E2AABDFD4E90713B2B",1,"01990a9c-0cde-780e-8dcf-e298c8dcfaf5","01990a83-7673-7c0c-a792-bbd8fbbaf673","2025-09-02_09h27.23.981",NA,NA,1089.4967,1089.4968,1089.4968,1089.8466,NA,NA,NA,NA,NA,NA,NA,TRUE,1,0.6912,1086.4974,1089.4967,NA,NA,NA,NA,NA,200,28,0,80,80,103,1,2,81,"binary"
"5AADF83B390246E2AABDFD4E90713B2B",1,"01990a9c-0cde-780e-8dcf-e298c8dcfaf5","01990a83-7673-7c0c-a792-bbd8fbbaf673","2025-09-02_09h27.23.981",NA,NA,1092.8469,1092.847,1092.847,1093.1964,NA,NA,NA,NA,NA,NA,NA,TRUE,1,0.6836,1089.8486,1092.8468,NA,NA,NA,NA,NA,40,35,0,81,81,50,1,2,82,"binary"
"5AADF83B390246E2AABDFD4E90713B2B",1,"01990a9c-0cde-780e-8dcf-e298c8dcfaf5","01990a83-7673-7c0c-a792-bbd8fbbaf673","2025-09-02_09h27.23.981",NA,NA,1096.1961,1096.1962,1096.1962,1096.5465,NA,NA,NA,NA,NA,NA,NA,TRUE,1,0.7169,1093.1979,1096.196,NA,NA,NA,NA,NA,100,46,0,82,82,88,1,2,83,"binary"
"5AADF83B390246E2AABDFD4E90713B2B",1,"01990a9c-0cde-780e-8dcf-e298c8dcfaf5","01990a83-7673-7c0c-a792-bbd8fbbaf673","2025-09-02_09h27.23.981",NA,NA,1099.5468,1099.5468,1099.5468,1099.8964,NA,NA,NA,NA,NA,NA,NA,TRUE,1,0.3316,1096.5479,1099.5466,NA,NA,NA,NA,NA,60,54,0,83,83,71,1,2,84,"binary"
"5AADF83B390246E2AABDFD4E90713B2B",1,"01990a9c-0cde-780e-8dcf-e298c8dcfaf5","01990a83-7673-7c0c-a792-bbd8fbbaf673","2025-09-02_09h27.23.981",NA,NA,1102.8965,1102.8966,1102.8966,1103.2464,NA,NA,NA,NA,NA,NA,NA,TRUE,1,0.367,1099.8979,1102.8964,NA,NA,NA,NA,NA,180,31,0,84,84,97,1,2,85,"binary"
"5AADF83B390246E2AABDFD4E90713B2B",1,"01990a9c-0cde-780e-8dcf-e298c8dcfaf5","01990a83-7673-7c0c-a792-bbd8fbbaf673","2025-09-02_09h27.23.981",NA,NA,1106.2466,1106.2466,1106.2466,1106.5964,NA,NA,NA,NA,NA,NA,NA,TRUE,1,0.4014,1103.2478,1106.2464,NA,NA,NA,NA,NA,12,25,0,85,85,12,1,2,86,"binary"
"5AADF83B390246E2AABDFD4E90713B2B",1,"01990a9c-0cde-780e-8dcf-e298c8dcfaf5","01990a83-7673-7c0c-a792-bbd8fbbaf673","2025-09-02_09h27.23.981",NA,NA,1109.5965,1109.5965,1109.5966,1109.9464,NA,NA,NA,NA,NA,NA,NA,TRUE,1,0.6548,1106.5984,1109.5964,NA,NA,NA,NA,NA,95,31,0,86,86,78,1,2,87,"binary"
"5AADF83B390246E2AABDFD4E90713B2B",1,"01990a9c-0cde-780e-8dcf-e298c8dcfaf5","01990a83-7673-7c0c-a792-bbd8fbbaf673","2025-09-02_09h27.23.981",NA,NA,1112.9462,1112.9464,1112.9464,1113.2963,NA,NA,NA,NA,NA,NA,NA,TRUE,1,0.324,1109.9477,1112.9462,NA,NA,NA,NA,NA,14,26,0,87,87,19,1,2,88,"binary"
"5AADF83B390246E2AABDFD4E90713B2B",1,"01990a9c-0cde-780e-8dcf-e298c8dcfaf5","01990a83-7673-7c0c-a792-bbd8fbbaf673","2025-09-02_09h27.23.981",NA,NA,1116.2963,1116.2963,1116.2964,1116.6457,NA,NA,NA,NA,NA,NA,NA,TRUE,1,1.7466,1113.2981,1116.2962,NA,NA,NA,NA,NA,150,40,0,88,88,93,1,2,89,"binary"
"5AADF83B390246E2AABDFD4E90713B2B",1,"01990a9c-0cde-780e-8dcf-e298c8dcfaf5","01990a83-7673-7c0c-a792-bbd8fbbaf673","2025-09-02_09h27.23.981",NA,NA,1119.6464,1119.6464,1119.6464,1119.996,NA,NA,NA,NA,NA,NA,NA,TRUE,1,0.6321,1116.6475,1119.6463,NA,NA,NA,NA,NA,25,35,0,89,89,34,1,2,90,"binary"
"5AADF83B390246E2AABDFD4E90713B2B",1,"01990a9c-0cde-780e-8dcf-e298c8dcfaf5","01990a83-7673-7c0c-a792-bbd8fbbaf673","2025-09-02_09h27.23.981",NA,NA,1122.9962,1122.9962,1122.9963,1123.3453,NA,NA,NA,NA,NA,NA,NA,TRUE,1,0.6672,1119.9979,1122.9961,NA,NA,NA,NA,NA,90,26,0,90,90,72,1,2,91,"binary"
"5AADF83B390246E2AABDFD4E90713B2B",1,"01990a9c-0cde-780e-8dcf-e298c8dcfaf5","01990a83-7673-7c0c-a792-bbd8fbbaf673","2025-09-02_09h27.23.981",NA,NA,1126.3461,1126.3462,1126.3463,1126.696,NA,NA,NA,NA,NA,NA,NA,TRUE,1,0.7857,1123.3472,1126.346,NA,NA,NA,NA,NA,10,26,0,91,91,7,1,2,92,"binary"
"5AADF83B390246E2AABDFD4E90713B2B",1,"01990a9c-0cde-780e-8dcf-e298c8dcfaf5","01990a83-7673-7c0c-a792-bbd8fbbaf673","2025-09-02_09h27.23.981",NA,NA,1129.6958,1129.6958,1129.6958,1130.0461,NA,NA,NA,NA,NA,NA,NA,TRUE,1,2.3335,1126.6975,1129.6956,NA,NA,NA,NA,NA,180,39,0,92,92,99,1,2,93,"binary"
"5AADF83B390246E2AABDFD4E90713B2B",1,"01990a9c-0cde-780e-8dcf-e298c8dcfaf5","01990a83-7673-7c0c-a792-bbd8fbbaf673","2025-09-02_09h27.23.981",NA,NA,1133.046,1133.046,1133.0461,1133.3962,NA,NA,NA,NA,NA,NA,NA,TRUE,1,2.1745,1130.0482,1133.0459,NA,NA,NA,NA,NA,60,47,0,93,93,70,1,2,94,"binary"
"5AADF83B390246E2AABDFD4E90713B2B",1,"01990a9c-0cde-780e-8dcf-e298c8dcfaf5","01990a83-7673-7c0c-a792-bbd8fbbaf673","2025-09-02_09h27.23.981",NA,NA,1136.396,1136.396,1136.396,1136.746,NA,NA,NA,NA,NA,NA,NA,TRUE,1,1.7356,1133.398,1136.3959,NA,NA,NA,NA,NA,200,26,0,94,94,102,1,2,95,"binary"
"5AADF83B390246E2AABDFD4E90713B2B",1,"01990a9c-0cde-780e-8dcf-e298c8dcfaf5","01990a83-7673-7c0c-a792-bbd8fbbaf673","2025-09-02_09h27.23.981",NA,NA,1139.7456,1139.7456,1139.7456,1140.0958,NA,NA,NA,NA,NA,NA,NA,TRUE,1,1.4462,1136.7479,1139.7455,NA,NA,NA,NA,NA,21,38,0,95,95,29,1,2,96,"binary"
"5AADF83B390246E2AABDFD4E90713B2B",1,"01990a9c-0cde-780e-8dcf-e298c8dcfaf5","01990a83-7673-7c0c-a792-bbd8fbbaf673","2025-09-02_09h27.23.981",NA,NA,1143.0959,1143.0961,1143.0961,1143.4453,NA,NA,NA,NA,NA,NA,NA,TRUE,1,1.0326,1140.0972,1143.0958,NA,NA,NA,NA,NA,180,46,0,96,96,100,1,2,97,"binary"
"5AADF83B390246E2AABDFD4E90713B2B",1,"01990a9c-0cde-780e-8dcf-e298c8dcfaf5","01990a83-7673-7c0c-a792-bbd8fbbaf673","2025-09-02_09h27.23.981",NA,NA,1146.4453,1146.4454,1146.4454,1146.7958,NA,NA,NA,NA,NA,NA,NA,TRUE,1,0.6325,1143.4467,1146.4453,NA,NA,NA,NA,NA,50,46,0,97,97,64,1,2,98,"binary"
"5AADF83B390246E2AABDFD4E90713B2B",1,"01990a9c-0cde-780e-8dcf-e298c8dcfaf5","01990a83-7673-7c0c-a792-bbd8fbbaf673","2025-09-02_09h27.23.981",NA,NA,1149.796,1149.796,1149.796,1150.1457,NA,NA,NA,NA,NA,NA,NA,TRUE,1,0.4224,1146.7979,1149.7959,NA,NA,NA,NA,NA,28,32,0,98,98,38,1,2,99,"binary"
"5AADF83B390246E2AABDFD4E90713B2B",1,"01990a9c-0cde-780e-8dcf-e298c8dcfaf5","01990a83-7673-7c0c-a792-bbd8fbbaf673","2025-09-02_09h27.23.981",NA,NA,1153.1459,1153.1459,1153.1459,1153.4953,NA,NA,NA,NA,NA,NA,NA,TRUE,1,0.5851,1150.1472,1153.1457,NA,NA,NA,NA,NA,12,31,0,99,99,15,1,2,100,"binary"
"5AADF83B390246E2AABDFD4E90713B2B",1,"01990a9c-0cde-780e-8dcf-e298c8dcfaf5","01990a83-7673-7c0c-a792-bbd8fbbaf673","2025-09-02_09h27.23.981",NA,NA,1156.4949,1156.495,1156.495,1156.8456,NA,NA,NA,NA,NA,NA,NA,TRUE,1,0.2562,1153.4968,1156.4948,NA,NA,NA,NA,NA,7,32,0,100,100,4,1,2,101,"binary"
"5AADF83B390246E2AABDFD4E90713B2B",1,"01990a9c-0cde-780e-8dcf-e298c8dcfaf5","01990a83-7673-7c0c-a792-bbd8fbbaf673","2025-09-02_09h27.23.981",NA,NA,1159.8456,1159.8457,1159.8457,1160.1958,NA,NA,NA,NA,NA,NA,NA,TRUE,1,0.4049,1156.847,1159.8455,NA,NA,NA,NA,NA,30,30,0,101,101,45,1,2,102,"binary"
"5AADF83B390246E2AABDFD4E90713B2B",1,"01990a9c-0cde-780e-8dcf-e298c8dcfaf5","01990a83-7673-7c0c-a792-bbd8fbbaf673","2025-09-02_09h27.23.981",NA,NA,1163.1951,1163.1951,1163.1951,1163.545,NA,NA,NA,NA,NA,NA,NA,TRUE,1,0.349,1160.1978,1163.195,NA,NA,NA,NA,NA,7,35,0,102,102,5,1,2,103,"binary"
"5AADF83B390246E2AABDFD4E90713B2B",1,"01990a9c-0cde-780e-8dcf-e298c8dcfaf5","01990a83-7673-7c0c-a792-bbd8fbbaf673","2025-09-02_09h27.23.981",NA,NA,1166.5455,1166.5455,1166.5455,1166.8946,NA,NA,NA,NA,NA,NA,NA,TRUE,1,0.1816,1163.5467,1166.5454,NA,NA,NA,NA,NA,28,46,0,103,103,41,1,2,104,"binary"
"5AADF83B390246E2AABDFD4E90713B2B",1,"01990a9c-0cde-780e-8dcf-e298c8dcfaf5","01990a83-7673-7c0c-a792-bbd8fbbaf673","2025-09-02_09h27.23.981",NA,NA,1169.8951,1169.8951,1169.8951,1170.2454,NA,NA,NA,NA,NA,NA,NA,TRUE,1,0.4829,1166.8966,1169.8949,NA,NA,NA,NA,NA,95,47,0,104,104,82,1,2,105,"binary"
"5AADF83B390246E2AABDFD4E90713B2B",1,"01990a9c-0cde-780e-8dcf-e298c8dcfaf5","01990a83-7673-7c0c-a792-bbd8fbbaf673","2025-09-02_09h27.23.981",NA,NA,1173.2445,1173.2445,1173.2445,1173.5954,NA,NA,NA,NA,NA,NA,NA,TRUE,1,0.3353,1170.2468,1173.2444,NA,NA,NA,NA,NA,25,46,0,105,105,35,1,2,106,"binary"
"5AADF83B390246E2AABDFD4E90713B2B",1,"01990a9c-0cde-780e-8dcf-e298c8dcfaf5","01990a83-7673-7c0c-a792-bbd8fbbaf673","2025-09-02_09h27.23.981",NA,NA,1176.5954,1176.5954,1176.5954,1176.9454,NA,NA,NA,NA,NA,NA,NA,TRUE,1,0.2835,1173.5967,1176.5953,NA,NA,NA,NA,NA,14,25,0,106,106,18,1,2,107,"binary"
"5AADF83B390246E2AABDFD4E90713B2B",1,"01990a9c-0cde-780e-8dcf-e298c8dcfaf5","01990a83-7673-7c0c-a792-bbd8fbbaf673","2025-09-02_09h27.23.981",NA,NA,1179.9455,1179.9457,1179.9457,1180.2953,NA,NA,NA,NA,NA,NA,NA,TRUE,1,0.2331,1176.9474,1179.9453,NA,NA,NA,NA,NA,90,40,0,107,107,75,1,2,108,"binary"
