"participant","session","assignmentId","projectId","date","practiceTrial.started","practiceTrial.stopped","tooLate.started","tooLate.stopped","blank.started","blank.stopped","trials_pract.thisRepN","trials_pract.thisTrialN","trials_pract.thisN","trials_pract.thisIndex","trials_pract.ran","delay_pract","amount_pract","responseMade","key","rt","trial.started","trial.stopped","trials.thisRepN","trials.thisTrialN","trials.thisN","trials.thisIndex","trials.ran","delay","amount","trials_2.thisRepN","trials_2.thisTrialN","trials_2.thisN","trials_2.thisIndex","trials_2.ran","block","trial","taskType"
"5BEA0D28B2504B58AF4CA418A3D38773",1,"0198f780-7db8-7e68-8698-ec7d0ad74d7e","0198f767-55c9-7875-8d21-563b3c0b86ed","2025-08-29_13h24.29.843",43.6069,46.6027,46.603,46.8251,46.8252,46.8968,0,0,0,1,1,100,50,FALSE,NA,NA,NA,NA,NA,NA,NA,NA,NA,NA,NA,NA,NA,NA,NA,NA,0,1,"binary"
"5BEA0D28B2504B58AF4CA418A3D38773",1,"0198f780-7db8-7e68-8698-ec7d0ad74d7e","0198f767-55c9-7875-8d21-563b3c0b86ed","2025-08-29_13h24.29.843",46.8979,49.8973,49.8974,49.8974,49.8974,50.2586,0,1,1,3,1,3,27,TRUE,1,2.163,NA,NA,NA,NA,NA,NA,NA,NA,NA,NA,NA,NA,NA,NA,0,2,"binary"
"5BEA0D28B2504B58AF4CA418A3D38773",1,"0198f780-7db8-7e68-8698-ec7d0ad74d7e","0198f767-55c9-7875-8d21-563b3c0b86ed","2025-08-29_13h24.29.843",50.2595,53.2777,53.2777,53.2778,53.2778,53.6378,0,2,2,0,1,7,30,TRUE,1,1.8178,NA,NA,NA,NA,NA,NA,NA,NA,NA,NA,NA,NA,NA,NA,0,3,"binary"
"5BEA0D28B2504B58AF4CA418A3D38773",1,"0198f780-7db8-7e68-8698-ec7d0ad74d7e","0198f767-55c9-7875-8d21-563b3c0b86ed","2025-08-29_13h24.29.843",53.6388,56.5937,56.5937,56.5938,56.5938,56.9635,0,3,3,4,1,30,40,TRUE,1,1.7591,NA,NA,NA,NA,NA,NA,NA,NA,NA,NA,NA,NA,NA,NA,0,4,"binary"
"5BEA0D28B2504B58AF4CA418A3D38773",1,"0198f780-7db8-7e68-8698-ec7d0ad74d7e","0198f767-55c9-7875-8d21-563b3c0b86ed","2025-08-29_13h24.29.843",56.9644,59.9356,59.9357,59.9358,59.9358,60.3085,0,4,4,2,1,14,45,TRUE,2,2.0519,NA,NA,NA,NA,NA,NA,NA,NA,NA,NA,NA,NA,NA,NA,0,5,"binary"
"5BEA0D28B2504B58AF4CA418A3D38773",1,"0198f780-7db8-7e68-8698-ec7d0ad74d7e","0198f767-55c9-7875-8d21-563b3c0b86ed","2025-08-29_13h24.29.843",NA,NA,183.5456,183.5457,183.5458,183.9363,NA,NA,NA,NA,NA,NA,NA,TRUE,1,1.4749,180.6218,183.5454,0,0,0,1,1,7,26,NA,NA,NA,NA,NA,1,1,"binary"
"5BEA0D28B2504B58AF4CA418A3D38773",1,"0198f780-7db8-7e68-8698-ec7d0ad74d7e","0198f767-55c9-7875-8d21-563b3c0b86ed","2025-08-29_13h24.29.843",NA,NA,186.9183,186.9183,186.9183,187.3149,NA,NA,NA,NA,NA,NA,NA,TRUE,1,1.2171,183.9384,186.9183,0,1,1,55,1,45,29,NA,NA,NA,NA,NA,1,2,"binary"
"5BEA0D28B2504B58AF4CA418A3D38773",1,"0198f780-7db8-7e68-8698-ec7d0ad74d7e","0198f767-55c9-7875-8d21-563b3c0b86ed","2025-08-29_13h24.29.843",NA,NA,190.2717,190.2718,190.2718,190.5908,NA,NA,NA,NA,NA,NA,NA,TRUE,1,1.148,187.3158,190.2717,0,2,2,6,1,10,25,NA,NA,NA,NA,NA,1,3,"binary"
"5BEA0D28B2504B58AF4CA418A3D38773",1,"0198f780-7db8-7e68-8698-ec7d0ad74d7e","0198f767-55c9-7875-8d21-563b3c0b86ed","2025-08-29_13h24.29.843",NA,NA,193.6229,193.6229,193.6229,193.9388,NA,NA,NA,NA,NA,NA,NA,TRUE,1,1.4935,190.5919,193.6227,0,3,3,29,1,21,38,NA,NA,NA,NA,NA,1,4,"binary"
"5BEA0D28B2504B58AF4CA418A3D38773",1,"0198f780-7db8-7e68-8698-ec7d0ad74d7e","0198f767-55c9-7875-8d21-563b3c0b86ed","2025-08-29_13h24.29.843",NA,NA,196.9797,196.9797,196.9797,197.2963,NA,NA,NA,NA,NA,NA,NA,TRUE,2,1.6621,193.94,196.9796,0,4,4,21,1,14,32,NA,NA,NA,NA,NA,1,5,"binary"
"5BEA0D28B2504B58AF4CA418A3D38773",1,"0198f780-7db8-7e68-8698-ec7d0ad74d7e","0198f767-55c9-7875-8d21-563b3c0b86ed","2025-08-29_13h24.29.843",NA,NA,200.3348,200.3349,200.3349,200.6452,NA,NA,NA,NA,NA,NA,NA,TRUE,1,2.2935,197.2971,200.3348,0,5,5,27,1,21,30,NA,NA,NA,NA,NA,1,6,"binary"
"5BEA0D28B2504B58AF4CA418A3D38773",1,"0198f780-7db8-7e68-8698-ec7d0ad74d7e","0198f767-55c9-7875-8d21-563b3c0b86ed","2025-08-29_13h24.29.843",NA,NA,203.6921,203.6921,203.6922,204.0166,NA,NA,NA,NA,NA,NA,NA,TRUE,2,1.7416,200.646,203.692,0,6,6,22,1,14,35,NA,NA,NA,NA,NA,1,7,"binary"
"5BEA0D28B2504B58AF4CA418A3D38773",1,"0198f780-7db8-7e68-8698-ec7d0ad74d7e","0198f767-55c9-7875-8d21-563b3c0b86ed","2025-08-29_13h24.29.843",NA,NA,207.0183,207.0183,207.0183,207.41,NA,NA,NA,NA,NA,NA,NA,TRUE,1,1.5622,204.0174,207.0182,0,7,7,13,1,12,26,NA,NA,NA,NA,NA,1,8,"binary"
"5BEA0D28B2504B58AF4CA418A3D38773",1,"0198f780-7db8-7e68-8698-ec7d0ad74d7e","0198f767-55c9-7875-8d21-563b3c0b86ed","2025-08-29_13h24.29.843",NA,NA,210.3468,210.3468,210.3468,210.7524,NA,NA,NA,NA,NA,NA,NA,TRUE,2,1.7967,207.4109,210.3467,0,8,8,76,1,90,46,NA,NA,NA,NA,NA,1,9,"binary"
"5BEA0D28B2504B58AF4CA418A3D38773",1,"0198f780-7db8-7e68-8698-ec7d0ad74d7e","0198f767-55c9-7875-8d21-563b3c0b86ed","2025-08-29_13h24.29.843",NA,NA,213.7103,213.7103,213.7103,214.0335,NA,NA,NA,NA,NA,NA,NA,TRUE,1,1.7256,210.7533,213.7102,0,9,9,62,1,50,35,NA,NA,NA,NA,NA,1,10,"binary"
"5BEA0D28B2504B58AF4CA418A3D38773",1,"0198f780-7db8-7e68-8698-ec7d0ad74d7e","0198f767-55c9-7875-8d21-563b3c0b86ed","2025-08-29_13h24.29.843",NA,NA,217.0323,217.0323,217.0323,217.4202,NA,NA,NA,NA,NA,NA,NA,TRUE,1,1.3916,214.0342,217.0322,0,10,10,20,1,14,28,NA,NA,NA,NA,NA,1,11,"binary"
"5BEA0D28B2504B58AF4CA418A3D38773",1,"0198f780-7db8-7e68-8698-ec7d0ad74d7e","0198f767-55c9-7875-8d21-563b3c0b86ed","2025-08-29_13h24.29.843",NA,NA,220.3964,220.3965,220.3965,220.7715,NA,NA,NA,NA,NA,NA,NA,TRUE,1,1.1626,217.4211,220.3963,0,11,11,84,1,100,26,NA,NA,NA,NA,NA,1,12,"binary"
"5BEA0D28B2504B58AF4CA418A3D38773",1,"0198f780-7db8-7e68-8698-ec7d0ad74d7e","0198f767-55c9-7875-8d21-563b3c0b86ed","2025-08-29_13h24.29.843",NA,NA,223.734,223.734,223.734,224.1403,NA,NA,NA,NA,NA,NA,NA,TRUE,2,1.2478,220.7727,223.734,0,12,12,35,1,25,46,NA,NA,NA,NA,NA,1,13,"binary"
"5BEA0D28B2504B58AF4CA418A3D38773",1,"0198f780-7db8-7e68-8698-ec7d0ad74d7e","0198f767-55c9-7875-8d21-563b3c0b86ed","2025-08-29_13h24.29.843",NA,NA,227.1034,227.1034,227.1034,227.4958,NA,NA,NA,NA,NA,NA,NA,TRUE,1,0.8335,224.1412,227.1032,0,13,13,7,1,10,26,NA,NA,NA,NA,NA,1,14,"binary"
"5BEA0D28B2504B58AF4CA418A3D38773",1,"0198f780-7db8-7e68-8698-ec7d0ad74d7e","0198f767-55c9-7875-8d21-563b3c0b86ed","2025-08-29_13h24.29.843",NA,NA,230.4443,230.6903,230.6903,230.8509,NA,NA,NA,NA,NA,NA,NA,FALSE,NA,NA,227.4968,230.4443,0,14,14,39,1,28,35,NA,NA,NA,NA,NA,1,15,"binary"
"5BEA0D28B2504B58AF4CA418A3D38773",1,"0198f780-7db8-7e68-8698-ec7d0ad74d7e","0198f767-55c9-7875-8d21-563b3c0b86ed","2025-08-29_13h24.29.843",NA,NA,233.8329,233.8329,233.8329,234.1412,NA,NA,NA,NA,NA,NA,NA,TRUE,2,1.5128,230.8518,233.8328,0,15,15,63,1,50,40,NA,NA,NA,NA,NA,1,16,"binary"
"5BEA0D28B2504B58AF4CA418A3D38773",1,"0198f780-7db8-7e68-8698-ec7d0ad74d7e","0198f767-55c9-7875-8d21-563b3c0b86ed","2025-08-29_13h24.29.843",NA,NA,237.2136,237.2136,237.2136,237.5263,NA,NA,NA,NA,NA,NA,NA,TRUE,1,0.7154,234.1421,237.2136,0,16,16,37,1,28,28,NA,NA,NA,NA,NA,1,17,"binary"
"5BEA0D28B2504B58AF4CA418A3D38773",1,"0198f780-7db8-7e68-8698-ec7d0ad74d7e","0198f767-55c9-7875-8d21-563b3c0b86ed","2025-08-29_13h24.29.843",NA,NA,240.5299,240.5299,240.5299,240.8554,NA,NA,NA,NA,NA,NA,NA,TRUE,1,1.1536,237.5271,240.5299,0,17,17,47,1,30,38,NA,NA,NA,NA,NA,1,18,"binary"
"5BEA0D28B2504B58AF4CA418A3D38773",1,"0198f780-7db8-7e68-8698-ec7d0ad74d7e","0198f767-55c9-7875-8d21-563b3c0b86ed","2025-08-29_13h24.29.843",NA,NA,243.8669,243.8669,243.8669,244.2545,NA,NA,NA,NA,NA,NA,NA,TRUE,2,0.9762,240.8563,243.8668,0,18,18,5,1,7,35,NA,NA,NA,NA,NA,1,19,"binary"
"5BEA0D28B2504B58AF4CA418A3D38773",1,"0198f780-7db8-7e68-8698-ec7d0ad74d7e","0198f767-55c9-7875-8d21-563b3c0b86ed","2025-08-29_13h24.29.843",NA,NA,247.2138,247.2139,247.2139,247.5908,NA,NA,NA,NA,NA,NA,NA,TRUE,2,1.0459,244.2554,247.2138,0,19,19,53,1,40,54,NA,NA,NA,NA,NA,1,20,"binary"
"5BEA0D28B2504B58AF4CA418A3D38773",1,"0198f780-7db8-7e68-8698-ec7d0ad74d7e","0198f767-55c9-7875-8d21-563b3c0b86ed","2025-08-29_13h24.29.843",NA,NA,250.6073,250.6073,250.6073,250.9138,NA,NA,NA,NA,NA,NA,NA,TRUE,1,0.6699,247.5917,250.6072,0,20,20,3,1,7,30,NA,NA,NA,NA,NA,1,21,"binary"
"5BEA0D28B2504B58AF4CA418A3D38773",1,"0198f780-7db8-7e68-8698-ec7d0ad74d7e","0198f767-55c9-7875-8d21-563b3c0b86ed","2025-08-29_13h24.29.843",NA,NA,253.9339,253.9339,253.9339,254.2665,NA,NA,NA,NA,NA,NA,NA,TRUE,1,0.927,250.9146,253.9338,0,21,21,74,1,90,33,NA,NA,NA,NA,NA,1,22,"binary"
"5BEA0D28B2504B58AF4CA418A3D38773",1,"0198f780-7db8-7e68-8698-ec7d0ad74d7e","0198f767-55c9-7875-8d21-563b3c0b86ed","2025-08-29_13h24.29.843",NA,NA,257.2483,257.2483,257.2483,257.6415,NA,NA,NA,NA,NA,NA,NA,TRUE,1,0.8283,254.2674,257.2483,0,22,22,67,1,60,33,NA,NA,NA,NA,NA,1,23,"binary"
"5BEA0D28B2504B58AF4CA418A3D38773",1,"0198f780-7db8-7e68-8698-ec7d0ad74d7e","0198f767-55c9-7875-8d21-563b3c0b86ed","2025-08-29_13h24.29.843",NA,NA,260.6268,260.6268,260.6268,260.9447,NA,NA,NA,NA,NA,NA,NA,TRUE,2,1.5908,257.6424,260.6267,0,23,23,82,1,95,47,NA,NA,NA,NA,NA,1,24,"binary"
"5BEA0D28B2504B58AF4CA418A3D38773",1,"0198f780-7db8-7e68-8698-ec7d0ad74d7e","0198f767-55c9-7875-8d21-563b3c0b86ed","2025-08-29_13h24.29.843",NA,NA,264.027,264.027,264.027,264.3477,NA,NA,NA,NA,NA,NA,NA,TRUE,1,0.7657,260.9456,264.0269,0,24,24,28,1,21,32,NA,NA,NA,NA,NA,1,25,"binary"
"5BEA0D28B2504B58AF4CA418A3D38773",1,"0198f780-7db8-7e68-8698-ec7d0ad74d7e","0198f767-55c9-7875-8d21-563b3c0b86ed","2025-08-29_13h24.29.843",NA,NA,267.3197,267.3198,267.3198,267.6359,NA,NA,NA,NA,NA,NA,NA,TRUE,1,1.0923,264.3487,267.3197,0,25,25,33,1,25,33,NA,NA,NA,NA,NA,1,26,"binary"
"5BEA0D28B2504B58AF4CA418A3D38773",1,"0198f780-7db8-7e68-8698-ec7d0ad74d7e","0198f767-55c9-7875-8d21-563b3c0b86ed","2025-08-29_13h24.29.843",NA,NA,270.7068,270.7068,270.7068,271.0498,NA,NA,NA,NA,NA,NA,NA,TRUE,2,1.005,267.6372,270.7067,0,26,26,95,1,150,54,NA,NA,NA,NA,NA,1,27,"binary"
"5BEA0D28B2504B58AF4CA418A3D38773",1,"0198f780-7db8-7e68-8698-ec7d0ad74d7e","0198f767-55c9-7875-8d21-563b3c0b86ed","2025-08-29_13h24.29.843",NA,NA,273.991,273.991,273.991,274.3745,NA,NA,NA,NA,NA,NA,NA,TRUE,1,0.9313,271.0507,273.991,0,27,27,92,1,150,35,NA,NA,NA,NA,NA,1,28,"binary"
"5BEA0D28B2504B58AF4CA418A3D38773",1,"0198f780-7db8-7e68-8698-ec7d0ad74d7e","0198f767-55c9-7875-8d21-563b3c0b86ed","2025-08-29_13h24.29.843",NA,NA,277.36,277.36,277.36,277.6866,NA,NA,NA,NA,NA,NA,NA,TRUE,1,1.5806,274.3757,277.3599,0,28,28,48,1,40,27,NA,NA,NA,NA,NA,1,29,"binary"
"5BEA0D28B2504B58AF4CA418A3D38773",1,"0198f780-7db8-7e68-8698-ec7d0ad74d7e","0198f767-55c9-7875-8d21-563b3c0b86ed","2025-08-29_13h24.29.843",NA,NA,280.713,280.713,280.713,281.0366,NA,NA,NA,NA,NA,NA,NA,TRUE,1,0.5848,277.6876,280.7128,0,29,29,30,1,25,27,NA,NA,NA,NA,NA,1,30,"binary"
"5BEA0D28B2504B58AF4CA418A3D38773",1,"0198f780-7db8-7e68-8698-ec7d0ad74d7e","0198f767-55c9-7875-8d21-563b3c0b86ed","2025-08-29_13h24.29.843",NA,NA,284.0542,284.0542,284.0542,284.4463,NA,NA,NA,NA,NA,NA,NA,TRUE,1,1.1304,281.0375,284.0541,0,30,30,86,1,100,38,NA,NA,NA,NA,NA,1,31,"binary"
"5BEA0D28B2504B58AF4CA418A3D38773",1,"0198f780-7db8-7e68-8698-ec7d0ad74d7e","0198f767-55c9-7875-8d21-563b3c0b86ed","2025-08-29_13h24.29.843",NA,NA,287.3913,287.3913,287.3913,287.7879,NA,NA,NA,NA,NA,NA,NA,TRUE,2,1.692,284.4478,287.3911,0,31,31,89,1,100,54,NA,NA,NA,NA,NA,1,32,"binary"
"5BEA0D28B2504B58AF4CA418A3D38773",1,"0198f780-7db8-7e68-8698-ec7d0ad74d7e","0198f767-55c9-7875-8d21-563b3c0b86ed","2025-08-29_13h24.29.843",NA,NA,290.7689,290.7689,290.7689,291.0821,NA,NA,NA,NA,NA,NA,NA,TRUE,1,0.7502,287.7888,290.7687,0,32,32,87,1,100,39,NA,NA,NA,NA,NA,1,33,"binary"
"5BEA0D28B2504B58AF4CA418A3D38773",1,"0198f780-7db8-7e68-8698-ec7d0ad74d7e","0198f767-55c9-7875-8d21-563b3c0b86ed","2025-08-29_13h24.29.843",NA,NA,294.1277,294.1277,294.1277,294.4396,NA,NA,NA,NA,NA,NA,NA,TRUE,1,0.7773,291.0831,294.1276,0,33,33,50,1,40,35,NA,NA,NA,NA,NA,1,34,"binary"
"5BEA0D28B2504B58AF4CA418A3D38773",1,"0198f780-7db8-7e68-8698-ec7d0ad74d7e","0198f767-55c9-7875-8d21-563b3c0b86ed","2025-08-29_13h24.29.843",NA,NA,297.4399,297.44,297.44,297.793,NA,NA,NA,NA,NA,NA,NA,TRUE,1,0.6424,294.4405,297.4399,0,34,34,104,1,200,35,NA,NA,NA,NA,NA,1,35,"binary"
"5BEA0D28B2504B58AF4CA418A3D38773",1,"0198f780-7db8-7e68-8698-ec7d0ad74d7e","0198f767-55c9-7875-8d21-563b3c0b86ed","2025-08-29_13h24.29.843",NA,NA,300.825,300.825,300.825,301.1339,NA,NA,NA,NA,NA,NA,NA,TRUE,2,1.162,297.7938,300.8249,0,35,35,77,1,90,54,NA,NA,NA,NA,NA,1,36,"binary"
"5BEA0D28B2504B58AF4CA418A3D38773",1,"0198f780-7db8-7e68-8698-ec7d0ad74d7e","0198f767-55c9-7875-8d21-563b3c0b86ed","2025-08-29_13h24.29.843",NA,NA,304.1698,304.1698,304.1698,304.4906,NA,NA,NA,NA,NA,NA,NA,TRUE,1,1.9673,301.1348,304.1698,0,36,36,15,1,12,31,NA,NA,NA,NA,NA,1,37,"binary"
"5BEA0D28B2504B58AF4CA418A3D38773",1,"0198f780-7db8-7e68-8698-ec7d0ad74d7e","0198f767-55c9-7875-8d21-563b3c0b86ed","2025-08-29_13h24.29.843",NA,NA,307.5122,307.5123,307.5123,307.8875,NA,NA,NA,NA,NA,NA,NA,TRUE,1,1.9871,304.4914,307.5122,0,37,37,106,1,200,47,NA,NA,NA,NA,NA,1,38,"binary"
"5BEA0D28B2504B58AF4CA418A3D38773",1,"0198f780-7db8-7e68-8698-ec7d0ad74d7e","0198f767-55c9-7875-8d21-563b3c0b86ed","2025-08-29_13h24.29.843",NA,NA,310.8628,310.8628,310.8628,311.1814,NA,NA,NA,NA,NA,NA,NA,TRUE,1,1.5902,307.8885,310.8627,0,38,38,34,1,25,35,NA,NA,NA,NA,NA,1,39,"binary"
"5BEA0D28B2504B58AF4CA418A3D38773",1,"0198f780-7db8-7e68-8698-ec7d0ad74d7e","0198f767-55c9-7875-8d21-563b3c0b86ed","2025-08-29_13h24.29.843",NA,NA,314.2469,314.247,314.247,314.5795,NA,NA,NA,NA,NA,NA,NA,TRUE,1,1.196,311.1822,314.2469,0,39,39,25,1,21,27,NA,NA,NA,NA,NA,1,40,"binary"
"5BEA0D28B2504B58AF4CA418A3D38773",1,"0198f780-7db8-7e68-8698-ec7d0ad74d7e","0198f767-55c9-7875-8d21-563b3c0b86ed","2025-08-29_13h24.29.843",NA,NA,317.5452,317.5453,317.5453,317.9238,NA,NA,NA,NA,NA,NA,NA,TRUE,1,2.3696,314.5803,317.5451,0,40,40,10,1,10,30,NA,NA,NA,NA,NA,1,41,"binary"
"5BEA0D28B2504B58AF4CA418A3D38773",1,"0198f780-7db8-7e68-8698-ec7d0ad74d7e","0198f767-55c9-7875-8d21-563b3c0b86ed","2025-08-29_13h24.29.843",NA,NA,320.898,320.898,320.898,321.2809,NA,NA,NA,NA,NA,NA,NA,TRUE,1,1.1726,317.9247,320.8979,0,41,41,79,1,95,33,NA,NA,NA,NA,NA,1,42,"binary"
"5BEA0D28B2504B58AF4CA418A3D38773",1,"0198f780-7db8-7e68-8698-ec7d0ad74d7e","0198f767-55c9-7875-8d21-563b3c0b86ed","2025-08-29_13h24.29.843",NA,NA,324.3084,324.3085,324.3085,324.6182,NA,NA,NA,NA,NA,NA,NA,TRUE,1,0.77,321.2817,324.3084,0,42,42,19,1,14,26,NA,NA,NA,NA,NA,1,43,"binary"
"5BEA0D28B2504B58AF4CA418A3D38773",1,"0198f780-7db8-7e68-8698-ec7d0ad74d7e","0198f767-55c9-7875-8d21-563b3c0b86ed","2025-08-29_13h24.29.843",NA,NA,327.6066,327.6066,327.6066,327.9902,NA,NA,NA,NA,NA,NA,NA,TRUE,1,1.0091,324.619,327.6066,0,43,43,49,1,40,33,NA,NA,NA,NA,NA,1,44,"binary"
"5BEA0D28B2504B58AF4CA418A3D38773",1,"0198f780-7db8-7e68-8698-ec7d0ad74d7e","0198f767-55c9-7875-8d21-563b3c0b86ed","2025-08-29_13h24.29.843",NA,NA,330.9685,330.9685,330.9685,331.3214,NA,NA,NA,NA,NA,NA,NA,TRUE,1,0.8098,327.9928,330.9685,0,44,44,90,1,150,31,NA,NA,NA,NA,NA,1,45,"binary"
"5BEA0D28B2504B58AF4CA418A3D38773",1,"0198f780-7db8-7e68-8698-ec7d0ad74d7e","0198f767-55c9-7875-8d21-563b3c0b86ed","2025-08-29_13h24.29.843",NA,NA,334.3315,334.3315,334.3315,334.6499,NA,NA,NA,NA,NA,NA,NA,TRUE,1,0.5023,331.3226,334.3314,0,45,45,2,1,7,28,NA,NA,NA,NA,NA,1,46,"binary"
"5BEA0D28B2504B58AF4CA418A3D38773",1,"0198f780-7db8-7e68-8698-ec7d0ad74d7e","0198f767-55c9-7875-8d21-563b3c0b86ed","2025-08-29_13h24.29.843",NA,NA,337.6501,337.6501,337.6501,338.0432,NA,NA,NA,NA,NA,NA,NA,TRUE,2,0.8117,334.6508,337.65,0,46,46,69,1,60,40,NA,NA,NA,NA,NA,1,47,"binary"
"5BEA0D28B2504B58AF4CA418A3D38773",1,"0198f780-7db8-7e68-8698-ec7d0ad74d7e","0198f767-55c9-7875-8d21-563b3c0b86ed","2025-08-29_13h24.29.843",NA,NA,341.028,341.028,341.028,341.3489,NA,NA,NA,NA,NA,NA,NA,TRUE,2,0.997,338.0442,341.0279,0,47,47,71,1,60,54,NA,NA,NA,NA,NA,1,48,"binary"
"5BEA0D28B2504B58AF4CA418A3D38773",1,"0198f780-7db8-7e68-8698-ec7d0ad74d7e","0198f767-55c9-7875-8d21-563b3c0b86ed","2025-08-29_13h24.29.843",NA,NA,344.3458,344.3458,344.3458,344.7328,NA,NA,NA,NA,NA,NA,NA,TRUE,1,1.0822,341.3499,344.3457,0,48,48,66,1,60,29,NA,NA,NA,NA,NA,1,49,"binary"
"5BEA0D28B2504B58AF4CA418A3D38773",1,"0198f780-7db8-7e68-8698-ec7d0ad74d7e","0198f767-55c9-7875-8d21-563b3c0b86ed","2025-08-29_13h24.29.843",NA,NA,347.7217,347.7218,347.7218,348.0381,NA,NA,NA,NA,NA,NA,NA,TRUE,1,0.651,344.7337,347.7216,0,49,49,45,1,30,30,NA,NA,NA,NA,NA,1,50,"binary"
"5BEA0D28B2504B58AF4CA418A3D38773",1,"0198f780-7db8-7e68-8698-ec7d0ad74d7e","0198f767-55c9-7875-8d21-563b3c0b86ed","2025-08-29_13h24.29.843",NA,NA,351.0893,351.0894,351.0894,351.4033,NA,NA,NA,NA,NA,NA,NA,TRUE,1,0.5898,348.039,351.0893,0,50,50,97,1,180,31,NA,NA,NA,NA,NA,1,51,"binary"
"5BEA0D28B2504B58AF4CA418A3D38773",1,"0198f780-7db8-7e68-8698-ec7d0ad74d7e","0198f767-55c9-7875-8d21-563b3c0b86ed","2025-08-29_13h24.29.843",NA,NA,354.4153,354.4153,354.4153,354.8044,NA,NA,NA,NA,NA,NA,NA,TRUE,1,0.57,351.4042,354.4153,0,51,51,26,1,21,29,NA,NA,NA,NA,NA,1,52,"binary"
"5BEA0D28B2504B58AF4CA418A3D38773",1,"0198f780-7db8-7e68-8698-ec7d0ad74d7e","0198f767-55c9-7875-8d21-563b3c0b86ed","2025-08-29_13h24.29.843",NA,NA,357.803,357.803,357.803,358.1188,NA,NA,NA,NA,NA,NA,NA,TRUE,2,0.8255,354.8052,357.8029,0,52,52,51,1,40,40,NA,NA,NA,NA,NA,1,53,"binary"
"5BEA0D28B2504B58AF4CA418A3D38773",1,"0198f780-7db8-7e68-8698-ec7d0ad74d7e","0198f767-55c9-7875-8d21-563b3c0b86ed","2025-08-29_13h24.29.843",NA,NA,361.0849,361.0849,361.0849,361.4883,NA,NA,NA,NA,NA,NA,NA,TRUE,1,0.7731,358.1197,361.0848,0,53,53,38,1,28,32,NA,NA,NA,NA,NA,1,54,"binary"
"5BEA0D28B2504B58AF4CA418A3D38773",1,"0198f780-7db8-7e68-8698-ec7d0ad74d7e","0198f767-55c9-7875-8d21-563b3c0b86ed","2025-08-29_13h24.29.843",NA,NA,364.4806,364.4806,364.4806,364.7872,NA,NA,NA,NA,NA,NA,NA,TRUE,1,0.7489,361.4892,364.4806,0,54,54,60,1,50,27,NA,NA,NA,NA,NA,1,55,"binary"
"5BEA0D28B2504B58AF4CA418A3D38773",1,"0198f780-7db8-7e68-8698-ec7d0ad74d7e","0198f767-55c9-7875-8d21-563b3c0b86ed","2025-08-29_13h24.29.843",NA,NA,367.8495,367.8495,367.8496,368.162,NA,NA,NA,NA,NA,NA,NA,TRUE,1,0.5122,364.788,367.8495,0,55,55,103,1,200,28,NA,NA,NA,NA,NA,1,56,"binary"
"5BEA0D28B2504B58AF4CA418A3D38773",1,"0198f780-7db8-7e68-8698-ec7d0ad74d7e","0198f767-55c9-7875-8d21-563b3c0b86ed","2025-08-29_13h24.29.843",NA,NA,371.1663,371.1663,371.1663,371.4935,NA,NA,NA,NA,NA,NA,NA,TRUE,1,0.8579,368.163,371.1663,0,56,56,80,1,95,35,NA,NA,NA,NA,NA,1,57,"binary"
"5BEA0D28B2504B58AF4CA418A3D38773",1,"0198f780-7db8-7e68-8698-ec7d0ad74d7e","0198f767-55c9-7875-8d21-563b3c0b86ed","2025-08-29_13h24.29.843",NA,NA,374.5253,374.5253,374.5253,374.8589,NA,NA,NA,NA,NA,NA,NA,TRUE,1,0.5782,371.4943,374.5252,0,57,57,40,1,28,39,NA,NA,NA,NA,NA,1,58,"binary"
"5BEA0D28B2504B58AF4CA418A3D38773",1,"0198f780-7db8-7e68-8698-ec7d0ad74d7e","0198f767-55c9-7875-8d21-563b3c0b86ed","2025-08-29_13h24.29.843",NA,NA,377.8864,377.8864,377.8864,378.204,NA,NA,NA,NA,NA,NA,NA,TRUE,1,0.7603,374.8599,377.8863,0,58,58,61,1,50,30,NA,NA,NA,NA,NA,1,59,"binary"
"5BEA0D28B2504B58AF4CA418A3D38773",1,"0198f780-7db8-7e68-8698-ec7d0ad74d7e","0198f767-55c9-7875-8d21-563b3c0b86ed","2025-08-29_13h24.29.843",NA,NA,381.1877,381.1878,381.1878,381.5806,NA,NA,NA,NA,NA,NA,NA,TRUE,1,0.6891,378.205,381.1877,0,59,59,24,1,21,26,NA,NA,NA,NA,NA,1,60,"binary"
"5BEA0D28B2504B58AF4CA418A3D38773",1,"0198f780-7db8-7e68-8698-ec7d0ad74d7e","0198f767-55c9-7875-8d21-563b3c0b86ed","2025-08-29_13h24.29.843",NA,NA,384.6167,384.6167,384.6167,384.9411,NA,NA,NA,NA,NA,NA,NA,TRUE,1,0.5172,381.5814,384.6167,0,60,60,101,1,180,54,NA,NA,NA,NA,NA,1,61,"binary"
"5BEA0D28B2504B58AF4CA418A3D38773",1,"0198f780-7db8-7e68-8698-ec7d0ad74d7e","0198f767-55c9-7875-8d21-563b3c0b86ed","2025-08-29_13h24.29.843",NA,NA,387.9038,387.9038,387.9038,388.2925,NA,NA,NA,NA,NA,NA,NA,TRUE,2,1.4875,384.942,387.9036,0,61,61,59,1,45,46,NA,NA,NA,NA,NA,1,62,"binary"
"5BEA0D28B2504B58AF4CA418A3D38773",1,"0198f780-7db8-7e68-8698-ec7d0ad74d7e","0198f767-55c9-7875-8d21-563b3c0b86ed","2025-08-29_13h24.29.843",NA,NA,391.3203,391.3203,391.3203,391.6313,NA,NA,NA,NA,NA,NA,NA,TRUE,1,0.5865,388.2935,391.3203,0,62,62,78,1,95,31,NA,NA,NA,NA,NA,1,63,"binary"
"5BEA0D28B2504B58AF4CA418A3D38773",1,"0198f780-7db8-7e68-8698-ec7d0ad74d7e","0198f767-55c9-7875-8d21-563b3c0b86ed","2025-08-29_13h24.29.843",NA,NA,394.5905,394.9112,394.9112,394.9878,NA,NA,NA,NA,NA,NA,NA,FALSE,NA,NA,391.6322,394.5904,0,63,63,94,1,150,47,NA,NA,NA,NA,NA,1,64,"binary"
"5BEA0D28B2504B58AF4CA418A3D38773",1,"0198f780-7db8-7e68-8698-ec7d0ad74d7e","0198f767-55c9-7875-8d21-563b3c0b86ed","2025-08-29_13h24.29.843",NA,NA,397.965,397.965,397.965,398.2898,NA,NA,NA,NA,NA,NA,NA,TRUE,2,1.3158,394.9887,397.9648,0,64,64,52,1,40,47,NA,NA,NA,NA,NA,1,65,"binary"
"5BEA0D28B2504B58AF4CA418A3D38773",1,"0198f780-7db8-7e68-8698-ec7d0ad74d7e","0198f767-55c9-7875-8d21-563b3c0b86ed","2025-08-29_13h24.29.843",NA,NA,401.3233,401.3234,401.3234,401.6426,NA,NA,NA,NA,NA,NA,NA,TRUE,1,0.6728,398.2906,401.3233,0,65,65,0,1,7,25,NA,NA,NA,NA,NA,1,66,"binary"
"5BEA0D28B2504B58AF4CA418A3D38773",1,"0198f780-7db8-7e68-8698-ec7d0ad74d7e","0198f767-55c9-7875-8d21-563b3c0b86ed","2025-08-29_13h24.29.843",NA,NA,404.6482,404.6482,404.6482,405.0575,NA,NA,NA,NA,NA,NA,NA,TRUE,2,2.2847,401.6435,404.6481,0,66,66,17,1,12,35,NA,NA,NA,NA,NA,1,67,"binary"
"5BEA0D28B2504B58AF4CA418A3D38773",1,"0198f780-7db8-7e68-8698-ec7d0ad74d7e","0198f767-55c9-7875-8d21-563b3c0b86ed","2025-08-29_13h24.29.843",NA,NA,407.9952,407.9952,407.9952,408.3869,NA,NA,NA,NA,NA,NA,NA,TRUE,2,1.1886,405.0583,407.9951,0,67,67,23,1,14,39,NA,NA,NA,NA,NA,1,68,"binary"
"5BEA0D28B2504B58AF4CA418A3D38773",1,"0198f780-7db8-7e68-8698-ec7d0ad74d7e","0198f767-55c9-7875-8d21-563b3c0b86ed","2025-08-29_13h24.29.843",NA,NA,411.3476,411.3476,411.3476,411.7443,NA,NA,NA,NA,NA,NA,NA,TRUE,1,1.4328,408.3876,411.3476,0,68,68,43,1,30,27,NA,NA,NA,NA,NA,1,69,"binary"
"5BEA0D28B2504B58AF4CA418A3D38773",1,"0198f780-7db8-7e68-8698-ec7d0ad74d7e","0198f767-55c9-7875-8d21-563b3c0b86ed","2025-08-29_13h24.29.843",NA,NA,414.7357,414.7358,414.7358,415.0622,NA,NA,NA,NA,NA,NA,NA,TRUE,1,2.08,411.7452,414.7357,0,69,69,57,1,45,35,NA,NA,NA,NA,NA,1,70,"binary"
"5BEA0D28B2504B58AF4CA418A3D38773",1,"0198f780-7db8-7e68-8698-ec7d0ad74d7e","0198f767-55c9-7875-8d21-563b3c0b86ed","2025-08-29_13h24.29.843",NA,NA,418.0801,418.0801,418.0801,418.4132,NA,NA,NA,NA,NA,NA,NA,TRUE,2,1.2037,415.0632,418.08,0,70,70,88,1,100,46,NA,NA,NA,NA,NA,1,71,"binary"
"5BEA0D28B2504B58AF4CA418A3D38773",1,"0198f780-7db8-7e68-8698-ec7d0ad74d7e","0198f767-55c9-7875-8d21-563b3c0b86ed","2025-08-29_13h24.29.843",NA,NA,421.4067,421.4067,421.4067,421.803,NA,NA,NA,NA,NA,NA,NA,TRUE,2,1.2308,418.4141,421.4066,0,71,71,41,1,28,46,NA,NA,NA,NA,NA,1,72,"binary"
"5BEA0D28B2504B58AF4CA418A3D38773",1,"0198f780-7db8-7e68-8698-ec7d0ad74d7e","0198f767-55c9-7875-8d21-563b3c0b86ed","2025-08-29_13h24.29.843",NA,NA,424.7934,424.7934,424.7934,425.1234,NA,NA,NA,NA,NA,NA,NA,TRUE,1,0.9081,421.804,424.7933,0,72,72,44,1,30,29,NA,NA,NA,NA,NA,1,73,"binary"
"5BEA0D28B2504B58AF4CA418A3D38773",1,"0198f780-7db8-7e68-8698-ec7d0ad74d7e","0198f767-55c9-7875-8d21-563b3c0b86ed","2025-08-29_13h24.29.843",NA,NA,428.1424,428.1425,428.1425,428.469,NA,NA,NA,NA,NA,NA,NA,TRUE,1,0.8386,425.1242,428.1424,0,73,73,105,1,200,39,NA,NA,NA,NA,NA,1,74,"binary"
"5BEA0D28B2504B58AF4CA418A3D38773",1,"0198f780-7db8-7e68-8698-ec7d0ad74d7e","0198f767-55c9-7875-8d21-563b3c0b86ed","2025-08-29_13h24.29.843",NA,NA,431.4989,431.4989,431.4989,431.8169,NA,NA,NA,NA,NA,NA,NA,TRUE,2,0.9265,428.4698,431.4988,0,74,74,64,1,50,46,NA,NA,NA,NA,NA,1,75,"binary"
"5BEA0D28B2504B58AF4CA418A3D38773",1,"0198f780-7db8-7e68-8698-ec7d0ad74d7e","0198f767-55c9-7875-8d21-563b3c0b86ed","2025-08-29_13h24.29.843",NA,NA,434.8452,434.8452,434.8452,435.1705,NA,NA,NA,NA,NA,NA,NA,TRUE,1,0.7653,431.8178,434.8451,0,75,75,96,1,180,27,NA,NA,NA,NA,NA,1,76,"binary"
"5BEA0D28B2504B58AF4CA418A3D38773",1,"0198f780-7db8-7e68-8698-ec7d0ad74d7e","0198f767-55c9-7875-8d21-563b3c0b86ed","2025-08-29_13h24.29.843",NA,NA,438.1796,438.1796,438.1796,438.5004,NA,NA,NA,NA,NA,NA,NA,TRUE,1,0.6978,435.1714,438.1796,0,76,76,99,1,180,39,NA,NA,NA,NA,NA,1,77,"binary"
"5BEA0D28B2504B58AF4CA418A3D38773",1,"0198f780-7db8-7e68-8698-ec7d0ad74d7e","0198f767-55c9-7875-8d21-563b3c0b86ed","2025-08-29_13h24.29.843",NA,NA,441.5584,441.5585,441.5585,441.8732,NA,NA,NA,NA,NA,NA,NA,TRUE,1,1.5721,438.5013,441.5584,0,77,77,68,1,60,35,NA,NA,NA,NA,NA,1,78,"binary"
"5BEA0D28B2504B58AF4CA418A3D38773",1,"0198f780-7db8-7e68-8698-ec7d0ad74d7e","0198f767-55c9-7875-8d21-563b3c0b86ed","2025-08-29_13h24.29.843",NA,NA,444.8857,444.8857,444.8857,445.2092,NA,NA,NA,NA,NA,NA,NA,TRUE,1,0.7552,441.8741,444.8857,0,78,78,42,1,30,26,NA,NA,NA,NA,NA,1,79,"binary"
"5BEA0D28B2504B58AF4CA418A3D38773",1,"0198f780-7db8-7e68-8698-ec7d0ad74d7e","0198f767-55c9-7875-8d21-563b3c0b86ed","2025-08-29_13h24.29.843",NA,NA,448.2084,448.2084,448.2084,448.5974,NA,NA,NA,NA,NA,NA,NA,TRUE,1,1.0846,445.2105,448.2084,0,79,79,14,1,12,28,NA,NA,NA,NA,NA,1,80,"binary"
"5BEA0D28B2504B58AF4CA418A3D38773",1,"0198f780-7db8-7e68-8698-ec7d0ad74d7e","0198f767-55c9-7875-8d21-563b3c0b86ed","2025-08-29_13h24.29.843",NA,NA,451.5726,451.5726,451.5726,451.9224,NA,NA,NA,NA,NA,NA,NA,TRUE,2,1.014,448.5983,451.5725,0,80,80,100,1,180,46,NA,NA,NA,NA,NA,1,81,"binary"
"5BEA0D28B2504B58AF4CA418A3D38773",1,"0198f780-7db8-7e68-8698-ec7d0ad74d7e","0198f767-55c9-7875-8d21-563b3c0b86ed","2025-08-29_13h24.29.843",NA,NA,454.9352,454.9352,454.9352,455.2511,NA,NA,NA,NA,NA,NA,NA,TRUE,2,0.683,451.9235,454.9352,0,81,81,75,1,90,40,NA,NA,NA,NA,NA,1,82,"binary"
"5BEA0D28B2504B58AF4CA418A3D38773",1,"0198f780-7db8-7e68-8698-ec7d0ad74d7e","0198f767-55c9-7875-8d21-563b3c0b86ed","2025-08-29_13h24.29.843",NA,NA,458.2698,458.2698,458.2698,458.6529,NA,NA,NA,NA,NA,NA,NA,TRUE,2,1.2313,455.2519,458.2696,0,82,82,81,1,95,40,NA,NA,NA,NA,NA,1,83,"binary"
"5BEA0D28B2504B58AF4CA418A3D38773",1,"0198f780-7db8-7e68-8698-ec7d0ad74d7e","0198f767-55c9-7875-8d21-563b3c0b86ed","2025-08-29_13h24.29.843",NA,NA,461.6065,461.6065,461.6065,461.998,NA,NA,NA,NA,NA,NA,NA,TRUE,2,1.4944,458.6538,461.6064,0,83,83,93,1,150,40,NA,NA,NA,NA,NA,1,84,"binary"
"5BEA0D28B2504B58AF4CA418A3D38773",1,"0198f780-7db8-7e68-8698-ec7d0ad74d7e","0198f767-55c9-7875-8d21-563b3c0b86ed","2025-08-29_13h24.29.843",NA,NA,465.038,465.038,465.0381,465.3206,NA,NA,NA,NA,NA,NA,NA,TRUE,1,0.8201,461.9989,465.0379,0,84,84,16,1,12,33,NA,NA,NA,NA,NA,1,85,"binary"
"5BEA0D28B2504B58AF4CA418A3D38773",1,"0198f780-7db8-7e68-8698-ec7d0ad74d7e","0198f767-55c9-7875-8d21-563b3c0b86ed","2025-08-29_13h24.29.843",NA,NA,468.2994,468.2995,468.2995,468.6317,NA,NA,NA,NA,NA,NA,NA,TRUE,1,0.9257,465.3215,468.2992,0,85,85,98,1,180,35,NA,NA,NA,NA,NA,1,86,"binary"
"5BEA0D28B2504B58AF4CA418A3D38773",1,"0198f780-7db8-7e68-8698-ec7d0ad74d7e","0198f767-55c9-7875-8d21-563b3c0b86ed","2025-08-29_13h24.29.843",NA,NA,471.6811,471.6811,471.6812,472.0072,NA,NA,NA,NA,NA,NA,NA,TRUE,2,0.743,468.6326,471.681,0,86,86,11,1,10,32,NA,NA,NA,NA,NA,1,87,"binary"
"5BEA0D28B2504B58AF4CA418A3D38773",1,"0198f780-7db8-7e68-8698-ec7d0ad74d7e","0198f767-55c9-7875-8d21-563b3c0b86ed","2025-08-29_13h24.29.843",NA,NA,475.0211,475.0212,475.0212,475.355,NA,NA,NA,NA,NA,NA,NA,TRUE,1,0.7427,472.008,475.0211,0,87,87,85,1,100,31,NA,NA,NA,NA,NA,1,88,"binary"
"5BEA0D28B2504B58AF4CA418A3D38773",1,"0198f780-7db8-7e68-8698-ec7d0ad74d7e","0198f767-55c9-7875-8d21-563b3c0b86ed","2025-08-29_13h24.29.843",NA,NA,478.338,478.338,478.338,478.7507,NA,NA,NA,NA,NA,NA,NA,TRUE,1,0.8983,475.3558,478.3379,0,88,88,73,1,90,30,NA,NA,NA,NA,NA,1,89,"binary"
"5BEA0D28B2504B58AF4CA418A3D38773",1,"0198f780-7db8-7e68-8698-ec7d0ad74d7e","0198f767-55c9-7875-8d21-563b3c0b86ed","2025-08-29_13h24.29.843",NA,NA,481.7476,481.7476,481.7476,482.0594,NA,NA,NA,NA,NA,NA,NA,TRUE,2,1.0916,478.7515,481.7476,0,89,89,65,1,50,54,NA,NA,NA,NA,NA,1,90,"binary"
"5BEA0D28B2504B58AF4CA418A3D38773",1,"0198f780-7db8-7e68-8698-ec7d0ad74d7e","0198f767-55c9-7875-8d21-563b3c0b86ed","2025-08-29_13h24.29.843",NA,NA,485.0594,485.0594,485.0594,485.3964,NA,NA,NA,NA,NA,NA,NA,TRUE,1,1.2504,482.0602,485.0593,0,90,90,54,1,45,26,NA,NA,NA,NA,NA,1,91,"binary"
"5BEA0D28B2504B58AF4CA418A3D38773",1,"0198f780-7db8-7e68-8698-ec7d0ad74d7e","0198f767-55c9-7875-8d21-563b3c0b86ed","2025-08-29_13h24.29.843",NA,NA,488.3823,488.3823,488.3823,488.7807,NA,NA,NA,NA,NA,NA,NA,TRUE,1,0.9934,485.3973,488.3822,0,91,91,32,1,25,31,NA,NA,NA,NA,NA,1,92,"binary"
"5BEA0D28B2504B58AF4CA418A3D38773",1,"0198f780-7db8-7e68-8698-ec7d0ad74d7e","0198f767-55c9-7875-8d21-563b3c0b86ed","2025-08-29_13h24.29.843",NA,NA,491.7641,491.7641,491.7641,492.1464,NA,NA,NA,NA,NA,NA,NA,TRUE,1,0.4565,488.7816,491.7641,0,92,92,56,1,45,31,NA,NA,NA,NA,NA,1,93,"binary"
"5BEA0D28B2504B58AF4CA418A3D38773",1,"0198f780-7db8-7e68-8698-ec7d0ad74d7e","0198f767-55c9-7875-8d21-563b3c0b86ed","2025-08-29_13h24.29.843",NA,NA,495.1539,495.1539,495.1539,495.4659,NA,NA,NA,NA,NA,NA,NA,TRUE,1,1.0491,492.1473,495.1538,0,93,93,12,1,12,25,NA,NA,NA,NA,NA,1,94,"binary"
"5BEA0D28B2504B58AF4CA418A3D38773",1,"0198f780-7db8-7e68-8698-ec7d0ad74d7e","0198f767-55c9-7875-8d21-563b3c0b86ed","2025-08-29_13h24.29.843",NA,NA,498.449,498.449,498.449,498.8377,NA,NA,NA,NA,NA,NA,NA,TRUE,1,1.0782,495.467,498.4489,0,94,94,36,1,28,26,NA,NA,NA,NA,NA,1,95,"binary"
"5BEA0D28B2504B58AF4CA418A3D38773",1,"0198f780-7db8-7e68-8698-ec7d0ad74d7e","0198f767-55c9-7875-8d21-563b3c0b86ed","2025-08-29_13h24.29.843",NA,NA,501.7832,501.7832,501.7832,502.1869,NA,NA,NA,NA,NA,NA,NA,TRUE,1,0.5844,498.8385,501.7831,0,95,95,31,1,25,29,NA,NA,NA,NA,NA,1,96,"binary"
"5BEA0D28B2504B58AF4CA418A3D38773",1,"0198f780-7db8-7e68-8698-ec7d0ad74d7e","0198f767-55c9-7875-8d21-563b3c0b86ed","2025-08-29_13h24.29.843",NA,NA,505.1892,505.1892,505.1892,505.5031,NA,NA,NA,NA,NA,NA,NA,TRUE,2,0.8277,502.1878,505.1892,0,96,96,83,1,95,54,NA,NA,NA,NA,NA,1,97,"binary"
"5BEA0D28B2504B58AF4CA418A3D38773",1,"0198f780-7db8-7e68-8698-ec7d0ad74d7e","0198f767-55c9-7875-8d21-563b3c0b86ed","2025-08-29_13h24.29.843",NA,NA,508.5285,508.5285,508.5285,508.8387,NA,NA,NA,NA,NA,NA,NA,TRUE,1,0.9236,505.504,508.5284,0,97,97,91,1,150,33,NA,NA,NA,NA,NA,1,98,"binary"
"5BEA0D28B2504B58AF4CA418A3D38773",1,"0198f780-7db8-7e68-8698-ec7d0ad74d7e","0198f767-55c9-7875-8d21-563b3c0b86ed","2025-08-29_13h24.29.843",NA,NA,511.8787,511.8787,511.8787,512.259,NA,NA,NA,NA,NA,NA,NA,TRUE,2,0.9349,508.8396,511.8786,0,98,98,107,1,200,54,NA,NA,NA,NA,NA,1,99,"binary"
"5BEA0D28B2504B58AF4CA418A3D38773",1,"0198f780-7db8-7e68-8698-ec7d0ad74d7e","0198f767-55c9-7875-8d21-563b3c0b86ed","2025-08-29_13h24.29.843",NA,NA,515.2476,515.2477,515.2477,515.5557,NA,NA,NA,NA,NA,NA,NA,TRUE,1,1.0167,512.26,515.2476,0,99,99,46,1,30,32,NA,NA,NA,NA,NA,1,100,"binary"
"5BEA0D28B2504B58AF4CA418A3D38773",1,"0198f780-7db8-7e68-8698-ec7d0ad74d7e","0198f767-55c9-7875-8d21-563b3c0b86ed","2025-08-29_13h24.29.843",NA,NA,518.5778,518.5778,518.5778,518.9564,NA,NA,NA,NA,NA,NA,NA,TRUE,1,0.8503,515.5566,518.5777,0,100,100,72,1,90,26,NA,NA,NA,NA,NA,1,101,"binary"
"5BEA0D28B2504B58AF4CA418A3D38773",1,"0198f780-7db8-7e68-8698-ec7d0ad74d7e","0198f767-55c9-7875-8d21-563b3c0b86ed","2025-08-29_13h24.29.843",NA,NA,521.9172,521.9172,521.9172,522.2413,NA,NA,NA,NA,NA,NA,NA,TRUE,2,1.2484,518.9573,521.9171,0,101,101,70,1,60,47,NA,NA,NA,NA,NA,1,102,"binary"
"5BEA0D28B2504B58AF4CA418A3D38773",1,"0198f780-7db8-7e68-8698-ec7d0ad74d7e","0198f767-55c9-7875-8d21-563b3c0b86ed","2025-08-29_13h24.29.843",NA,NA,525.3014,525.3014,525.3014,525.6047,NA,NA,NA,NA,NA,NA,NA,TRUE,1,0.9323,522.2423,525.3013,0,102,102,102,1,200,26,NA,NA,NA,NA,NA,1,103,"binary"
"5BEA0D28B2504B58AF4CA418A3D38773",1,"0198f780-7db8-7e68-8698-ec7d0ad74d7e","0198f767-55c9-7875-8d21-563b3c0b86ed","2025-08-29_13h24.29.843",NA,NA,528.5944,528.5944,528.5944,529.007,NA,NA,NA,NA,NA,NA,NA,TRUE,1,0.5021,525.606,528.5943,0,103,103,8,1,10,27,NA,NA,NA,NA,NA,1,104,"binary"
"5BEA0D28B2504B58AF4CA418A3D38773",1,"0198f780-7db8-7e68-8698-ec7d0ad74d7e","0198f767-55c9-7875-8d21-563b3c0b86ed","2025-08-29_13h24.29.843",NA,NA,531.9659,531.9659,531.9659,532.287,NA,NA,NA,NA,NA,NA,NA,TRUE,2,0.8722,529.0079,531.9658,0,104,104,58,1,45,40,NA,NA,NA,NA,NA,1,105,"binary"
"5BEA0D28B2504B58AF4CA418A3D38773",1,"0198f780-7db8-7e68-8698-ec7d0ad74d7e","0198f767-55c9-7875-8d21-563b3c0b86ed","2025-08-29_13h24.29.843",NA,NA,535.3139,535.3139,535.3139,535.645,NA,NA,NA,NA,NA,NA,NA,TRUE,2,2.0042,532.2879,535.3138,0,105,105,4,1,7,32,NA,NA,NA,NA,NA,1,106,"binary"
"5BEA0D28B2504B58AF4CA418A3D38773",1,"0198f780-7db8-7e68-8698-ec7d0ad74d7e","0198f767-55c9-7875-8d21-563b3c0b86ed","2025-08-29_13h24.29.843",NA,NA,538.6341,538.6342,538.6342,539.0273,NA,NA,NA,NA,NA,NA,NA,TRUE,1,0.7628,535.6458,538.6341,0,106,106,9,1,10,29,NA,NA,NA,NA,NA,1,107,"binary"
"5BEA0D28B2504B58AF4CA418A3D38773",1,"0198f780-7db8-7e68-8698-ec7d0ad74d7e","0198f767-55c9-7875-8d21-563b3c0b86ed","2025-08-29_13h24.29.843",NA,NA,542.0442,542.0442,542.0442,542.3571,NA,NA,NA,NA,NA,NA,NA,TRUE,1,1.4177,539.0286,542.0441,0,107,107,18,1,14,25,NA,NA,NA,NA,NA,1,108,"binary"
"5BEA0D28B2504B58AF4CA418A3D38773",1,"0198f780-7db8-7e68-8698-ec7d0ad74d7e","0198f767-55c9-7875-8d21-563b3c0b86ed","2025-08-29_13h24.29.843",NA,NA,1706.8165,1706.8165,1706.8165,1707.0851,NA,NA,NA,NA,NA,NA,NA,TRUE,1,1.7407,1703.8359,1706.8165,NA,NA,NA,NA,NA,40,35,0,0,0,50,1,2,1,"binary"
"5BEA0D28B2504B58AF4CA418A3D38773",1,"0198f780-7db8-7e68-8698-ec7d0ad74d7e","0198f767-55c9-7875-8d21-563b3c0b86ed","2025-08-29_13h24.29.843",NA,NA,1710.1808,1710.1808,1710.1808,1710.4893,NA,NA,NA,NA,NA,NA,NA,TRUE,2,1.2103,1707.0864,1710.1807,NA,NA,NA,NA,NA,60,47,0,1,1,70,1,2,2,"binary"
"5BEA0D28B2504B58AF4CA418A3D38773",1,"0198f780-7db8-7e68-8698-ec7d0ad74d7e","0198f767-55c9-7875-8d21-563b3c0b86ed","2025-08-29_13h24.29.843",NA,NA,1713.4981,1713.4982,1713.4983,1713.8597,NA,NA,NA,NA,NA,NA,NA,TRUE,1,0.9282,1710.4902,1713.498,NA,NA,NA,NA,NA,180,39,0,2,2,99,1,2,3,"binary"
"5BEA0D28B2504B58AF4CA418A3D38773",1,"0198f780-7db8-7e68-8698-ec7d0ad74d7e","0198f767-55c9-7875-8d21-563b3c0b86ed","2025-08-29_13h24.29.843",NA,NA,1716.8506,1716.8506,1716.8506,1717.2193,NA,NA,NA,NA,NA,NA,NA,TRUE,2,1.5548,1713.8717,1716.8505,NA,NA,NA,NA,NA,180,54,0,3,3,101,1,2,4,"binary"
"5BEA0D28B2504B58AF4CA418A3D38773",1,"0198f780-7db8-7e68-8698-ec7d0ad74d7e","0198f767-55c9-7875-8d21-563b3c0b86ed","2025-08-29_13h24.29.843",NA,NA,1720.1743,1720.1743,1720.1743,1720.5747,NA,NA,NA,NA,NA,NA,NA,TRUE,2,1.298,1717.2202,1720.1742,NA,NA,NA,NA,NA,95,54,0,4,4,83,1,2,5,"binary"
"5BEA0D28B2504B58AF4CA418A3D38773",1,"0198f780-7db8-7e68-8698-ec7d0ad74d7e","0198f767-55c9-7875-8d21-563b3c0b86ed","2025-08-29_13h24.29.843",NA,NA,1723.5725,1723.5726,1723.5726,1723.8916,NA,NA,NA,NA,NA,NA,NA,TRUE,1,0.9981,1720.576,1723.5725,NA,NA,NA,NA,NA,95,35,0,5,5,80,1,2,6,"binary"
"5BEA0D28B2504B58AF4CA418A3D38773",1,"0198f780-7db8-7e68-8698-ec7d0ad74d7e","0198f767-55c9-7875-8d21-563b3c0b86ed","2025-08-29_13h24.29.843",NA,NA,1726.9209,1726.921,1726.921,1727.2297,NA,NA,NA,NA,NA,NA,NA,TRUE,1,0.5668,1723.8924,1726.9208,NA,NA,NA,NA,NA,90,33,0,6,6,74,1,2,7,"binary"
"5BEA0D28B2504B58AF4CA418A3D38773",1,"0198f780-7db8-7e68-8698-ec7d0ad74d7e","0198f767-55c9-7875-8d21-563b3c0b86ed","2025-08-29_13h24.29.843",NA,NA,1730.2228,1730.2228,1730.2228,1730.6284,NA,NA,NA,NA,NA,NA,NA,TRUE,1,0.4253,1727.2306,1730.2228,NA,NA,NA,NA,NA,100,46,0,7,7,88,1,2,8,"binary"
"5BEA0D28B2504B58AF4CA418A3D38773",1,"0198f780-7db8-7e68-8698-ec7d0ad74d7e","0198f767-55c9-7875-8d21-563b3c0b86ed","2025-08-29_13h24.29.843",NA,NA,1733.5713,1733.5713,1733.5713,1733.9597,NA,NA,NA,NA,NA,NA,NA,TRUE,1,1.5643,1730.6292,1733.5712,NA,NA,NA,NA,NA,14,26,0,8,8,19,1,2,9,"binary"
"5BEA0D28B2504B58AF4CA418A3D38773",1,"0198f780-7db8-7e68-8698-ec7d0ad74d7e","0198f767-55c9-7875-8d21-563b3c0b86ed","2025-08-29_13h24.29.843",NA,NA,1736.9375,1736.9375,1736.9375,1737.3098,NA,NA,NA,NA,NA,NA,NA,TRUE,1,0.9575,1733.9605,1736.9375,NA,NA,NA,NA,NA,180,27,0,9,9,96,1,2,10,"binary"
"5BEA0D28B2504B58AF4CA418A3D38773",1,"0198f780-7db8-7e68-8698-ec7d0ad74d7e","0198f767-55c9-7875-8d21-563b3c0b86ed","2025-08-29_13h24.29.843",NA,NA,1740.2793,1740.2793,1740.2793,1740.652,NA,NA,NA,NA,NA,NA,NA,TRUE,1,0.8308,1737.3108,1740.2793,NA,NA,NA,NA,NA,100,38,0,10,10,86,1,2,11,"binary"
"5BEA0D28B2504B58AF4CA418A3D38773",1,"0198f780-7db8-7e68-8698-ec7d0ad74d7e","0198f767-55c9-7875-8d21-563b3c0b86ed","2025-08-29_13h24.29.843",NA,NA,1743.6204,1743.6204,1743.6204,1744.0056,NA,NA,NA,NA,NA,NA,NA,TRUE,2,0.7354,1740.6528,1743.6195,NA,NA,NA,NA,NA,28,46,0,11,11,41,1,2,12,"binary"
"5BEA0D28B2504B58AF4CA418A3D38773",1,"0198f780-7db8-7e68-8698-ec7d0ad74d7e","0198f767-55c9-7875-8d21-563b3c0b86ed","2025-08-29_13h24.29.843",NA,NA,1747.0451,1747.0451,1747.0451,1747.3638,NA,NA,NA,NA,NA,NA,NA,TRUE,2,1.1198,1744.0064,1747.0449,NA,NA,NA,NA,NA,14,35,0,12,12,22,1,2,13,"binary"
"5BEA0D28B2504B58AF4CA418A3D38773",1,"0198f780-7db8-7e68-8698-ec7d0ad74d7e","0198f767-55c9-7875-8d21-563b3c0b86ed","2025-08-29_13h24.29.843",NA,NA,1750.3584,1750.3585,1750.3585,1750.74,NA,NA,NA,NA,NA,NA,NA,TRUE,2,0.8949,1747.3649,1750.3584,NA,NA,NA,NA,NA,7,35,0,13,13,5,1,2,14,"binary"
"5BEA0D28B2504B58AF4CA418A3D38773",1,"0198f780-7db8-7e68-8698-ec7d0ad74d7e","0198f767-55c9-7875-8d21-563b3c0b86ed","2025-08-29_13h24.29.843",NA,NA,1753.6608,1753.6608,1753.6608,1754.0665,NA,NA,NA,NA,NA,NA,NA,TRUE,1,1.0293,1750.7409,1753.6608,NA,NA,NA,NA,NA,25,35,0,14,14,34,1,2,15,"binary"
"5BEA0D28B2504B58AF4CA418A3D38773",1,"0198f780-7db8-7e68-8698-ec7d0ad74d7e","0198f767-55c9-7875-8d21-563b3c0b86ed","2025-08-29_13h24.29.843",NA,NA,1757.067,1757.067,1757.067,1757.3807,NA,NA,NA,NA,NA,NA,NA,TRUE,2,1.2602,1754.0679,1757.0669,NA,NA,NA,NA,NA,90,46,0,15,15,76,1,2,16,"binary"
"5BEA0D28B2504B58AF4CA418A3D38773",1,"0198f780-7db8-7e68-8698-ec7d0ad74d7e","0198f767-55c9-7875-8d21-563b3c0b86ed","2025-08-29_13h24.29.843",NA,NA,1760.4283,1760.4283,1760.4283,1760.7302,NA,NA,NA,NA,NA,NA,NA,TRUE,1,1.6876,1757.3816,1760.4283,NA,NA,NA,NA,NA,150,35,0,16,16,92,1,2,17,"binary"
"5BEA0D28B2504B58AF4CA418A3D38773",1,"0198f780-7db8-7e68-8698-ec7d0ad74d7e","0198f767-55c9-7875-8d21-563b3c0b86ed","2025-08-29_13h24.29.843",NA,NA,1763.711,1763.711,1763.711,1764.0841,NA,NA,NA,NA,NA,NA,NA,TRUE,1,1.1824,1760.7311,1763.7108,NA,NA,NA,NA,NA,100,39,0,17,17,87,1,2,18,"binary"
"5BEA0D28B2504B58AF4CA418A3D38773",1,"0198f780-7db8-7e68-8698-ec7d0ad74d7e","0198f767-55c9-7875-8d21-563b3c0b86ed","2025-08-29_13h24.29.843",NA,NA,1767.0649,1767.0649,1767.0649,1767.4462,NA,NA,NA,NA,NA,NA,NA,TRUE,1,0.8796,1764.0851,1767.0648,NA,NA,NA,NA,NA,180,31,0,18,18,97,1,2,19,"binary"
"5BEA0D28B2504B58AF4CA418A3D38773",1,"0198f780-7db8-7e68-8698-ec7d0ad74d7e","0198f767-55c9-7875-8d21-563b3c0b86ed","2025-08-29_13h24.29.843",NA,NA,1770.4734,1770.4735,1770.4735,1770.797,NA,NA,NA,NA,NA,NA,NA,TRUE,1,1.097,1767.447,1770.4733,NA,NA,NA,NA,NA,100,26,0,19,19,84,1,2,20,"binary"
"5BEA0D28B2504B58AF4CA418A3D38773",1,"0198f780-7db8-7e68-8698-ec7d0ad74d7e","0198f767-55c9-7875-8d21-563b3c0b86ed","2025-08-29_13h24.29.843",NA,NA,1773.7713,1773.7713,1773.7713,1774.1555,NA,NA,NA,NA,NA,NA,NA,TRUE,2,0.9547,1770.7984,1773.7713,NA,NA,NA,NA,NA,60,40,0,20,20,69,1,2,21,"binary"
"5BEA0D28B2504B58AF4CA418A3D38773",1,"0198f780-7db8-7e68-8698-ec7d0ad74d7e","0198f767-55c9-7875-8d21-563b3c0b86ed","2025-08-29_13h24.29.843",NA,NA,1777.1442,1777.1442,1777.1442,1777.5229,NA,NA,NA,NA,NA,NA,NA,TRUE,1,0.7232,1774.1563,1777.1442,NA,NA,NA,NA,NA,200,39,0,21,21,105,1,2,22,"binary"
"5BEA0D28B2504B58AF4CA418A3D38773",1,"0198f780-7db8-7e68-8698-ec7d0ad74d7e","0198f767-55c9-7875-8d21-563b3c0b86ed","2025-08-29_13h24.29.843",NA,NA,1780.4638,1780.4638,1780.4638,1780.8569,NA,NA,NA,NA,NA,NA,NA,TRUE,2,1.2874,1777.5239,1780.4637,NA,NA,NA,NA,NA,150,47,0,22,22,94,1,2,23,"binary"
"5BEA0D28B2504B58AF4CA418A3D38773",1,"0198f780-7db8-7e68-8698-ec7d0ad74d7e","0198f767-55c9-7875-8d21-563b3c0b86ed","2025-08-29_13h24.29.843",NA,NA,1783.8493,1783.8493,1783.8493,1784.161,NA,NA,NA,NA,NA,NA,NA,TRUE,1,1.2433,1780.8579,1783.8493,NA,NA,NA,NA,NA,45,31,0,23,23,56,1,2,24,"binary"
"5BEA0D28B2504B58AF4CA418A3D38773",1,"0198f780-7db8-7e68-8698-ec7d0ad74d7e","0198f767-55c9-7875-8d21-563b3c0b86ed","2025-08-29_13h24.29.843",NA,NA,1787.2004,1787.2004,1787.2004,1787.5865,NA,NA,NA,NA,NA,NA,NA,TRUE,1,1.2879,1784.1619,1787.2004,NA,NA,NA,NA,NA,28,26,0,24,24,36,1,2,25,"binary"
"5BEA0D28B2504B58AF4CA418A3D38773",1,"0198f780-7db8-7e68-8698-ec7d0ad74d7e","0198f767-55c9-7875-8d21-563b3c0b86ed","2025-08-29_13h24.29.843",NA,NA,1790.5222,1790.5222,1790.5222,1790.8584,NA,NA,NA,NA,NA,NA,NA,TRUE,1,0.8989,1787.5875,1790.5221,NA,NA,NA,NA,NA,10,27,0,25,25,8,1,2,26,"binary"
"5BEA0D28B2504B58AF4CA418A3D38773",1,"0198f780-7db8-7e68-8698-ec7d0ad74d7e","0198f767-55c9-7875-8d21-563b3c0b86ed","2025-08-29_13h24.29.843",NA,NA,1793.9182,1793.9182,1793.9182,1794.2476,NA,NA,NA,NA,NA,NA,NA,TRUE,1,1.569,1790.8595,1793.9181,NA,NA,NA,NA,NA,200,47,0,26,26,106,1,2,27,"binary"
"5BEA0D28B2504B58AF4CA418A3D38773",1,"0198f780-7db8-7e68-8698-ec7d0ad74d7e","0198f767-55c9-7875-8d21-563b3c0b86ed","2025-08-29_13h24.29.843",NA,NA,1797.2896,1797.2896,1797.2896,1797.609,NA,NA,NA,NA,NA,NA,NA,TRUE,1,0.9527,1794.2489,1797.2895,NA,NA,NA,NA,NA,100,31,0,27,27,85,1,2,28,"binary"
"5BEA0D28B2504B58AF4CA418A3D38773",1,"0198f780-7db8-7e68-8698-ec7d0ad74d7e","0198f767-55c9-7875-8d21-563b3c0b86ed","2025-08-29_13h24.29.843",NA,NA,1800.5875,1800.5875,1800.5875,1800.9882,NA,NA,NA,NA,NA,NA,NA,TRUE,2,0.8249,1797.6099,1800.5875,NA,NA,NA,NA,NA,100,54,0,28,28,89,1,2,29,"binary"
"5BEA0D28B2504B58AF4CA418A3D38773",1,"0198f780-7db8-7e68-8698-ec7d0ad74d7e","0198f767-55c9-7875-8d21-563b3c0b86ed","2025-08-29_13h24.29.843",NA,NA,1803.9903,1803.9904,1803.9904,1804.3134,NA,NA,NA,NA,NA,NA,NA,TRUE,1,0.9908,1800.9893,1803.9902,NA,NA,NA,NA,NA,12,31,0,29,29,15,1,2,30,"binary"
"5BEA0D28B2504B58AF4CA418A3D38773",1,"0198f780-7db8-7e68-8698-ec7d0ad74d7e","0198f767-55c9-7875-8d21-563b3c0b86ed","2025-08-29_13h24.29.843",NA,NA,1807.288,1807.288,1807.288,1807.6715,NA,NA,NA,NA,NA,NA,NA,TRUE,2,0.8012,1804.3143,1807.2879,NA,NA,NA,NA,NA,50,40,0,30,30,63,1,2,31,"binary"
"5BEA0D28B2504B58AF4CA418A3D38773",1,"0198f780-7db8-7e68-8698-ec7d0ad74d7e","0198f767-55c9-7875-8d21-563b3c0b86ed","2025-08-29_13h24.29.843",NA,NA,1810.6737,1810.6737,1810.6737,1810.9992,NA,NA,NA,NA,NA,NA,NA,TRUE,2,0.8231,1807.6723,1810.6736,NA,NA,NA,NA,NA,50,46,0,31,31,64,1,2,32,"binary"
"5BEA0D28B2504B58AF4CA418A3D38773",1,"0198f780-7db8-7e68-8698-ec7d0ad74d7e","0198f767-55c9-7875-8d21-563b3c0b86ed","2025-08-29_13h24.29.843",NA,NA,1814.0083,1814.0083,1814.0083,1814.3893,NA,NA,NA,NA,NA,NA,NA,TRUE,1,2.1942,1811.0002,1814.0082,NA,NA,NA,NA,NA,7,28,0,32,32,2,1,2,33,"binary"
"5BEA0D28B2504B58AF4CA418A3D38773",1,"0198f780-7db8-7e68-8698-ec7d0ad74d7e","0198f767-55c9-7875-8d21-563b3c0b86ed","2025-08-29_13h24.29.843",NA,NA,1817.3891,1817.3891,1817.3891,1817.7063,NA,NA,NA,NA,NA,NA,NA,TRUE,1,1.1654,1814.3903,1817.389,NA,NA,NA,NA,NA,60,33,0,33,33,67,1,2,34,"binary"
"5BEA0D28B2504B58AF4CA418A3D38773",1,"0198f780-7db8-7e68-8698-ec7d0ad74d7e","0198f767-55c9-7875-8d21-563b3c0b86ed","2025-08-29_13h24.29.843",NA,NA,1820.7151,1820.7151,1820.7151,1821.0383,NA,NA,NA,NA,NA,NA,NA,TRUE,1,1.071,1817.7072,1820.7151,NA,NA,NA,NA,NA,40,27,0,34,34,48,1,2,35,"binary"
"5BEA0D28B2504B58AF4CA418A3D38773",1,"0198f780-7db8-7e68-8698-ec7d0ad74d7e","0198f767-55c9-7875-8d21-563b3c0b86ed","2025-08-29_13h24.29.843",NA,NA,1824.0329,1824.033,1824.033,1824.4222,NA,NA,NA,NA,NA,NA,NA,TRUE,1,1.2672,1821.0391,1824.0329,NA,NA,NA,NA,NA,25,31,0,35,35,32,1,2,36,"binary"
"5BEA0D28B2504B58AF4CA418A3D38773",1,"0198f780-7db8-7e68-8698-ec7d0ad74d7e","0198f767-55c9-7875-8d21-563b3c0b86ed","2025-08-29_13h24.29.843",NA,NA,1827.3788,1827.3788,1827.3788,1827.7798,NA,NA,NA,NA,NA,NA,NA,TRUE,2,0.8327,1824.4231,1827.3788,NA,NA,NA,NA,NA,40,40,0,36,36,51,1,2,37,"binary"
"5BEA0D28B2504B58AF4CA418A3D38773",1,"0198f780-7db8-7e68-8698-ec7d0ad74d7e","0198f767-55c9-7875-8d21-563b3c0b86ed","2025-08-29_13h24.29.843",NA,NA,1830.7753,1830.7754,1830.7754,1831.0826,NA,NA,NA,NA,NA,NA,NA,TRUE,1,1.3078,1827.7808,1830.7753,NA,NA,NA,NA,NA,7,25,0,37,37,0,1,2,38,"binary"
"5BEA0D28B2504B58AF4CA418A3D38773",1,"0198f780-7db8-7e68-8698-ec7d0ad74d7e","0198f767-55c9-7875-8d21-563b3c0b86ed","2025-08-29_13h24.29.843",NA,NA,1834.1294,1834.1294,1834.1294,1834.4364,NA,NA,NA,NA,NA,NA,NA,TRUE,2,1.6699,1831.0835,1834.1292,NA,NA,NA,NA,NA,12,35,0,38,38,17,1,2,39,"binary"
"5BEA0D28B2504B58AF4CA418A3D38773",1,"0198f780-7db8-7e68-8698-ec7d0ad74d7e","0198f767-55c9-7875-8d21-563b3c0b86ed","2025-08-29_13h24.29.843",NA,NA,1837.4401,1837.4401,1837.4401,1837.834,NA,NA,NA,NA,NA,NA,NA,TRUE,2,0.8247,1834.4372,1837.44,NA,NA,NA,NA,NA,7,32,0,39,39,4,1,2,40,"binary"
"5BEA0D28B2504B58AF4CA418A3D38773",1,"0198f780-7db8-7e68-8698-ec7d0ad74d7e","0198f767-55c9-7875-8d21-563b3c0b86ed","2025-08-29_13h24.29.843",NA,NA,1840.8259,1840.8259,1840.8259,1841.1465,NA,NA,NA,NA,NA,NA,NA,TRUE,1,1.135,1837.8349,1840.8258,NA,NA,NA,NA,NA,90,26,0,40,40,72,1,2,41,"binary"
"5BEA0D28B2504B58AF4CA418A3D38773",1,"0198f780-7db8-7e68-8698-ec7d0ad74d7e","0198f767-55c9-7875-8d21-563b3c0b86ed","2025-08-29_13h24.29.843",NA,NA,1844.1277,1844.1277,1844.1277,1844.515,NA,NA,NA,NA,NA,NA,NA,TRUE,1,2.504,1841.1474,1844.1276,NA,NA,NA,NA,NA,14,39,0,41,41,23,1,2,42,"binary"
"5BEA0D28B2504B58AF4CA418A3D38773",1,"0198f780-7db8-7e68-8698-ec7d0ad74d7e","0198f767-55c9-7875-8d21-563b3c0b86ed","2025-08-29_13h24.29.843",NA,NA,1847.4661,1847.4661,1847.4661,1847.8478,NA,NA,NA,NA,NA,NA,NA,TRUE,1,2.1425,1844.5158,1847.466,NA,NA,NA,NA,NA,12,25,0,42,42,12,1,2,43,"binary"
"5BEA0D28B2504B58AF4CA418A3D38773",1,"0198f780-7db8-7e68-8698-ec7d0ad74d7e","0198f767-55c9-7875-8d21-563b3c0b86ed","2025-08-29_13h24.29.843",NA,NA,1850.8232,1850.8232,1850.8232,1851.2207,NA,NA,NA,NA,NA,NA,NA,TRUE,1,0.8615,1847.8488,1850.8231,NA,NA,NA,NA,NA,60,35,0,43,43,68,1,2,44,"binary"
"5BEA0D28B2504B58AF4CA418A3D38773",1,"0198f780-7db8-7e68-8698-ec7d0ad74d7e","0198f767-55c9-7875-8d21-563b3c0b86ed","2025-08-29_13h24.29.843",NA,NA,1854.2261,1854.2261,1854.2261,1854.5427,NA,NA,NA,NA,NA,NA,NA,TRUE,1,0.7513,1851.2216,1854.226,NA,NA,NA,NA,NA,25,29,0,44,44,31,1,2,45,"binary"
"5BEA0D28B2504B58AF4CA418A3D38773",1,"0198f780-7db8-7e68-8698-ec7d0ad74d7e","0198f767-55c9-7875-8d21-563b3c0b86ed","2025-08-29_13h24.29.843",NA,NA,1857.5187,1857.5187,1857.5187,1857.9161,NA,NA,NA,NA,NA,NA,NA,TRUE,1,0.7239,1854.5437,1857.5187,NA,NA,NA,NA,NA,30,32,0,45,45,46,1,2,46,"binary"
"5BEA0D28B2504B58AF4CA418A3D38773",1,"0198f780-7db8-7e68-8698-ec7d0ad74d7e","0198f767-55c9-7875-8d21-563b3c0b86ed","2025-08-29_13h24.29.843",NA,NA,1860.8924,1860.8924,1860.8924,1861.2868,NA,NA,NA,NA,NA,NA,NA,TRUE,1,0.6621,1857.917,1860.8923,NA,NA,NA,NA,NA,200,35,0,46,46,104,1,2,47,"binary"
"5BEA0D28B2504B58AF4CA418A3D38773",1,"0198f780-7db8-7e68-8698-ec7d0ad74d7e","0198f767-55c9-7875-8d21-563b3c0b86ed","2025-08-29_13h24.29.843",NA,NA,1864.2168,1864.2168,1864.2168,1864.6167,NA,NA,NA,NA,NA,NA,NA,TRUE,1,0.9321,1861.2876,1864.2167,NA,NA,NA,NA,NA,50,30,0,47,47,61,1,2,48,"binary"
"5BEA0D28B2504B58AF4CA418A3D38773",1,"0198f780-7db8-7e68-8698-ec7d0ad74d7e","0198f767-55c9-7875-8d21-563b3c0b86ed","2025-08-29_13h24.29.843",NA,NA,1867.6027,1867.6027,1867.6027,1867.9803,NA,NA,NA,NA,NA,NA,NA,TRUE,1,1.0035,1864.6176,1867.6026,NA,NA,NA,NA,NA,10,25,0,48,48,6,1,2,49,"binary"
"5BEA0D28B2504B58AF4CA418A3D38773",1,"0198f780-7db8-7e68-8698-ec7d0ad74d7e","0198f767-55c9-7875-8d21-563b3c0b86ed","2025-08-29_13h24.29.843",NA,NA,1870.9357,1870.9357,1870.9357,1871.32,NA,NA,NA,NA,NA,NA,NA,TRUE,1,0.8203,1867.9813,1870.9357,NA,NA,NA,NA,NA,200,28,0,49,49,103,1,2,50,"binary"
"5BEA0D28B2504B58AF4CA418A3D38773",1,"0198f780-7db8-7e68-8698-ec7d0ad74d7e","0198f767-55c9-7875-8d21-563b3c0b86ed","2025-08-29_13h24.29.843",NA,NA,1874.3297,1874.3297,1874.3297,1874.6518,NA,NA,NA,NA,NA,NA,NA,TRUE,1,1.9685,1871.3209,1874.3296,NA,NA,NA,NA,NA,95,31,0,50,50,78,1,2,51,"binary"
"5BEA0D28B2504B58AF4CA418A3D38773",1,"0198f780-7db8-7e68-8698-ec7d0ad74d7e","0198f767-55c9-7875-8d21-563b3c0b86ed","2025-08-29_13h24.29.843",NA,NA,1877.6169,1877.617,1877.617,1877.9983,NA,NA,NA,NA,NA,NA,NA,TRUE,1,2.231,1874.6526,1877.6169,NA,NA,NA,NA,NA,30,27,0,51,51,43,1,2,52,"binary"
"5BEA0D28B2504B58AF4CA418A3D38773",1,"0198f780-7db8-7e68-8698-ec7d0ad74d7e","0198f767-55c9-7875-8d21-563b3c0b86ed","2025-08-29_13h24.29.843",NA,NA,1881.0077,1881.0077,1881.0077,1881.3457,NA,NA,NA,NA,NA,NA,NA,TRUE,2,0.8707,1877.9992,1881.0076,NA,NA,NA,NA,NA,40,47,0,52,52,52,1,2,53,"binary"
"5BEA0D28B2504B58AF4CA418A3D38773",1,"0198f780-7db8-7e68-8698-ec7d0ad74d7e","0198f767-55c9-7875-8d21-563b3c0b86ed","2025-08-29_13h24.29.843",NA,NA,1884.3175,1884.3175,1884.3175,1884.7184,NA,NA,NA,NA,NA,NA,NA,TRUE,1,0.6942,1881.3466,1884.3175,NA,NA,NA,NA,NA,28,32,0,53,53,38,1,2,54,"binary"
"5BEA0D28B2504B58AF4CA418A3D38773",1,"0198f780-7db8-7e68-8698-ec7d0ad74d7e","0198f767-55c9-7875-8d21-563b3c0b86ed","2025-08-29_13h24.29.843",NA,NA,1887.7105,1887.7105,1887.7105,1888.0231,NA,NA,NA,NA,NA,NA,NA,TRUE,2,1.3103,1884.7198,1887.7104,NA,NA,NA,NA,NA,40,54,0,54,54,53,1,2,55,"binary"
"5BEA0D28B2504B58AF4CA418A3D38773",1,"0198f780-7db8-7e68-8698-ec7d0ad74d7e","0198f767-55c9-7875-8d21-563b3c0b86ed","2025-08-29_13h24.29.843",NA,NA,1891.0467,1891.0468,1891.0468,1891.3938,NA,NA,NA,NA,NA,NA,NA,TRUE,1,0.5858,1888.024,1891.0466,NA,NA,NA,NA,NA,10,30,0,55,55,10,1,2,56,"binary"
"5BEA0D28B2504B58AF4CA418A3D38773",1,"0198f780-7db8-7e68-8698-ec7d0ad74d7e","0198f767-55c9-7875-8d21-563b3c0b86ed","2025-08-29_13h24.29.843",NA,NA,1894.3885,1894.3885,1894.3885,1894.7864,NA,NA,NA,NA,NA,NA,NA,TRUE,1,1.5162,1891.395,1894.3883,NA,NA,NA,NA,NA,21,26,0,56,56,24,1,2,57,"binary"
"5BEA0D28B2504B58AF4CA418A3D38773",1,"0198f780-7db8-7e68-8698-ec7d0ad74d7e","0198f767-55c9-7875-8d21-563b3c0b86ed","2025-08-29_13h24.29.843",NA,NA,1897.7493,1897.7493,1897.7493,1898.0704,NA,NA,NA,NA,NA,NA,NA,TRUE,1,1.5808,1894.7875,1897.7493,NA,NA,NA,NA,NA,40,33,0,57,57,49,1,2,58,"binary"
"5BEA0D28B2504B58AF4CA418A3D38773",1,"0198f780-7db8-7e68-8698-ec7d0ad74d7e","0198f767-55c9-7875-8d21-563b3c0b86ed","2025-08-29_13h24.29.843",NA,NA,1901.0737,1901.0737,1901.0737,1901.4779,NA,NA,NA,NA,NA,NA,NA,TRUE,2,1.5421,1898.0712,1901.0737,NA,NA,NA,NA,NA,14,32,0,58,58,21,1,2,59,"binary"
"5BEA0D28B2504B58AF4CA418A3D38773",1,"0198f780-7db8-7e68-8698-ec7d0ad74d7e","0198f767-55c9-7875-8d21-563b3c0b86ed","2025-08-29_13h24.29.843",NA,NA,1904.426,1904.426,1904.426,1904.819,NA,NA,NA,NA,NA,NA,NA,TRUE,1,1.0586,1901.4789,1904.4259,NA,NA,NA,NA,NA,45,35,0,59,59,57,1,2,60,"binary"
"5BEA0D28B2504B58AF4CA418A3D38773",1,"0198f780-7db8-7e68-8698-ec7d0ad74d7e","0198f767-55c9-7875-8d21-563b3c0b86ed","2025-08-29_13h24.29.843",NA,NA,1907.8185,1907.8185,1907.8186,1908.1279,NA,NA,NA,NA,NA,NA,NA,TRUE,1,0.7526,1904.8199,1907.8184,NA,NA,NA,NA,NA,150,33,0,60,60,91,1,2,61,"binary"
"5BEA0D28B2504B58AF4CA418A3D38773",1,"0198f780-7db8-7e68-8698-ec7d0ad74d7e","0198f767-55c9-7875-8d21-563b3c0b86ed","2025-08-29_13h24.29.843",NA,NA,1911.1291,1911.1291,1911.1291,1911.5126,NA,NA,NA,NA,NA,NA,NA,TRUE,2,1.0414,1908.1288,1911.129,NA,NA,NA,NA,NA,45,46,0,61,61,59,1,2,62,"binary"
"5BEA0D28B2504B58AF4CA418A3D38773",1,"0198f780-7db8-7e68-8698-ec7d0ad74d7e","0198f767-55c9-7875-8d21-563b3c0b86ed","2025-08-29_13h24.29.843",NA,NA,1914.5012,1914.5012,1914.5012,1914.8271,NA,NA,NA,NA,NA,NA,NA,TRUE,2,1.2994,1911.5135,1914.5011,NA,NA,NA,NA,NA,150,40,0,62,62,93,1,2,63,"binary"
"5BEA0D28B2504B58AF4CA418A3D38773",1,"0198f780-7db8-7e68-8698-ec7d0ad74d7e","0198f767-55c9-7875-8d21-563b3c0b86ed","2025-08-29_13h24.29.843",NA,NA,1917.8583,1917.8583,1917.8583,1918.175,NA,NA,NA,NA,NA,NA,NA,TRUE,2,0.9817,1914.828,1917.8582,NA,NA,NA,NA,NA,150,54,0,63,63,95,1,2,64,"binary"
"5BEA0D28B2504B58AF4CA418A3D38773",1,"0198f780-7db8-7e68-8698-ec7d0ad74d7e","0198f767-55c9-7875-8d21-563b3c0b86ed","2025-08-29_13h24.29.843",NA,NA,1921.2145,1921.2145,1921.2145,1921.5236,NA,NA,NA,NA,NA,NA,NA,TRUE,1,1.1798,1918.176,1921.2144,NA,NA,NA,NA,NA,14,28,0,64,64,20,1,2,65,"binary"
"5BEA0D28B2504B58AF4CA418A3D38773",1,"0198f780-7db8-7e68-8698-ec7d0ad74d7e","0198f767-55c9-7875-8d21-563b3c0b86ed","2025-08-29_13h24.29.843",NA,NA,1924.5251,1924.5251,1924.5251,1924.9192,NA,NA,NA,NA,NA,NA,NA,TRUE,1,0.7408,1921.5245,1924.525,NA,NA,NA,NA,NA,50,35,0,65,65,62,1,2,66,"binary"
"5BEA0D28B2504B58AF4CA418A3D38773",1,"0198f780-7db8-7e68-8698-ec7d0ad74d7e","0198f767-55c9-7875-8d21-563b3c0b86ed","2025-08-29_13h24.29.843",NA,NA,1927.9225,1927.9226,1927.9226,1928.2397,NA,NA,NA,NA,NA,NA,NA,TRUE,2,1.7553,1924.9201,1927.9225,NA,NA,NA,NA,NA,50,54,0,66,66,65,1,2,67,"binary"
"5BEA0D28B2504B58AF4CA418A3D38773",1,"0198f780-7db8-7e68-8698-ec7d0ad74d7e","0198f767-55c9-7875-8d21-563b3c0b86ed","2025-08-29_13h24.29.843",NA,NA,1931.2489,1931.2489,1931.2489,1931.5642,NA,NA,NA,NA,NA,NA,NA,TRUE,1,0.7572,1928.2406,1931.2488,NA,NA,NA,NA,NA,12,26,0,67,67,13,1,2,68,"binary"
"5BEA0D28B2504B58AF4CA418A3D38773",1,"0198f780-7db8-7e68-8698-ec7d0ad74d7e","0198f767-55c9-7875-8d21-563b3c0b86ed","2025-08-29_13h24.29.843",NA,NA,1934.5544,1934.5544,1934.5544,1934.9432,NA,NA,NA,NA,NA,NA,NA,TRUE,1,1.1533,1931.5651,1934.5543,NA,NA,NA,NA,NA,7,26,0,68,68,1,1,2,69,"binary"
"5BEA0D28B2504B58AF4CA418A3D38773",1,"0198f780-7db8-7e68-8698-ec7d0ad74d7e","0198f767-55c9-7875-8d21-563b3c0b86ed","2025-08-29_13h24.29.843",NA,NA,1937.9347,1937.9347,1937.9347,1938.3349,NA,NA,NA,NA,NA,NA,NA,TRUE,1,0.5783,1934.9441,1937.9346,NA,NA,NA,NA,NA,25,27,0,69,69,30,1,2,70,"binary"
"5BEA0D28B2504B58AF4CA418A3D38773",1,"0198f780-7db8-7e68-8698-ec7d0ad74d7e","0198f767-55c9-7875-8d21-563b3c0b86ed","2025-08-29_13h24.29.843",NA,NA,1941.301,1941.301,1941.301,1941.6792,NA,NA,NA,NA,NA,NA,NA,TRUE,1,1.2146,1938.3359,1941.3009,NA,NA,NA,NA,NA,60,29,0,70,70,66,1,2,71,"binary"
"5BEA0D28B2504B58AF4CA418A3D38773",1,"0198f780-7db8-7e68-8698-ec7d0ad74d7e","0198f767-55c9-7875-8d21-563b3c0b86ed","2025-08-29_13h24.29.843",NA,NA,1944.687,1944.687,1944.6871,1944.9985,NA,NA,NA,NA,NA,NA,NA,TRUE,2,1.1614,1941.68,1944.687,NA,NA,NA,NA,NA,95,47,0,71,71,82,1,2,72,"binary"
"5BEA0D28B2504B58AF4CA418A3D38773",1,"0198f780-7db8-7e68-8698-ec7d0ad74d7e","0198f767-55c9-7875-8d21-563b3c0b86ed","2025-08-29_13h24.29.843",NA,NA,1947.9789,1947.9789,1947.9789,1948.3792,NA,NA,NA,NA,NA,NA,NA,TRUE,1,0.659,1944.9993,1947.9789,NA,NA,NA,NA,NA,21,29,0,72,72,26,1,2,73,"binary"
"5BEA0D28B2504B58AF4CA418A3D38773",1,"0198f780-7db8-7e68-8698-ec7d0ad74d7e","0198f767-55c9-7875-8d21-563b3c0b86ed","2025-08-29_13h24.29.843",NA,NA,1951.3814,1951.3814,1951.3814,1951.6912,NA,NA,NA,NA,NA,NA,NA,TRUE,1,0.8318,1948.38,1951.3813,NA,NA,NA,NA,NA,21,30,0,73,73,27,1,2,74,"binary"
"5BEA0D28B2504B58AF4CA418A3D38773",1,"0198f780-7db8-7e68-8698-ec7d0ad74d7e","0198f767-55c9-7875-8d21-563b3c0b86ed","2025-08-29_13h24.29.843",NA,NA,1954.6987,1954.6988,1954.6988,1955.084,NA,NA,NA,NA,NA,NA,NA,TRUE,1,1.0414,1951.692,1954.6987,NA,NA,NA,NA,NA,10,32,0,74,74,11,1,2,75,"binary"
"5BEA0D28B2504B58AF4CA418A3D38773",1,"0198f780-7db8-7e68-8698-ec7d0ad74d7e","0198f767-55c9-7875-8d21-563b3c0b86ed","2025-08-29_13h24.29.843",NA,NA,1958.0702,1958.0703,1958.0703,1958.3672,NA,NA,NA,NA,NA,NA,NA,TRUE,1,1.4625,1955.085,1958.0702,NA,NA,NA,NA,NA,25,33,0,75,75,33,1,2,76,"binary"
"5BEA0D28B2504B58AF4CA418A3D38773",1,"0198f780-7db8-7e68-8698-ec7d0ad74d7e","0198f767-55c9-7875-8d21-563b3c0b86ed","2025-08-29_13h24.29.843",NA,NA,1961.4256,1961.4256,1961.4256,1961.7188,NA,NA,NA,NA,NA,NA,NA,TRUE,2,0.8143,1958.3681,1961.4254,NA,NA,NA,NA,NA,60,54,0,76,76,71,1,2,77,"binary"
"5BEA0D28B2504B58AF4CA418A3D38773",1,"0198f780-7db8-7e68-8698-ec7d0ad74d7e","0198f767-55c9-7875-8d21-563b3c0b86ed","2025-08-29_13h24.29.843",NA,NA,1964.7474,1964.7474,1964.7474,1965.1357,NA,NA,NA,NA,NA,NA,NA,TRUE,1,1.2439,1961.7197,1964.7473,NA,NA,NA,NA,NA,28,39,0,77,77,40,1,2,78,"binary"
"5BEA0D28B2504B58AF4CA418A3D38773",1,"0198f780-7db8-7e68-8698-ec7d0ad74d7e","0198f767-55c9-7875-8d21-563b3c0b86ed","2025-08-29_13h24.29.843",NA,NA,1968.0672,1968.0672,1968.0672,1968.4461,NA,NA,NA,NA,NA,NA,NA,TRUE,1,2.1141,1965.1366,1968.0671,NA,NA,NA,NA,NA,14,25,0,78,78,18,1,2,79,"binary"
"5BEA0D28B2504B58AF4CA418A3D38773",1,"0198f780-7db8-7e68-8698-ec7d0ad74d7e","0198f767-55c9-7875-8d21-563b3c0b86ed","2025-08-29_13h24.29.843",NA,NA,1971.4354,1971.4354,1971.4354,1971.8291,NA,NA,NA,NA,NA,NA,NA,TRUE,1,1.1938,1968.4471,1971.4354,NA,NA,NA,NA,NA,21,32,0,79,79,28,1,2,80,"binary"
"5BEA0D28B2504B58AF4CA418A3D38773",1,"0198f780-7db8-7e68-8698-ec7d0ad74d7e","0198f767-55c9-7875-8d21-563b3c0b86ed","2025-08-29_13h24.29.843",NA,NA,1974.7902,1974.7902,1974.7902,1975.1768,NA,NA,NA,NA,NA,NA,NA,TRUE,1,0.8261,1971.8301,1974.7901,NA,NA,NA,NA,NA,28,35,0,80,80,39,1,2,81,"binary"
"5BEA0D28B2504B58AF4CA418A3D38773",1,"0198f780-7db8-7e68-8698-ec7d0ad74d7e","0198f767-55c9-7875-8d21-563b3c0b86ed","2025-08-29_13h24.29.843",NA,NA,1978.1645,1978.1645,1978.1645,1978.4811,NA,NA,NA,NA,NA,NA,NA,TRUE,1,1.322,1975.1777,1978.1645,NA,NA,NA,NA,NA,90,30,0,81,81,73,1,2,82,"binary"
"5BEA0D28B2504B58AF4CA418A3D38773",1,"0198f780-7db8-7e68-8698-ec7d0ad74d7e","0198f767-55c9-7875-8d21-563b3c0b86ed","2025-08-29_13h24.29.843",NA,NA,1981.5301,1981.5301,1981.5301,1981.8534,NA,NA,NA,NA,NA,NA,NA,TRUE,1,0.8895,1978.482,1981.53,NA,NA,NA,NA,NA,12,28,0,82,82,14,1,2,83,"binary"
"5BEA0D28B2504B58AF4CA418A3D38773",1,"0198f780-7db8-7e68-8698-ec7d0ad74d7e","0198f767-55c9-7875-8d21-563b3c0b86ed","2025-08-29_13h24.29.843",NA,NA,1984.8727,1984.8727,1984.8727,1985.2587,NA,NA,NA,NA,NA,NA,NA,TRUE,1,0.7252,1981.8543,1984.8726,NA,NA,NA,NA,NA,30,30,0,83,83,45,1,2,84,"binary"
"5BEA0D28B2504B58AF4CA418A3D38773",1,"0198f780-7db8-7e68-8698-ec7d0ad74d7e","0198f767-55c9-7875-8d21-563b3c0b86ed","2025-08-29_13h24.29.843",NA,NA,1988.1664,1988.1664,1988.1664,1988.5486,NA,NA,NA,NA,NA,NA,NA,TRUE,1,1.2211,1985.2598,1988.1663,NA,NA,NA,NA,NA,10,26,0,84,84,7,1,2,85,"binary"
"5BEA0D28B2504B58AF4CA418A3D38773",1,"0198f780-7db8-7e68-8698-ec7d0ad74d7e","0198f767-55c9-7875-8d21-563b3c0b86ed","2025-08-29_13h24.29.843",NA,NA,1991.5263,1991.5264,1991.5264,1991.9123,NA,NA,NA,NA,NA,NA,NA,TRUE,2,0.9177,1988.5495,1991.5263,NA,NA,NA,NA,NA,90,54,0,85,85,77,1,2,86,"binary"
"5BEA0D28B2504B58AF4CA418A3D38773",1,"0198f780-7db8-7e68-8698-ec7d0ad74d7e","0198f767-55c9-7875-8d21-563b3c0b86ed","2025-08-29_13h24.29.843",NA,NA,1994.8506,1994.8506,1994.8506,1995.261,NA,NA,NA,NA,NA,NA,NA,TRUE,1,0.9223,1991.9132,1994.8506,NA,NA,NA,NA,NA,7,30,0,86,86,3,1,2,87,"binary"
"5BEA0D28B2504B58AF4CA418A3D38773",1,"0198f780-7db8-7e68-8698-ec7d0ad74d7e","0198f767-55c9-7875-8d21-563b3c0b86ed","2025-08-29_13h24.29.843",NA,NA,1998.2194,1998.2194,1998.2194,1998.6221,NA,NA,NA,NA,NA,NA,NA,TRUE,1,0.894,1995.2621,1998.2193,NA,NA,NA,NA,NA,21,27,0,87,87,25,1,2,88,"binary"
"5BEA0D28B2504B58AF4CA418A3D38773",1,"0198f780-7db8-7e68-8698-ec7d0ad74d7e","0198f767-55c9-7875-8d21-563b3c0b86ed","2025-08-29_13h24.29.843",NA,NA,2001.6182,2001.6182,2001.6182,2001.9263,NA,NA,NA,NA,NA,NA,NA,TRUE,2,1.1271,1998.6229,2001.6181,NA,NA,NA,NA,NA,25,46,0,88,88,35,1,2,89,"binary"
"5BEA0D28B2504B58AF4CA418A3D38773",1,"0198f780-7db8-7e68-8698-ec7d0ad74d7e","0198f767-55c9-7875-8d21-563b3c0b86ed","2025-08-29_13h24.29.843",NA,NA,2004.9927,2004.9928,2004.9928,2005.3149,NA,NA,NA,NA,NA,NA,NA,TRUE,1,0.9013,2001.9271,2004.9926,NA,NA,NA,NA,NA,45,29,0,89,89,55,1,2,90,"binary"
"5BEA0D28B2504B58AF4CA418A3D38773",1,"0198f780-7db8-7e68-8698-ec7d0ad74d7e","0198f767-55c9-7875-8d21-563b3c0b86ed","2025-08-29_13h24.29.843",NA,NA,2008.3096,2008.3096,2008.3096,2008.6238,NA,NA,NA,NA,NA,NA,NA,TRUE,1,0.5803,2005.3157,2008.3095,NA,NA,NA,NA,NA,45,26,0,90,90,54,1,2,91,"binary"
"5BEA0D28B2504B58AF4CA418A3D38773",1,"0198f780-7db8-7e68-8698-ec7d0ad74d7e","0198f767-55c9-7875-8d21-563b3c0b86ed","2025-08-29_13h24.29.843",NA,NA,2011.6272,2011.6272,2011.6272,2012.0234,NA,NA,NA,NA,NA,NA,NA,TRUE,1,1.6501,2008.6247,2011.6271,NA,NA,NA,NA,NA,200,54,0,91,91,107,1,2,92,"binary"
"5BEA0D28B2504B58AF4CA418A3D38773",1,"0198f780-7db8-7e68-8698-ec7d0ad74d7e","0198f767-55c9-7875-8d21-563b3c0b86ed","2025-08-29_13h24.29.843",NA,NA,2014.9821,2014.9821,2014.9821,2015.3808,NA,NA,NA,NA,NA,NA,NA,TRUE,2,1.0809,2012.0242,2014.9819,NA,NA,NA,NA,NA,45,40,0,92,92,58,1,2,93,"binary"
"5BEA0D28B2504B58AF4CA418A3D38773",1,"0198f780-7db8-7e68-8698-ec7d0ad74d7e","0198f767-55c9-7875-8d21-563b3c0b86ed","2025-08-29_13h24.29.843",NA,NA,2018.3788,2018.3789,2018.3789,2018.6913,NA,NA,NA,NA,NA,NA,NA,TRUE,2,0.9843,2015.3818,2018.3787,NA,NA,NA,NA,NA,95,40,0,93,93,81,1,2,94,"binary"
"5BEA0D28B2504B58AF4CA418A3D38773",1,"0198f780-7db8-7e68-8698-ec7d0ad74d7e","0198f767-55c9-7875-8d21-563b3c0b86ed","2025-08-29_13h24.29.843",NA,NA,2021.7151,2021.7151,2021.7151,2022.0369,NA,NA,NA,NA,NA,NA,NA,TRUE,1,0.7433,2018.6922,2021.715,NA,NA,NA,NA,NA,150,31,0,94,94,90,1,2,95,"binary"
"5BEA0D28B2504B58AF4CA418A3D38773",1,"0198f780-7db8-7e68-8698-ec7d0ad74d7e","0198f767-55c9-7875-8d21-563b3c0b86ed","2025-08-29_13h24.29.843",NA,NA,2025.0727,2025.0727,2025.0727,2025.4212,NA,NA,NA,NA,NA,NA,NA,TRUE,1,0.741,2022.0379,2025.0726,NA,NA,NA,NA,NA,10,29,0,95,95,9,1,2,96,"binary"
"5BEA0D28B2504B58AF4CA418A3D38773",1,"0198f780-7db8-7e68-8698-ec7d0ad74d7e","0198f767-55c9-7875-8d21-563b3c0b86ed","2025-08-29_13h24.29.843",NA,NA,2028.3956,2028.3956,2028.3956,2028.6874,NA,NA,NA,NA,NA,NA,NA,TRUE,1,0.8144,2025.4221,2028.3955,NA,NA,NA,NA,NA,200,26,0,96,96,102,1,2,97,"binary"
"5BEA0D28B2504B58AF4CA418A3D38773",1,"0198f780-7db8-7e68-8698-ec7d0ad74d7e","0198f767-55c9-7875-8d21-563b3c0b86ed","2025-08-29_13h24.29.843",NA,NA,2031.7568,2031.7568,2031.7568,2032.0726,NA,NA,NA,NA,NA,NA,NA,TRUE,1,0.8498,2028.6883,2031.7566,NA,NA,NA,NA,NA,21,38,0,97,97,29,1,2,98,"binary"
"5BEA0D28B2504B58AF4CA418A3D38773",1,"0198f780-7db8-7e68-8698-ec7d0ad74d7e","0198f767-55c9-7875-8d21-563b3c0b86ed","2025-08-29_13h24.29.843",NA,NA,2035.1309,2035.1309,2035.1309,2035.451,NA,NA,NA,NA,NA,NA,NA,TRUE,1,0.4945,2032.0736,2035.1308,NA,NA,NA,NA,NA,30,38,0,98,98,47,1,2,99,"binary"
"5BEA0D28B2504B58AF4CA418A3D38773",1,"0198f780-7db8-7e68-8698-ec7d0ad74d7e","0198f767-55c9-7875-8d21-563b3c0b86ed","2025-08-29_13h24.29.843",NA,NA,2038.4465,2038.4465,2038.4465,2038.8283,NA,NA,NA,NA,NA,NA,NA,TRUE,2,1.3153,2035.4518,2038.4464,NA,NA,NA,NA,NA,90,40,0,99,99,75,1,2,100,"binary"
"5BEA0D28B2504B58AF4CA418A3D38773",1,"0198f780-7db8-7e68-8698-ec7d0ad74d7e","0198f767-55c9-7875-8d21-563b3c0b86ed","2025-08-29_13h24.29.843",NA,NA,2041.7588,2041.7588,2041.7588,2042.1543,NA,NA,NA,NA,NA,NA,NA,TRUE,1,0.7465,2038.8292,2041.7587,NA,NA,NA,NA,NA,30,26,0,100,100,42,1,2,101,"binary"
"5BEA0D28B2504B58AF4CA418A3D38773",1,"0198f780-7db8-7e68-8698-ec7d0ad74d7e","0198f767-55c9-7875-8d21-563b3c0b86ed","2025-08-29_13h24.29.843",NA,NA,2045.1376,2045.1376,2045.1376,2045.4669,NA,NA,NA,NA,NA,NA,NA,TRUE,1,0.9318,2042.1552,2045.1375,NA,NA,NA,NA,NA,180,35,0,101,101,98,1,2,102,"binary"
"5BEA0D28B2504B58AF4CA418A3D38773",1,"0198f780-7db8-7e68-8698-ec7d0ad74d7e","0198f767-55c9-7875-8d21-563b3c0b86ed","2025-08-29_13h24.29.843",NA,NA,2048.4719,2048.7104,2048.7104,2048.8712,NA,NA,NA,NA,NA,NA,NA,FALSE,NA,NA,2045.4677,2048.4719,NA,NA,NA,NA,NA,180,46,0,102,102,100,1,2,103,"binary"
"5BEA0D28B2504B58AF4CA418A3D38773",1,"0198f780-7db8-7e68-8698-ec7d0ad74d7e","0198f767-55c9-7875-8d21-563b3c0b86ed","2025-08-29_13h24.29.843",NA,NA,2051.8428,2051.8428,2051.8428,2052.2344,NA,NA,NA,NA,NA,NA,NA,TRUE,1,1.0937,2048.8721,2051.8428,NA,NA,NA,NA,NA,30,29,0,103,103,44,1,2,104,"binary"
"5BEA0D28B2504B58AF4CA418A3D38773",1,"0198f780-7db8-7e68-8698-ec7d0ad74d7e","0198f767-55c9-7875-8d21-563b3c0b86ed","2025-08-29_13h24.29.843",NA,NA,2055.1675,2055.1675,2055.1675,2055.5514,NA,NA,NA,NA,NA,NA,NA,TRUE,1,0.643,2052.2353,2055.1674,NA,NA,NA,NA,NA,28,28,0,104,104,37,1,2,105,"binary"
"5BEA0D28B2504B58AF4CA418A3D38773",1,"0198f780-7db8-7e68-8698-ec7d0ad74d7e","0198f767-55c9-7875-8d21-563b3c0b86ed","2025-08-29_13h24.29.843",NA,NA,2058.5734,2058.5735,2058.5735,2058.8813,NA,NA,NA,NA,NA,NA,NA,TRUE,1,0.4428,2055.5522,2058.5733,NA,NA,NA,NA,NA,12,33,0,105,105,16,1,2,106,"binary"
"5BEA0D28B2504B58AF4CA418A3D38773",1,"0198f780-7db8-7e68-8698-ec7d0ad74d7e","0198f767-55c9-7875-8d21-563b3c0b86ed","2025-08-29_13h24.29.843",NA,NA,2061.9032,2061.9032,2061.9032,2062.2194,NA,NA,NA,NA,NA,NA,NA,TRUE,1,1.1498,2058.8822,2061.9031,NA,NA,NA,NA,NA,95,33,0,106,106,79,1,2,107,"binary"
"5BEA0D28B2504B58AF4CA418A3D38773",1,"0198f780-7db8-7e68-8698-ec7d0ad74d7e","0198f767-55c9-7875-8d21-563b3c0b86ed","2025-08-29_13h24.29.843",NA,NA,2065.333,2065.3335,2065.3335,2065.5703,NA,NA,NA,NA,NA,NA,NA,TRUE,1,2.4112,2062.2203,2065.3329,NA,NA,NA,NA,NA,50,27,0,107,107,60,1,2,108,"binary"
