"participant","session","assignmentId","projectId","date","practiceTrial.started","practiceTrial.stopped","tooLate.started","tooLate.stopped","blank.started","blank.stopped","trials_pract.thisRepN","trials_pract.thisTrialN","trials_pract.thisN","trials_pract.thisIndex","trials_pract.ran","delay_pract","amount_pract","responseMade","key","rt","trial.started","trial.stopped","trials.thisRepN","trials.thisTrialN","trials.thisN","trials.thisIndex","trials.ran","delay","amount","trials_2.thisRepN","trials_2.thisTrialN","trials_2.thisN","trials_2.thisIndex","trials_2.ran","block","trial","taskType"
"61FFB453863242FDA4ED125D8E818F3C",1,"01990a9b-8859-78ac-a470-6b46454d8de8","01990a83-7673-7c0c-a792-bbd8fbbaf673","2025-09-02_09h26.55.190",68.0544,71.0372,71.0377,71.0474,71.0476,71.3872,0,0,0,3,1,3,27,TRUE,1,1.6833,NA,NA,NA,NA,NA,NA,NA,NA,NA,NA,NA,NA,NA,NA,0,1,"binary"
"61FFB453863242FDA4ED125D8E818F3C",1,"01990a9b-8859-78ac-a470-6b46454d8de8","01990a83-7673-7c0c-a792-bbd8fbbaf673","2025-09-02_09h26.55.190",71.3889,74.3872,74.3874,74.3874,74.3874,74.7371,0,1,1,0,1,7,30,TRUE,1,1.2639,NA,NA,NA,NA,NA,NA,NA,NA,NA,NA,NA,NA,NA,NA,0,2,"binary"
"61FFB453863242FDA4ED125D8E818F3C",1,"01990a9b-8859-78ac-a470-6b46454d8de8","01990a83-7673-7c0c-a792-bbd8fbbaf673","2025-09-02_09h26.55.190",74.7387,77.7372,77.7374,77.7375,77.7375,78.0872,0,2,2,2,1,14,45,TRUE,1,2.5299,NA,NA,NA,NA,NA,NA,NA,NA,NA,NA,NA,NA,NA,NA,0,3,"binary"
"61FFB453863242FDA4ED125D8E818F3C",1,"01990a9b-8859-78ac-a470-6b46454d8de8","01990a83-7673-7c0c-a792-bbd8fbbaf673","2025-09-02_09h26.55.190",78.0883,81.0872,81.0873,81.0873,81.0873,81.4371,0,3,3,1,1,100,50,TRUE,1,1.4968,NA,NA,NA,NA,NA,NA,NA,NA,NA,NA,NA,NA,NA,NA,0,4,"binary"
"61FFB453863242FDA4ED125D8E818F3C",1,"01990a9b-8859-78ac-a470-6b46454d8de8","01990a83-7673-7c0c-a792-bbd8fbbaf673","2025-09-02_09h26.55.190",81.4386,84.4371,84.4372,84.4374,84.4374,84.7871,0,4,4,4,1,30,40,TRUE,1,2.7636,NA,NA,NA,NA,NA,NA,NA,NA,NA,NA,NA,NA,NA,NA,0,5,"binary"
"61FFB453863242FDA4ED125D8E818F3C",1,"01990a9b-8859-78ac-a470-6b46454d8de8","01990a83-7673-7c0c-a792-bbd8fbbaf673","2025-09-02_09h26.55.190",NA,NA,113.3544,113.3545,113.3547,113.7042,NA,NA,NA,NA,NA,NA,NA,TRUE,1,1.4176,110.3717,113.3541,0,0,0,84,1,100,26,NA,NA,NA,NA,NA,1,1,"binary"
"61FFB453863242FDA4ED125D8E818F3C",1,"01990a9b-8859-78ac-a470-6b46454d8de8","01990a83-7673-7c0c-a792-bbd8fbbaf673","2025-09-02_09h26.55.190",NA,NA,116.7041,116.7041,116.7041,117.0542,NA,NA,NA,NA,NA,NA,NA,TRUE,1,1.3975,113.7056,116.704,0,1,1,44,1,30,29,NA,NA,NA,NA,NA,1,2,"binary"
"61FFB453863242FDA4ED125D8E818F3C",1,"01990a9b-8859-78ac-a470-6b46454d8de8","01990a83-7673-7c0c-a792-bbd8fbbaf673","2025-09-02_09h26.55.190",NA,NA,120.0541,120.0542,120.0542,120.404,NA,NA,NA,NA,NA,NA,NA,TRUE,1,2.2829,117.0554,120.054,0,2,2,23,1,14,39,NA,NA,NA,NA,NA,1,3,"binary"
"61FFB453863242FDA4ED125D8E818F3C",1,"01990a9b-8859-78ac-a470-6b46454d8de8","01990a83-7673-7c0c-a792-bbd8fbbaf673","2025-09-02_09h26.55.190",NA,NA,123.4041,123.4042,123.4042,123.754,NA,NA,NA,NA,NA,NA,NA,TRUE,1,1.1298,120.4049,123.404,0,3,3,88,1,100,46,NA,NA,NA,NA,NA,1,4,"binary"
"61FFB453863242FDA4ED125D8E818F3C",1,"01990a9b-8859-78ac-a470-6b46454d8de8","01990a83-7673-7c0c-a792-bbd8fbbaf673","2025-09-02_09h26.55.190",NA,NA,126.7542,126.7542,126.7543,127.1041,NA,NA,NA,NA,NA,NA,NA,TRUE,1,1.8301,123.7551,126.7541,0,4,4,92,1,150,35,NA,NA,NA,NA,NA,1,5,"binary"
"61FFB453863242FDA4ED125D8E818F3C",1,"01990a9b-8859-78ac-a470-6b46454d8de8","01990a83-7673-7c0c-a792-bbd8fbbaf673","2025-09-02_09h26.55.190",NA,NA,130.1043,130.1043,130.1043,130.4542,NA,NA,NA,NA,NA,NA,NA,TRUE,1,1.6887,127.105,130.1041,0,5,5,89,1,100,54,NA,NA,NA,NA,NA,1,6,"binary"
"61FFB453863242FDA4ED125D8E818F3C",1,"01990a9b-8859-78ac-a470-6b46454d8de8","01990a83-7673-7c0c-a792-bbd8fbbaf673","2025-09-02_09h26.55.190",NA,NA,133.4543,133.4544,133.4544,133.8042,NA,NA,NA,NA,NA,NA,NA,TRUE,1,2.2966,130.4553,133.4542,0,6,6,105,1,200,39,NA,NA,NA,NA,NA,1,7,"binary"
"61FFB453863242FDA4ED125D8E818F3C",1,"01990a9b-8859-78ac-a470-6b46454d8de8","01990a83-7673-7c0c-a792-bbd8fbbaf673","2025-09-02_09h26.55.190",NA,NA,136.8042,137.0542,137.0542,137.1541,NA,NA,NA,NA,NA,NA,NA,FALSE,NA,NA,133.8054,136.8041,0,7,7,74,1,90,33,NA,NA,NA,NA,NA,1,8,"binary"
"61FFB453863242FDA4ED125D8E818F3C",1,"01990a9b-8859-78ac-a470-6b46454d8de8","01990a83-7673-7c0c-a792-bbd8fbbaf673","2025-09-02_09h26.55.190",NA,NA,140.1542,140.1542,140.1542,140.5041,NA,NA,NA,NA,NA,NA,NA,TRUE,1,0.9339,137.1552,140.1541,0,8,8,11,1,10,32,NA,NA,NA,NA,NA,1,9,"binary"
"61FFB453863242FDA4ED125D8E818F3C",1,"01990a9b-8859-78ac-a470-6b46454d8de8","01990a83-7673-7c0c-a792-bbd8fbbaf673","2025-09-02_09h26.55.190",NA,NA,143.5042,143.5042,143.5042,143.8542,NA,NA,NA,NA,NA,NA,NA,TRUE,1,1.5636,140.5051,143.5042,0,9,9,53,1,40,54,NA,NA,NA,NA,NA,1,10,"binary"
"61FFB453863242FDA4ED125D8E818F3C",1,"01990a9b-8859-78ac-a470-6b46454d8de8","01990a83-7673-7c0c-a792-bbd8fbbaf673","2025-09-02_09h26.55.190",NA,NA,146.8546,146.8546,146.8546,147.2042,NA,NA,NA,NA,NA,NA,NA,TRUE,1,1.4043,143.8555,146.8544,0,10,10,40,1,28,39,NA,NA,NA,NA,NA,1,11,"binary"
"61FFB453863242FDA4ED125D8E818F3C",1,"01990a9b-8859-78ac-a470-6b46454d8de8","01990a83-7673-7c0c-a792-bbd8fbbaf673","2025-09-02_09h26.55.190",NA,NA,150.2043,150.2043,150.2043,150.5542,NA,NA,NA,NA,NA,NA,NA,TRUE,1,1.6138,147.2052,150.2042,0,11,11,100,1,180,46,NA,NA,NA,NA,NA,1,12,"binary"
"61FFB453863242FDA4ED125D8E818F3C",1,"01990a9b-8859-78ac-a470-6b46454d8de8","01990a83-7673-7c0c-a792-bbd8fbbaf673","2025-09-02_09h26.55.190",NA,NA,153.5544,153.5545,153.5545,153.9042,NA,NA,NA,NA,NA,NA,NA,TRUE,1,1.5302,150.5553,153.5543,0,12,12,68,1,60,35,NA,NA,NA,NA,NA,1,13,"binary"
"61FFB453863242FDA4ED125D8E818F3C",1,"01990a9b-8859-78ac-a470-6b46454d8de8","01990a83-7673-7c0c-a792-bbd8fbbaf673","2025-09-02_09h26.55.190",NA,NA,156.9044,156.9044,156.9044,157.2542,NA,NA,NA,NA,NA,NA,NA,TRUE,1,1.3303,153.9051,156.9042,0,13,13,10,1,10,30,NA,NA,NA,NA,NA,1,14,"binary"
"61FFB453863242FDA4ED125D8E818F3C",1,"01990a9b-8859-78ac-a470-6b46454d8de8","01990a83-7673-7c0c-a792-bbd8fbbaf673","2025-09-02_09h26.55.190",NA,NA,160.2544,160.2544,160.2544,160.6042,NA,NA,NA,NA,NA,NA,NA,TRUE,1,0.9646,157.2551,160.2543,0,14,14,56,1,45,31,NA,NA,NA,NA,NA,1,15,"binary"
"61FFB453863242FDA4ED125D8E818F3C",1,"01990a9b-8859-78ac-a470-6b46454d8de8","01990a83-7673-7c0c-a792-bbd8fbbaf673","2025-09-02_09h26.55.190",NA,NA,163.6044,163.6045,163.6045,163.9542,NA,NA,NA,NA,NA,NA,NA,TRUE,1,0.9304,160.6053,163.6043,0,15,15,104,1,200,35,NA,NA,NA,NA,NA,1,16,"binary"
"61FFB453863242FDA4ED125D8E818F3C",1,"01990a9b-8859-78ac-a470-6b46454d8de8","01990a83-7673-7c0c-a792-bbd8fbbaf673","2025-09-02_09h26.55.190",NA,NA,166.9544,166.9545,166.9545,167.3043,NA,NA,NA,NA,NA,NA,NA,TRUE,1,1.5482,163.9552,166.9543,0,16,16,98,1,180,35,NA,NA,NA,NA,NA,1,17,"binary"
"61FFB453863242FDA4ED125D8E818F3C",1,"01990a9b-8859-78ac-a470-6b46454d8de8","01990a83-7673-7c0c-a792-bbd8fbbaf673","2025-09-02_09h26.55.190",NA,NA,170.3045,170.3045,170.3045,170.6544,NA,NA,NA,NA,NA,NA,NA,TRUE,1,1.4793,167.3055,170.3044,0,17,17,83,1,95,54,NA,NA,NA,NA,NA,1,18,"binary"
"61FFB453863242FDA4ED125D8E818F3C",1,"01990a9b-8859-78ac-a470-6b46454d8de8","01990a83-7673-7c0c-a792-bbd8fbbaf673","2025-09-02_09h26.55.190",NA,NA,173.6545,173.6545,173.6545,174.0045,NA,NA,NA,NA,NA,NA,NA,TRUE,1,1.4845,170.6553,173.6544,0,18,18,55,1,45,29,NA,NA,NA,NA,NA,1,19,"binary"
"61FFB453863242FDA4ED125D8E818F3C",1,"01990a9b-8859-78ac-a470-6b46454d8de8","01990a83-7673-7c0c-a792-bbd8fbbaf673","2025-09-02_09h26.55.190",NA,NA,177.0044,177.0044,177.0044,177.3543,NA,NA,NA,NA,NA,NA,NA,TRUE,1,1.1964,174.0055,177.0043,0,19,19,62,1,50,35,NA,NA,NA,NA,NA,1,20,"binary"
"61FFB453863242FDA4ED125D8E818F3C",1,"01990a9b-8859-78ac-a470-6b46454d8de8","01990a83-7673-7c0c-a792-bbd8fbbaf673","2025-09-02_09h26.55.190",NA,NA,180.3544,180.3544,180.3544,180.7045,NA,NA,NA,NA,NA,NA,NA,TRUE,1,0.9895,177.3553,180.3543,0,20,20,82,1,95,47,NA,NA,NA,NA,NA,1,21,"binary"
"61FFB453863242FDA4ED125D8E818F3C",1,"01990a9b-8859-78ac-a470-6b46454d8de8","01990a83-7673-7c0c-a792-bbd8fbbaf673","2025-09-02_09h26.55.190",NA,NA,183.7045,183.7046,183.7046,184.0544,NA,NA,NA,NA,NA,NA,NA,TRUE,1,1.0901,180.7055,183.7045,0,21,21,61,1,50,30,NA,NA,NA,NA,NA,1,22,"binary"
"61FFB453863242FDA4ED125D8E818F3C",1,"01990a9b-8859-78ac-a470-6b46454d8de8","01990a83-7673-7c0c-a792-bbd8fbbaf673","2025-09-02_09h26.55.190",NA,NA,187.0545,187.0545,187.0546,187.4043,NA,NA,NA,NA,NA,NA,NA,TRUE,2,1.1639,184.0554,187.0545,0,22,22,20,1,14,28,NA,NA,NA,NA,NA,1,23,"binary"
"61FFB453863242FDA4ED125D8E818F3C",1,"01990a9b-8859-78ac-a470-6b46454d8de8","01990a83-7673-7c0c-a792-bbd8fbbaf673","2025-09-02_09h26.55.190",NA,NA,190.4045,190.4045,190.4045,190.7544,NA,NA,NA,NA,NA,NA,NA,TRUE,1,1.0047,187.4056,190.4044,0,23,23,17,1,12,35,NA,NA,NA,NA,NA,1,24,"binary"
"61FFB453863242FDA4ED125D8E818F3C",1,"01990a9b-8859-78ac-a470-6b46454d8de8","01990a83-7673-7c0c-a792-bbd8fbbaf673","2025-09-02_09h26.55.190",NA,NA,193.7545,193.7546,193.7546,194.1044,NA,NA,NA,NA,NA,NA,NA,TRUE,2,1.3303,190.7554,193.7544,0,24,24,2,1,7,28,NA,NA,NA,NA,NA,1,25,"binary"
"61FFB453863242FDA4ED125D8E818F3C",1,"01990a9b-8859-78ac-a470-6b46454d8de8","01990a83-7673-7c0c-a792-bbd8fbbaf673","2025-09-02_09h26.55.190",NA,NA,197.1046,197.1046,197.1047,197.4546,NA,NA,NA,NA,NA,NA,NA,TRUE,1,1.0495,194.1056,197.1045,0,25,25,87,1,100,39,NA,NA,NA,NA,NA,1,26,"binary"
"61FFB453863242FDA4ED125D8E818F3C",1,"01990a9b-8859-78ac-a470-6b46454d8de8","01990a83-7673-7c0c-a792-bbd8fbbaf673","2025-09-02_09h26.55.190",NA,NA,200.4545,200.4545,200.4545,200.8045,NA,NA,NA,NA,NA,NA,NA,TRUE,1,1.1969,197.4557,200.4545,0,26,26,18,1,14,25,NA,NA,NA,NA,NA,1,27,"binary"
"61FFB453863242FDA4ED125D8E818F3C",1,"01990a9b-8859-78ac-a470-6b46454d8de8","01990a83-7673-7c0c-a792-bbd8fbbaf673","2025-09-02_09h26.55.190",NA,NA,203.8046,203.8046,203.8046,204.1545,NA,NA,NA,NA,NA,NA,NA,TRUE,1,0.8998,200.8055,203.8045,0,27,27,39,1,28,35,NA,NA,NA,NA,NA,1,28,"binary"
"61FFB453863242FDA4ED125D8E818F3C",1,"01990a9b-8859-78ac-a470-6b46454d8de8","01990a83-7673-7c0c-a792-bbd8fbbaf673","2025-09-02_09h26.55.190",NA,NA,207.1545,207.1546,207.1546,207.5046,NA,NA,NA,NA,NA,NA,NA,TRUE,1,1.1797,204.1554,207.1544,0,28,28,31,1,25,29,NA,NA,NA,NA,NA,1,29,"binary"
"61FFB453863242FDA4ED125D8E818F3C",1,"01990a9b-8859-78ac-a470-6b46454d8de8","01990a83-7673-7c0c-a792-bbd8fbbaf673","2025-09-02_09h26.55.190",NA,NA,210.5046,210.5047,210.5047,210.8545,NA,NA,NA,NA,NA,NA,NA,TRUE,1,0.8845,207.5056,210.5045,0,29,29,101,1,180,54,NA,NA,NA,NA,NA,1,30,"binary"
"61FFB453863242FDA4ED125D8E818F3C",1,"01990a9b-8859-78ac-a470-6b46454d8de8","01990a83-7673-7c0c-a792-bbd8fbbaf673","2025-09-02_09h26.55.190",NA,NA,213.8545,213.8546,213.8546,214.2045,NA,NA,NA,NA,NA,NA,NA,TRUE,1,1.2969,210.8555,213.8545,0,30,30,96,1,180,27,NA,NA,NA,NA,NA,1,31,"binary"
"61FFB453863242FDA4ED125D8E818F3C",1,"01990a9b-8859-78ac-a470-6b46454d8de8","01990a83-7673-7c0c-a792-bbd8fbbaf673","2025-09-02_09h26.55.190",NA,NA,217.2047,217.2048,217.2048,217.5545,NA,NA,NA,NA,NA,NA,NA,TRUE,1,1.1465,214.2056,217.2045,0,31,31,60,1,50,27,NA,NA,NA,NA,NA,1,32,"binary"
"61FFB453863242FDA4ED125D8E818F3C",1,"01990a9b-8859-78ac-a470-6b46454d8de8","01990a83-7673-7c0c-a792-bbd8fbbaf673","2025-09-02_09h26.55.190",NA,NA,220.5548,220.5548,220.5549,220.9045,NA,NA,NA,NA,NA,NA,NA,TRUE,1,0.78,217.5556,220.5547,0,32,32,52,1,40,47,NA,NA,NA,NA,NA,1,33,"binary"
"61FFB453863242FDA4ED125D8E818F3C",1,"01990a9b-8859-78ac-a470-6b46454d8de8","01990a83-7673-7c0c-a792-bbd8fbbaf673","2025-09-02_09h26.55.190",NA,NA,223.9048,223.9049,223.9049,224.2545,NA,NA,NA,NA,NA,NA,NA,TRUE,1,1.25,220.9056,223.9047,0,33,33,35,1,25,46,NA,NA,NA,NA,NA,1,34,"binary"
"61FFB453863242FDA4ED125D8E818F3C",1,"01990a9b-8859-78ac-a470-6b46454d8de8","01990a83-7673-7c0c-a792-bbd8fbbaf673","2025-09-02_09h26.55.190",NA,NA,227.2547,227.2548,227.2548,227.6046,NA,NA,NA,NA,NA,NA,NA,TRUE,1,1.3556,224.2556,227.2547,0,34,34,50,1,40,35,NA,NA,NA,NA,NA,1,35,"binary"
"61FFB453863242FDA4ED125D8E818F3C",1,"01990a9b-8859-78ac-a470-6b46454d8de8","01990a83-7673-7c0c-a792-bbd8fbbaf673","2025-09-02_09h26.55.190",NA,NA,230.6049,230.6049,230.6049,230.9548,NA,NA,NA,NA,NA,NA,NA,TRUE,1,1.4496,227.6058,230.6047,0,35,35,75,1,90,40,NA,NA,NA,NA,NA,1,36,"binary"
"61FFB453863242FDA4ED125D8E818F3C",1,"01990a9b-8859-78ac-a470-6b46454d8de8","01990a83-7673-7c0c-a792-bbd8fbbaf673","2025-09-02_09h26.55.190",NA,NA,233.9548,233.9548,233.9548,234.3047,NA,NA,NA,NA,NA,NA,NA,TRUE,1,1.1635,230.9558,233.9547,0,36,36,65,1,50,54,NA,NA,NA,NA,NA,1,37,"binary"
"61FFB453863242FDA4ED125D8E818F3C",1,"01990a9b-8859-78ac-a470-6b46454d8de8","01990a83-7673-7c0c-a792-bbd8fbbaf673","2025-09-02_09h26.55.190",NA,NA,237.3047,237.3048,237.3048,237.6546,NA,NA,NA,NA,NA,NA,NA,TRUE,1,1.1,234.3057,237.3046,0,37,37,103,1,200,28,NA,NA,NA,NA,NA,1,38,"binary"
"61FFB453863242FDA4ED125D8E818F3C",1,"01990a9b-8859-78ac-a470-6b46454d8de8","01990a83-7673-7c0c-a792-bbd8fbbaf673","2025-09-02_09h26.55.190",NA,NA,240.6549,240.6549,240.6549,241.0049,NA,NA,NA,NA,NA,NA,NA,TRUE,2,0.8806,237.6557,240.6547,0,38,38,3,1,7,30,NA,NA,NA,NA,NA,1,39,"binary"
"61FFB453863242FDA4ED125D8E818F3C",1,"01990a9b-8859-78ac-a470-6b46454d8de8","01990a83-7673-7c0c-a792-bbd8fbbaf673","2025-09-02_09h26.55.190",NA,NA,244.0047,244.0047,244.0047,244.3547,NA,NA,NA,NA,NA,NA,NA,TRUE,1,1.2808,241.0063,244.0046,0,39,39,9,1,10,29,NA,NA,NA,NA,NA,1,40,"binary"
"61FFB453863242FDA4ED125D8E818F3C",1,"01990a9b-8859-78ac-a470-6b46454d8de8","01990a83-7673-7c0c-a792-bbd8fbbaf673","2025-09-02_09h26.55.190",NA,NA,247.355,247.355,247.355,247.7047,NA,NA,NA,NA,NA,NA,NA,TRUE,1,1.1206,244.3557,247.3548,0,40,40,7,1,10,26,NA,NA,NA,NA,NA,1,41,"binary"
"61FFB453863242FDA4ED125D8E818F3C",1,"01990a9b-8859-78ac-a470-6b46454d8de8","01990a83-7673-7c0c-a792-bbd8fbbaf673","2025-09-02_09h26.55.190",NA,NA,250.7049,250.705,250.705,251.0547,NA,NA,NA,NA,NA,NA,NA,TRUE,1,1.0159,247.7058,250.7047,0,41,41,72,1,90,26,NA,NA,NA,NA,NA,1,42,"binary"
"61FFB453863242FDA4ED125D8E818F3C",1,"01990a9b-8859-78ac-a470-6b46454d8de8","01990a83-7673-7c0c-a792-bbd8fbbaf673","2025-09-02_09h26.55.190",NA,NA,254.0548,254.0549,254.0549,254.4047,NA,NA,NA,NA,NA,NA,NA,TRUE,1,1.0656,251.0557,254.0547,0,42,42,34,1,25,35,NA,NA,NA,NA,NA,1,43,"binary"
"61FFB453863242FDA4ED125D8E818F3C",1,"01990a9b-8859-78ac-a470-6b46454d8de8","01990a83-7673-7c0c-a792-bbd8fbbaf673","2025-09-02_09h26.55.190",NA,NA,257.4049,257.405,257.405,257.7547,NA,NA,NA,NA,NA,NA,NA,TRUE,1,0.8808,254.4057,257.4048,0,43,43,64,1,50,46,NA,NA,NA,NA,NA,1,44,"binary"
"61FFB453863242FDA4ED125D8E818F3C",1,"01990a9b-8859-78ac-a470-6b46454d8de8","01990a83-7673-7c0c-a792-bbd8fbbaf673","2025-09-02_09h26.55.190",NA,NA,260.755,260.755,260.755,261.1047,NA,NA,NA,NA,NA,NA,NA,TRUE,1,0.9504,257.7557,260.7549,0,44,44,58,1,45,40,NA,NA,NA,NA,NA,1,45,"binary"
"61FFB453863242FDA4ED125D8E818F3C",1,"01990a9b-8859-78ac-a470-6b46454d8de8","01990a83-7673-7c0c-a792-bbd8fbbaf673","2025-09-02_09h26.55.190",NA,NA,264.105,264.105,264.105,264.4547,NA,NA,NA,NA,NA,NA,NA,TRUE,1,1.0801,261.1059,264.1049,0,45,45,21,1,14,32,NA,NA,NA,NA,NA,1,46,"binary"
"61FFB453863242FDA4ED125D8E818F3C",1,"01990a9b-8859-78ac-a470-6b46454d8de8","01990a83-7673-7c0c-a792-bbd8fbbaf673","2025-09-02_09h26.55.190",NA,NA,267.4551,267.4551,267.4551,267.8048,NA,NA,NA,NA,NA,NA,NA,TRUE,1,1.0209,264.4556,267.4549,0,46,46,49,1,40,33,NA,NA,NA,NA,NA,1,47,"binary"
"61FFB453863242FDA4ED125D8E818F3C",1,"01990a9b-8859-78ac-a470-6b46454d8de8","01990a83-7673-7c0c-a792-bbd8fbbaf673","2025-09-02_09h26.55.190",NA,NA,270.805,270.8051,270.8051,271.1548,NA,NA,NA,NA,NA,NA,NA,TRUE,1,1.1064,267.8059,270.8049,0,47,47,24,1,21,26,NA,NA,NA,NA,NA,1,48,"binary"
"61FFB453863242FDA4ED125D8E818F3C",1,"01990a9b-8859-78ac-a470-6b46454d8de8","01990a83-7673-7c0c-a792-bbd8fbbaf673","2025-09-02_09h26.55.190",NA,NA,274.155,274.155,274.155,274.5048,NA,NA,NA,NA,NA,NA,NA,TRUE,1,0.83,271.1559,274.1549,0,48,48,94,1,150,47,NA,NA,NA,NA,NA,1,49,"binary"
"61FFB453863242FDA4ED125D8E818F3C",1,"01990a9b-8859-78ac-a470-6b46454d8de8","01990a83-7673-7c0c-a792-bbd8fbbaf673","2025-09-02_09h26.55.190",NA,NA,277.505,277.5051,277.5051,277.8549,NA,NA,NA,NA,NA,NA,NA,TRUE,1,0.697,274.5059,277.5049,0,49,49,99,1,180,39,NA,NA,NA,NA,NA,1,50,"binary"
"61FFB453863242FDA4ED125D8E818F3C",1,"01990a9b-8859-78ac-a470-6b46454d8de8","01990a83-7673-7c0c-a792-bbd8fbbaf673","2025-09-02_09h26.55.190",NA,NA,280.855,280.855,280.855,281.2048,NA,NA,NA,NA,NA,NA,NA,TRUE,1,0.847,277.8558,280.8549,0,50,50,93,1,150,40,NA,NA,NA,NA,NA,1,51,"binary"
"61FFB453863242FDA4ED125D8E818F3C",1,"01990a9b-8859-78ac-a470-6b46454d8de8","01990a83-7673-7c0c-a792-bbd8fbbaf673","2025-09-02_09h26.55.190",NA,NA,284.205,284.2051,284.2051,284.5551,NA,NA,NA,NA,NA,NA,NA,TRUE,1,0.8713,281.206,284.2049,0,51,51,70,1,60,47,NA,NA,NA,NA,NA,1,52,"binary"
"61FFB453863242FDA4ED125D8E818F3C",1,"01990a9b-8859-78ac-a470-6b46454d8de8","01990a83-7673-7c0c-a792-bbd8fbbaf673","2025-09-02_09h26.55.190",NA,NA,287.555,287.5551,287.5552,287.9049,NA,NA,NA,NA,NA,NA,NA,TRUE,1,1.3221,284.556,287.5549,0,52,52,26,1,21,29,NA,NA,NA,NA,NA,1,53,"binary"
"61FFB453863242FDA4ED125D8E818F3C",1,"01990a9b-8859-78ac-a470-6b46454d8de8","01990a83-7673-7c0c-a792-bbd8fbbaf673","2025-09-02_09h26.55.190",NA,NA,290.9051,290.9051,290.9051,291.255,NA,NA,NA,NA,NA,NA,NA,TRUE,1,1.4313,287.906,290.905,0,53,53,13,1,12,26,NA,NA,NA,NA,NA,1,54,"binary"
"61FFB453863242FDA4ED125D8E818F3C",1,"01990a9b-8859-78ac-a470-6b46454d8de8","01990a83-7673-7c0c-a792-bbd8fbbaf673","2025-09-02_09h26.55.190",NA,NA,294.2549,294.255,294.2551,294.6049,NA,NA,NA,NA,NA,NA,NA,TRUE,1,1.68,291.256,294.2549,0,54,54,1,1,7,26,NA,NA,NA,NA,NA,1,55,"binary"
"61FFB453863242FDA4ED125D8E818F3C",1,"01990a9b-8859-78ac-a470-6b46454d8de8","01990a83-7673-7c0c-a792-bbd8fbbaf673","2025-09-02_09h26.55.190",NA,NA,297.6051,297.6052,297.6052,297.955,NA,NA,NA,NA,NA,NA,NA,TRUE,1,1.93,294.606,297.6051,0,55,55,46,1,30,32,NA,NA,NA,NA,NA,1,56,"binary"
"61FFB453863242FDA4ED125D8E818F3C",1,"01990a9b-8859-78ac-a470-6b46454d8de8","01990a83-7673-7c0c-a792-bbd8fbbaf673","2025-09-02_09h26.55.190",NA,NA,300.9552,300.9552,300.9552,301.305,NA,NA,NA,NA,NA,NA,NA,TRUE,1,1.8866,297.9562,300.9551,0,56,56,15,1,12,31,NA,NA,NA,NA,NA,1,57,"binary"
"61FFB453863242FDA4ED125D8E818F3C",1,"01990a9b-8859-78ac-a470-6b46454d8de8","01990a83-7673-7c0c-a792-bbd8fbbaf673","2025-09-02_09h26.55.190",NA,NA,304.3053,304.3054,304.3054,304.655,NA,NA,NA,NA,NA,NA,NA,TRUE,1,2.9318,301.306,304.3052,0,57,57,67,1,60,33,NA,NA,NA,NA,NA,1,58,"binary"
"61FFB453863242FDA4ED125D8E818F3C",1,"01990a9b-8859-78ac-a470-6b46454d8de8","01990a83-7673-7c0c-a792-bbd8fbbaf673","2025-09-02_09h26.55.190",NA,NA,307.6552,307.6552,307.6552,308.005,NA,NA,NA,NA,NA,NA,NA,TRUE,1,2.3138,304.6562,307.6551,0,58,58,48,1,40,27,NA,NA,NA,NA,NA,1,59,"binary"
"61FFB453863242FDA4ED125D8E818F3C",1,"01990a9b-8859-78ac-a470-6b46454d8de8","01990a83-7673-7c0c-a792-bbd8fbbaf673","2025-09-02_09h26.55.190",NA,NA,311.0052,311.0053,311.0053,311.3553,NA,NA,NA,NA,NA,NA,NA,TRUE,1,1.0467,308.0063,311.0051,0,59,59,42,1,30,26,NA,NA,NA,NA,NA,1,60,"binary"
"61FFB453863242FDA4ED125D8E818F3C",1,"01990a9b-8859-78ac-a470-6b46454d8de8","01990a83-7673-7c0c-a792-bbd8fbbaf673","2025-09-02_09h26.55.190",NA,NA,314.3551,314.3552,314.3552,314.7051,NA,NA,NA,NA,NA,NA,NA,TRUE,1,1.4134,311.3564,314.3551,0,60,60,28,1,21,32,NA,NA,NA,NA,NA,1,61,"binary"
"61FFB453863242FDA4ED125D8E818F3C",1,"01990a9b-8859-78ac-a470-6b46454d8de8","01990a83-7673-7c0c-a792-bbd8fbbaf673","2025-09-02_09h26.55.190",NA,NA,317.7055,317.7056,317.7056,318.0551,NA,NA,NA,NA,NA,NA,NA,TRUE,1,1.3299,314.7061,317.7053,0,61,61,76,1,90,46,NA,NA,NA,NA,NA,1,62,"binary"
"61FFB453863242FDA4ED125D8E818F3C",1,"01990a9b-8859-78ac-a470-6b46454d8de8","01990a83-7673-7c0c-a792-bbd8fbbaf673","2025-09-02_09h26.55.190",NA,NA,321.0552,321.0552,321.0552,321.4054,NA,NA,NA,NA,NA,NA,NA,TRUE,1,1.4805,318.0561,321.0552,0,62,62,107,1,200,54,NA,NA,NA,NA,NA,1,63,"binary"
"61FFB453863242FDA4ED125D8E818F3C",1,"01990a9b-8859-78ac-a470-6b46454d8de8","01990a83-7673-7c0c-a792-bbd8fbbaf673","2025-09-02_09h26.55.190",NA,NA,324.4052,324.4052,324.4052,324.7551,NA,NA,NA,NA,NA,NA,NA,TRUE,1,2.4864,321.4067,324.4052,0,63,63,30,1,25,27,NA,NA,NA,NA,NA,1,64,"binary"
"61FFB453863242FDA4ED125D8E818F3C",1,"01990a9b-8859-78ac-a470-6b46454d8de8","01990a83-7673-7c0c-a792-bbd8fbbaf673","2025-09-02_09h26.55.190",NA,NA,327.7554,327.7554,327.7554,328.1051,NA,NA,NA,NA,NA,NA,NA,TRUE,1,1.0707,324.7562,327.7553,0,64,64,95,1,150,54,NA,NA,NA,NA,NA,1,65,"binary"
"61FFB453863242FDA4ED125D8E818F3C",1,"01990a9b-8859-78ac-a470-6b46454d8de8","01990a83-7673-7c0c-a792-bbd8fbbaf673","2025-09-02_09h26.55.190",NA,NA,331.1053,331.1054,331.1054,331.4552,NA,NA,NA,NA,NA,NA,NA,TRUE,1,0.8475,328.1061,331.1052,0,65,65,85,1,100,31,NA,NA,NA,NA,NA,1,66,"binary"
"61FFB453863242FDA4ED125D8E818F3C",1,"01990a9b-8859-78ac-a470-6b46454d8de8","01990a83-7673-7c0c-a792-bbd8fbbaf673","2025-09-02_09h26.55.190",NA,NA,334.4553,334.4553,334.4553,334.8052,NA,NA,NA,NA,NA,NA,NA,TRUE,1,1.197,331.4563,334.4552,0,66,66,0,1,7,25,NA,NA,NA,NA,NA,1,67,"binary"
"61FFB453863242FDA4ED125D8E818F3C",1,"01990a9b-8859-78ac-a470-6b46454d8de8","01990a83-7673-7c0c-a792-bbd8fbbaf673","2025-09-02_09h26.55.190",NA,NA,337.8055,337.8056,337.8056,338.1554,NA,NA,NA,NA,NA,NA,NA,TRUE,1,1.0377,334.8063,337.8054,0,67,67,22,1,14,35,NA,NA,NA,NA,NA,1,68,"binary"
"61FFB453863242FDA4ED125D8E818F3C",1,"01990a9b-8859-78ac-a470-6b46454d8de8","01990a83-7673-7c0c-a792-bbd8fbbaf673","2025-09-02_09h26.55.190",NA,NA,341.1553,341.1553,341.1553,341.5053,NA,NA,NA,NA,NA,NA,NA,TRUE,1,0.837,338.1564,341.1552,0,68,68,8,1,10,27,NA,NA,NA,NA,NA,1,69,"binary"
"61FFB453863242FDA4ED125D8E818F3C",1,"01990a9b-8859-78ac-a470-6b46454d8de8","01990a83-7673-7c0c-a792-bbd8fbbaf673","2025-09-02_09h26.55.190",NA,NA,344.5053,344.5054,344.5054,344.8552,NA,NA,NA,NA,NA,NA,NA,TRUE,1,0.8464,341.5064,344.5052,0,69,69,36,1,28,26,NA,NA,NA,NA,NA,1,70,"binary"
"61FFB453863242FDA4ED125D8E818F3C",1,"01990a9b-8859-78ac-a470-6b46454d8de8","01990a83-7673-7c0c-a792-bbd8fbbaf673","2025-09-02_09h26.55.190",NA,NA,347.8553,347.8553,347.8553,348.2052,NA,NA,NA,NA,NA,NA,NA,TRUE,1,0.8674,344.8562,347.8552,0,70,70,66,1,60,29,NA,NA,NA,NA,NA,1,71,"binary"
"61FFB453863242FDA4ED125D8E818F3C",1,"01990a9b-8859-78ac-a470-6b46454d8de8","01990a83-7673-7c0c-a792-bbd8fbbaf673","2025-09-02_09h26.55.190",NA,NA,351.2054,351.2054,351.2054,351.5553,NA,NA,NA,NA,NA,NA,NA,TRUE,1,0.9377,348.2063,351.2053,0,71,71,32,1,25,31,NA,NA,NA,NA,NA,1,72,"binary"
"61FFB453863242FDA4ED125D8E818F3C",1,"01990a9b-8859-78ac-a470-6b46454d8de8","01990a83-7673-7c0c-a792-bbd8fbbaf673","2025-09-02_09h26.55.190",NA,NA,354.5554,354.5554,354.5554,354.9054,NA,NA,NA,NA,NA,NA,NA,TRUE,1,1.1132,351.5563,354.5553,0,72,72,43,1,30,27,NA,NA,NA,NA,NA,1,73,"binary"
"61FFB453863242FDA4ED125D8E818F3C",1,"01990a9b-8859-78ac-a470-6b46454d8de8","01990a83-7673-7c0c-a792-bbd8fbbaf673","2025-09-02_09h26.55.190",NA,NA,357.9054,357.9054,357.9054,358.2553,NA,NA,NA,NA,NA,NA,NA,TRUE,1,1.3969,354.9065,357.9053,0,73,73,54,1,45,26,NA,NA,NA,NA,NA,1,74,"binary"
"61FFB453863242FDA4ED125D8E818F3C",1,"01990a9b-8859-78ac-a470-6b46454d8de8","01990a83-7673-7c0c-a792-bbd8fbbaf673","2025-09-02_09h26.55.190",NA,NA,361.2554,361.2554,361.2554,361.6053,NA,NA,NA,NA,NA,NA,NA,TRUE,1,1.2975,358.2564,361.2553,0,74,74,79,1,95,33,NA,NA,NA,NA,NA,1,75,"binary"
"61FFB453863242FDA4ED125D8E818F3C",1,"01990a9b-8859-78ac-a470-6b46454d8de8","01990a83-7673-7c0c-a792-bbd8fbbaf673","2025-09-02_09h26.55.190",NA,NA,364.6055,364.6055,364.6055,364.9554,NA,NA,NA,NA,NA,NA,NA,TRUE,1,1.1976,361.6066,364.6054,0,75,75,80,1,95,35,NA,NA,NA,NA,NA,1,76,"binary"
"61FFB453863242FDA4ED125D8E818F3C",1,"01990a9b-8859-78ac-a470-6b46454d8de8","01990a83-7673-7c0c-a792-bbd8fbbaf673","2025-09-02_09h26.55.190",NA,NA,367.9554,367.9554,367.9554,368.3055,NA,NA,NA,NA,NA,NA,NA,TRUE,1,0.7384,364.9564,367.9553,0,76,76,27,1,21,30,NA,NA,NA,NA,NA,1,77,"binary"
"61FFB453863242FDA4ED125D8E818F3C",1,"01990a9b-8859-78ac-a470-6b46454d8de8","01990a83-7673-7c0c-a792-bbd8fbbaf673","2025-09-02_09h26.55.190",NA,NA,371.3055,371.3056,371.3056,371.6554,NA,NA,NA,NA,NA,NA,NA,TRUE,1,0.8464,368.3068,371.3055,0,77,77,81,1,95,40,NA,NA,NA,NA,NA,1,78,"binary"
"61FFB453863242FDA4ED125D8E818F3C",1,"01990a9b-8859-78ac-a470-6b46454d8de8","01990a83-7673-7c0c-a792-bbd8fbbaf673","2025-09-02_09h26.55.190",NA,NA,374.6555,374.6556,374.6556,375.0055,NA,NA,NA,NA,NA,NA,NA,TRUE,1,1.1183,371.6563,374.6555,0,78,78,6,1,10,25,NA,NA,NA,NA,NA,1,79,"binary"
"61FFB453863242FDA4ED125D8E818F3C",1,"01990a9b-8859-78ac-a470-6b46454d8de8","01990a83-7673-7c0c-a792-bbd8fbbaf673","2025-09-02_09h26.55.190",NA,NA,378.0055,378.0055,378.0056,378.3554,NA,NA,NA,NA,NA,NA,NA,TRUE,1,0.6178,375.0065,378.0054,0,79,79,47,1,30,38,NA,NA,NA,NA,NA,1,80,"binary"
"61FFB453863242FDA4ED125D8E818F3C",1,"01990a9b-8859-78ac-a470-6b46454d8de8","01990a83-7673-7c0c-a792-bbd8fbbaf673","2025-09-02_09h26.55.190",NA,NA,381.3555,381.3555,381.3555,381.7055,NA,NA,NA,NA,NA,NA,NA,TRUE,1,0.8387,378.3565,381.3554,0,80,80,14,1,12,28,NA,NA,NA,NA,NA,1,81,"binary"
"61FFB453863242FDA4ED125D8E818F3C",1,"01990a9b-8859-78ac-a470-6b46454d8de8","01990a83-7673-7c0c-a792-bbd8fbbaf673","2025-09-02_09h26.55.190",NA,NA,384.7056,384.7057,384.7057,385.0555,NA,NA,NA,NA,NA,NA,NA,TRUE,1,0.6826,381.7067,384.7054,0,81,81,71,1,60,54,NA,NA,NA,NA,NA,1,82,"binary"
"61FFB453863242FDA4ED125D8E818F3C",1,"01990a9b-8859-78ac-a470-6b46454d8de8","01990a83-7673-7c0c-a792-bbd8fbbaf673","2025-09-02_09h26.55.190",NA,NA,388.0555,388.0556,388.0557,388.4055,NA,NA,NA,NA,NA,NA,NA,TRUE,1,0.9684,385.0565,388.0555,0,82,82,12,1,12,25,NA,NA,NA,NA,NA,1,83,"binary"
"61FFB453863242FDA4ED125D8E818F3C",1,"01990a9b-8859-78ac-a470-6b46454d8de8","01990a83-7673-7c0c-a792-bbd8fbbaf673","2025-09-02_09h26.55.190",NA,NA,391.4056,391.4057,391.4057,391.7554,NA,NA,NA,NA,NA,NA,NA,TRUE,1,1.418,388.4067,391.4055,0,83,83,57,1,45,35,NA,NA,NA,NA,NA,1,84,"binary"
"61FFB453863242FDA4ED125D8E818F3C",1,"01990a9b-8859-78ac-a470-6b46454d8de8","01990a83-7673-7c0c-a792-bbd8fbbaf673","2025-09-02_09h26.55.190",NA,NA,394.7556,394.7556,394.7556,395.1055,NA,NA,NA,NA,NA,NA,NA,TRUE,1,1.4837,391.7565,394.7556,0,84,84,16,1,12,33,NA,NA,NA,NA,NA,1,85,"binary"
"61FFB453863242FDA4ED125D8E818F3C",1,"01990a9b-8859-78ac-a470-6b46454d8de8","01990a83-7673-7c0c-a792-bbd8fbbaf673","2025-09-02_09h26.55.190",NA,NA,398.1058,398.1058,398.1058,398.4556,NA,NA,NA,NA,NA,NA,NA,TRUE,1,1.4179,395.1066,398.1057,0,85,85,86,1,100,38,NA,NA,NA,NA,NA,1,86,"binary"
"61FFB453863242FDA4ED125D8E818F3C",1,"01990a9b-8859-78ac-a470-6b46454d8de8","01990a83-7673-7c0c-a792-bbd8fbbaf673","2025-09-02_09h26.55.190",NA,NA,401.4556,401.4556,401.4556,401.8055,NA,NA,NA,NA,NA,NA,NA,TRUE,1,1.2136,398.4567,401.4556,0,86,86,38,1,28,32,NA,NA,NA,NA,NA,1,87,"binary"
"61FFB453863242FDA4ED125D8E818F3C",1,"01990a9b-8859-78ac-a470-6b46454d8de8","01990a83-7673-7c0c-a792-bbd8fbbaf673","2025-09-02_09h26.55.190",NA,NA,404.8057,404.8057,404.8057,405.1555,NA,NA,NA,NA,NA,NA,NA,TRUE,1,1.0134,401.8066,404.8056,0,87,87,19,1,14,26,NA,NA,NA,NA,NA,1,88,"binary"
"61FFB453863242FDA4ED125D8E818F3C",1,"01990a9b-8859-78ac-a470-6b46454d8de8","01990a83-7673-7c0c-a792-bbd8fbbaf673","2025-09-02_09h26.55.190",NA,NA,408.1558,408.1558,408.1558,408.5057,NA,NA,NA,NA,NA,NA,NA,TRUE,1,0.9881,405.1566,408.1557,0,88,88,78,1,95,31,NA,NA,NA,NA,NA,1,89,"binary"
"61FFB453863242FDA4ED125D8E818F3C",1,"01990a9b-8859-78ac-a470-6b46454d8de8","01990a83-7673-7c0c-a792-bbd8fbbaf673","2025-09-02_09h26.55.190",NA,NA,411.5058,411.5058,411.5058,411.8556,NA,NA,NA,NA,NA,NA,NA,TRUE,1,0.948,408.5067,411.5056,0,89,89,63,1,50,40,NA,NA,NA,NA,NA,1,90,"binary"
"61FFB453863242FDA4ED125D8E818F3C",1,"01990a9b-8859-78ac-a470-6b46454d8de8","01990a83-7673-7c0c-a792-bbd8fbbaf673","2025-09-02_09h26.55.190",NA,NA,414.8557,414.8558,414.8558,415.2057,NA,NA,NA,NA,NA,NA,NA,TRUE,1,0.8736,411.8565,414.8557,0,90,90,69,1,60,40,NA,NA,NA,NA,NA,1,91,"binary"
"61FFB453863242FDA4ED125D8E818F3C",1,"01990a9b-8859-78ac-a470-6b46454d8de8","01990a83-7673-7c0c-a792-bbd8fbbaf673","2025-09-02_09h26.55.190",NA,NA,418.2059,418.2059,418.2059,418.5556,NA,NA,NA,NA,NA,NA,NA,TRUE,1,1.0464,415.2067,418.2058,0,91,91,37,1,28,28,NA,NA,NA,NA,NA,1,92,"binary"
"61FFB453863242FDA4ED125D8E818F3C",1,"01990a9b-8859-78ac-a470-6b46454d8de8","01990a83-7673-7c0c-a792-bbd8fbbaf673","2025-09-02_09h26.55.190",NA,NA,421.556,421.5561,421.5561,421.9058,NA,NA,NA,NA,NA,NA,NA,TRUE,1,1.2803,418.5565,421.5559,0,92,92,59,1,45,46,NA,NA,NA,NA,NA,1,93,"binary"
"61FFB453863242FDA4ED125D8E818F3C",1,"01990a9b-8859-78ac-a470-6b46454d8de8","01990a83-7673-7c0c-a792-bbd8fbbaf673","2025-09-02_09h26.55.190",NA,NA,424.9058,424.9058,424.9058,425.2557,NA,NA,NA,NA,NA,NA,NA,TRUE,1,0.8801,421.9068,424.9057,0,93,93,33,1,25,33,NA,NA,NA,NA,NA,1,94,"binary"
"61FFB453863242FDA4ED125D8E818F3C",1,"01990a9b-8859-78ac-a470-6b46454d8de8","01990a83-7673-7c0c-a792-bbd8fbbaf673","2025-09-02_09h26.55.190",NA,NA,428.2559,428.2559,428.256,428.6056,NA,NA,NA,NA,NA,NA,NA,TRUE,1,0.7538,425.2566,428.2558,0,94,94,25,1,21,27,NA,NA,NA,NA,NA,1,95,"binary"
"61FFB453863242FDA4ED125D8E818F3C",1,"01990a9b-8859-78ac-a470-6b46454d8de8","01990a83-7673-7c0c-a792-bbd8fbbaf673","2025-09-02_09h26.55.190",NA,NA,431.6058,431.6058,431.6059,431.9557,NA,NA,NA,NA,NA,NA,NA,TRUE,1,1.1028,428.6067,431.6057,0,95,95,90,1,150,31,NA,NA,NA,NA,NA,1,96,"binary"
"61FFB453863242FDA4ED125D8E818F3C",1,"01990a9b-8859-78ac-a470-6b46454d8de8","01990a83-7673-7c0c-a792-bbd8fbbaf673","2025-09-02_09h26.55.190",NA,NA,434.9561,434.9562,434.9562,435.3057,NA,NA,NA,NA,NA,NA,NA,TRUE,1,0.797,431.9566,434.956,0,96,96,102,1,200,26,NA,NA,NA,NA,NA,1,97,"binary"
"61FFB453863242FDA4ED125D8E818F3C",1,"01990a9b-8859-78ac-a470-6b46454d8de8","01990a83-7673-7c0c-a792-bbd8fbbaf673","2025-09-02_09h26.55.190",NA,NA,438.3058,438.3058,438.3058,438.6558,NA,NA,NA,NA,NA,NA,NA,TRUE,1,0.996,435.3068,438.3056,0,97,97,45,1,30,30,NA,NA,NA,NA,NA,1,98,"binary"
"61FFB453863242FDA4ED125D8E818F3C",1,"01990a9b-8859-78ac-a470-6b46454d8de8","01990a83-7673-7c0c-a792-bbd8fbbaf673","2025-09-02_09h26.55.190",NA,NA,441.6558,441.6559,441.6559,442.0057,NA,NA,NA,NA,NA,NA,NA,TRUE,1,1.4385,438.6568,441.6558,0,98,98,97,1,180,31,NA,NA,NA,NA,NA,1,99,"binary"
"61FFB453863242FDA4ED125D8E818F3C",1,"01990a9b-8859-78ac-a470-6b46454d8de8","01990a83-7673-7c0c-a792-bbd8fbbaf673","2025-09-02_09h26.55.190",NA,NA,445.0061,445.0062,445.0062,445.3559,NA,NA,NA,NA,NA,NA,NA,TRUE,1,1.1801,442.0068,445.0061,0,99,99,106,1,200,47,NA,NA,NA,NA,NA,1,100,"binary"
"61FFB453863242FDA4ED125D8E818F3C",1,"01990a9b-8859-78ac-a470-6b46454d8de8","01990a83-7673-7c0c-a792-bbd8fbbaf673","2025-09-02_09h26.55.190",NA,NA,448.3559,448.3559,448.3559,448.7058,NA,NA,NA,NA,NA,NA,NA,TRUE,1,0.8383,445.357,448.3558,0,100,100,5,1,7,35,NA,NA,NA,NA,NA,1,101,"binary"
"61FFB453863242FDA4ED125D8E818F3C",1,"01990a9b-8859-78ac-a470-6b46454d8de8","01990a83-7673-7c0c-a792-bbd8fbbaf673","2025-09-02_09h26.55.190",NA,NA,451.7062,451.7062,451.7062,452.0558,NA,NA,NA,NA,NA,NA,NA,TRUE,1,0.6891,448.7069,451.7061,0,101,101,29,1,21,38,NA,NA,NA,NA,NA,1,102,"binary"
"61FFB453863242FDA4ED125D8E818F3C",1,"01990a9b-8859-78ac-a470-6b46454d8de8","01990a83-7673-7c0c-a792-bbd8fbbaf673","2025-09-02_09h26.55.190",NA,NA,455.0558,455.0559,455.0559,455.4061,NA,NA,NA,NA,NA,NA,NA,TRUE,1,0.7038,452.0568,455.0558,0,102,102,4,1,7,32,NA,NA,NA,NA,NA,1,103,"binary"
"61FFB453863242FDA4ED125D8E818F3C",1,"01990a9b-8859-78ac-a470-6b46454d8de8","01990a83-7673-7c0c-a792-bbd8fbbaf673","2025-09-02_09h26.55.190",NA,NA,458.406,458.406,458.406,458.7558,NA,NA,NA,NA,NA,NA,NA,TRUE,1,1.2892,455.4071,458.406,0,103,103,41,1,28,46,NA,NA,NA,NA,NA,1,104,"binary"
"61FFB453863242FDA4ED125D8E818F3C",1,"01990a9b-8859-78ac-a470-6b46454d8de8","01990a83-7673-7c0c-a792-bbd8fbbaf673","2025-09-02_09h26.55.190",NA,NA,461.7561,461.7561,461.7561,462.1058,NA,NA,NA,NA,NA,NA,NA,TRUE,1,1.1803,458.7568,461.756,0,104,104,77,1,90,54,NA,NA,NA,NA,NA,1,105,"binary"
"61FFB453863242FDA4ED125D8E818F3C",1,"01990a9b-8859-78ac-a470-6b46454d8de8","01990a83-7673-7c0c-a792-bbd8fbbaf673","2025-09-02_09h26.55.190",NA,NA,465.1061,465.1062,465.1062,465.4559,NA,NA,NA,NA,NA,NA,NA,TRUE,1,0.9895,462.1072,465.106,0,105,105,91,1,150,33,NA,NA,NA,NA,NA,1,106,"binary"
"61FFB453863242FDA4ED125D8E818F3C",1,"01990a9b-8859-78ac-a470-6b46454d8de8","01990a83-7673-7c0c-a792-bbd8fbbaf673","2025-09-02_09h26.55.190",NA,NA,468.456,468.456,468.456,468.806,NA,NA,NA,NA,NA,NA,NA,TRUE,1,0.8046,465.457,468.4558,0,106,106,73,1,90,30,NA,NA,NA,NA,NA,1,107,"binary"
"61FFB453863242FDA4ED125D8E818F3C",1,"01990a9b-8859-78ac-a470-6b46454d8de8","01990a83-7673-7c0c-a792-bbd8fbbaf673","2025-09-02_09h26.55.190",NA,NA,471.8062,471.8063,471.8063,472.1559,NA,NA,NA,NA,NA,NA,NA,TRUE,1,1.5543,468.8072,471.8061,0,107,107,51,1,40,40,NA,NA,NA,NA,NA,1,108,"binary"
"61FFB453863242FDA4ED125D8E818F3C",1,"01990a9b-8859-78ac-a470-6b46454d8de8","01990a83-7673-7c0c-a792-bbd8fbbaf673","2025-09-02_09h26.55.190",NA,NA,489.323,489.323,489.323,489.6727,NA,NA,NA,NA,NA,NA,NA,TRUE,1,1.2008,486.3358,489.3228,NA,NA,NA,NA,NA,30,27,0,0,0,43,1,2,1,"binary"
"61FFB453863242FDA4ED125D8E818F3C",1,"01990a9b-8859-78ac-a470-6b46454d8de8","01990a83-7673-7c0c-a792-bbd8fbbaf673","2025-09-02_09h26.55.190",NA,NA,492.673,492.673,492.673,493.0227,NA,NA,NA,NA,NA,NA,NA,TRUE,1,0.6478,489.6739,492.6729,NA,NA,NA,NA,NA,28,35,0,1,1,39,1,2,2,"binary"
"61FFB453863242FDA4ED125D8E818F3C",1,"01990a9b-8859-78ac-a470-6b46454d8de8","01990a83-7673-7c0c-a792-bbd8fbbaf673","2025-09-02_09h26.55.190",NA,NA,496.0229,496.0229,496.0229,496.3727,NA,NA,NA,NA,NA,NA,NA,TRUE,1,0.6634,493.0238,496.0228,NA,NA,NA,NA,NA,12,31,0,2,2,15,1,2,3,"binary"
"61FFB453863242FDA4ED125D8E818F3C",1,"01990a9b-8859-78ac-a470-6b46454d8de8","01990a83-7673-7c0c-a792-bbd8fbbaf673","2025-09-02_09h26.55.190",NA,NA,499.3728,499.3728,499.3729,499.7228,NA,NA,NA,NA,NA,NA,NA,TRUE,1,0.9526,496.3739,499.3727,NA,NA,NA,NA,NA,90,33,0,3,3,74,1,2,4,"binary"
"61FFB453863242FDA4ED125D8E818F3C",1,"01990a9b-8859-78ac-a470-6b46454d8de8","01990a83-7673-7c0c-a792-bbd8fbbaf673","2025-09-02_09h26.55.190",NA,NA,502.7229,502.7229,502.7229,503.0728,NA,NA,NA,NA,NA,NA,NA,TRUE,1,0.9987,499.7237,502.7228,NA,NA,NA,NA,NA,10,32,0,4,4,11,1,2,5,"binary"
"61FFB453863242FDA4ED125D8E818F3C",1,"01990a9b-8859-78ac-a470-6b46454d8de8","01990a83-7673-7c0c-a792-bbd8fbbaf673","2025-09-02_09h26.55.190",NA,NA,506.0729,506.0729,506.0729,506.4227,NA,NA,NA,NA,NA,NA,NA,TRUE,1,1.1333,503.0738,506.0728,NA,NA,NA,NA,NA,7,25,0,5,5,0,1,2,6,"binary"
"61FFB453863242FDA4ED125D8E818F3C",1,"01990a9b-8859-78ac-a470-6b46454d8de8","01990a83-7673-7c0c-a792-bbd8fbbaf673","2025-09-02_09h26.55.190",NA,NA,509.4229,509.423,509.423,509.7729,NA,NA,NA,NA,NA,NA,NA,TRUE,1,0.9797,506.4237,509.4229,NA,NA,NA,NA,NA,150,47,0,6,6,94,1,2,7,"binary"
"61FFB453863242FDA4ED125D8E818F3C",1,"01990a9b-8859-78ac-a470-6b46454d8de8","01990a83-7673-7c0c-a792-bbd8fbbaf673","2025-09-02_09h26.55.190",NA,NA,512.773,512.773,512.773,513.1228,NA,NA,NA,NA,NA,NA,NA,TRUE,1,1.2478,509.7739,512.7728,NA,NA,NA,NA,NA,180,39,0,7,7,99,1,2,8,"binary"
"61FFB453863242FDA4ED125D8E818F3C",1,"01990a9b-8859-78ac-a470-6b46454d8de8","01990a83-7673-7c0c-a792-bbd8fbbaf673","2025-09-02_09h26.55.190",NA,NA,516.1229,516.1229,516.1229,516.4729,NA,NA,NA,NA,NA,NA,NA,TRUE,1,1.3139,513.1238,516.1227,NA,NA,NA,NA,NA,21,38,0,8,8,29,1,2,9,"binary"
"61FFB453863242FDA4ED125D8E818F3C",1,"01990a9b-8859-78ac-a470-6b46454d8de8","01990a83-7673-7c0c-a792-bbd8fbbaf673","2025-09-02_09h26.55.190",NA,NA,519.4732,519.4733,519.4733,519.8228,NA,NA,NA,NA,NA,NA,NA,TRUE,1,0.964,516.474,519.4731,NA,NA,NA,NA,NA,50,46,0,9,9,64,1,2,10,"binary"
"61FFB453863242FDA4ED125D8E818F3C",1,"01990a9b-8859-78ac-a470-6b46454d8de8","01990a83-7673-7c0c-a792-bbd8fbbaf673","2025-09-02_09h26.55.190",NA,NA,522.8229,522.823,522.823,523.173,NA,NA,NA,NA,NA,NA,NA,TRUE,1,1.1838,519.8237,522.8228,NA,NA,NA,NA,NA,12,33,0,10,10,16,1,2,11,"binary"
"61FFB453863242FDA4ED125D8E818F3C",1,"01990a9b-8859-78ac-a470-6b46454d8de8","01990a83-7673-7c0c-a792-bbd8fbbaf673","2025-09-02_09h26.55.190",NA,NA,526.173,526.173,526.173,526.523,NA,NA,NA,NA,NA,NA,NA,TRUE,1,0.7342,523.174,526.1729,NA,NA,NA,NA,NA,95,40,0,11,11,81,1,2,12,"binary"
"61FFB453863242FDA4ED125D8E818F3C",1,"01990a9b-8859-78ac-a470-6b46454d8de8","01990a83-7673-7c0c-a792-bbd8fbbaf673","2025-09-02_09h26.55.190",NA,NA,529.523,529.523,529.523,529.873,NA,NA,NA,NA,NA,NA,NA,TRUE,1,0.8135,526.5239,529.5229,NA,NA,NA,NA,NA,25,29,0,12,12,31,1,2,13,"binary"
"61FFB453863242FDA4ED125D8E818F3C",1,"01990a9b-8859-78ac-a470-6b46454d8de8","01990a83-7673-7c0c-a792-bbd8fbbaf673","2025-09-02_09h26.55.190",NA,NA,532.8731,532.8732,532.8732,533.2229,NA,NA,NA,NA,NA,NA,NA,TRUE,1,1.0464,529.8741,532.8729,NA,NA,NA,NA,NA,180,31,0,13,13,97,1,2,14,"binary"
"61FFB453863242FDA4ED125D8E818F3C",1,"01990a9b-8859-78ac-a470-6b46454d8de8","01990a83-7673-7c0c-a792-bbd8fbbaf673","2025-09-02_09h26.55.190",NA,NA,536.223,536.2231,536.2231,536.5729,NA,NA,NA,NA,NA,NA,NA,TRUE,1,1.604,533.2239,536.223,NA,NA,NA,NA,NA,28,28,0,14,14,37,1,2,15,"binary"
"61FFB453863242FDA4ED125D8E818F3C",1,"01990a9b-8859-78ac-a470-6b46454d8de8","01990a83-7673-7c0c-a792-bbd8fbbaf673","2025-09-02_09h26.55.190",NA,NA,539.5731,539.5732,539.5732,539.923,NA,NA,NA,NA,NA,NA,NA,TRUE,1,1.1041,536.574,539.573,NA,NA,NA,NA,NA,7,30,0,15,15,3,1,2,16,"binary"
"61FFB453863242FDA4ED125D8E818F3C",1,"01990a9b-8859-78ac-a470-6b46454d8de8","01990a83-7673-7c0c-a792-bbd8fbbaf673","2025-09-02_09h26.55.190",NA,NA,542.923,542.923,542.9231,543.2729,NA,NA,NA,NA,NA,NA,NA,TRUE,1,1.1464,539.9239,542.9229,NA,NA,NA,NA,NA,14,28,0,16,16,20,1,2,17,"binary"
"61FFB453863242FDA4ED125D8E818F3C",1,"01990a9b-8859-78ac-a470-6b46454d8de8","01990a83-7673-7c0c-a792-bbd8fbbaf673","2025-09-02_09h26.55.190",NA,NA,546.2733,546.2734,546.2734,546.623,NA,NA,NA,NA,NA,NA,NA,TRUE,1,1.1343,543.2739,546.2732,NA,NA,NA,NA,NA,10,26,0,17,17,7,1,2,18,"binary"
"61FFB453863242FDA4ED125D8E818F3C",1,"01990a9b-8859-78ac-a470-6b46454d8de8","01990a83-7673-7c0c-a792-bbd8fbbaf673","2025-09-02_09h26.55.190",NA,NA,549.6233,549.6234,549.6234,549.9731,NA,NA,NA,NA,NA,NA,NA,TRUE,1,0.6799,546.624,549.6232,NA,NA,NA,NA,NA,100,54,0,18,18,89,1,2,19,"binary"
"61FFB453863242FDA4ED125D8E818F3C",1,"01990a9b-8859-78ac-a470-6b46454d8de8","01990a83-7673-7c0c-a792-bbd8fbbaf673","2025-09-02_09h26.55.190",NA,NA,552.9732,552.9732,552.9732,553.3232,NA,NA,NA,NA,NA,NA,NA,TRUE,1,0.6191,549.9743,552.9731,NA,NA,NA,NA,NA,28,46,0,19,19,41,1,2,20,"binary"
"61FFB453863242FDA4ED125D8E818F3C",1,"01990a9b-8859-78ac-a470-6b46454d8de8","01990a83-7673-7c0c-a792-bbd8fbbaf673","2025-09-02_09h26.55.190",NA,NA,556.3233,556.3233,556.3233,556.673,NA,NA,NA,NA,NA,NA,NA,TRUE,1,0.6849,553.3243,556.3233,NA,NA,NA,NA,NA,45,26,0,20,20,54,1,2,21,"binary"
"61FFB453863242FDA4ED125D8E818F3C",1,"01990a9b-8859-78ac-a470-6b46454d8de8","01990a83-7673-7c0c-a792-bbd8fbbaf673","2025-09-02_09h26.55.190",NA,NA,559.6733,559.6734,559.6734,560.023,NA,NA,NA,NA,NA,NA,NA,TRUE,1,0.7795,556.6741,559.6732,NA,NA,NA,NA,NA,21,32,0,21,21,28,1,2,22,"binary"
"61FFB453863242FDA4ED125D8E818F3C",1,"01990a9b-8859-78ac-a470-6b46454d8de8","01990a83-7673-7c0c-a792-bbd8fbbaf673","2025-09-02_09h26.55.190",NA,NA,563.0232,563.0233,563.0233,563.3731,NA,NA,NA,NA,NA,NA,NA,TRUE,1,0.5399,560.0241,563.0231,NA,NA,NA,NA,NA,12,25,0,22,22,12,1,2,23,"binary"
"61FFB453863242FDA4ED125D8E818F3C",1,"01990a9b-8859-78ac-a470-6b46454d8de8","01990a83-7673-7c0c-a792-bbd8fbbaf673","2025-09-02_09h26.55.190",NA,NA,566.3733,566.3734,566.3734,566.7231,NA,NA,NA,NA,NA,NA,NA,TRUE,1,0.5692,563.3743,566.3732,NA,NA,NA,NA,NA,60,35,0,23,23,68,1,2,24,"binary"
"61FFB453863242FDA4ED125D8E818F3C",1,"01990a9b-8859-78ac-a470-6b46454d8de8","01990a83-7673-7c0c-a792-bbd8fbbaf673","2025-09-02_09h26.55.190",NA,NA,569.7233,569.7233,569.7233,570.0732,NA,NA,NA,NA,NA,NA,NA,TRUE,1,0.9646,566.7241,569.7232,NA,NA,NA,NA,NA,200,35,0,24,24,104,1,2,25,"binary"
"61FFB453863242FDA4ED125D8E818F3C",1,"01990a9b-8859-78ac-a470-6b46454d8de8","01990a83-7673-7c0c-a792-bbd8fbbaf673","2025-09-02_09h26.55.190",NA,NA,573.0733,573.0733,573.0733,573.4232,NA,NA,NA,NA,NA,NA,NA,TRUE,1,0.7466,570.0743,573.0732,NA,NA,NA,NA,NA,12,35,0,25,25,17,1,2,26,"binary"
"61FFB453863242FDA4ED125D8E818F3C",1,"01990a9b-8859-78ac-a470-6b46454d8de8","01990a83-7673-7c0c-a792-bbd8fbbaf673","2025-09-02_09h26.55.190",NA,NA,576.4234,576.4234,576.4234,576.7732,NA,NA,NA,NA,NA,NA,NA,TRUE,1,1.0348,573.4242,576.4232,NA,NA,NA,NA,NA,200,47,0,26,26,106,1,2,27,"binary"
"61FFB453863242FDA4ED125D8E818F3C",1,"01990a9b-8859-78ac-a470-6b46454d8de8","01990a83-7673-7c0c-a792-bbd8fbbaf673","2025-09-02_09h26.55.190",NA,NA,579.7733,579.7733,579.7733,580.1233,NA,NA,NA,NA,NA,NA,NA,TRUE,1,0.93,576.7744,579.7732,NA,NA,NA,NA,NA,28,32,0,27,27,38,1,2,28,"binary"
"61FFB453863242FDA4ED125D8E818F3C",1,"01990a9b-8859-78ac-a470-6b46454d8de8","01990a83-7673-7c0c-a792-bbd8fbbaf673","2025-09-02_09h26.55.190",NA,NA,583.1233,583.1233,583.1233,583.4733,NA,NA,NA,NA,NA,NA,NA,TRUE,1,1.0549,580.1245,583.1233,NA,NA,NA,NA,NA,21,27,0,28,28,25,1,2,29,"binary"
"61FFB453863242FDA4ED125D8E818F3C",1,"01990a9b-8859-78ac-a470-6b46454d8de8","01990a83-7673-7c0c-a792-bbd8fbbaf673","2025-09-02_09h26.55.190",NA,NA,586.4733,586.4733,586.4733,586.8232,NA,NA,NA,NA,NA,NA,NA,TRUE,1,0.9644,583.4743,586.4731,NA,NA,NA,NA,NA,180,46,0,29,29,100,1,2,30,"binary"
"61FFB453863242FDA4ED125D8E818F3C",1,"01990a9b-8859-78ac-a470-6b46454d8de8","01990a83-7673-7c0c-a792-bbd8fbbaf673","2025-09-02_09h26.55.190",NA,NA,589.8233,589.8233,589.8233,590.1732,NA,NA,NA,NA,NA,NA,NA,TRUE,1,1.1471,586.8242,589.8232,NA,NA,NA,NA,NA,30,30,0,30,30,45,1,2,31,"binary"
"61FFB453863242FDA4ED125D8E818F3C",1,"01990a9b-8859-78ac-a470-6b46454d8de8","01990a83-7673-7c0c-a792-bbd8fbbaf673","2025-09-02_09h26.55.190",NA,NA,593.1735,593.1735,593.1735,593.5231,NA,NA,NA,NA,NA,NA,NA,TRUE,1,1.2968,590.1743,593.1733,NA,NA,NA,NA,NA,180,27,0,31,31,96,1,2,32,"binary"
"61FFB453863242FDA4ED125D8E818F3C",1,"01990a9b-8859-78ac-a470-6b46454d8de8","01990a83-7673-7c0c-a792-bbd8fbbaf673","2025-09-02_09h26.55.190",NA,NA,596.5233,596.5233,596.5234,596.8733,NA,NA,NA,NA,NA,NA,NA,TRUE,1,1.385,593.5241,596.5233,NA,NA,NA,NA,NA,150,33,0,32,32,91,1,2,33,"binary"
"61FFB453863242FDA4ED125D8E818F3C",1,"01990a9b-8859-78ac-a470-6b46454d8de8","01990a83-7673-7c0c-a792-bbd8fbbaf673","2025-09-02_09h26.55.190",NA,NA,599.8735,599.8735,599.8735,600.2234,NA,NA,NA,NA,NA,NA,NA,TRUE,1,0.93,596.8745,599.8734,NA,NA,NA,NA,NA,25,27,0,33,33,30,1,2,34,"binary"
"61FFB453863242FDA4ED125D8E818F3C",1,"01990a9b-8859-78ac-a470-6b46454d8de8","01990a83-7673-7c0c-a792-bbd8fbbaf673","2025-09-02_09h26.55.190",NA,NA,603.2235,603.2235,603.2235,603.5734,NA,NA,NA,NA,NA,NA,NA,TRUE,1,1.1632,600.2245,603.2234,NA,NA,NA,NA,NA,10,25,0,34,34,6,1,2,35,"binary"
"61FFB453863242FDA4ED125D8E818F3C",1,"01990a9b-8859-78ac-a470-6b46454d8de8","01990a83-7673-7c0c-a792-bbd8fbbaf673","2025-09-02_09h26.55.190",NA,NA,606.5734,606.5734,606.5734,606.9233,NA,NA,NA,NA,NA,NA,NA,TRUE,1,0.7855,603.5745,606.5733,NA,NA,NA,NA,NA,10,27,0,35,35,8,1,2,36,"binary"
"61FFB453863242FDA4ED125D8E818F3C",1,"01990a9b-8859-78ac-a470-6b46454d8de8","01990a83-7673-7c0c-a792-bbd8fbbaf673","2025-09-02_09h26.55.190",NA,NA,609.9234,609.9235,609.9235,610.2734,NA,NA,NA,NA,NA,NA,NA,TRUE,1,1.1472,606.9243,609.9234,NA,NA,NA,NA,NA,50,30,0,36,36,61,1,2,37,"binary"
"61FFB453863242FDA4ED125D8E818F3C",1,"01990a9b-8859-78ac-a470-6b46454d8de8","01990a83-7673-7c0c-a792-bbd8fbbaf673","2025-09-02_09h26.55.190",NA,NA,613.2734,613.2735,613.2735,613.6233,NA,NA,NA,NA,NA,NA,NA,TRUE,1,0.6464,610.2744,613.2734,NA,NA,NA,NA,NA,30,26,0,37,37,42,1,2,38,"binary"
"61FFB453863242FDA4ED125D8E818F3C",1,"01990a9b-8859-78ac-a470-6b46454d8de8","01990a83-7673-7c0c-a792-bbd8fbbaf673","2025-09-02_09h26.55.190",NA,NA,616.6235,616.6236,616.6236,616.9735,NA,NA,NA,NA,NA,NA,NA,TRUE,2,2.1056,613.6244,616.6235,NA,NA,NA,NA,NA,180,54,0,38,38,101,1,2,39,"binary"
"61FFB453863242FDA4ED125D8E818F3C",1,"01990a9b-8859-78ac-a470-6b46454d8de8","01990a83-7673-7c0c-a792-bbd8fbbaf673","2025-09-02_09h26.55.190",NA,NA,619.9737,619.9737,619.9738,620.3233,NA,NA,NA,NA,NA,NA,NA,TRUE,1,1.1634,616.9747,619.9736,NA,NA,NA,NA,NA,90,26,0,39,39,72,1,2,40,"binary"
"61FFB453863242FDA4ED125D8E818F3C",1,"01990a9b-8859-78ac-a470-6b46454d8de8","01990a83-7673-7c0c-a792-bbd8fbbaf673","2025-09-02_09h26.55.190",NA,NA,623.3234,623.3235,623.3235,623.6734,NA,NA,NA,NA,NA,NA,NA,TRUE,1,0.65,620.3244,623.3234,NA,NA,NA,NA,NA,95,54,0,40,40,83,1,2,41,"binary"
"61FFB453863242FDA4ED125D8E818F3C",1,"01990a9b-8859-78ac-a470-6b46454d8de8","01990a83-7673-7c0c-a792-bbd8fbbaf673","2025-09-02_09h26.55.190",NA,NA,626.6736,626.6736,626.6736,627.0236,NA,NA,NA,NA,NA,NA,NA,TRUE,1,0.6469,623.6746,626.6735,NA,NA,NA,NA,NA,50,27,0,41,41,60,1,2,42,"binary"
"61FFB453863242FDA4ED125D8E818F3C",1,"01990a9b-8859-78ac-a470-6b46454d8de8","01990a83-7673-7c0c-a792-bbd8fbbaf673","2025-09-02_09h26.55.190",NA,NA,630.0235,630.0236,630.0236,630.3735,NA,NA,NA,NA,NA,NA,NA,TRUE,1,0.6804,627.0245,630.0235,NA,NA,NA,NA,NA,7,32,0,42,42,4,1,2,43,"binary"
"61FFB453863242FDA4ED125D8E818F3C",1,"01990a9b-8859-78ac-a470-6b46454d8de8","01990a83-7673-7c0c-a792-bbd8fbbaf673","2025-09-02_09h26.55.190",NA,NA,633.3737,633.3738,633.3738,633.7234,NA,NA,NA,NA,NA,NA,NA,TRUE,1,0.4703,630.3747,633.3736,NA,NA,NA,NA,NA,40,40,0,43,43,51,1,2,44,"binary"
"61FFB453863242FDA4ED125D8E818F3C",1,"01990a9b-8859-78ac-a470-6b46454d8de8","01990a83-7673-7c0c-a792-bbd8fbbaf673","2025-09-02_09h26.55.190",NA,NA,636.7236,636.7236,636.7236,637.0735,NA,NA,NA,NA,NA,NA,NA,TRUE,1,0.7469,633.7245,636.7235,NA,NA,NA,NA,NA,40,54,0,44,44,53,1,2,45,"binary"
"61FFB453863242FDA4ED125D8E818F3C",1,"01990a9b-8859-78ac-a470-6b46454d8de8","01990a83-7673-7c0c-a792-bbd8fbbaf673","2025-09-02_09h26.55.190",NA,NA,640.0737,640.0738,640.0738,640.4235,NA,NA,NA,NA,NA,NA,NA,TRUE,1,0.6503,637.0745,640.0736,NA,NA,NA,NA,NA,200,26,0,45,45,102,1,2,46,"binary"
"61FFB453863242FDA4ED125D8E818F3C",1,"01990a9b-8859-78ac-a470-6b46454d8de8","01990a83-7673-7c0c-a792-bbd8fbbaf673","2025-09-02_09h26.55.190",NA,NA,643.4236,643.4237,643.4237,643.7735,NA,NA,NA,NA,NA,NA,NA,TRUE,1,0.8805,640.4248,643.4236,NA,NA,NA,NA,NA,100,39,0,46,46,87,1,2,47,"binary"
"61FFB453863242FDA4ED125D8E818F3C",1,"01990a9b-8859-78ac-a470-6b46454d8de8","01990a83-7673-7c0c-a792-bbd8fbbaf673","2025-09-02_09h26.55.190",NA,NA,646.7737,646.7737,646.7737,647.1235,NA,NA,NA,NA,NA,NA,NA,TRUE,1,0.5967,643.7748,646.7736,NA,NA,NA,NA,NA,14,35,0,47,47,22,1,2,48,"binary"
"61FFB453863242FDA4ED125D8E818F3C",1,"01990a9b-8859-78ac-a470-6b46454d8de8","01990a83-7673-7c0c-a792-bbd8fbbaf673","2025-09-02_09h26.55.190",NA,NA,650.1237,650.1238,650.1238,650.4737,NA,NA,NA,NA,NA,NA,NA,TRUE,1,0.9472,647.1245,650.1236,NA,NA,NA,NA,NA,28,26,0,48,48,36,1,2,49,"binary"
"61FFB453863242FDA4ED125D8E818F3C",1,"01990a9b-8859-78ac-a470-6b46454d8de8","01990a83-7673-7c0c-a792-bbd8fbbaf673","2025-09-02_09h26.55.190",NA,NA,653.4737,653.4737,653.4737,653.8235,NA,NA,NA,NA,NA,NA,NA,TRUE,1,1.0305,650.4747,653.4736,NA,NA,NA,NA,NA,150,35,0,49,49,92,1,2,50,"binary"
"61FFB453863242FDA4ED125D8E818F3C",1,"01990a9b-8859-78ac-a470-6b46454d8de8","01990a83-7673-7c0c-a792-bbd8fbbaf673","2025-09-02_09h26.55.190",NA,NA,656.8237,656.8238,656.8238,657.1736,NA,NA,NA,NA,NA,NA,NA,TRUE,1,1.1975,653.8244,656.8237,NA,NA,NA,NA,NA,90,54,0,50,50,77,1,2,51,"binary"
"61FFB453863242FDA4ED125D8E818F3C",1,"01990a9b-8859-78ac-a470-6b46454d8de8","01990a83-7673-7c0c-a792-bbd8fbbaf673","2025-09-02_09h26.55.190",NA,NA,660.1738,660.1738,660.1738,660.5236,NA,NA,NA,NA,NA,NA,NA,TRUE,1,0.6468,657.1746,660.1737,NA,NA,NA,NA,NA,7,28,0,51,51,2,1,2,52,"binary"
"61FFB453863242FDA4ED125D8E818F3C",1,"01990a9b-8859-78ac-a470-6b46454d8de8","01990a83-7673-7c0c-a792-bbd8fbbaf673","2025-09-02_09h26.55.190",NA,NA,663.5237,663.5237,663.5237,663.8737,NA,NA,NA,NA,NA,NA,NA,TRUE,1,0.8816,660.5247,663.5236,NA,NA,NA,NA,NA,100,46,0,52,52,88,1,2,53,"binary"
"61FFB453863242FDA4ED125D8E818F3C",1,"01990a9b-8859-78ac-a470-6b46454d8de8","01990a83-7673-7c0c-a792-bbd8fbbaf673","2025-09-02_09h26.55.190",NA,NA,666.8737,666.8738,666.8738,667.2238,NA,NA,NA,NA,NA,NA,NA,TRUE,1,1.0465,663.8749,666.8736,NA,NA,NA,NA,NA,40,33,0,53,53,49,1,2,54,"binary"
"61FFB453863242FDA4ED125D8E818F3C",1,"01990a9b-8859-78ac-a470-6b46454d8de8","01990a83-7673-7c0c-a792-bbd8fbbaf673","2025-09-02_09h26.55.190",NA,NA,670.2238,670.2238,670.2238,670.5737,NA,NA,NA,NA,NA,NA,NA,TRUE,1,1.3967,667.2248,670.2237,NA,NA,NA,NA,NA,14,26,0,54,54,19,1,2,55,"binary"
"61FFB453863242FDA4ED125D8E818F3C",1,"01990a9b-8859-78ac-a470-6b46454d8de8","01990a83-7673-7c0c-a792-bbd8fbbaf673","2025-09-02_09h26.55.190",NA,NA,673.5737,673.5738,673.5738,673.9237,NA,NA,NA,NA,NA,NA,NA,TRUE,1,1.5017,670.5748,673.5736,NA,NA,NA,NA,NA,150,31,0,55,55,90,1,2,56,"binary"
"61FFB453863242FDA4ED125D8E818F3C",1,"01990a9b-8859-78ac-a470-6b46454d8de8","01990a83-7673-7c0c-a792-bbd8fbbaf673","2025-09-02_09h26.55.190",NA,NA,676.9239,676.9239,676.9239,677.2739,NA,NA,NA,NA,NA,NA,NA,TRUE,1,0.8299,673.9248,676.9238,NA,NA,NA,NA,NA,25,46,0,56,56,35,1,2,57,"binary"
"61FFB453863242FDA4ED125D8E818F3C",1,"01990a9b-8859-78ac-a470-6b46454d8de8","01990a83-7673-7c0c-a792-bbd8fbbaf673","2025-09-02_09h26.55.190",NA,NA,680.2739,680.2739,680.2739,680.6237,NA,NA,NA,NA,NA,NA,NA,TRUE,1,0.8625,677.2749,680.2738,NA,NA,NA,NA,NA,200,39,0,57,57,105,1,2,58,"binary"
"61FFB453863242FDA4ED125D8E818F3C",1,"01990a9b-8859-78ac-a470-6b46454d8de8","01990a83-7673-7c0c-a792-bbd8fbbaf673","2025-09-02_09h26.55.190",NA,NA,683.6239,683.6239,683.6239,683.9737,NA,NA,NA,NA,NA,NA,NA,TRUE,1,1.0718,680.6248,683.6238,NA,NA,NA,NA,NA,95,31,0,58,58,78,1,2,59,"binary"
"61FFB453863242FDA4ED125D8E818F3C",1,"01990a9b-8859-78ac-a470-6b46454d8de8","01990a83-7673-7c0c-a792-bbd8fbbaf673","2025-09-02_09h26.55.190",NA,NA,686.9739,686.9739,686.9739,687.3238,NA,NA,NA,NA,NA,NA,NA,TRUE,1,0.6718,683.975,686.9738,NA,NA,NA,NA,NA,25,35,0,59,59,34,1,2,60,"binary"
"61FFB453863242FDA4ED125D8E818F3C",1,"01990a9b-8859-78ac-a470-6b46454d8de8","01990a83-7673-7c0c-a792-bbd8fbbaf673","2025-09-02_09h26.55.190",NA,NA,690.3241,690.3241,690.3241,690.6738,NA,NA,NA,NA,NA,NA,NA,TRUE,1,0.7813,687.3248,690.324,NA,NA,NA,NA,NA,7,35,0,60,60,5,1,2,61,"binary"
"61FFB453863242FDA4ED125D8E818F3C",1,"01990a9b-8859-78ac-a470-6b46454d8de8","01990a83-7673-7c0c-a792-bbd8fbbaf673","2025-09-02_09h26.55.190",NA,NA,693.674,693.674,693.674,694.0238,NA,NA,NA,NA,NA,NA,NA,TRUE,1,0.8365,690.6747,693.6739,NA,NA,NA,NA,NA,100,26,0,61,61,84,1,2,62,"binary"
"61FFB453863242FDA4ED125D8E818F3C",1,"01990a9b-8859-78ac-a470-6b46454d8de8","01990a83-7673-7c0c-a792-bbd8fbbaf673","2025-09-02_09h26.55.190",NA,NA,697.0239,697.0239,697.0239,697.3739,NA,NA,NA,NA,NA,NA,NA,TRUE,1,0.586,694.0248,697.0238,NA,NA,NA,NA,NA,40,35,0,62,62,50,1,2,63,"binary"
"61FFB453863242FDA4ED125D8E818F3C",1,"01990a9b-8859-78ac-a470-6b46454d8de8","01990a83-7673-7c0c-a792-bbd8fbbaf673","2025-09-02_09h26.55.190",NA,NA,700.3741,700.3741,700.3741,700.7237,NA,NA,NA,NA,NA,NA,NA,TRUE,1,0.4971,697.3749,700.374,NA,NA,NA,NA,NA,40,47,0,63,63,52,1,2,64,"binary"
"61FFB453863242FDA4ED125D8E818F3C",1,"01990a9b-8859-78ac-a470-6b46454d8de8","01990a83-7673-7c0c-a792-bbd8fbbaf673","2025-09-02_09h26.55.190",NA,NA,703.7239,703.724,703.724,704.074,NA,NA,NA,NA,NA,NA,NA,TRUE,1,0.6715,700.7247,703.7239,NA,NA,NA,NA,NA,45,31,0,64,64,56,1,2,65,"binary"
"61FFB453863242FDA4ED125D8E818F3C",1,"01990a9b-8859-78ac-a470-6b46454d8de8","01990a83-7673-7c0c-a792-bbd8fbbaf673","2025-09-02_09h26.55.190",NA,NA,707.074,707.074,707.074,707.424,NA,NA,NA,NA,NA,NA,NA,TRUE,1,0.5295,704.075,707.0739,NA,NA,NA,NA,NA,45,35,0,65,65,57,1,2,66,"binary"
"61FFB453863242FDA4ED125D8E818F3C",1,"01990a9b-8859-78ac-a470-6b46454d8de8","01990a83-7673-7c0c-a792-bbd8fbbaf673","2025-09-02_09h26.55.190",NA,NA,710.424,710.4241,710.4241,710.7739,NA,NA,NA,NA,NA,NA,NA,TRUE,1,0.5869,707.4249,710.4239,NA,NA,NA,NA,NA,60,54,0,66,66,71,1,2,67,"binary"
"61FFB453863242FDA4ED125D8E818F3C",1,"01990a9b-8859-78ac-a470-6b46454d8de8","01990a83-7673-7c0c-a792-bbd8fbbaf673","2025-09-02_09h26.55.190",NA,NA,713.7741,713.7741,713.7742,714.1239,NA,NA,NA,NA,NA,NA,NA,TRUE,1,0.7369,710.7749,713.774,NA,NA,NA,NA,NA,200,28,0,67,67,103,1,2,68,"binary"
"61FFB453863242FDA4ED125D8E818F3C",1,"01990a9b-8859-78ac-a470-6b46454d8de8","01990a83-7673-7c0c-a792-bbd8fbbaf673","2025-09-02_09h26.55.190",NA,NA,717.1241,717.1241,717.1241,717.4739,NA,NA,NA,NA,NA,NA,NA,TRUE,1,1.0515,714.1252,717.124,NA,NA,NA,NA,NA,95,33,0,68,68,79,1,2,69,"binary"
"61FFB453863242FDA4ED125D8E818F3C",1,"01990a9b-8859-78ac-a470-6b46454d8de8","01990a83-7673-7c0c-a792-bbd8fbbaf673","2025-09-02_09h26.55.190",NA,NA,720.474,720.474,720.474,720.824,NA,NA,NA,NA,NA,NA,NA,TRUE,1,0.9225,717.4749,720.4739,NA,NA,NA,NA,NA,25,33,0,69,69,33,1,2,70,"binary"
"61FFB453863242FDA4ED125D8E818F3C",1,"01990a9b-8859-78ac-a470-6b46454d8de8","01990a83-7673-7c0c-a792-bbd8fbbaf673","2025-09-02_09h26.55.190",NA,NA,723.8241,723.8241,723.8241,724.174,NA,NA,NA,NA,NA,NA,NA,TRUE,1,0.9469,720.825,723.824,NA,NA,NA,NA,NA,50,40,0,70,70,63,1,2,71,"binary"
"61FFB453863242FDA4ED125D8E818F3C",1,"01990a9b-8859-78ac-a470-6b46454d8de8","01990a83-7673-7c0c-a792-bbd8fbbaf673","2025-09-02_09h26.55.190",NA,NA,727.1742,727.1742,727.1742,727.524,NA,NA,NA,NA,NA,NA,NA,TRUE,1,0.9134,724.175,727.1741,NA,NA,NA,NA,NA,14,32,0,71,71,21,1,2,72,"binary"
"61FFB453863242FDA4ED125D8E818F3C",1,"01990a9b-8859-78ac-a470-6b46454d8de8","01990a83-7673-7c0c-a792-bbd8fbbaf673","2025-09-02_09h26.55.190",NA,NA,730.5241,730.5242,730.5242,730.8742,NA,NA,NA,NA,NA,NA,NA,TRUE,1,0.8971,727.525,730.524,NA,NA,NA,NA,NA,12,26,0,72,72,13,1,2,73,"binary"
"61FFB453863242FDA4ED125D8E818F3C",1,"01990a9b-8859-78ac-a470-6b46454d8de8","01990a83-7673-7c0c-a792-bbd8fbbaf673","2025-09-02_09h26.55.190",NA,NA,733.8741,733.8742,733.8742,734.224,NA,NA,NA,NA,NA,NA,NA,TRUE,1,0.7634,730.8752,733.874,NA,NA,NA,NA,NA,45,46,0,73,73,59,1,2,74,"binary"
"61FFB453863242FDA4ED125D8E818F3C",1,"01990a9b-8859-78ac-a470-6b46454d8de8","01990a83-7673-7c0c-a792-bbd8fbbaf673","2025-09-02_09h26.55.190",NA,NA,737.2241,737.2241,737.2241,737.574,NA,NA,NA,NA,NA,NA,NA,TRUE,1,0.7474,734.2251,737.2239,NA,NA,NA,NA,NA,50,54,0,74,74,65,1,2,75,"binary"
"61FFB453863242FDA4ED125D8E818F3C",1,"01990a9b-8859-78ac-a470-6b46454d8de8","01990a83-7673-7c0c-a792-bbd8fbbaf673","2025-09-02_09h26.55.190",NA,NA,740.5741,740.5741,740.5741,740.9241,NA,NA,NA,NA,NA,NA,NA,TRUE,1,0.9222,737.5751,740.574,NA,NA,NA,NA,NA,50,35,0,75,75,62,1,2,76,"binary"
"61FFB453863242FDA4ED125D8E818F3C",1,"01990a9b-8859-78ac-a470-6b46454d8de8","01990a83-7673-7c0c-a792-bbd8fbbaf673","2025-09-02_09h26.55.190",NA,NA,743.9244,743.9244,743.9244,744.2741,NA,NA,NA,NA,NA,NA,NA,TRUE,1,0.864,740.925,743.9243,NA,NA,NA,NA,NA,200,54,0,76,76,107,1,2,77,"binary"
"61FFB453863242FDA4ED125D8E818F3C",1,"01990a9b-8859-78ac-a470-6b46454d8de8","01990a83-7673-7c0c-a792-bbd8fbbaf673","2025-09-02_09h26.55.190",NA,NA,747.2742,747.2742,747.2742,747.6241,NA,NA,NA,NA,NA,NA,NA,TRUE,1,0.6134,744.2753,747.2741,NA,NA,NA,NA,NA,25,31,0,77,77,32,1,2,78,"binary"
"61FFB453863242FDA4ED125D8E818F3C",1,"01990a9b-8859-78ac-a470-6b46454d8de8","01990a83-7673-7c0c-a792-bbd8fbbaf673","2025-09-02_09h26.55.190",NA,NA,750.6243,750.6243,750.6243,750.9743,NA,NA,NA,NA,NA,NA,NA,TRUE,1,0.7376,747.6252,750.6242,NA,NA,NA,NA,NA,28,39,0,78,78,40,1,2,79,"binary"
"61FFB453863242FDA4ED125D8E818F3C",1,"01990a9b-8859-78ac-a470-6b46454d8de8","01990a83-7673-7c0c-a792-bbd8fbbaf673","2025-09-02_09h26.55.190",NA,NA,753.9744,753.9744,753.9744,754.3242,NA,NA,NA,NA,NA,NA,NA,TRUE,1,1.2518,750.9757,753.9742,NA,NA,NA,NA,NA,30,38,0,79,79,47,1,2,80,"binary"
"61FFB453863242FDA4ED125D8E818F3C",1,"01990a9b-8859-78ac-a470-6b46454d8de8","01990a83-7673-7c0c-a792-bbd8fbbaf673","2025-09-02_09h26.55.190",NA,NA,757.3242,757.3243,757.3243,757.6742,NA,NA,NA,NA,NA,NA,NA,TRUE,1,0.8671,754.3252,757.3241,NA,NA,NA,NA,NA,150,54,0,80,80,95,1,2,81,"binary"
"61FFB453863242FDA4ED125D8E818F3C",1,"01990a9b-8859-78ac-a470-6b46454d8de8","01990a83-7673-7c0c-a792-bbd8fbbaf673","2025-09-02_09h26.55.190",NA,NA,760.6743,760.6744,760.6744,761.0242,NA,NA,NA,NA,NA,NA,NA,TRUE,2,1.3346,757.6753,760.6743,NA,NA,NA,NA,NA,10,30,0,81,81,10,1,2,82,"binary"
"61FFB453863242FDA4ED125D8E818F3C",1,"01990a9b-8859-78ac-a470-6b46454d8de8","01990a83-7673-7c0c-a792-bbd8fbbaf673","2025-09-02_09h26.55.190",NA,NA,764.0242,764.0243,764.0243,764.3742,NA,NA,NA,NA,NA,NA,NA,TRUE,1,1.3032,761.0253,764.0242,NA,NA,NA,NA,NA,90,40,0,82,82,75,1,2,83,"binary"
"61FFB453863242FDA4ED125D8E818F3C",1,"01990a9b-8859-78ac-a470-6b46454d8de8","01990a83-7673-7c0c-a792-bbd8fbbaf673","2025-09-02_09h26.55.190",NA,NA,767.3744,767.3744,767.3744,767.7244,NA,NA,NA,NA,NA,NA,NA,TRUE,2,2.0969,764.3754,767.3743,NA,NA,NA,NA,NA,90,46,0,83,83,76,1,2,84,"binary"
"61FFB453863242FDA4ED125D8E818F3C",1,"01990a9b-8859-78ac-a470-6b46454d8de8","01990a83-7673-7c0c-a792-bbd8fbbaf673","2025-09-02_09h26.55.190",NA,NA,770.7244,770.7244,770.7244,771.0743,NA,NA,NA,NA,NA,NA,NA,TRUE,1,0.8725,767.7254,770.7243,NA,NA,NA,NA,NA,40,27,0,84,84,48,1,2,85,"binary"
"61FFB453863242FDA4ED125D8E818F3C",1,"01990a9b-8859-78ac-a470-6b46454d8de8","01990a83-7673-7c0c-a792-bbd8fbbaf673","2025-09-02_09h26.55.190",NA,NA,774.0744,774.0744,774.0744,774.4242,NA,NA,NA,NA,NA,NA,NA,TRUE,1,0.78,771.0753,774.0743,NA,NA,NA,NA,NA,12,28,0,85,85,14,1,2,86,"binary"
"61FFB453863242FDA4ED125D8E818F3C",1,"01990a9b-8859-78ac-a470-6b46454d8de8","01990a83-7673-7c0c-a792-bbd8fbbaf673","2025-09-02_09h26.55.190",NA,NA,777.4244,777.4245,777.4245,777.7743,NA,NA,NA,NA,NA,NA,NA,TRUE,1,0.5832,774.4253,777.4243,NA,NA,NA,NA,NA,45,40,0,86,86,58,1,2,87,"binary"
"61FFB453863242FDA4ED125D8E818F3C",1,"01990a9b-8859-78ac-a470-6b46454d8de8","01990a83-7673-7c0c-a792-bbd8fbbaf673","2025-09-02_09h26.55.190",NA,NA,780.7744,780.7745,780.7745,781.1243,NA,NA,NA,NA,NA,NA,NA,TRUE,1,1.0799,777.7754,780.7743,NA,NA,NA,NA,NA,180,35,0,87,87,98,1,2,88,"binary"
"61FFB453863242FDA4ED125D8E818F3C",1,"01990a9b-8859-78ac-a470-6b46454d8de8","01990a83-7673-7c0c-a792-bbd8fbbaf673","2025-09-02_09h26.55.190",NA,NA,784.1244,784.1244,784.1244,784.4743,NA,NA,NA,NA,NA,NA,NA,TRUE,1,0.8732,781.1253,784.1244,NA,NA,NA,NA,NA,100,38,0,88,88,86,1,2,89,"binary"
"61FFB453863242FDA4ED125D8E818F3C",1,"01990a9b-8859-78ac-a470-6b46454d8de8","01990a83-7673-7c0c-a792-bbd8fbbaf673","2025-09-02_09h26.55.190",NA,NA,787.4745,787.4745,787.4745,787.8243,NA,NA,NA,NA,NA,NA,NA,TRUE,1,0.78,784.4753,787.4744,NA,NA,NA,NA,NA,60,33,0,89,89,67,1,2,90,"binary"
"61FFB453863242FDA4ED125D8E818F3C",1,"01990a9b-8859-78ac-a470-6b46454d8de8","01990a83-7673-7c0c-a792-bbd8fbbaf673","2025-09-02_09h26.55.190",NA,NA,790.8244,790.8244,790.8244,791.1744,NA,NA,NA,NA,NA,NA,NA,TRUE,1,0.5479,787.8253,790.8243,NA,NA,NA,NA,NA,95,47,0,90,90,82,1,2,91,"binary"
"61FFB453863242FDA4ED125D8E818F3C",1,"01990a9b-8859-78ac-a470-6b46454d8de8","01990a83-7673-7c0c-a792-bbd8fbbaf673","2025-09-02_09h26.55.190",NA,NA,794.1746,794.1747,794.1747,794.5244,NA,NA,NA,NA,NA,NA,NA,TRUE,1,0.63,791.1755,794.1744,NA,NA,NA,NA,NA,95,35,0,91,91,80,1,2,92,"binary"
"61FFB453863242FDA4ED125D8E818F3C",1,"01990a9b-8859-78ac-a470-6b46454d8de8","01990a83-7673-7c0c-a792-bbd8fbbaf673","2025-09-02_09h26.55.190",NA,NA,797.5245,797.5245,797.5245,797.8743,NA,NA,NA,NA,NA,NA,NA,TRUE,1,0.984,794.5253,797.5244,NA,NA,NA,NA,NA,150,40,0,92,92,93,1,2,93,"binary"
"61FFB453863242FDA4ED125D8E818F3C",1,"01990a9b-8859-78ac-a470-6b46454d8de8","01990a83-7673-7c0c-a792-bbd8fbbaf673","2025-09-02_09h26.55.190",NA,NA,800.8745,800.8745,800.8745,801.2244,NA,NA,NA,NA,NA,NA,NA,TRUE,1,0.753,797.8755,800.8744,NA,NA,NA,NA,NA,100,31,0,93,93,85,1,2,94,"binary"
"61FFB453863242FDA4ED125D8E818F3C",1,"01990a9b-8859-78ac-a470-6b46454d8de8","01990a83-7673-7c0c-a792-bbd8fbbaf673","2025-09-02_09h26.55.190",NA,NA,804.2246,804.2246,804.2246,804.5744,NA,NA,NA,NA,NA,NA,NA,TRUE,1,0.7879,801.2255,804.2245,NA,NA,NA,NA,NA,14,25,0,94,94,18,1,2,95,"binary"
"61FFB453863242FDA4ED125D8E818F3C",1,"01990a9b-8859-78ac-a470-6b46454d8de8","01990a83-7673-7c0c-a792-bbd8fbbaf673","2025-09-02_09h26.55.190",NA,NA,807.5746,807.5746,807.5746,807.9245,NA,NA,NA,NA,NA,NA,NA,TRUE,1,0.8885,804.5755,807.5745,NA,NA,NA,NA,NA,21,26,0,95,95,24,1,2,96,"binary"
"61FFB453863242FDA4ED125D8E818F3C",1,"01990a9b-8859-78ac-a470-6b46454d8de8","01990a83-7673-7c0c-a792-bbd8fbbaf673","2025-09-02_09h26.55.190",NA,NA,810.9246,810.9246,810.9246,811.2745,NA,NA,NA,NA,NA,NA,NA,TRUE,1,0.7228,807.9256,810.9245,NA,NA,NA,NA,NA,14,39,0,96,96,23,1,2,97,"binary"
"61FFB453863242FDA4ED125D8E818F3C",1,"01990a9b-8859-78ac-a470-6b46454d8de8","01990a83-7673-7c0c-a792-bbd8fbbaf673","2025-09-02_09h26.55.190",NA,NA,814.2746,814.2746,814.2746,814.6246,NA,NA,NA,NA,NA,NA,NA,TRUE,1,0.9178,811.2755,814.2745,NA,NA,NA,NA,NA,30,32,0,97,97,46,1,2,98,"binary"
"61FFB453863242FDA4ED125D8E818F3C",1,"01990a9b-8859-78ac-a470-6b46454d8de8","01990a83-7673-7c0c-a792-bbd8fbbaf673","2025-09-02_09h26.55.190",NA,NA,817.6246,817.6247,817.6247,817.9745,NA,NA,NA,NA,NA,NA,NA,TRUE,1,0.7729,814.6255,817.6245,NA,NA,NA,NA,NA,30,29,0,98,98,44,1,2,99,"binary"
"61FFB453863242FDA4ED125D8E818F3C",1,"01990a9b-8859-78ac-a470-6b46454d8de8","01990a83-7673-7c0c-a792-bbd8fbbaf673","2025-09-02_09h26.55.190",NA,NA,820.9747,820.9748,820.9748,821.3246,NA,NA,NA,NA,NA,NA,NA,TRUE,1,1.0336,817.9757,820.9746,NA,NA,NA,NA,NA,7,26,0,99,99,1,1,2,100,"binary"
"61FFB453863242FDA4ED125D8E818F3C",1,"01990a9b-8859-78ac-a470-6b46454d8de8","01990a83-7673-7c0c-a792-bbd8fbbaf673","2025-09-02_09h26.55.190",NA,NA,824.3247,824.3247,824.3247,824.6745,NA,NA,NA,NA,NA,NA,NA,TRUE,1,0.754,821.3256,824.3245,NA,NA,NA,NA,NA,60,29,0,100,100,66,1,2,101,"binary"
"61FFB453863242FDA4ED125D8E818F3C",1,"01990a9b-8859-78ac-a470-6b46454d8de8","01990a83-7673-7c0c-a792-bbd8fbbaf673","2025-09-02_09h26.55.190",NA,NA,827.6746,827.6747,827.6747,828.0246,NA,NA,NA,NA,NA,NA,NA,TRUE,1,1.2536,824.6756,827.6746,NA,NA,NA,NA,NA,90,30,0,101,101,73,1,2,102,"binary"
"61FFB453863242FDA4ED125D8E818F3C",1,"01990a9b-8859-78ac-a470-6b46454d8de8","01990a83-7673-7c0c-a792-bbd8fbbaf673","2025-09-02_09h26.55.190",NA,NA,831.0246,831.0247,831.0247,831.3745,NA,NA,NA,NA,NA,NA,NA,TRUE,1,0.854,828.0257,831.0246,NA,NA,NA,NA,NA,21,30,0,102,102,27,1,2,103,"binary"
"61FFB453863242FDA4ED125D8E818F3C",1,"01990a9b-8859-78ac-a470-6b46454d8de8","01990a83-7673-7c0c-a792-bbd8fbbaf673","2025-09-02_09h26.55.190",NA,NA,834.3748,834.3749,834.3749,834.7246,NA,NA,NA,NA,NA,NA,NA,TRUE,1,0.8839,831.3756,834.3747,NA,NA,NA,NA,NA,21,29,0,103,103,26,1,2,104,"binary"
"61FFB453863242FDA4ED125D8E818F3C",1,"01990a9b-8859-78ac-a470-6b46454d8de8","01990a83-7673-7c0c-a792-bbd8fbbaf673","2025-09-02_09h26.55.190",NA,NA,837.7249,837.7249,837.7249,838.0747,NA,NA,NA,NA,NA,NA,NA,TRUE,1,0.9376,834.7257,837.7248,NA,NA,NA,NA,NA,10,29,0,104,104,9,1,2,105,"binary"
"61FFB453863242FDA4ED125D8E818F3C",1,"01990a9b-8859-78ac-a470-6b46454d8de8","01990a83-7673-7c0c-a792-bbd8fbbaf673","2025-09-02_09h26.55.190",NA,NA,841.0748,841.0749,841.0749,841.4246,NA,NA,NA,NA,NA,NA,NA,TRUE,1,0.5886,838.0756,841.0747,NA,NA,NA,NA,NA,45,29,0,105,105,55,1,2,106,"binary"
"61FFB453863242FDA4ED125D8E818F3C",1,"01990a9b-8859-78ac-a470-6b46454d8de8","01990a83-7673-7c0c-a792-bbd8fbbaf673","2025-09-02_09h26.55.190",NA,NA,844.4248,844.4249,844.4249,844.7748,NA,NA,NA,NA,NA,NA,NA,TRUE,2,1.0133,841.4257,844.4248,NA,NA,NA,NA,NA,60,40,0,106,106,69,1,2,107,"binary"
"61FFB453863242FDA4ED125D8E818F3C",1,"01990a9b-8859-78ac-a470-6b46454d8de8","01990a83-7673-7c0c-a792-bbd8fbbaf673","2025-09-02_09h26.55.190",NA,NA,847.7748,847.7748,847.7748,848.1248,NA,NA,NA,NA,NA,NA,NA,TRUE,2,0.9682,844.7764,847.7747,NA,NA,NA,NA,NA,60,47,0,107,107,70,1,2,108,"binary"
