"participant","session","assignmentId","projectId","date","practiceTrial.started","practiceTrial.stopped","tooLate.started","tooLate.stopped","blank.started","blank.stopped","trials_pract.thisRepN","trials_pract.thisTrialN","trials_pract.thisN","trials_pract.thisIndex","trials_pract.ran","delay_pract","amount_pract","responseMade","key","rt","trial.started","trial.stopped","trials.thisRepN","trials.thisTrialN","trials.thisN","trials.thisIndex","trials.ran","delay","amount","trials_2.thisRepN","trials_2.thisTrialN","trials_2.thisN","trials_2.thisIndex","trials_2.ran","block","trial","taskType"
"6C2F6152D39B4D5CBFF0A1F81394A800",1,"01990a9c-9062-7a52-9110-ea834f29a853","01990a83-7673-7c0c-a792-bbd8fbbaf673","2025-09-02_09h28.43.530",203.305,206.2833,206.284,206.2985,206.2986,206.6337,0,0,0,0,1,7,30,TRUE,1,1.9844,NA,NA,NA,NA,NA,NA,NA,NA,NA,NA,NA,NA,NA,NA,0,1,"binary"
"6C2F6152D39B4D5CBFF0A1F81394A800",1,"01990a9c-9062-7a52-9110-ea834f29a853","01990a83-7673-7c0c-a792-bbd8fbbaf673","2025-09-02_09h28.43.530",206.636,209.6201,209.6208,209.6209,209.6209,209.9702,0,1,1,2,1,14,45,TRUE,2,2.6346,NA,NA,NA,NA,NA,NA,NA,NA,NA,NA,NA,NA,NA,NA,0,2,"binary"
"6C2F6152D39B4D5CBFF0A1F81394A800",1,"01990a9c-9062-7a52-9110-ea834f29a853","01990a83-7673-7c0c-a792-bbd8fbbaf673","2025-09-02_09h28.43.530",209.9731,212.9734,212.9736,212.9737,212.9737,213.3241,0,2,2,1,1,100,50,TRUE,1,1.5504,NA,NA,NA,NA,NA,NA,NA,NA,NA,NA,NA,NA,NA,NA,0,3,"binary"
"6C2F6152D39B4D5CBFF0A1F81394A800",1,"01990a9c-9062-7a52-9110-ea834f29a853","01990a83-7673-7c0c-a792-bbd8fbbaf673","2025-09-02_09h28.43.530",213.3263,216.3268,216.327,216.3271,216.3271,216.6771,0,3,3,4,1,30,40,TRUE,1,1.4164,NA,NA,NA,NA,NA,NA,NA,NA,NA,NA,NA,NA,NA,NA,0,4,"binary"
"6C2F6152D39B4D5CBFF0A1F81394A800",1,"01990a9c-9062-7a52-9110-ea834f29a853","01990a83-7673-7c0c-a792-bbd8fbbaf673","2025-09-02_09h28.43.530",216.6789,219.6803,219.6804,219.6806,219.6806,220.0309,0,4,4,3,1,3,27,TRUE,1,1.4016,NA,NA,NA,NA,NA,NA,NA,NA,NA,NA,NA,NA,NA,NA,0,5,"binary"
"6C2F6152D39B4D5CBFF0A1F81394A800",1,"01990a9c-9062-7a52-9110-ea834f29a853","01990a83-7673-7c0c-a792-bbd8fbbaf673","2025-09-02_09h28.43.530",NA,NA,246.577,246.5773,246.5773,246.9261,NA,NA,NA,NA,NA,NA,NA,TRUE,1,1.7106,243.59,246.5764,0,0,0,87,1,100,39,NA,NA,NA,NA,NA,1,1,"binary"
"6C2F6152D39B4D5CBFF0A1F81394A800",1,"01990a9c-9062-7a52-9110-ea834f29a853","01990a83-7673-7c0c-a792-bbd8fbbaf673","2025-09-02_09h28.43.530",NA,NA,249.9118,249.9118,249.9118,250.2619,NA,NA,NA,NA,NA,NA,NA,TRUE,1,1.0041,246.9285,249.9116,0,1,1,79,1,95,33,NA,NA,NA,NA,NA,1,2,"binary"
"6C2F6152D39B4D5CBFF0A1F81394A800",1,"01990a9c-9062-7a52-9110-ea834f29a853","01990a83-7673-7c0c-a792-bbd8fbbaf673","2025-09-02_09h28.43.530",NA,NA,253.2651,253.2651,253.2651,253.6156,NA,NA,NA,NA,NA,NA,NA,TRUE,1,1.4066,250.2636,253.265,0,2,2,21,1,14,32,NA,NA,NA,NA,NA,1,3,"binary"
"6C2F6152D39B4D5CBFF0A1F81394A800",1,"01990a9c-9062-7a52-9110-ea834f29a853","01990a83-7673-7c0c-a792-bbd8fbbaf673","2025-09-02_09h28.43.530",NA,NA,256.6191,256.8693,256.8693,256.9693,NA,NA,NA,NA,NA,NA,NA,FALSE,NA,NA,253.6184,256.6187,0,3,3,36,1,28,26,NA,NA,NA,NA,NA,1,4,"binary"
"6C2F6152D39B4D5CBFF0A1F81394A800",1,"01990a9c-9062-7a52-9110-ea834f29a853","01990a83-7673-7c0c-a792-bbd8fbbaf673","2025-09-02_09h28.43.530",NA,NA,259.973,259.9733,259.9733,260.3222,NA,NA,NA,NA,NA,NA,NA,TRUE,1,1.5602,256.9722,259.9722,0,4,4,75,1,90,40,NA,NA,NA,NA,NA,1,5,"binary"
"6C2F6152D39B4D5CBFF0A1F81394A800",1,"01990a9c-9062-7a52-9110-ea834f29a853","01990a83-7673-7c0c-a792-bbd8fbbaf673","2025-09-02_09h28.43.530",NA,NA,263.3256,263.3257,263.3257,263.6614,NA,NA,NA,NA,NA,NA,NA,TRUE,1,1.3696,260.3245,263.3253,0,5,5,98,1,180,35,NA,NA,NA,NA,NA,1,6,"binary"
"6C2F6152D39B4D5CBFF0A1F81394A800",1,"01990a9c-9062-7a52-9110-ea834f29a853","01990a83-7673-7c0c-a792-bbd8fbbaf673","2025-09-02_09h28.43.530",NA,NA,266.6694,266.6694,266.6694,267.0132,NA,NA,NA,NA,NA,NA,NA,TRUE,1,2.1796,263.6689,266.6693,0,6,6,81,1,95,40,NA,NA,NA,NA,NA,1,7,"binary"
"6C2F6152D39B4D5CBFF0A1F81394A800",1,"01990a9c-9062-7a52-9110-ea834f29a853","01990a83-7673-7c0c-a792-bbd8fbbaf673","2025-09-02_09h28.43.530",NA,NA,270.0165,270.0166,270.0167,270.3659,NA,NA,NA,NA,NA,NA,NA,TRUE,1,1.1993,267.0164,270.0163,0,7,7,107,1,200,54,NA,NA,NA,NA,NA,1,8,"binary"
"6C2F6152D39B4D5CBFF0A1F81394A800",1,"01990a9c-9062-7a52-9110-ea834f29a853","01990a83-7673-7c0c-a792-bbd8fbbaf673","2025-09-02_09h28.43.530",NA,NA,273.3697,273.3697,273.3697,273.7196,NA,NA,NA,NA,NA,NA,NA,TRUE,1,1.0998,270.3684,273.3695,0,8,8,58,1,45,40,NA,NA,NA,NA,NA,1,9,"binary"
"6C2F6152D39B4D5CBFF0A1F81394A800",1,"01990a9c-9062-7a52-9110-ea834f29a853","01990a83-7673-7c0c-a792-bbd8fbbaf673","2025-09-02_09h28.43.530",NA,NA,276.723,276.7231,276.7231,277.073,NA,NA,NA,NA,NA,NA,NA,TRUE,1,1.0175,273.722,276.7227,0,9,9,57,1,45,35,NA,NA,NA,NA,NA,1,10,"binary"
"6C2F6152D39B4D5CBFF0A1F81394A800",1,"01990a9c-9062-7a52-9110-ea834f29a853","01990a83-7673-7c0c-a792-bbd8fbbaf673","2025-09-02_09h28.43.530",NA,NA,280.0763,280.0764,280.0764,280.4264,NA,NA,NA,NA,NA,NA,NA,TRUE,1,0.9555,277.0756,280.0762,0,10,10,74,1,90,33,NA,NA,NA,NA,NA,1,11,"binary"
"6C2F6152D39B4D5CBFF0A1F81394A800",1,"01990a9c-9062-7a52-9110-ea834f29a853","01990a83-7673-7c0c-a792-bbd8fbbaf673","2025-09-02_09h28.43.530",NA,NA,283.4136,283.4137,283.4137,283.7633,NA,NA,NA,NA,NA,NA,NA,TRUE,1,0.9659,280.4289,283.4132,0,11,11,103,1,200,28,NA,NA,NA,NA,NA,1,12,"binary"
"6C2F6152D39B4D5CBFF0A1F81394A800",1,"01990a9c-9062-7a52-9110-ea834f29a853","01990a83-7673-7c0c-a792-bbd8fbbaf673","2025-09-02_09h28.43.530",NA,NA,286.7665,286.7665,286.7665,287.1167,NA,NA,NA,NA,NA,NA,NA,TRUE,1,1.0022,283.7666,286.7664,0,12,12,44,1,30,29,NA,NA,NA,NA,NA,1,13,"binary"
"6C2F6152D39B4D5CBFF0A1F81394A800",1,"01990a9c-9062-7a52-9110-ea834f29a853","01990a83-7673-7c0c-a792-bbd8fbbaf673","2025-09-02_09h28.43.530",NA,NA,290.1202,290.1202,290.1202,290.4703,NA,NA,NA,NA,NA,NA,NA,TRUE,2,1.2016,287.1184,290.1201,0,13,13,41,1,28,46,NA,NA,NA,NA,NA,1,14,"binary"
"6C2F6152D39B4D5CBFF0A1F81394A800",1,"01990a9c-9062-7a52-9110-ea834f29a853","01990a83-7673-7c0c-a792-bbd8fbbaf673","2025-09-02_09h28.43.530",NA,NA,293.4741,293.4741,293.4742,293.8236,NA,NA,NA,NA,NA,NA,NA,TRUE,1,1.4406,290.4728,293.4739,0,14,14,94,1,150,47,NA,NA,NA,NA,NA,1,15,"binary"
"6C2F6152D39B4D5CBFF0A1F81394A800",1,"01990a9c-9062-7a52-9110-ea834f29a853","01990a83-7673-7c0c-a792-bbd8fbbaf673","2025-09-02_09h28.43.530",NA,NA,296.8268,296.8269,296.8269,297.1825,NA,NA,NA,NA,NA,NA,NA,TRUE,1,2.6194,293.826,296.8266,0,15,15,11,1,10,32,NA,NA,NA,NA,NA,1,16,"binary"
"6C2F6152D39B4D5CBFF0A1F81394A800",1,"01990a9c-9062-7a52-9110-ea834f29a853","01990a83-7673-7c0c-a792-bbd8fbbaf673","2025-09-02_09h28.43.530",NA,NA,300.1688,300.1688,300.1688,300.5185,NA,NA,NA,NA,NA,NA,NA,TRUE,2,1.8008,297.1838,300.1687,0,16,16,83,1,95,54,NA,NA,NA,NA,NA,1,17,"binary"
"6C2F6152D39B4D5CBFF0A1F81394A800",1,"01990a9c-9062-7a52-9110-ea834f29a853","01990a83-7673-7c0c-a792-bbd8fbbaf673","2025-09-02_09h28.43.530",NA,NA,303.5172,303.5172,303.5172,303.8678,NA,NA,NA,NA,NA,NA,NA,TRUE,2,2.0844,300.52,303.517,0,17,17,51,1,40,40,NA,NA,NA,NA,NA,1,18,"binary"
"6C2F6152D39B4D5CBFF0A1F81394A800",1,"01990a9c-9062-7a52-9110-ea834f29a853","01990a83-7673-7c0c-a792-bbd8fbbaf673","2025-09-02_09h28.43.530",NA,NA,306.8709,306.8714,306.8714,307.2209,NA,NA,NA,NA,NA,NA,NA,TRUE,2,1.5118,303.8703,306.8707,0,18,18,23,1,14,39,NA,NA,NA,NA,NA,1,19,"binary"
"6C2F6152D39B4D5CBFF0A1F81394A800",1,"01990a9c-9062-7a52-9110-ea834f29a853","01990a83-7673-7c0c-a792-bbd8fbbaf673","2025-09-02_09h28.43.530",NA,NA,310.2241,310.2241,310.2241,310.5744,NA,NA,NA,NA,NA,NA,NA,TRUE,1,1.3246,307.2235,310.224,0,19,19,16,1,12,33,NA,NA,NA,NA,NA,1,20,"binary"
"6C2F6152D39B4D5CBFF0A1F81394A800",1,"01990a9c-9062-7a52-9110-ea834f29a853","01990a83-7673-7c0c-a792-bbd8fbbaf673","2025-09-02_09h28.43.530",NA,NA,313.5775,313.5775,313.5775,313.9112,NA,NA,NA,NA,NA,NA,NA,TRUE,1,1.1821,310.5761,313.5774,0,20,20,15,1,12,31,NA,NA,NA,NA,NA,1,21,"binary"
"6C2F6152D39B4D5CBFF0A1F81394A800",1,"01990a9c-9062-7a52-9110-ea834f29a853","01990a83-7673-7c0c-a792-bbd8fbbaf673","2025-09-02_09h28.43.530",NA,NA,316.9142,316.9143,316.9143,317.2646,NA,NA,NA,NA,NA,NA,NA,TRUE,1,1.5375,313.9137,316.9141,0,21,21,18,1,14,25,NA,NA,NA,NA,NA,1,22,"binary"
"6C2F6152D39B4D5CBFF0A1F81394A800",1,"01990a9c-9062-7a52-9110-ea834f29a853","01990a83-7673-7c0c-a792-bbd8fbbaf673","2025-09-02_09h28.43.530",NA,NA,320.2694,320.2695,320.2695,320.6185,NA,NA,NA,NA,NA,NA,NA,TRUE,1,1.3342,317.2672,320.2686,0,22,22,100,1,180,46,NA,NA,NA,NA,NA,1,23,"binary"
"6C2F6152D39B4D5CBFF0A1F81394A800",1,"01990a9c-9062-7a52-9110-ea834f29a853","01990a83-7673-7c0c-a792-bbd8fbbaf673","2025-09-02_09h28.43.530",NA,NA,323.6216,323.6216,323.6217,323.9716,NA,NA,NA,NA,NA,NA,NA,TRUE,1,1.6956,320.621,323.6214,0,23,23,48,1,40,27,NA,NA,NA,NA,NA,1,24,"binary"
"6C2F6152D39B4D5CBFF0A1F81394A800",1,"01990a9c-9062-7a52-9110-ea834f29a853","01990a83-7673-7c0c-a792-bbd8fbbaf673","2025-09-02_09h28.43.530",NA,NA,326.9749,326.9752,326.9752,327.325,NA,NA,NA,NA,NA,NA,NA,TRUE,1,1.2068,323.9741,326.9748,0,24,24,27,1,21,30,NA,NA,NA,NA,NA,1,25,"binary"
"6C2F6152D39B4D5CBFF0A1F81394A800",1,"01990a9c-9062-7a52-9110-ea834f29a853","01990a83-7673-7c0c-a792-bbd8fbbaf673","2025-09-02_09h28.43.530",NA,NA,330.312,330.312,330.312,330.6619,NA,NA,NA,NA,NA,NA,NA,TRUE,1,1.6519,327.3271,330.3115,0,25,25,84,1,100,26,NA,NA,NA,NA,NA,1,26,"binary"
"6C2F6152D39B4D5CBFF0A1F81394A800",1,"01990a9c-9062-7a52-9110-ea834f29a853","01990a83-7673-7c0c-a792-bbd8fbbaf673","2025-09-02_09h28.43.530",NA,NA,333.6654,333.6654,333.6655,334.0154,NA,NA,NA,NA,NA,NA,NA,TRUE,2,1.0771,330.664,333.6652,0,26,26,52,1,40,47,NA,NA,NA,NA,NA,1,27,"binary"
"6C2F6152D39B4D5CBFF0A1F81394A800",1,"01990a9c-9062-7a52-9110-ea834f29a853","01990a83-7673-7c0c-a792-bbd8fbbaf673","2025-09-02_09h28.43.530",NA,NA,337.0185,337.0186,337.0186,337.3688,NA,NA,NA,NA,NA,NA,NA,TRUE,2,1.9863,334.0172,337.0183,0,27,27,88,1,100,46,NA,NA,NA,NA,NA,1,28,"binary"
"6C2F6152D39B4D5CBFF0A1F81394A800",1,"01990a9c-9062-7a52-9110-ea834f29a853","01990a83-7673-7c0c-a792-bbd8fbbaf673","2025-09-02_09h28.43.530",NA,NA,340.3723,340.3724,340.3724,340.7222,NA,NA,NA,NA,NA,NA,NA,TRUE,1,1.0368,337.3703,340.3721,0,28,28,72,1,90,26,NA,NA,NA,NA,NA,1,29,"binary"
"6C2F6152D39B4D5CBFF0A1F81394A800",1,"01990a9c-9062-7a52-9110-ea834f29a853","01990a83-7673-7c0c-a792-bbd8fbbaf673","2025-09-02_09h28.43.530",NA,NA,343.7258,343.7259,343.7259,344.0758,NA,NA,NA,NA,NA,NA,NA,TRUE,2,1.1866,340.724,343.7255,0,29,29,95,1,150,54,NA,NA,NA,NA,NA,1,30,"binary"
"6C2F6152D39B4D5CBFF0A1F81394A800",1,"01990a9c-9062-7a52-9110-ea834f29a853","01990a83-7673-7c0c-a792-bbd8fbbaf673","2025-09-02_09h28.43.530",NA,NA,347.0622,347.0623,347.0623,347.4127,NA,NA,NA,NA,NA,NA,NA,TRUE,2,1.8362,344.0789,347.0621,0,30,30,35,1,25,46,NA,NA,NA,NA,NA,1,31,"binary"
"6C2F6152D39B4D5CBFF0A1F81394A800",1,"01990a9c-9062-7a52-9110-ea834f29a853","01990a83-7673-7c0c-a792-bbd8fbbaf673","2025-09-02_09h28.43.530",NA,NA,350.4159,350.4159,350.4159,350.7667,NA,NA,NA,NA,NA,NA,NA,TRUE,1,1.802,347.4147,350.4156,0,31,31,24,1,21,26,NA,NA,NA,NA,NA,1,32,"binary"
"6C2F6152D39B4D5CBFF0A1F81394A800",1,"01990a9c-9062-7a52-9110-ea834f29a853","01990a83-7673-7c0c-a792-bbd8fbbaf673","2025-09-02_09h28.43.530",NA,NA,353.7697,353.7697,353.7698,354.1197,NA,NA,NA,NA,NA,NA,NA,TRUE,1,1.1158,350.7686,353.7694,0,32,32,105,1,200,39,NA,NA,NA,NA,NA,1,33,"binary"
"6C2F6152D39B4D5CBFF0A1F81394A800",1,"01990a9c-9062-7a52-9110-ea834f29a853","01990a83-7673-7c0c-a792-bbd8fbbaf673","2025-09-02_09h28.43.530",NA,NA,357.1229,357.1231,357.1232,357.4735,NA,NA,NA,NA,NA,NA,NA,TRUE,2,1.2856,354.1221,357.1228,0,33,33,4,1,7,32,NA,NA,NA,NA,NA,1,34,"binary"
"6C2F6152D39B4D5CBFF0A1F81394A800",1,"01990a9c-9062-7a52-9110-ea834f29a853","01990a83-7673-7c0c-a792-bbd8fbbaf673","2025-09-02_09h28.43.530",NA,NA,360.4763,360.4764,360.4765,360.8264,NA,NA,NA,NA,NA,NA,NA,TRUE,1,1.2238,357.4757,360.476,0,34,34,96,1,180,27,NA,NA,NA,NA,NA,1,35,"binary"
"6C2F6152D39B4D5CBFF0A1F81394A800",1,"01990a9c-9062-7a52-9110-ea834f29a853","01990a83-7673-7c0c-a792-bbd8fbbaf673","2025-09-02_09h28.43.530",NA,NA,363.814,363.8141,363.8141,364.1647,NA,NA,NA,NA,NA,NA,NA,TRUE,2,1.0365,360.8288,363.8138,0,35,35,106,1,200,47,NA,NA,NA,NA,NA,1,36,"binary"
"6C2F6152D39B4D5CBFF0A1F81394A800",1,"01990a9c-9062-7a52-9110-ea834f29a853","01990a83-7673-7c0c-a792-bbd8fbbaf673","2025-09-02_09h28.43.530",NA,NA,367.1668,367.1669,367.1671,367.5173,NA,NA,NA,NA,NA,NA,NA,TRUE,2,0.8846,364.1661,367.1665,0,36,36,71,1,60,54,NA,NA,NA,NA,NA,1,37,"binary"
"6C2F6152D39B4D5CBFF0A1F81394A800",1,"01990a9c-9062-7a52-9110-ea834f29a853","01990a83-7673-7c0c-a792-bbd8fbbaf673","2025-09-02_09h28.43.530",NA,NA,370.5201,370.5201,370.5201,370.8701,NA,NA,NA,NA,NA,NA,NA,TRUE,1,2.2839,367.5196,370.5199,0,37,37,50,1,40,35,NA,NA,NA,NA,NA,1,38,"binary"
"6C2F6152D39B4D5CBFF0A1F81394A800",1,"01990a9c-9062-7a52-9110-ea834f29a853","01990a83-7673-7c0c-a792-bbd8fbbaf673","2025-09-02_09h28.43.530",NA,NA,373.8737,373.8738,373.8738,374.2238,NA,NA,NA,NA,NA,NA,NA,TRUE,1,1.4282,370.8718,373.8735,0,38,38,13,1,12,26,NA,NA,NA,NA,NA,1,39,"binary"
"6C2F6152D39B4D5CBFF0A1F81394A800",1,"01990a9c-9062-7a52-9110-ea834f29a853","01990a83-7673-7c0c-a792-bbd8fbbaf673","2025-09-02_09h28.43.530",NA,NA,377.2269,377.227,377.227,377.5791,NA,NA,NA,NA,NA,NA,NA,TRUE,2,1.9579,374.2252,377.2267,0,39,39,61,1,50,30,NA,NA,NA,NA,NA,1,40,"binary"
"6C2F6152D39B4D5CBFF0A1F81394A800",1,"01990a9c-9062-7a52-9110-ea834f29a853","01990a83-7673-7c0c-a792-bbd8fbbaf673","2025-09-02_09h28.43.530",NA,NA,380.5701,380.5701,380.5701,380.9139,NA,NA,NA,NA,NA,NA,NA,TRUE,2,1.5431,377.5977,380.5699,0,40,40,17,1,12,35,NA,NA,NA,NA,NA,1,41,"binary"
"6C2F6152D39B4D5CBFF0A1F81394A800",1,"01990a9c-9062-7a52-9110-ea834f29a853","01990a83-7673-7c0c-a792-bbd8fbbaf673","2025-09-02_09h28.43.530",NA,NA,383.9172,383.9173,383.9174,384.2687,NA,NA,NA,NA,NA,NA,NA,TRUE,2,1.5666,380.9165,383.9169,0,41,41,34,1,25,35,NA,NA,NA,NA,NA,1,42,"binary"
"6C2F6152D39B4D5CBFF0A1F81394A800",1,"01990a9c-9062-7a52-9110-ea834f29a853","01990a83-7673-7c0c-a792-bbd8fbbaf673","2025-09-02_09h28.43.530",NA,NA,387.2715,387.2718,387.2719,387.621,NA,NA,NA,NA,NA,NA,NA,TRUE,1,1.7179,384.2705,387.2707,0,42,42,73,1,90,30,NA,NA,NA,NA,NA,1,43,"binary"
"6C2F6152D39B4D5CBFF0A1F81394A800",1,"01990a9c-9062-7a52-9110-ea834f29a853","01990a83-7673-7c0c-a792-bbd8fbbaf673","2025-09-02_09h28.43.530",NA,NA,390.6249,390.6252,390.6253,390.9745,NA,NA,NA,NA,NA,NA,NA,TRUE,1,1.0723,387.6235,390.6241,0,43,43,49,1,40,33,NA,NA,NA,NA,NA,1,44,"binary"
"6C2F6152D39B4D5CBFF0A1F81394A800",1,"01990a9c-9062-7a52-9110-ea834f29a853","01990a83-7673-7c0c-a792-bbd8fbbaf673","2025-09-02_09h28.43.530",NA,NA,393.9775,393.9775,393.9775,394.3109,NA,NA,NA,NA,NA,NA,NA,TRUE,2,0.9493,390.9769,393.9773,0,44,44,63,1,50,40,NA,NA,NA,NA,NA,1,45,"binary"
"6C2F6152D39B4D5CBFF0A1F81394A800",1,"01990a9c-9062-7a52-9110-ea834f29a853","01990a83-7673-7c0c-a792-bbd8fbbaf673","2025-09-02_09h28.43.530",NA,NA,397.3141,397.3142,397.3142,397.6644,NA,NA,NA,NA,NA,NA,NA,TRUE,1,1.5577,394.3124,397.314,0,45,45,90,1,150,31,NA,NA,NA,NA,NA,1,46,"binary"
"6C2F6152D39B4D5CBFF0A1F81394A800",1,"01990a9c-9062-7a52-9110-ea834f29a853","01990a83-7673-7c0c-a792-bbd8fbbaf673","2025-09-02_09h28.43.530",NA,NA,400.6678,400.6679,400.668,401.0181,NA,NA,NA,NA,NA,NA,NA,TRUE,1,1.0196,397.6664,400.6677,0,46,46,25,1,21,27,NA,NA,NA,NA,NA,1,47,"binary"
"6C2F6152D39B4D5CBFF0A1F81394A800",1,"01990a9c-9062-7a52-9110-ea834f29a853","01990a83-7673-7c0c-a792-bbd8fbbaf673","2025-09-02_09h28.43.530",NA,NA,404.0214,404.0214,404.0214,404.3716,NA,NA,NA,NA,NA,NA,NA,TRUE,1,2.008,401.0201,404.0212,0,47,47,38,1,28,32,NA,NA,NA,NA,NA,1,48,"binary"
"6C2F6152D39B4D5CBFF0A1F81394A800",1,"01990a9c-9062-7a52-9110-ea834f29a853","01990a83-7673-7c0c-a792-bbd8fbbaf673","2025-09-02_09h28.43.530",NA,NA,407.3749,407.375,407.375,407.725,NA,NA,NA,NA,NA,NA,NA,TRUE,2,1.4851,404.3743,407.3746,0,48,48,65,1,50,54,NA,NA,NA,NA,NA,1,49,"binary"
"6C2F6152D39B4D5CBFF0A1F81394A800",1,"01990a9c-9062-7a52-9110-ea834f29a853","01990a83-7673-7c0c-a792-bbd8fbbaf673","2025-09-02_09h28.43.530",NA,NA,410.7115,410.7116,410.7116,411.0615,NA,NA,NA,NA,NA,NA,NA,TRUE,1,0.8313,407.7278,410.7113,0,49,49,1,1,7,26,NA,NA,NA,NA,NA,1,50,"binary"
"6C2F6152D39B4D5CBFF0A1F81394A800",1,"01990a9c-9062-7a52-9110-ea834f29a853","01990a83-7673-7c0c-a792-bbd8fbbaf673","2025-09-02_09h28.43.530",NA,NA,414.065,414.065,414.065,414.4151,NA,NA,NA,NA,NA,NA,NA,TRUE,1,0.8749,411.0632,414.0648,0,50,50,30,1,25,27,NA,NA,NA,NA,NA,1,51,"binary"
"6C2F6152D39B4D5CBFF0A1F81394A800",1,"01990a9c-9062-7a52-9110-ea834f29a853","01990a83-7673-7c0c-a792-bbd8fbbaf673","2025-09-02_09h28.43.530",NA,NA,417.4182,417.4182,417.4183,417.7686,NA,NA,NA,NA,NA,NA,NA,TRUE,1,1.7048,414.4171,417.4181,0,51,51,20,1,14,28,NA,NA,NA,NA,NA,1,52,"binary"
"6C2F6152D39B4D5CBFF0A1F81394A800",1,"01990a9c-9062-7a52-9110-ea834f29a853","01990a83-7673-7c0c-a792-bbd8fbbaf673","2025-09-02_09h28.43.530",NA,NA,420.7724,420.7724,420.7724,421.1236,NA,NA,NA,NA,NA,NA,NA,TRUE,2,1.4725,417.7703,420.7722,0,52,52,101,1,180,54,NA,NA,NA,NA,NA,1,53,"binary"
"6C2F6152D39B4D5CBFF0A1F81394A800",1,"01990a9c-9062-7a52-9110-ea834f29a853","01990a83-7673-7c0c-a792-bbd8fbbaf673","2025-09-02_09h28.43.530",NA,NA,424.1255,424.1256,424.1256,424.4755,NA,NA,NA,NA,NA,NA,NA,TRUE,1,1.2921,421.1252,424.1253,0,53,53,0,1,7,25,NA,NA,NA,NA,NA,1,54,"binary"
"6C2F6152D39B4D5CBFF0A1F81394A800",1,"01990a9c-9062-7a52-9110-ea834f29a853","01990a83-7673-7c0c-a792-bbd8fbbaf673","2025-09-02_09h28.43.530",NA,NA,427.462,427.4621,427.4621,427.8122,NA,NA,NA,NA,NA,NA,NA,TRUE,1,0.8992,424.4781,427.4619,0,54,54,6,1,10,25,NA,NA,NA,NA,NA,1,55,"binary"
"6C2F6152D39B4D5CBFF0A1F81394A800",1,"01990a9c-9062-7a52-9110-ea834f29a853","01990a83-7673-7c0c-a792-bbd8fbbaf673","2025-09-02_09h28.43.530",NA,NA,430.8157,430.8157,430.8157,431.1659,NA,NA,NA,NA,NA,NA,NA,TRUE,1,1.4331,427.8144,430.8154,0,55,55,68,1,60,35,NA,NA,NA,NA,NA,1,56,"binary"
"6C2F6152D39B4D5CBFF0A1F81394A800",1,"01990a9c-9062-7a52-9110-ea834f29a853","01990a83-7673-7c0c-a792-bbd8fbbaf673","2025-09-02_09h28.43.530",NA,NA,434.1691,434.1692,434.1692,434.5193,NA,NA,NA,NA,NA,NA,NA,TRUE,2,1.8916,431.1682,434.1689,0,56,56,70,1,60,47,NA,NA,NA,NA,NA,1,57,"binary"
"6C2F6152D39B4D5CBFF0A1F81394A800",1,"01990a9c-9062-7a52-9110-ea834f29a853","01990a83-7673-7c0c-a792-bbd8fbbaf673","2025-09-02_09h28.43.530",NA,NA,437.5227,437.5227,437.5227,437.8729,NA,NA,NA,NA,NA,NA,NA,TRUE,1,2.4085,434.5218,437.5224,0,57,57,2,1,7,28,NA,NA,NA,NA,NA,1,58,"binary"
"6C2F6152D39B4D5CBFF0A1F81394A800",1,"01990a9c-9062-7a52-9110-ea834f29a853","01990a83-7673-7c0c-a792-bbd8fbbaf673","2025-09-02_09h28.43.530",NA,NA,440.8763,440.8765,440.8766,441.2264,NA,NA,NA,NA,NA,NA,NA,TRUE,1,1.2988,437.8755,440.8761,0,58,58,92,1,150,35,NA,NA,NA,NA,NA,1,59,"binary"
"6C2F6152D39B4D5CBFF0A1F81394A800",1,"01990a9c-9062-7a52-9110-ea834f29a853","01990a83-7673-7c0c-a792-bbd8fbbaf673","2025-09-02_09h28.43.530",NA,NA,444.2129,444.2129,444.2129,444.5629,NA,NA,NA,NA,NA,NA,NA,TRUE,1,0.9386,441.2286,444.2128,0,59,59,46,1,30,32,NA,NA,NA,NA,NA,1,60,"binary"
"6C2F6152D39B4D5CBFF0A1F81394A800",1,"01990a9c-9062-7a52-9110-ea834f29a853","01990a83-7673-7c0c-a792-bbd8fbbaf673","2025-09-02_09h28.43.530",NA,NA,447.5662,447.5662,447.5662,447.9164,NA,NA,NA,NA,NA,NA,NA,TRUE,1,1.0545,444.5647,447.5661,0,60,60,78,1,95,31,NA,NA,NA,NA,NA,1,61,"binary"
"6C2F6152D39B4D5CBFF0A1F81394A800",1,"01990a9c-9062-7a52-9110-ea834f29a853","01990a83-7673-7c0c-a792-bbd8fbbaf673","2025-09-02_09h28.43.530",NA,NA,450.9196,450.9196,450.9196,451.27,NA,NA,NA,NA,NA,NA,NA,TRUE,1,1.41,447.9179,450.9194,0,61,61,85,1,100,31,NA,NA,NA,NA,NA,1,62,"binary"
"6C2F6152D39B4D5CBFF0A1F81394A800",1,"01990a9c-9062-7a52-9110-ea834f29a853","01990a83-7673-7c0c-a792-bbd8fbbaf673","2025-09-02_09h28.43.530",NA,NA,454.2734,454.2736,454.2736,454.6235,NA,NA,NA,NA,NA,NA,NA,TRUE,2,0.9339,451.2726,454.2731,0,62,62,77,1,90,54,NA,NA,NA,NA,NA,1,63,"binary"
"6C2F6152D39B4D5CBFF0A1F81394A800",1,"01990a9c-9062-7a52-9110-ea834f29a853","01990a83-7673-7c0c-a792-bbd8fbbaf673","2025-09-02_09h28.43.530",NA,NA,457.6268,457.6269,457.6269,457.9771,NA,NA,NA,NA,NA,NA,NA,TRUE,2,1.06,454.6259,457.6266,0,63,63,59,1,45,46,NA,NA,NA,NA,NA,1,64,"binary"
"6C2F6152D39B4D5CBFF0A1F81394A800",1,"01990a9c-9062-7a52-9110-ea834f29a853","01990a83-7673-7c0c-a792-bbd8fbbaf673","2025-09-02_09h28.43.530",NA,NA,460.9635,460.9635,460.9636,461.3136,NA,NA,NA,NA,NA,NA,NA,TRUE,1,1.9735,457.9793,460.9634,0,64,64,28,1,21,32,NA,NA,NA,NA,NA,1,65,"binary"
"6C2F6152D39B4D5CBFF0A1F81394A800",1,"01990a9c-9062-7a52-9110-ea834f29a853","01990a83-7673-7c0c-a792-bbd8fbbaf673","2025-09-02_09h28.43.530",NA,NA,464.3171,464.3171,464.3171,464.6671,NA,NA,NA,NA,NA,NA,NA,TRUE,2,2.9631,461.3158,464.3168,0,65,65,64,1,50,46,NA,NA,NA,NA,NA,1,66,"binary"
"6C2F6152D39B4D5CBFF0A1F81394A800",1,"01990a9c-9062-7a52-9110-ea834f29a853","01990a83-7673-7c0c-a792-bbd8fbbaf673","2025-09-02_09h28.43.530",NA,NA,467.6744,467.6744,467.6744,468.0243,NA,NA,NA,NA,NA,NA,NA,TRUE,2,2.874,464.6687,467.6743,0,66,66,91,1,150,33,NA,NA,NA,NA,NA,1,67,"binary"
"6C2F6152D39B4D5CBFF0A1F81394A800",1,"01990a9c-9062-7a52-9110-ea834f29a853","01990a83-7673-7c0c-a792-bbd8fbbaf673","2025-09-02_09h28.43.530",NA,NA,471.0237,471.0237,471.0237,471.374,NA,NA,NA,NA,NA,NA,NA,TRUE,1,1.0784,468.0258,471.0235,0,67,67,14,1,12,28,NA,NA,NA,NA,NA,1,68,"binary"
"6C2F6152D39B4D5CBFF0A1F81394A800",1,"01990a9c-9062-7a52-9110-ea834f29a853","01990a83-7673-7c0c-a792-bbd8fbbaf673","2025-09-02_09h28.43.530",NA,NA,474.3775,474.3776,474.3776,474.7275,NA,NA,NA,NA,NA,NA,NA,TRUE,1,1.0449,471.3769,474.3773,0,68,68,7,1,10,26,NA,NA,NA,NA,NA,1,69,"binary"
"6C2F6152D39B4D5CBFF0A1F81394A800",1,"01990a9c-9062-7a52-9110-ea834f29a853","01990a83-7673-7c0c-a792-bbd8fbbaf673","2025-09-02_09h28.43.530",NA,NA,477.7143,477.7143,477.7143,478.0643,NA,NA,NA,NA,NA,NA,NA,TRUE,1,1.8562,474.7292,477.7141,0,69,69,32,1,25,31,NA,NA,NA,NA,NA,1,70,"binary"
"6C2F6152D39B4D5CBFF0A1F81394A800",1,"01990a9c-9062-7a52-9110-ea834f29a853","01990a83-7673-7c0c-a792-bbd8fbbaf673","2025-09-02_09h28.43.530",NA,NA,481.0675,481.0676,481.0676,481.4179,NA,NA,NA,NA,NA,NA,NA,TRUE,1,1.0115,478.0658,481.0674,0,70,70,45,1,30,30,NA,NA,NA,NA,NA,1,71,"binary"
"6C2F6152D39B4D5CBFF0A1F81394A800",1,"01990a9c-9062-7a52-9110-ea834f29a853","01990a83-7673-7c0c-a792-bbd8fbbaf673","2025-09-02_09h28.43.530",NA,NA,484.421,484.4211,484.4211,484.7711,NA,NA,NA,NA,NA,NA,NA,TRUE,1,0.8462,481.4201,484.4208,0,71,71,60,1,50,27,NA,NA,NA,NA,NA,1,72,"binary"
"6C2F6152D39B4D5CBFF0A1F81394A800",1,"01990a9c-9062-7a52-9110-ea834f29a853","01990a83-7673-7c0c-a792-bbd8fbbaf673","2025-09-02_09h28.43.530",NA,NA,487.7747,487.7748,487.7749,488.1248,NA,NA,NA,NA,NA,NA,NA,TRUE,1,0.906,484.7728,487.7746,0,72,72,54,1,45,26,NA,NA,NA,NA,NA,1,73,"binary"
"6C2F6152D39B4D5CBFF0A1F81394A800",1,"01990a9c-9062-7a52-9110-ea834f29a853","01990a83-7673-7c0c-a792-bbd8fbbaf673","2025-09-02_09h28.43.530",NA,NA,491.1116,491.1116,491.1116,491.462,NA,NA,NA,NA,NA,NA,NA,TRUE,1,1.216,488.1272,491.1114,0,73,73,67,1,60,33,NA,NA,NA,NA,NA,1,74,"binary"
"6C2F6152D39B4D5CBFF0A1F81394A800",1,"01990a9c-9062-7a52-9110-ea834f29a853","01990a83-7673-7c0c-a792-bbd8fbbaf673","2025-09-02_09h28.43.530",NA,NA,494.465,494.4651,494.4652,494.8152,NA,NA,NA,NA,NA,NA,NA,TRUE,1,1.0587,491.4653,494.4647,0,74,74,104,1,200,35,NA,NA,NA,NA,NA,1,75,"binary"
"6C2F6152D39B4D5CBFF0A1F81394A800",1,"01990a9c-9062-7a52-9110-ea834f29a853","01990a83-7673-7c0c-a792-bbd8fbbaf673","2025-09-02_09h28.43.530",NA,NA,497.8186,497.8186,497.8186,498.1684,NA,NA,NA,NA,NA,NA,NA,TRUE,1,1.0816,494.8175,497.8181,0,75,75,9,1,10,29,NA,NA,NA,NA,NA,1,76,"binary"
"6C2F6152D39B4D5CBFF0A1F81394A800",1,"01990a9c-9062-7a52-9110-ea834f29a853","01990a83-7673-7c0c-a792-bbd8fbbaf673","2025-09-02_09h28.43.530",NA,NA,501.1733,501.1733,501.1733,501.5226,NA,NA,NA,NA,NA,NA,NA,TRUE,2,1.1133,498.1707,501.1732,0,76,76,47,1,30,38,NA,NA,NA,NA,NA,1,77,"binary"
"6C2F6152D39B4D5CBFF0A1F81394A800",1,"01990a9c-9062-7a52-9110-ea834f29a853","01990a83-7673-7c0c-a792-bbd8fbbaf673","2025-09-02_09h28.43.530",NA,NA,504.5257,504.526,504.526,504.8755,NA,NA,NA,NA,NA,NA,NA,TRUE,1,1.6604,501.5263,504.5254,0,77,77,55,1,45,29,NA,NA,NA,NA,NA,1,78,"binary"
"6C2F6152D39B4D5CBFF0A1F81394A800",1,"01990a9c-9062-7a52-9110-ea834f29a853","01990a83-7673-7c0c-a792-bbd8fbbaf673","2025-09-02_09h28.43.530",NA,NA,507.862,507.8621,507.8622,508.2123,NA,NA,NA,NA,NA,NA,NA,TRUE,1,1.2267,504.8779,507.8619,0,78,78,26,1,21,29,NA,NA,NA,NA,NA,1,79,"binary"
"6C2F6152D39B4D5CBFF0A1F81394A800",1,"01990a9c-9062-7a52-9110-ea834f29a853","01990a83-7673-7c0c-a792-bbd8fbbaf673","2025-09-02_09h28.43.530",NA,NA,511.2154,511.2154,511.2155,511.5655,NA,NA,NA,NA,NA,NA,NA,TRUE,2,0.9521,508.2139,511.2153,0,79,79,76,1,90,46,NA,NA,NA,NA,NA,1,80,"binary"
"6C2F6152D39B4D5CBFF0A1F81394A800",1,"01990a9c-9062-7a52-9110-ea834f29a853","01990a83-7673-7c0c-a792-bbd8fbbaf673","2025-09-02_09h28.43.530",NA,NA,514.5691,514.5691,514.5691,514.9191,NA,NA,NA,NA,NA,NA,NA,TRUE,1,1.3695,511.5671,514.5687,0,80,80,62,1,50,35,NA,NA,NA,NA,NA,1,81,"binary"
"6C2F6152D39B4D5CBFF0A1F81394A800",1,"01990a9c-9062-7a52-9110-ea834f29a853","01990a83-7673-7c0c-a792-bbd8fbbaf673","2025-09-02_09h28.43.530",NA,NA,517.9228,517.9228,517.9229,518.2727,NA,NA,NA,NA,NA,NA,NA,TRUE,2,0.9698,514.9218,517.9224,0,81,81,93,1,150,40,NA,NA,NA,NA,NA,1,82,"binary"
"6C2F6152D39B4D5CBFF0A1F81394A800",1,"01990a9c-9062-7a52-9110-ea834f29a853","01990a83-7673-7c0c-a792-bbd8fbbaf673","2025-09-02_09h28.43.530",NA,NA,521.2759,521.276,521.276,521.6261,NA,NA,NA,NA,NA,NA,NA,TRUE,1,0.9466,518.2754,521.2757,0,82,82,37,1,28,28,NA,NA,NA,NA,NA,1,83,"binary"
"6C2F6152D39B4D5CBFF0A1F81394A800",1,"01990a9c-9062-7a52-9110-ea834f29a853","01990a83-7673-7c0c-a792-bbd8fbbaf673","2025-09-02_09h28.43.530",NA,NA,524.6128,524.6129,524.6129,524.9629,NA,NA,NA,NA,NA,NA,NA,TRUE,1,2.3078,521.6286,524.6126,0,83,83,33,1,25,33,NA,NA,NA,NA,NA,1,84,"binary"
"6C2F6152D39B4D5CBFF0A1F81394A800",1,"01990a9c-9062-7a52-9110-ea834f29a853","01990a83-7673-7c0c-a792-bbd8fbbaf673","2025-09-02_09h28.43.530",NA,NA,527.9661,527.9661,527.9661,528.3162,NA,NA,NA,NA,NA,NA,NA,TRUE,1,1.3241,524.965,527.9659,0,84,84,99,1,180,39,NA,NA,NA,NA,NA,1,85,"binary"
"6C2F6152D39B4D5CBFF0A1F81394A800",1,"01990a9c-9062-7a52-9110-ea834f29a853","01990a83-7673-7c0c-a792-bbd8fbbaf673","2025-09-02_09h28.43.530",NA,NA,531.3195,531.3195,531.3195,531.6698,NA,NA,NA,NA,NA,NA,NA,TRUE,1,0.988,528.3178,531.3194,0,85,85,66,1,60,29,NA,NA,NA,NA,NA,1,86,"binary"
"6C2F6152D39B4D5CBFF0A1F81394A800",1,"01990a9c-9062-7a52-9110-ea834f29a853","01990a83-7673-7c0c-a792-bbd8fbbaf673","2025-09-02_09h28.43.530",NA,NA,534.6732,534.6732,534.6732,535.0233,NA,NA,NA,NA,NA,NA,NA,TRUE,1,1.1904,531.6717,534.6729,0,86,86,40,1,28,39,NA,NA,NA,NA,NA,1,87,"binary"
"6C2F6152D39B4D5CBFF0A1F81394A800",1,"01990a9c-9062-7a52-9110-ea834f29a853","01990a83-7673-7c0c-a792-bbd8fbbaf673","2025-09-02_09h28.43.530",NA,NA,538.0266,538.0266,538.0266,538.3768,NA,NA,NA,NA,NA,NA,NA,TRUE,1,1.0236,535.0253,538.0263,0,87,87,10,1,10,30,NA,NA,NA,NA,NA,1,88,"binary"
"6C2F6152D39B4D5CBFF0A1F81394A800",1,"01990a9c-9062-7a52-9110-ea834f29a853","01990a83-7673-7c0c-a792-bbd8fbbaf673","2025-09-02_09h28.43.530",NA,NA,541.3635,541.3635,541.3636,541.7134,NA,NA,NA,NA,NA,NA,NA,TRUE,1,1.2994,538.3786,541.3634,0,88,88,86,1,100,38,NA,NA,NA,NA,NA,1,89,"binary"
"6C2F6152D39B4D5CBFF0A1F81394A800",1,"01990a9c-9062-7a52-9110-ea834f29a853","01990a83-7673-7c0c-a792-bbd8fbbaf673","2025-09-02_09h28.43.530",NA,NA,544.7168,544.7169,544.7169,545.0669,NA,NA,NA,NA,NA,NA,NA,TRUE,1,0.9412,541.715,544.7166,0,89,89,12,1,12,25,NA,NA,NA,NA,NA,1,90,"binary"
"6C2F6152D39B4D5CBFF0A1F81394A800",1,"01990a9c-9062-7a52-9110-ea834f29a853","01990a83-7673-7c0c-a792-bbd8fbbaf673","2025-09-02_09h28.43.530",NA,NA,548.0704,548.0705,548.0705,548.4204,NA,NA,NA,NA,NA,NA,NA,TRUE,1,2.053,545.0694,548.0701,0,90,90,29,1,21,38,NA,NA,NA,NA,NA,1,91,"binary"
"6C2F6152D39B4D5CBFF0A1F81394A800",1,"01990a9c-9062-7a52-9110-ea834f29a853","01990a83-7673-7c0c-a792-bbd8fbbaf673","2025-09-02_09h28.43.530",NA,NA,551.4239,551.424,551.4241,551.7739,NA,NA,NA,NA,NA,NA,NA,TRUE,1,1.0537,548.423,551.4238,0,91,91,102,1,200,26,NA,NA,NA,NA,NA,1,92,"binary"
"6C2F6152D39B4D5CBFF0A1F81394A800",1,"01990a9c-9062-7a52-9110-ea834f29a853","01990a83-7673-7c0c-a792-bbd8fbbaf673","2025-09-02_09h28.43.530",NA,NA,554.7774,554.7775,554.7775,555.1275,NA,NA,NA,NA,NA,NA,NA,TRUE,1,0.8752,551.7764,554.7772,0,92,92,19,1,14,26,NA,NA,NA,NA,NA,1,93,"binary"
"6C2F6152D39B4D5CBFF0A1F81394A800",1,"01990a9c-9062-7a52-9110-ea834f29a853","01990a83-7673-7c0c-a792-bbd8fbbaf673","2025-09-02_09h28.43.530",NA,NA,558.1152,558.1154,558.1154,558.4644,NA,NA,NA,NA,NA,NA,NA,TRUE,1,1.036,555.1297,558.1151,0,93,93,56,1,45,31,NA,NA,NA,NA,NA,1,94,"binary"
"6C2F6152D39B4D5CBFF0A1F81394A800",1,"01990a9c-9062-7a52-9110-ea834f29a853","01990a83-7673-7c0c-a792-bbd8fbbaf673","2025-09-02_09h28.43.530",NA,NA,561.4674,561.4674,561.4675,561.8174,NA,NA,NA,NA,NA,NA,NA,TRUE,1,0.902,558.466,561.4672,0,94,94,3,1,7,30,NA,NA,NA,NA,NA,1,95,"binary"
"6C2F6152D39B4D5CBFF0A1F81394A800",1,"01990a9c-9062-7a52-9110-ea834f29a853","01990a83-7673-7c0c-a792-bbd8fbbaf673","2025-09-02_09h28.43.530",NA,NA,564.8209,564.8209,564.821,565.1709,NA,NA,NA,NA,NA,NA,NA,TRUE,1,0.9266,561.8191,564.8207,0,95,95,8,1,10,27,NA,NA,NA,NA,NA,1,96,"binary"
"6C2F6152D39B4D5CBFF0A1F81394A800",1,"01990a9c-9062-7a52-9110-ea834f29a853","01990a83-7673-7c0c-a792-bbd8fbbaf673","2025-09-02_09h28.43.530",NA,NA,568.1744,568.1745,568.1746,568.5245,NA,NA,NA,NA,NA,NA,NA,TRUE,1,0.8262,565.1726,568.1742,0,96,96,42,1,30,26,NA,NA,NA,NA,NA,1,97,"binary"
"6C2F6152D39B4D5CBFF0A1F81394A800",1,"01990a9c-9062-7a52-9110-ea834f29a853","01990a83-7673-7c0c-a792-bbd8fbbaf673","2025-09-02_09h28.43.530",NA,NA,571.5113,571.5114,571.5114,571.8615,NA,NA,NA,NA,NA,NA,NA,TRUE,1,1.113,568.5271,571.5111,0,97,97,31,1,25,29,NA,NA,NA,NA,NA,1,98,"binary"
"6C2F6152D39B4D5CBFF0A1F81394A800",1,"01990a9c-9062-7a52-9110-ea834f29a853","01990a83-7673-7c0c-a792-bbd8fbbaf673","2025-09-02_09h28.43.530",NA,NA,574.8649,574.8649,574.8649,575.216,NA,NA,NA,NA,NA,NA,NA,TRUE,2,1.1257,571.8639,574.8647,0,98,98,82,1,95,47,NA,NA,NA,NA,NA,1,99,"binary"
"6C2F6152D39B4D5CBFF0A1F81394A800",1,"01990a9c-9062-7a52-9110-ea834f29a853","01990a83-7673-7c0c-a792-bbd8fbbaf673","2025-09-02_09h28.43.530",NA,NA,578.2182,578.2184,578.2184,578.5683,NA,NA,NA,NA,NA,NA,NA,TRUE,2,2.0182,575.218,578.2179,0,99,99,5,1,7,35,NA,NA,NA,NA,NA,1,100,"binary"
"6C2F6152D39B4D5CBFF0A1F81394A800",1,"01990a9c-9062-7a52-9110-ea834f29a853","01990a83-7673-7c0c-a792-bbd8fbbaf673","2025-09-02_09h28.43.530",NA,NA,581.5729,581.8216,581.8216,581.9218,NA,NA,NA,NA,NA,NA,NA,FALSE,NA,NA,578.5706,581.5726,0,100,100,43,1,30,27,NA,NA,NA,NA,NA,1,101,"binary"
"6C2F6152D39B4D5CBFF0A1F81394A800",1,"01990a9c-9062-7a52-9110-ea834f29a853","01990a83-7673-7c0c-a792-bbd8fbbaf673","2025-09-02_09h28.43.530",NA,NA,584.9124,584.9124,584.9125,585.2629,NA,NA,NA,NA,NA,NA,NA,TRUE,2,2.1663,581.9243,584.9123,0,101,101,22,1,14,35,NA,NA,NA,NA,NA,1,102,"binary"
"6C2F6152D39B4D5CBFF0A1F81394A800",1,"01990a9c-9062-7a52-9110-ea834f29a853","01990a83-7673-7c0c-a792-bbd8fbbaf673","2025-09-02_09h28.43.530",NA,NA,588.2628,588.263,588.263,588.6124,NA,NA,NA,NA,NA,NA,NA,TRUE,2,0.9098,585.2648,588.2627,0,102,102,69,1,60,40,NA,NA,NA,NA,NA,1,103,"binary"
"6C2F6152D39B4D5CBFF0A1F81394A800",1,"01990a9c-9062-7a52-9110-ea834f29a853","01990a83-7673-7c0c-a792-bbd8fbbaf673","2025-09-02_09h28.43.530",NA,NA,591.6154,591.6154,591.6155,591.9657,NA,NA,NA,NA,NA,NA,NA,TRUE,1,1.034,588.6146,591.6152,0,103,103,97,1,180,31,NA,NA,NA,NA,NA,1,104,"binary"
"6C2F6152D39B4D5CBFF0A1F81394A800",1,"01990a9c-9062-7a52-9110-ea834f29a853","01990a83-7673-7c0c-a792-bbd8fbbaf673","2025-09-02_09h28.43.530",NA,NA,594.9692,595.2188,595.2188,595.3189,NA,NA,NA,NA,NA,NA,NA,FALSE,NA,NA,591.9684,594.9691,0,104,104,53,1,40,54,NA,NA,NA,NA,NA,1,105,"binary"
"6C2F6152D39B4D5CBFF0A1F81394A800",1,"01990a9c-9062-7a52-9110-ea834f29a853","01990a83-7673-7c0c-a792-bbd8fbbaf673","2025-09-02_09h28.43.530",NA,NA,598.3227,598.3228,598.3228,598.6724,NA,NA,NA,NA,NA,NA,NA,TRUE,2,2.0034,595.3205,598.3224,0,105,105,39,1,28,35,NA,NA,NA,NA,NA,1,106,"binary"
"6C2F6152D39B4D5CBFF0A1F81394A800",1,"01990a9c-9062-7a52-9110-ea834f29a853","01990a83-7673-7c0c-a792-bbd8fbbaf673","2025-09-02_09h28.43.530",NA,NA,601.6765,601.9259,601.9259,602.0259,NA,NA,NA,NA,NA,NA,NA,FALSE,NA,NA,598.6747,601.6761,0,106,106,89,1,100,54,NA,NA,NA,NA,NA,1,107,"binary"
"6C2F6152D39B4D5CBFF0A1F81394A800",1,"01990a9c-9062-7a52-9110-ea834f29a853","01990a83-7673-7c0c-a792-bbd8fbbaf673","2025-09-02_09h28.43.530",NA,NA,605.0127,605.2631,605.2631,605.3633,NA,NA,NA,NA,NA,NA,NA,FALSE,NA,NA,602.0278,605.0125,0,107,107,80,1,95,35,NA,NA,NA,NA,NA,1,108,"binary"
"6C2F6152D39B4D5CBFF0A1F81394A800",1,"01990a9c-9062-7a52-9110-ea834f29a853","01990a83-7673-7c0c-a792-bbd8fbbaf673","2025-09-02_09h28.43.530",NA,NA,635.1645,635.1645,635.1645,635.4975,NA,NA,NA,NA,NA,NA,NA,TRUE,2,1.6401,632.1691,635.1644,NA,NA,NA,NA,NA,95,54,0,0,0,83,1,2,1,"binary"
"6C2F6152D39B4D5CBFF0A1F81394A800",1,"01990a9c-9062-7a52-9110-ea834f29a853","01990a83-7673-7c0c-a792-bbd8fbbaf673","2025-09-02_09h28.43.530",NA,NA,638.4976,638.4977,638.4978,638.8473,NA,NA,NA,NA,NA,NA,NA,TRUE,1,0.8851,635.4991,638.4975,NA,NA,NA,NA,NA,30,27,0,1,1,43,1,2,2,"binary"
"6C2F6152D39B4D5CBFF0A1F81394A800",1,"01990a9c-9062-7a52-9110-ea834f29a853","01990a83-7673-7c0c-a792-bbd8fbbaf673","2025-09-02_09h28.43.530",NA,NA,641.8507,641.8507,641.8508,642.2009,NA,NA,NA,NA,NA,NA,NA,TRUE,1,1.129,638.8496,641.8505,NA,NA,NA,NA,NA,45,35,0,2,2,57,1,2,3,"binary"
"6C2F6152D39B4D5CBFF0A1F81394A800",1,"01990a9c-9062-7a52-9110-ea834f29a853","01990a83-7673-7c0c-a792-bbd8fbbaf673","2025-09-02_09h28.43.530",NA,NA,645.2041,645.2042,645.2042,645.5543,NA,NA,NA,NA,NA,NA,NA,TRUE,1,0.9418,642.2031,645.2039,NA,NA,NA,NA,NA,10,26,0,3,3,7,1,2,4,"binary"
"6C2F6152D39B4D5CBFF0A1F81394A800",1,"01990a9c-9062-7a52-9110-ea834f29a853","01990a83-7673-7c0c-a792-bbd8fbbaf673","2025-09-02_09h28.43.530",NA,NA,648.5574,648.5575,648.5575,648.9078,NA,NA,NA,NA,NA,NA,NA,TRUE,1,0.8234,645.5566,648.5573,NA,NA,NA,NA,NA,25,27,0,4,4,30,1,2,5,"binary"
"6C2F6152D39B4D5CBFF0A1F81394A800",1,"01990a9c-9062-7a52-9110-ea834f29a853","01990a83-7673-7c0c-a792-bbd8fbbaf673","2025-09-02_09h28.43.530",NA,NA,651.9109,651.9109,651.9109,652.261,NA,NA,NA,NA,NA,NA,NA,TRUE,1,0.7509,648.9093,651.9108,NA,NA,NA,NA,NA,14,28,0,5,5,20,1,2,6,"binary"
"6C2F6152D39B4D5CBFF0A1F81394A800",1,"01990a9c-9062-7a52-9110-ea834f29a853","01990a83-7673-7c0c-a792-bbd8fbbaf673","2025-09-02_09h28.43.530",NA,NA,655.248,655.248,655.2481,655.5981,NA,NA,NA,NA,NA,NA,NA,TRUE,2,1.1844,652.2628,655.2477,NA,NA,NA,NA,NA,40,35,0,6,6,50,1,2,7,"binary"
"6C2F6152D39B4D5CBFF0A1F81394A800",1,"01990a9c-9062-7a52-9110-ea834f29a853","01990a83-7673-7c0c-a792-bbd8fbbaf673","2025-09-02_09h28.43.530",NA,NA,658.6012,658.6013,658.6013,658.9514,NA,NA,NA,NA,NA,NA,NA,TRUE,2,1.8359,655.6005,658.6011,NA,NA,NA,NA,NA,200,35,0,7,7,104,1,2,8,"binary"
"6C2F6152D39B4D5CBFF0A1F81394A800",1,"01990a9c-9062-7a52-9110-ea834f29a853","01990a83-7673-7c0c-a792-bbd8fbbaf673","2025-09-02_09h28.43.530",NA,NA,661.9487,661.9487,661.9487,662.2988,NA,NA,NA,NA,NA,NA,NA,TRUE,2,1.8536,658.9538,661.9485,NA,NA,NA,NA,NA,90,40,0,8,8,75,1,2,9,"binary"
"6C2F6152D39B4D5CBFF0A1F81394A800",1,"01990a9c-9062-7a52-9110-ea834f29a853","01990a83-7673-7c0c-a792-bbd8fbbaf673","2025-09-02_09h28.43.530",NA,NA,665.3081,665.3082,665.3082,665.6594,NA,NA,NA,NA,NA,NA,NA,TRUE,2,2.4449,662.3003,665.308,NA,NA,NA,NA,NA,100,26,0,9,9,84,1,2,10,"binary"
"6C2F6152D39B4D5CBFF0A1F81394A800",1,"01990a9c-9062-7a52-9110-ea834f29a853","01990a83-7673-7c0c-a792-bbd8fbbaf673","2025-09-02_09h28.43.530",NA,NA,668.6644,668.6645,668.6646,668.9993,NA,NA,NA,NA,NA,NA,NA,TRUE,1,1.2846,665.6615,668.6643,NA,NA,NA,NA,NA,100,31,0,10,10,85,1,2,11,"binary"
"6C2F6152D39B4D5CBFF0A1F81394A800",1,"01990a9c-9062-7a52-9110-ea834f29a853","01990a83-7673-7c0c-a792-bbd8fbbaf673","2025-09-02_09h28.43.530",NA,NA,671.9984,671.9986,671.9987,672.3487,NA,NA,NA,NA,NA,NA,NA,TRUE,1,1.283,669.0008,671.9982,NA,NA,NA,NA,NA,28,32,0,11,11,38,1,2,12,"binary"
"6C2F6152D39B4D5CBFF0A1F81394A800",1,"01990a9c-9062-7a52-9110-ea834f29a853","01990a83-7673-7c0c-a792-bbd8fbbaf673","2025-09-02_09h28.43.530",NA,NA,675.3522,675.3523,675.3523,675.7022,NA,NA,NA,NA,NA,NA,NA,TRUE,2,1.274,672.3512,675.352,NA,NA,NA,NA,NA,14,39,0,12,12,23,1,2,13,"binary"
"6C2F6152D39B4D5CBFF0A1F81394A800",1,"01990a9c-9062-7a52-9110-ea834f29a853","01990a83-7673-7c0c-a792-bbd8fbbaf673","2025-09-02_09h28.43.530",NA,NA,678.7055,678.7056,678.7056,679.0559,NA,NA,NA,NA,NA,NA,NA,TRUE,1,0.7426,675.704,678.7052,NA,NA,NA,NA,NA,12,26,0,13,13,13,1,2,14,"binary"
"6C2F6152D39B4D5CBFF0A1F81394A800",1,"01990a9c-9062-7a52-9110-ea834f29a853","01990a83-7673-7c0c-a792-bbd8fbbaf673","2025-09-02_09h28.43.530",NA,NA,682.0588,682.0591,682.0591,682.409,NA,NA,NA,NA,NA,NA,NA,TRUE,1,0.9013,679.0587,682.0587,NA,NA,NA,NA,NA,25,29,0,14,14,31,1,2,15,"binary"
"6C2F6152D39B4D5CBFF0A1F81394A800",1,"01990a9c-9062-7a52-9110-ea834f29a853","01990a83-7673-7c0c-a792-bbd8fbbaf673","2025-09-02_09h28.43.530",NA,NA,685.3957,685.3957,685.3957,685.7459,NA,NA,NA,NA,NA,NA,NA,TRUE,2,0.9478,682.4115,685.3955,NA,NA,NA,NA,NA,180,46,0,15,15,100,1,2,16,"binary"
"6C2F6152D39B4D5CBFF0A1F81394A800",1,"01990a9c-9062-7a52-9110-ea834f29a853","01990a83-7673-7c0c-a792-bbd8fbbaf673","2025-09-02_09h28.43.530",NA,NA,688.7492,688.7492,688.7492,689.0994,NA,NA,NA,NA,NA,NA,NA,TRUE,2,0.7522,685.7483,688.7489,NA,NA,NA,NA,NA,45,46,0,16,16,59,1,2,17,"binary"
"6C2F6152D39B4D5CBFF0A1F81394A800",1,"01990a9c-9062-7a52-9110-ea834f29a853","01990a83-7673-7c0c-a792-bbd8fbbaf673","2025-09-02_09h28.43.530",NA,NA,692.1028,692.1029,692.1029,692.4529,NA,NA,NA,NA,NA,NA,NA,TRUE,1,1.0782,689.1019,692.1026,NA,NA,NA,NA,NA,90,30,0,17,17,73,1,2,18,"binary"
"6C2F6152D39B4D5CBFF0A1F81394A800",1,"01990a9c-9062-7a52-9110-ea834f29a853","01990a83-7673-7c0c-a792-bbd8fbbaf673","2025-09-02_09h28.43.530",NA,NA,695.4561,695.4561,695.4561,695.8062,NA,NA,NA,NA,NA,NA,NA,TRUE,1,0.9729,692.455,695.4559,NA,NA,NA,NA,NA,180,27,0,18,18,96,1,2,19,"binary"
"6C2F6152D39B4D5CBFF0A1F81394A800",1,"01990a9c-9062-7a52-9110-ea834f29a853","01990a83-7673-7c0c-a792-bbd8fbbaf673","2025-09-02_09h28.43.530",NA,NA,698.8093,698.8093,698.8094,699.1597,NA,NA,NA,NA,NA,NA,NA,TRUE,1,1.1176,695.8085,698.8092,NA,NA,NA,NA,NA,45,31,0,19,19,56,1,2,20,"binary"
"6C2F6152D39B4D5CBFF0A1F81394A800",1,"01990a9c-9062-7a52-9110-ea834f29a853","01990a83-7673-7c0c-a792-bbd8fbbaf673","2025-09-02_09h28.43.530",NA,NA,702.1464,702.1465,702.1465,702.4965,NA,NA,NA,NA,NA,NA,NA,TRUE,2,1.0167,699.1613,702.1463,NA,NA,NA,NA,NA,50,40,0,20,20,63,1,2,21,"binary"
"6C2F6152D39B4D5CBFF0A1F81394A800",1,"01990a9c-9062-7a52-9110-ea834f29a853","01990a83-7673-7c0c-a792-bbd8fbbaf673","2025-09-02_09h28.43.530",NA,NA,705.4999,705.4999,705.4999,705.8501,NA,NA,NA,NA,NA,NA,NA,TRUE,1,0.7784,702.4986,705.4998,NA,NA,NA,NA,NA,90,26,0,21,21,72,1,2,22,"binary"
"6C2F6152D39B4D5CBFF0A1F81394A800",1,"01990a9c-9062-7a52-9110-ea834f29a853","01990a83-7673-7c0c-a792-bbd8fbbaf673","2025-09-02_09h28.43.530",NA,NA,708.8534,708.8534,708.8534,709.2036,NA,NA,NA,NA,NA,NA,NA,TRUE,2,1.0358,705.8519,708.8533,NA,NA,NA,NA,NA,60,35,0,22,22,68,1,2,23,"binary"
"6C2F6152D39B4D5CBFF0A1F81394A800",1,"01990a9c-9062-7a52-9110-ea834f29a853","01990a83-7673-7c0c-a792-bbd8fbbaf673","2025-09-02_09h28.43.530",NA,NA,712.2067,712.2067,712.2067,712.5567,NA,NA,NA,NA,NA,NA,NA,TRUE,2,0.8745,709.2053,712.2065,NA,NA,NA,NA,NA,50,54,0,23,23,65,1,2,24,"binary"
"6C2F6152D39B4D5CBFF0A1F81394A800",1,"01990a9c-9062-7a52-9110-ea834f29a853","01990a83-7673-7c0c-a792-bbd8fbbaf673","2025-09-02_09h28.43.530",NA,NA,715.5602,715.5603,715.5604,715.9102,NA,NA,NA,NA,NA,NA,NA,TRUE,1,1.7392,712.5584,715.5599,NA,NA,NA,NA,NA,25,33,0,24,24,33,1,2,25,"binary"
"6C2F6152D39B4D5CBFF0A1F81394A800",1,"01990a9c-9062-7a52-9110-ea834f29a853","01990a83-7673-7c0c-a792-bbd8fbbaf673","2025-09-02_09h28.43.530",NA,NA,718.8971,718.8971,718.8974,719.2473,NA,NA,NA,NA,NA,NA,NA,TRUE,1,1.4332,715.9128,718.897,NA,NA,NA,NA,NA,14,25,0,25,25,18,1,2,26,"binary"
"6C2F6152D39B4D5CBFF0A1F81394A800",1,"01990a9c-9062-7a52-9110-ea834f29a853","01990a83-7673-7c0c-a792-bbd8fbbaf673","2025-09-02_09h28.43.530",NA,NA,722.2505,722.2505,722.2505,722.6008,NA,NA,NA,NA,NA,NA,NA,TRUE,2,0.7971,719.25,722.2504,NA,NA,NA,NA,NA,40,40,0,26,26,51,1,2,27,"binary"
"6C2F6152D39B4D5CBFF0A1F81394A800",1,"01990a9c-9062-7a52-9110-ea834f29a853","01990a83-7673-7c0c-a792-bbd8fbbaf673","2025-09-02_09h28.43.530",NA,NA,725.6042,725.6043,725.6043,725.9541,NA,NA,NA,NA,NA,NA,NA,TRUE,1,1.0017,722.6032,725.604,NA,NA,NA,NA,NA,21,29,0,27,27,26,1,2,28,"binary"
"6C2F6152D39B4D5CBFF0A1F81394A800",1,"01990a9c-9062-7a52-9110-ea834f29a853","01990a83-7673-7c0c-a792-bbd8fbbaf673","2025-09-02_09h28.43.530",NA,NA,728.9572,728.9575,728.9575,729.3074,NA,NA,NA,NA,NA,NA,NA,TRUE,1,1.9863,725.9572,728.9571,NA,NA,NA,NA,NA,40,33,0,28,28,49,1,2,29,"binary"
"6C2F6152D39B4D5CBFF0A1F81394A800",1,"01990a9c-9062-7a52-9110-ea834f29a853","01990a83-7673-7c0c-a792-bbd8fbbaf673","2025-09-02_09h28.43.530",NA,NA,732.3109,732.311,732.311,732.6611,NA,NA,NA,NA,NA,NA,NA,TRUE,2,1.1709,729.3104,732.3107,NA,NA,NA,NA,NA,21,38,0,29,29,29,1,2,30,"binary"
"6C2F6152D39B4D5CBFF0A1F81394A800",1,"01990a9c-9062-7a52-9110-ea834f29a853","01990a83-7673-7c0c-a792-bbd8fbbaf673","2025-09-02_09h28.43.530",NA,NA,735.648,735.6482,735.6482,735.9978,NA,NA,NA,NA,NA,NA,NA,TRUE,1,0.9369,732.6635,735.6478,NA,NA,NA,NA,NA,50,27,0,30,30,60,1,2,31,"binary"
"6C2F6152D39B4D5CBFF0A1F81394A800",1,"01990a9c-9062-7a52-9110-ea834f29a853","01990a83-7673-7c0c-a792-bbd8fbbaf673","2025-09-02_09h28.43.530",NA,NA,739.0012,739.0013,739.0013,739.3514,NA,NA,NA,NA,NA,NA,NA,TRUE,1,1.035,736.0001,739.001,NA,NA,NA,NA,NA,60,29,0,31,31,66,1,2,32,"binary"
"6C2F6152D39B4D5CBFF0A1F81394A800",1,"01990a9c-9062-7a52-9110-ea834f29a853","01990a83-7673-7c0c-a792-bbd8fbbaf673","2025-09-02_09h28.43.530",NA,NA,742.3553,742.3554,742.3554,742.7062,NA,NA,NA,NA,NA,NA,NA,TRUE,1,1.5104,739.3533,742.3548,NA,NA,NA,NA,NA,25,31,0,32,32,32,1,2,33,"binary"
"6C2F6152D39B4D5CBFF0A1F81394A800",1,"01990a9c-9062-7a52-9110-ea834f29a853","01990a83-7673-7c0c-a792-bbd8fbbaf673","2025-09-02_09h28.43.530",NA,NA,745.7085,745.9581,745.9581,746.0581,NA,NA,NA,NA,NA,NA,NA,FALSE,NA,NA,742.7082,745.7083,NA,NA,NA,NA,NA,14,32,0,33,33,21,1,2,34,"binary"
"6C2F6152D39B4D5CBFF0A1F81394A800",1,"01990a9c-9062-7a52-9110-ea834f29a853","01990a83-7673-7c0c-a792-bbd8fbbaf673","2025-09-02_09h28.43.530",NA,NA,749.0616,749.2954,749.2954,749.3955,NA,NA,NA,NA,NA,NA,NA,FALSE,NA,NA,746.0603,749.0616,NA,NA,NA,NA,NA,28,35,0,34,34,39,1,2,35,"binary"
"6C2F6152D39B4D5CBFF0A1F81394A800",1,"01990a9c-9062-7a52-9110-ea834f29a853","01990a83-7673-7c0c-a792-bbd8fbbaf673","2025-09-02_09h28.43.530",NA,NA,752.3996,752.3997,752.3997,752.7486,NA,NA,NA,NA,NA,NA,NA,TRUE,2,1.0154,749.398,752.3984,NA,NA,NA,NA,NA,100,54,0,35,35,89,1,2,36,"binary"
"6C2F6152D39B4D5CBFF0A1F81394A800",1,"01990a9c-9062-7a52-9110-ea834f29a853","01990a83-7673-7c0c-a792-bbd8fbbaf673","2025-09-02_09h28.43.530",NA,NA,755.7521,755.7522,755.7523,756.1021,NA,NA,NA,NA,NA,NA,NA,TRUE,2,0.875,752.7511,755.7518,NA,NA,NA,NA,NA,100,38,0,36,36,86,1,2,37,"binary"
"6C2F6152D39B4D5CBFF0A1F81394A800",1,"01990a9c-9062-7a52-9110-ea834f29a853","01990a83-7673-7c0c-a792-bbd8fbbaf673","2025-09-02_09h28.43.530",NA,NA,759.1051,759.1052,759.1052,759.4558,NA,NA,NA,NA,NA,NA,NA,TRUE,1,1.3676,756.1044,759.1051,NA,NA,NA,NA,NA,10,29,0,37,37,9,1,2,38,"binary"
"6C2F6152D39B4D5CBFF0A1F81394A800",1,"01990a9c-9062-7a52-9110-ea834f29a853","01990a83-7673-7c0c-a792-bbd8fbbaf673","2025-09-02_09h28.43.530",NA,NA,762.4586,762.4587,762.4587,762.8088,NA,NA,NA,NA,NA,NA,NA,TRUE,1,1.3534,759.4573,762.4584,NA,NA,NA,NA,NA,180,35,0,38,38,98,1,2,39,"binary"
"6C2F6152D39B4D5CBFF0A1F81394A800",1,"01990a9c-9062-7a52-9110-ea834f29a853","01990a83-7673-7c0c-a792-bbd8fbbaf673","2025-09-02_09h28.43.530",NA,NA,765.7957,765.7957,765.7957,766.1465,NA,NA,NA,NA,NA,NA,NA,TRUE,2,0.7348,762.8108,765.7957,NA,NA,NA,NA,NA,40,54,0,39,39,53,1,2,40,"binary"
"6C2F6152D39B4D5CBFF0A1F81394A800",1,"01990a9c-9062-7a52-9110-ea834f29a853","01990a83-7673-7c0c-a792-bbd8fbbaf673","2025-09-02_09h28.43.530",NA,NA,769.1524,769.1524,769.1524,769.5023,NA,NA,NA,NA,NA,NA,NA,TRUE,2,1.4361,766.1494,769.1523,NA,NA,NA,NA,NA,28,46,0,40,40,41,1,2,41,"binary"
"6C2F6152D39B4D5CBFF0A1F81394A800",1,"01990a9c-9062-7a52-9110-ea834f29a853","01990a83-7673-7c0c-a792-bbd8fbbaf673","2025-09-02_09h28.43.530",NA,NA,772.5026,772.5027,772.5027,772.8529,NA,NA,NA,NA,NA,NA,NA,TRUE,1,1.2012,769.5037,772.5024,NA,NA,NA,NA,NA,14,26,0,41,41,19,1,2,42,"binary"
"6C2F6152D39B4D5CBFF0A1F81394A800",1,"01990a9c-9062-7a52-9110-ea834f29a853","01990a83-7673-7c0c-a792-bbd8fbbaf673","2025-09-02_09h28.43.530",NA,NA,775.8564,775.857,775.857,776.2063,NA,NA,NA,NA,NA,NA,NA,TRUE,2,0.7835,772.855,775.8562,NA,NA,NA,NA,NA,50,46,0,42,42,64,1,2,43,"binary"
"6C2F6152D39B4D5CBFF0A1F81394A800",1,"01990a9c-9062-7a52-9110-ea834f29a853","01990a83-7673-7c0c-a792-bbd8fbbaf673","2025-09-02_09h28.43.530",NA,NA,779.2096,779.2097,779.2097,779.5595,NA,NA,NA,NA,NA,NA,NA,TRUE,1,0.8012,776.2083,779.2094,NA,NA,NA,NA,NA,200,26,0,43,43,102,1,2,44,"binary"
"6C2F6152D39B4D5CBFF0A1F81394A800",1,"01990a9c-9062-7a52-9110-ea834f29a853","01990a83-7673-7c0c-a792-bbd8fbbaf673","2025-09-02_09h28.43.530",NA,NA,782.5465,782.5466,782.5466,782.8966,NA,NA,NA,NA,NA,NA,NA,TRUE,1,0.7341,779.5615,782.5464,NA,NA,NA,NA,NA,21,27,0,44,44,25,1,2,45,"binary"
"6C2F6152D39B4D5CBFF0A1F81394A800",1,"01990a9c-9062-7a52-9110-ea834f29a853","01990a83-7673-7c0c-a792-bbd8fbbaf673","2025-09-02_09h28.43.530",NA,NA,785.8999,785.9,785.9,786.2504,NA,NA,NA,NA,NA,NA,NA,TRUE,1,1.0207,782.8991,785.8997,NA,NA,NA,NA,NA,21,30,0,45,45,27,1,2,46,"binary"
"6C2F6152D39B4D5CBFF0A1F81394A800",1,"01990a9c-9062-7a52-9110-ea834f29a853","01990a83-7673-7c0c-a792-bbd8fbbaf673","2025-09-02_09h28.43.530",NA,NA,789.2535,789.2535,789.2535,789.6037,NA,NA,NA,NA,NA,NA,NA,TRUE,2,0.9241,786.2521,789.2533,NA,NA,NA,NA,NA,95,40,0,46,46,81,1,2,47,"binary"
"6C2F6152D39B4D5CBFF0A1F81394A800",1,"01990a9c-9062-7a52-9110-ea834f29a853","01990a83-7673-7c0c-a792-bbd8fbbaf673","2025-09-02_09h28.43.530",NA,NA,792.6068,792.6071,792.6071,792.9569,NA,NA,NA,NA,NA,NA,NA,TRUE,1,1.4585,789.6068,792.6067,NA,NA,NA,NA,NA,30,32,0,47,47,46,1,2,48,"binary"
"6C2F6152D39B4D5CBFF0A1F81394A800",1,"01990a9c-9062-7a52-9110-ea834f29a853","01990a83-7673-7c0c-a792-bbd8fbbaf673","2025-09-02_09h28.43.530",NA,NA,795.9602,795.9606,795.9607,796.3102,NA,NA,NA,NA,NA,NA,NA,TRUE,2,0.7041,792.959,795.96,NA,NA,NA,NA,NA,180,54,0,48,48,101,1,2,49,"binary"
"6C2F6152D39B4D5CBFF0A1F81394A800",1,"01990a9c-9062-7a52-9110-ea834f29a853","01990a83-7673-7c0c-a792-bbd8fbbaf673","2025-09-02_09h28.43.530",NA,NA,799.2972,799.2972,799.2973,799.6472,NA,NA,NA,NA,NA,NA,NA,TRUE,2,1.4491,796.3125,799.2971,NA,NA,NA,NA,NA,7,32,0,49,49,4,1,2,50,"binary"
"6C2F6152D39B4D5CBFF0A1F81394A800",1,"01990a9c-9062-7a52-9110-ea834f29a853","01990a83-7673-7c0c-a792-bbd8fbbaf673","2025-09-02_09h28.43.530",NA,NA,802.6508,802.6508,802.6508,803.0011,NA,NA,NA,NA,NA,NA,NA,TRUE,1,1.7184,799.6489,802.6508,NA,NA,NA,NA,NA,45,40,0,50,50,58,1,2,51,"binary"
"6C2F6152D39B4D5CBFF0A1F81394A800",1,"01990a9c-9062-7a52-9110-ea834f29a853","01990a83-7673-7c0c-a792-bbd8fbbaf673","2025-09-02_09h28.43.530",NA,NA,806.0059,806.0059,806.0059,806.3552,NA,NA,NA,NA,NA,NA,NA,TRUE,1,1.8318,803.003,806.0057,NA,NA,NA,NA,NA,30,30,0,51,51,45,1,2,52,"binary"
"6C2F6152D39B4D5CBFF0A1F81394A800",1,"01990a9c-9062-7a52-9110-ea834f29a853","01990a83-7673-7c0c-a792-bbd8fbbaf673","2025-09-02_09h28.43.530",NA,NA,809.3582,809.3583,809.3583,809.7087,NA,NA,NA,NA,NA,NA,NA,TRUE,2,1.8177,806.3566,809.358,NA,NA,NA,NA,NA,7,35,0,52,52,5,1,2,53,"binary"
"6C2F6152D39B4D5CBFF0A1F81394A800",1,"01990a9c-9062-7a52-9110-ea834f29a853","01990a83-7673-7c0c-a792-bbd8fbbaf673","2025-09-02_09h28.43.530",NA,NA,812.726,812.7261,812.7261,813.0616,NA,NA,NA,NA,NA,NA,NA,TRUE,2,1.2514,809.71,812.7259,NA,NA,NA,NA,NA,12,33,0,53,53,16,1,2,54,"binary"
"6C2F6152D39B4D5CBFF0A1F81394A800",1,"01990a9c-9062-7a52-9110-ea834f29a853","01990a83-7673-7c0c-a792-bbd8fbbaf673","2025-09-02_09h28.43.530",NA,NA,816.0477,816.0477,816.0477,816.4032,NA,NA,NA,NA,NA,NA,NA,TRUE,2,1.4443,813.0636,816.0474,NA,NA,NA,NA,NA,60,54,0,54,54,71,1,2,55,"binary"
"6C2F6152D39B4D5CBFF0A1F81394A800",1,"01990a9c-9062-7a52-9110-ea834f29a853","01990a83-7673-7c0c-a792-bbd8fbbaf673","2025-09-02_09h28.43.530",NA,NA,819.4012,819.4013,819.4013,819.7511,NA,NA,NA,NA,NA,NA,NA,TRUE,2,0.8176,816.4057,819.4009,NA,NA,NA,NA,NA,25,46,0,55,55,35,1,2,56,"binary"
"6C2F6152D39B4D5CBFF0A1F81394A800",1,"01990a9c-9062-7a52-9110-ea834f29a853","01990a83-7673-7c0c-a792-bbd8fbbaf673","2025-09-02_09h28.43.530",NA,NA,822.7543,822.7543,822.7543,823.1046,NA,NA,NA,NA,NA,NA,NA,TRUE,2,0.7615,819.753,822.7541,NA,NA,NA,NA,NA,95,47,0,56,56,82,1,2,57,"binary"
"6C2F6152D39B4D5CBFF0A1F81394A800",1,"01990a9c-9062-7a52-9110-ea834f29a853","01990a83-7673-7c0c-a792-bbd8fbbaf673","2025-09-02_09h28.43.530",NA,NA,826.1082,826.1084,826.1084,826.4579,NA,NA,NA,NA,NA,NA,NA,TRUE,1,0.9011,823.1064,826.1079,NA,NA,NA,NA,NA,12,25,0,57,57,12,1,2,58,"binary"
"6C2F6152D39B4D5CBFF0A1F81394A800",1,"01990a9c-9062-7a52-9110-ea834f29a853","01990a83-7673-7c0c-a792-bbd8fbbaf673","2025-09-02_09h28.43.530",NA,NA,829.4618,829.4619,829.4619,829.7951,NA,NA,NA,NA,NA,NA,NA,TRUE,2,2.0355,826.4595,829.4613,NA,NA,NA,NA,NA,12,35,0,58,58,17,1,2,59,"binary"
"6C2F6152D39B4D5CBFF0A1F81394A800",1,"01990a9c-9062-7a52-9110-ea834f29a853","01990a83-7673-7c0c-a792-bbd8fbbaf673","2025-09-02_09h28.43.530",NA,NA,832.7988,832.7989,832.7989,833.1485,NA,NA,NA,NA,NA,NA,NA,TRUE,2,1.3011,829.7981,832.7981,NA,NA,NA,NA,NA,200,39,0,59,59,105,1,2,60,"binary"
"6C2F6152D39B4D5CBFF0A1F81394A800",1,"01990a9c-9062-7a52-9110-ea834f29a853","01990a83-7673-7c0c-a792-bbd8fbbaf673","2025-09-02_09h28.43.530",NA,NA,836.1521,836.1521,836.1521,836.5023,NA,NA,NA,NA,NA,NA,NA,TRUE,2,1.2186,833.151,836.1515,NA,NA,NA,NA,NA,95,33,0,60,60,79,1,2,61,"binary"
"6C2F6152D39B4D5CBFF0A1F81394A800",1,"01990a9c-9062-7a52-9110-ea834f29a853","01990a83-7673-7c0c-a792-bbd8fbbaf673","2025-09-02_09h28.43.530",NA,NA,839.5062,839.7556,839.7558,839.8556,NA,NA,NA,NA,NA,NA,NA,FALSE,NA,NA,836.5043,839.506,NA,NA,NA,NA,NA,180,39,0,61,61,99,1,2,62,"binary"
"6C2F6152D39B4D5CBFF0A1F81394A800",1,"01990a9c-9062-7a52-9110-ea834f29a853","01990a83-7673-7c0c-a792-bbd8fbbaf673","2025-09-02_09h28.43.530",NA,NA,842.8586,842.8587,842.8587,843.2089,NA,NA,NA,NA,NA,NA,NA,TRUE,2,1.0155,839.8588,842.8584,NA,NA,NA,NA,NA,150,54,0,62,62,95,1,2,63,"binary"
"6C2F6152D39B4D5CBFF0A1F81394A800",1,"01990a9c-9062-7a52-9110-ea834f29a853","01990a83-7673-7c0c-a792-bbd8fbbaf673","2025-09-02_09h28.43.530",NA,NA,846.1953,846.1953,846.1953,846.5454,NA,NA,NA,NA,NA,NA,NA,TRUE,2,0.9216,843.2114,846.1951,NA,NA,NA,NA,NA,95,35,0,63,63,80,1,2,64,"binary"
"6C2F6152D39B4D5CBFF0A1F81394A800",1,"01990a9c-9062-7a52-9110-ea834f29a853","01990a83-7673-7c0c-a792-bbd8fbbaf673","2025-09-02_09h28.43.530",NA,NA,849.5488,849.5488,849.5488,849.899,NA,NA,NA,NA,NA,NA,NA,TRUE,2,0.7196,846.5469,849.5486,NA,NA,NA,NA,NA,90,54,0,64,64,77,1,2,65,"binary"
"6C2F6152D39B4D5CBFF0A1F81394A800",1,"01990a9c-9062-7a52-9110-ea834f29a853","01990a83-7673-7c0c-a792-bbd8fbbaf673","2025-09-02_09h28.43.530",NA,NA,852.9021,852.9022,852.9022,853.2523,NA,NA,NA,NA,NA,NA,NA,TRUE,1,2.1281,849.9009,852.902,NA,NA,NA,NA,NA,150,31,0,65,65,90,1,2,66,"binary"
"6C2F6152D39B4D5CBFF0A1F81394A800",1,"01990a9c-9062-7a52-9110-ea834f29a853","01990a83-7673-7c0c-a792-bbd8fbbaf673","2025-09-02_09h28.43.530",NA,NA,856.2563,856.2563,856.2563,856.606,NA,NA,NA,NA,NA,NA,NA,TRUE,1,1.0347,853.2541,856.2559,NA,NA,NA,NA,NA,30,26,0,66,66,42,1,2,67,"binary"
"6C2F6152D39B4D5CBFF0A1F81394A800",1,"01990a9c-9062-7a52-9110-ea834f29a853","01990a83-7673-7c0c-a792-bbd8fbbaf673","2025-09-02_09h28.43.530",NA,NA,859.6092,859.6094,859.6094,859.9592,NA,NA,NA,NA,NA,NA,NA,TRUE,2,0.7305,856.6078,859.6091,NA,NA,NA,NA,NA,50,35,0,67,67,62,1,2,68,"binary"
"6C2F6152D39B4D5CBFF0A1F81394A800",1,"01990a9c-9062-7a52-9110-ea834f29a853","01990a83-7673-7c0c-a792-bbd8fbbaf673","2025-09-02_09h28.43.530",NA,NA,862.9462,862.9463,862.9463,863.2964,NA,NA,NA,NA,NA,NA,NA,TRUE,2,0.7524,859.9621,862.946,NA,NA,NA,NA,NA,150,35,0,68,68,92,1,2,69,"binary"
"6C2F6152D39B4D5CBFF0A1F81394A800",1,"01990a9c-9062-7a52-9110-ea834f29a853","01990a83-7673-7c0c-a792-bbd8fbbaf673","2025-09-02_09h28.43.530",NA,NA,866.2994,866.2994,866.2994,866.6495,NA,NA,NA,NA,NA,NA,NA,TRUE,2,1.1882,863.2987,866.2993,NA,NA,NA,NA,NA,90,33,0,69,69,74,1,2,70,"binary"
"6C2F6152D39B4D5CBFF0A1F81394A800",1,"01990a9c-9062-7a52-9110-ea834f29a853","01990a83-7673-7c0c-a792-bbd8fbbaf673","2025-09-02_09h28.43.530",NA,NA,869.6533,869.6533,869.6534,870.0031,NA,NA,NA,NA,NA,NA,NA,TRUE,1,1.759,866.6522,869.6529,NA,NA,NA,NA,NA,45,26,0,70,70,54,1,2,71,"binary"
"6C2F6152D39B4D5CBFF0A1F81394A800",1,"01990a9c-9062-7a52-9110-ea834f29a853","01990a83-7673-7c0c-a792-bbd8fbbaf673","2025-09-02_09h28.43.530",NA,NA,873.0074,873.2565,873.2565,873.3568,NA,NA,NA,NA,NA,NA,NA,FALSE,NA,NA,870.0059,873.0072,NA,NA,NA,NA,NA,10,32,0,71,71,11,1,2,72,"binary"
"6C2F6152D39B4D5CBFF0A1F81394A800",1,"01990a9c-9062-7a52-9110-ea834f29a853","01990a83-7673-7c0c-a792-bbd8fbbaf673","2025-09-02_09h28.43.530",NA,NA,876.3606,876.3606,876.3607,876.7102,NA,NA,NA,NA,NA,NA,NA,TRUE,1,1.5525,873.3591,876.3601,NA,NA,NA,NA,NA,7,28,0,72,72,2,1,2,73,"binary"
"6C2F6152D39B4D5CBFF0A1F81394A800",1,"01990a9c-9062-7a52-9110-ea834f29a853","01990a83-7673-7c0c-a792-bbd8fbbaf673","2025-09-02_09h28.43.530",NA,NA,879.7069,879.707,879.707,880.047,NA,NA,NA,NA,NA,NA,NA,TRUE,2,1.4182,876.7128,879.7068,NA,NA,NA,NA,NA,60,40,0,73,73,69,1,2,74,"binary"
"6C2F6152D39B4D5CBFF0A1F81394A800",1,"01990a9c-9062-7a52-9110-ea834f29a853","01990a83-7673-7c0c-a792-bbd8fbbaf673","2025-09-02_09h28.43.530",NA,NA,883.0501,883.0503,883.0504,883.405,NA,NA,NA,NA,NA,NA,NA,TRUE,1,0.8099,880.0494,883.0499,NA,NA,NA,NA,NA,10,27,0,74,74,8,1,2,75,"binary"
"6C2F6152D39B4D5CBFF0A1F81394A800",1,"01990a9c-9062-7a52-9110-ea834f29a853","01990a83-7673-7c0c-a792-bbd8fbbaf673","2025-09-02_09h28.43.530",NA,NA,886.405,886.4052,886.4052,886.7573,NA,NA,NA,NA,NA,NA,NA,TRUE,2,0.7839,883.4064,886.4045,NA,NA,NA,NA,NA,60,47,0,75,75,70,1,2,76,"binary"
"6C2F6152D39B4D5CBFF0A1F81394A800",1,"01990a9c-9062-7a52-9110-ea834f29a853","01990a83-7673-7c0c-a792-bbd8fbbaf673","2025-09-02_09h28.43.530",NA,NA,889.7576,889.7578,889.7578,890.1072,NA,NA,NA,NA,NA,NA,NA,TRUE,1,0.7838,886.7588,889.7575,NA,NA,NA,NA,NA,7,25,0,76,76,0,1,2,77,"binary"
"6C2F6152D39B4D5CBFF0A1F81394A800",1,"01990a9c-9062-7a52-9110-ea834f29a853","01990a83-7673-7c0c-a792-bbd8fbbaf673","2025-09-02_09h28.43.530",NA,NA,893.1106,893.1106,893.1107,893.4607,NA,NA,NA,NA,NA,NA,NA,TRUE,1,0.8733,890.1094,893.1105,NA,NA,NA,NA,NA,12,28,0,77,77,14,1,2,78,"binary"
"6C2F6152D39B4D5CBFF0A1F81394A800",1,"01990a9c-9062-7a52-9110-ea834f29a853","01990a83-7673-7c0c-a792-bbd8fbbaf673","2025-09-02_09h28.43.530",NA,NA,896.4472,896.4473,896.4473,896.7973,NA,NA,NA,NA,NA,NA,NA,TRUE,2,1.5225,893.4629,896.4471,NA,NA,NA,NA,NA,28,28,0,78,78,37,1,2,79,"binary"
"6C2F6152D39B4D5CBFF0A1F81394A800",1,"01990a9c-9062-7a52-9110-ea834f29a853","01990a83-7673-7c0c-a792-bbd8fbbaf673","2025-09-02_09h28.43.530",NA,NA,899.8008,899.8008,899.8008,900.151,NA,NA,NA,NA,NA,NA,NA,TRUE,1,1.5869,896.7989,899.8006,NA,NA,NA,NA,NA,95,31,0,79,79,78,1,2,80,"binary"
"6C2F6152D39B4D5CBFF0A1F81394A800",1,"01990a9c-9062-7a52-9110-ea834f29a853","01990a83-7673-7c0c-a792-bbd8fbbaf673","2025-09-02_09h28.43.530",NA,NA,903.1541,903.1542,903.1542,903.5043,NA,NA,NA,NA,NA,NA,NA,TRUE,1,1.8037,900.1528,903.1541,NA,NA,NA,NA,NA,150,33,0,80,80,91,1,2,81,"binary"
"6C2F6152D39B4D5CBFF0A1F81394A800",1,"01990a9c-9062-7a52-9110-ea834f29a853","01990a83-7673-7c0c-a792-bbd8fbbaf673","2025-09-02_09h28.43.530",NA,NA,906.5077,906.5077,906.5077,906.858,NA,NA,NA,NA,NA,NA,NA,TRUE,2,0.8669,903.5062,906.5076,NA,NA,NA,NA,NA,200,54,0,81,81,107,1,2,82,"binary"
"6C2F6152D39B4D5CBFF0A1F81394A800",1,"01990a9c-9062-7a52-9110-ea834f29a853","01990a83-7673-7c0c-a792-bbd8fbbaf673","2025-09-02_09h28.43.530",NA,NA,909.8616,909.8617,909.8617,910.2115,NA,NA,NA,NA,NA,NA,NA,TRUE,1,1.4619,906.8605,909.8613,NA,NA,NA,NA,NA,150,40,0,82,82,93,1,2,83,"binary"
"6C2F6152D39B4D5CBFF0A1F81394A800",1,"01990a9c-9062-7a52-9110-ea834f29a853","01990a83-7673-7c0c-a792-bbd8fbbaf673","2025-09-02_09h28.43.530",NA,NA,913.1983,913.1983,913.1983,913.5485,NA,NA,NA,NA,NA,NA,NA,TRUE,2,1.1692,910.2139,913.1981,NA,NA,NA,NA,NA,30,38,0,83,83,47,1,2,84,"binary"
"6C2F6152D39B4D5CBFF0A1F81394A800",1,"01990a9c-9062-7a52-9110-ea834f29a853","01990a83-7673-7c0c-a792-bbd8fbbaf673","2025-09-02_09h28.43.530",NA,NA,916.552,916.8015,916.8016,916.9017,NA,NA,NA,NA,NA,NA,NA,FALSE,NA,NA,913.5506,916.5518,NA,NA,NA,NA,NA,25,35,0,84,84,34,1,2,85,"binary"
"6C2F6152D39B4D5CBFF0A1F81394A800",1,"01990a9c-9062-7a52-9110-ea834f29a853","01990a83-7673-7c0c-a792-bbd8fbbaf673","2025-09-02_09h28.43.530",NA,NA,919.9085,919.9086,919.9086,920.2556,NA,NA,NA,NA,NA,NA,NA,TRUE,1,2.1021,916.9047,919.9084,NA,NA,NA,NA,NA,40,27,0,85,85,48,1,2,86,"binary"
"6C2F6152D39B4D5CBFF0A1F81394A800",1,"01990a9c-9062-7a52-9110-ea834f29a853","01990a83-7673-7c0c-a792-bbd8fbbaf673","2025-09-02_09h28.43.530",NA,NA,923.2586,923.2587,923.2587,923.6084,NA,NA,NA,NA,NA,NA,NA,TRUE,1,2.3175,920.2588,923.2583,NA,NA,NA,NA,NA,12,31,0,86,86,15,1,2,87,"binary"
"6C2F6152D39B4D5CBFF0A1F81394A800",1,"01990a9c-9062-7a52-9110-ea834f29a853","01990a83-7673-7c0c-a792-bbd8fbbaf673","2025-09-02_09h28.43.530",NA,NA,926.5954,926.5956,926.5956,926.9453,NA,NA,NA,NA,NA,NA,NA,TRUE,2,1.7814,923.6107,926.5952,NA,NA,NA,NA,NA,30,29,0,87,87,44,1,2,88,"binary"
"6C2F6152D39B4D5CBFF0A1F81394A800",1,"01990a9c-9062-7a52-9110-ea834f29a853","01990a83-7673-7c0c-a792-bbd8fbbaf673","2025-09-02_09h28.43.530",NA,NA,929.9486,929.9487,929.9487,930.2989,NA,NA,NA,NA,NA,NA,NA,TRUE,1,1.2528,926.9477,929.9484,NA,NA,NA,NA,NA,21,26,0,88,88,24,1,2,89,"binary"
"6C2F6152D39B4D5CBFF0A1F81394A800",1,"01990a9c-9062-7a52-9110-ea834f29a853","01990a83-7673-7c0c-a792-bbd8fbbaf673","2025-09-02_09h28.43.530",NA,NA,933.3021,933.3021,933.3021,933.6523,NA,NA,NA,NA,NA,NA,NA,TRUE,1,0.8938,930.301,933.302,NA,NA,NA,NA,NA,10,25,0,89,89,6,1,2,90,"binary"
"6C2F6152D39B4D5CBFF0A1F81394A800",1,"01990a9c-9062-7a52-9110-ea834f29a853","01990a83-7673-7c0c-a792-bbd8fbbaf673","2025-09-02_09h28.43.530",NA,NA,936.6555,936.6555,936.6555,937.0057,NA,NA,NA,NA,NA,NA,NA,TRUE,1,1.2017,933.6547,936.6554,NA,NA,NA,NA,NA,180,31,0,90,90,97,1,2,91,"binary"
"6C2F6152D39B4D5CBFF0A1F81394A800",1,"01990a9c-9062-7a52-9110-ea834f29a853","01990a83-7673-7c0c-a792-bbd8fbbaf673","2025-09-02_09h28.43.530",NA,NA,940.0091,940.0091,940.0091,940.3591,NA,NA,NA,NA,NA,NA,NA,TRUE,1,0.9899,937.0073,940.0089,NA,NA,NA,NA,NA,45,29,0,91,91,55,1,2,92,"binary"
"6C2F6152D39B4D5CBFF0A1F81394A800",1,"01990a9c-9062-7a52-9110-ea834f29a853","01990a83-7673-7c0c-a792-bbd8fbbaf673","2025-09-02_09h28.43.530",NA,NA,943.3458,943.346,943.346,943.6961,NA,NA,NA,NA,NA,NA,NA,TRUE,2,1.6345,940.361,943.3456,NA,NA,NA,NA,NA,100,46,0,92,92,88,1,2,93,"binary"
"6C2F6152D39B4D5CBFF0A1F81394A800",1,"01990a9c-9062-7a52-9110-ea834f29a853","01990a83-7673-7c0c-a792-bbd8fbbaf673","2025-09-02_09h28.43.530",NA,NA,946.6995,946.6996,946.6996,947.0495,NA,NA,NA,NA,NA,NA,NA,TRUE,1,1.3082,943.6981,946.6994,NA,NA,NA,NA,NA,50,30,0,93,93,61,1,2,94,"binary"
"6C2F6152D39B4D5CBFF0A1F81394A800",1,"01990a9c-9062-7a52-9110-ea834f29a853","01990a83-7673-7c0c-a792-bbd8fbbaf673","2025-09-02_09h28.43.530",NA,NA,950.0529,950.0531,950.0531,950.403,NA,NA,NA,NA,NA,NA,NA,TRUE,1,1.0057,947.052,950.0528,NA,NA,NA,NA,NA,7,30,0,94,94,3,1,2,95,"binary"
"6C2F6152D39B4D5CBFF0A1F81394A800",1,"01990a9c-9062-7a52-9110-ea834f29a853","01990a83-7673-7c0c-a792-bbd8fbbaf673","2025-09-02_09h28.43.530",NA,NA,953.4062,953.4063,953.4063,953.7563,NA,NA,NA,NA,NA,NA,NA,TRUE,2,0.843,950.4055,953.406,NA,NA,NA,NA,NA,40,47,0,95,95,52,1,2,96,"binary"
"6C2F6152D39B4D5CBFF0A1F81394A800",1,"01990a9c-9062-7a52-9110-ea834f29a853","01990a83-7673-7c0c-a792-bbd8fbbaf673","2025-09-02_09h28.43.530",NA,NA,956.7597,956.7598,956.7598,957.11,NA,NA,NA,NA,NA,NA,NA,TRUE,1,1.2505,953.759,956.7595,NA,NA,NA,NA,NA,21,32,0,96,96,28,1,2,97,"binary"
"6C2F6152D39B4D5CBFF0A1F81394A800",1,"01990a9c-9062-7a52-9110-ea834f29a853","01990a83-7673-7c0c-a792-bbd8fbbaf673","2025-09-02_09h28.43.530",NA,NA,960.0965,960.0966,960.0966,960.4466,NA,NA,NA,NA,NA,NA,NA,TRUE,2,0.9852,957.1121,960.0963,NA,NA,NA,NA,NA,14,35,0,97,97,22,1,2,98,"binary"
"6C2F6152D39B4D5CBFF0A1F81394A800",1,"01990a9c-9062-7a52-9110-ea834f29a853","01990a83-7673-7c0c-a792-bbd8fbbaf673","2025-09-02_09h28.43.530",NA,NA,963.4502,963.4504,963.4504,963.8001,NA,NA,NA,NA,NA,NA,NA,TRUE,2,0.7604,960.449,963.4499,NA,NA,NA,NA,NA,200,47,0,98,98,106,1,2,99,"binary"
"6C2F6152D39B4D5CBFF0A1F81394A800",1,"01990a9c-9062-7a52-9110-ea834f29a853","01990a83-7673-7c0c-a792-bbd8fbbaf673","2025-09-02_09h28.43.530",NA,NA,966.8035,966.8036,966.8036,967.1536,NA,NA,NA,NA,NA,NA,NA,TRUE,1,0.745,963.8026,966.8033,NA,NA,NA,NA,NA,28,26,0,99,99,36,1,2,100,"binary"
"6C2F6152D39B4D5CBFF0A1F81394A800",1,"01990a9c-9062-7a52-9110-ea834f29a853","01990a83-7673-7c0c-a792-bbd8fbbaf673","2025-09-02_09h28.43.530",NA,NA,970.1568,970.1568,970.1568,970.5069,NA,NA,NA,NA,NA,NA,NA,TRUE,2,0.7558,967.1555,970.1567,NA,NA,NA,NA,NA,90,46,0,100,100,76,1,2,101,"binary"
"6C2F6152D39B4D5CBFF0A1F81394A800",1,"01990a9c-9062-7a52-9110-ea834f29a853","01990a83-7673-7c0c-a792-bbd8fbbaf673","2025-09-02_09h28.43.530",NA,NA,973.5106,973.5107,973.5108,973.8606,NA,NA,NA,NA,NA,NA,NA,TRUE,1,1.5334,970.5085,973.5104,NA,NA,NA,NA,NA,60,33,0,101,101,67,1,2,102,"binary"
"6C2F6152D39B4D5CBFF0A1F81394A800",1,"01990a9c-9062-7a52-9110-ea834f29a853","01990a83-7673-7c0c-a792-bbd8fbbaf673","2025-09-02_09h28.43.530",NA,NA,976.8472,976.8473,976.8473,977.1972,NA,NA,NA,NA,NA,NA,NA,TRUE,1,0.7533,973.8628,976.847,NA,NA,NA,NA,NA,7,26,0,102,102,1,1,2,103,"binary"
"6C2F6152D39B4D5CBFF0A1F81394A800",1,"01990a9c-9062-7a52-9110-ea834f29a853","01990a83-7673-7c0c-a792-bbd8fbbaf673","2025-09-02_09h28.43.530",NA,NA,980.2009,980.2009,980.2009,980.5508,NA,NA,NA,NA,NA,NA,NA,TRUE,1,0.6686,977.1995,980.2007,NA,NA,NA,NA,NA,200,28,0,103,103,103,1,2,104,"binary"
"6C2F6152D39B4D5CBFF0A1F81394A800",1,"01990a9c-9062-7a52-9110-ea834f29a853","01990a83-7673-7c0c-a792-bbd8fbbaf673","2025-09-02_09h28.43.530",NA,NA,983.5545,983.5545,983.5545,983.9045,NA,NA,NA,NA,NA,NA,NA,TRUE,2,0.8069,980.5531,983.5542,NA,NA,NA,NA,NA,28,39,0,104,104,40,1,2,105,"binary"
"6C2F6152D39B4D5CBFF0A1F81394A800",1,"01990a9c-9062-7a52-9110-ea834f29a853","01990a83-7673-7c0c-a792-bbd8fbbaf673","2025-09-02_09h28.43.530",NA,NA,986.9073,986.9073,986.9073,987.2577,NA,NA,NA,NA,NA,NA,NA,TRUE,1,1.1527,983.9077,986.9072,NA,NA,NA,NA,NA,100,39,0,105,105,87,1,2,106,"binary"
"6C2F6152D39B4D5CBFF0A1F81394A800",1,"01990a9c-9062-7a52-9110-ea834f29a853","01990a83-7673-7c0c-a792-bbd8fbbaf673","2025-09-02_09h28.43.530",NA,NA,990.2623,990.2624,990.2624,990.6112,NA,NA,NA,NA,NA,NA,NA,TRUE,1,0.9045,987.2594,990.2621,NA,NA,NA,NA,NA,10,30,0,106,106,10,1,2,107,"binary"
"6C2F6152D39B4D5CBFF0A1F81394A800",1,"01990a9c-9062-7a52-9110-ea834f29a853","01990a83-7673-7c0c-a792-bbd8fbbaf673","2025-09-02_09h28.43.530",NA,NA,993.5977,993.5978,993.5978,993.9479,NA,NA,NA,NA,NA,NA,NA,TRUE,1,2.952,990.6137,993.5976,NA,NA,NA,NA,NA,150,47,0,107,107,94,1,2,108,"binary"
