"participant","session","assignmentId","projectId","date","practiceTrial.started","practiceTrial.stopped","tooLate.started","tooLate.stopped","blank.started","blank.stopped","trials_pract.thisRepN","trials_pract.thisTrialN","trials_pract.thisN","trials_pract.thisIndex","trials_pract.ran","delay_pract","amount_pract","responseMade","key","rt","trial.started","trial.stopped","trials.thisRepN","trials.thisTrialN","trials.thisN","trials.thisIndex","trials.ran","delay","amount","trials_2.thisRepN","trials_2.thisTrialN","trials_2.thisN","trials_2.thisIndex","trials_2.ran","block","trial","taskType"
"78A3DC02B28A4FC08B54935A39CEA689",1,"0198f77c-3963-776b-878f-30e97a46e5eb","0198f767-55c9-7875-8d21-563b3c0b86ed","2025-08-29_13h20.23.651",45.5836,48.5223,48.5234,48.5239,48.524,48.8813,0,0,0,3,1,3,27,TRUE,1,2.3806,NA,NA,NA,NA,NA,NA,NA,NA,NA,NA,NA,NA,NA,NA,0,1,"binary"
"78A3DC02B28A4FC08B54935A39CEA689",1,"0198f77c-3963-776b-878f-30e97a46e5eb","0198f767-55c9-7875-8d21-563b3c0b86ed","2025-08-29_13h20.23.651",48.8846,51.895,51.8955,51.9098,51.9098,52.2282,0,1,1,0,1,7,30,TRUE,1,1.4279,NA,NA,NA,NA,NA,NA,NA,NA,NA,NA,NA,NA,NA,NA,0,2,"binary"
"78A3DC02B28A4FC08B54935A39CEA689",1,"0198f77c-3963-776b-878f-30e97a46e5eb","0198f767-55c9-7875-8d21-563b3c0b86ed","2025-08-29_13h20.23.651",52.2331,55.2271,55.2277,55.2278,55.2278,55.5835,0,2,2,2,1,14,45,TRUE,2,2.9059,NA,NA,NA,NA,NA,NA,NA,NA,NA,NA,NA,NA,NA,NA,0,3,"binary"
"78A3DC02B28A4FC08B54935A39CEA689",1,"0198f77c-3963-776b-878f-30e97a46e5eb","0198f767-55c9-7875-8d21-563b3c0b86ed","2025-08-29_13h20.23.651",55.5866,58.5897,58.5903,58.8358,58.8359,58.9383,0,3,3,4,1,30,40,FALSE,NA,NA,NA,NA,NA,NA,NA,NA,NA,NA,NA,NA,NA,NA,NA,NA,0,4,"binary"
"78A3DC02B28A4FC08B54935A39CEA689",1,"0198f77c-3963-776b-878f-30e97a46e5eb","0198f767-55c9-7875-8d21-563b3c0b86ed","2025-08-29_13h20.23.651",58.9413,61.9191,61.9196,61.9196,61.9197,62.2748,0,4,4,1,1,100,50,TRUE,2,1.0904,NA,NA,NA,NA,NA,NA,NA,NA,NA,NA,NA,NA,NA,NA,0,5,"binary"
"78A3DC02B28A4FC08B54935A39CEA689",1,"0198f77c-3963-776b-878f-30e97a46e5eb","0198f767-55c9-7875-8d21-563b3c0b86ed","2025-08-29_13h20.23.651",NA,NA,88.5912,88.5916,88.5917,88.952,NA,NA,NA,NA,NA,NA,NA,TRUE,2,1.3761,85.6374,88.5902,0,0,0,52,1,40,47,NA,NA,NA,NA,NA,1,1,"binary"
"78A3DC02B28A4FC08B54935A39CEA689",1,"0198f77c-3963-776b-878f-30e97a46e5eb","0198f767-55c9-7875-8d21-563b3c0b86ed","2025-08-29_13h20.23.651",NA,NA,91.9266,91.9266,91.9266,92.2942,NA,NA,NA,NA,NA,NA,NA,TRUE,1,1.210299999,88.9559,91.926,0,1,1,76,1,90,46,NA,NA,NA,NA,NA,1,2,"binary"
"78A3DC02B28A4FC08B54935A39CEA689",1,"0198f77c-3963-776b-878f-30e97a46e5eb","0198f767-55c9-7875-8d21-563b3c0b86ed","2025-08-29_13h20.23.651",NA,NA,95.2876,95.2877,95.2877,95.6691,NA,NA,NA,NA,NA,NA,NA,TRUE,1,1.3976,92.2972,95.2871,0,2,2,87,1,100,39,NA,NA,NA,NA,NA,1,3,"binary"
"78A3DC02B28A4FC08B54935A39CEA689",1,"0198f77c-3963-776b-878f-30e97a46e5eb","0198f767-55c9-7875-8d21-563b3c0b86ed","2025-08-29_13h20.23.651",NA,NA,98.6698,98.6699,98.6699,98.9969,NA,NA,NA,NA,NA,NA,NA,TRUE,1,1.54,95.672,98.6692,0,3,3,83,1,95,54,NA,NA,NA,NA,NA,1,4,"binary"
"78A3DC02B28A4FC08B54935A39CEA689",1,"0198f77c-3963-776b-878f-30e97a46e5eb","0198f767-55c9-7875-8d21-563b3c0b86ed","2025-08-29_13h20.23.651",NA,NA,102.0116,102.0117,102.0117,102.354,NA,NA,NA,NA,NA,NA,NA,TRUE,1,1.620800001,98.9994,102.0109,0,4,4,78,1,95,31,NA,NA,NA,NA,NA,1,5,"binary"
"78A3DC02B28A4FC08B54935A39CEA689",1,"0198f77c-3963-776b-878f-30e97a46e5eb","0198f767-55c9-7875-8d21-563b3c0b86ed","2025-08-29_13h20.23.651",NA,NA,105.3321,105.3321,105.3321,105.6905,NA,NA,NA,NA,NA,NA,NA,TRUE,1,1.210299999,102.3567,105.3316,0,5,5,72,1,90,26,NA,NA,NA,NA,NA,1,6,"binary"
"78A3DC02B28A4FC08B54935A39CEA689",1,"0198f77c-3963-776b-878f-30e97a46e5eb","0198f767-55c9-7875-8d21-563b3c0b86ed","2025-08-29_13h20.23.651",NA,NA,108.6968,108.6969,108.6969,109.0322,NA,NA,NA,NA,NA,NA,NA,TRUE,1,1.8474,105.6934,108.6962,0,6,6,107,1,200,54,NA,NA,NA,NA,NA,1,7,"binary"
"78A3DC02B28A4FC08B54935A39CEA689",1,"0198f77c-3963-776b-878f-30e97a46e5eb","0198f767-55c9-7875-8d21-563b3c0b86ed","2025-08-29_13h20.23.651",NA,NA,112.0446,112.0446,112.0446,112.3955,NA,NA,NA,NA,NA,NA,NA,TRUE,1,1.094299999,109.0352,112.0439,0,7,7,30,1,25,27,NA,NA,NA,NA,NA,1,8,"binary"
"78A3DC02B28A4FC08B54935A39CEA689",1,"0198f77c-3963-776b-878f-30e97a46e5eb","0198f767-55c9-7875-8d21-563b3c0b86ed","2025-08-29_13h20.23.651",NA,NA,115.3836,115.3837,115.3837,115.7399,NA,NA,NA,NA,NA,NA,NA,TRUE,1,1.7375,112.3989,115.383,0,8,8,14,1,12,28,NA,NA,NA,NA,NA,1,9,"binary"
"78A3DC02B28A4FC08B54935A39CEA689",1,"0198f77c-3963-776b-878f-30e97a46e5eb","0198f767-55c9-7875-8d21-563b3c0b86ed","2025-08-29_13h20.23.651",NA,NA,118.7422,118.7423,118.7424,119.0908,NA,NA,NA,NA,NA,NA,NA,TRUE,2,1.575,115.7426,118.7416,0,9,9,22,1,14,35,NA,NA,NA,NA,NA,1,10,"binary"
"78A3DC02B28A4FC08B54935A39CEA689",1,"0198f77c-3963-776b-878f-30e97a46e5eb","0198f767-55c9-7875-8d21-563b3c0b86ed","2025-08-29_13h20.23.651",NA,NA,122.0886,122.0886,122.0886,122.4445,NA,NA,NA,NA,NA,NA,NA,TRUE,1,1.462799999,119.0937,122.088,0,10,10,101,1,180,54,NA,NA,NA,NA,NA,1,11,"binary"
"78A3DC02B28A4FC08B54935A39CEA689",1,"0198f77c-3963-776b-878f-30e97a46e5eb","0198f767-55c9-7875-8d21-563b3c0b86ed","2025-08-29_13h20.23.651",NA,NA,125.4443,125.4443,125.4443,125.7963,NA,NA,NA,NA,NA,NA,NA,TRUE,1,1.657300001,122.4473,125.4437,0,11,11,68,1,60,35,NA,NA,NA,NA,NA,1,12,"binary"
"78A3DC02B28A4FC08B54935A39CEA689",1,"0198f77c-3963-776b-878f-30e97a46e5eb","0198f767-55c9-7875-8d21-563b3c0b86ed","2025-08-29_13h20.23.651",NA,NA,128.8058,128.806,128.806,129.1518,NA,NA,NA,NA,NA,NA,NA,TRUE,1,1.41,125.7989,128.8053,0,12,12,106,1,200,47,NA,NA,NA,NA,NA,1,13,"binary"
"78A3DC02B28A4FC08B54935A39CEA689",1,"0198f77c-3963-776b-878f-30e97a46e5eb","0198f767-55c9-7875-8d21-563b3c0b86ed","2025-08-29_13h20.23.651",NA,NA,132.1557,132.1558,132.1558,132.4922,NA,NA,NA,NA,NA,NA,NA,TRUE,1,1.180299999,129.155,132.1551,0,13,13,69,1,60,40,NA,NA,NA,NA,NA,1,14,"binary"
"78A3DC02B28A4FC08B54935A39CEA689",1,"0198f77c-3963-776b-878f-30e97a46e5eb","0198f767-55c9-7875-8d21-563b3c0b86ed","2025-08-29_13h20.23.651",NA,NA,135.4899,135.49,135.49,135.8269,NA,NA,NA,NA,NA,NA,NA,TRUE,1,1.149400002,132.495,135.4894,0,14,14,100,1,180,46,NA,NA,NA,NA,NA,1,15,"binary"
"78A3DC02B28A4FC08B54935A39CEA689",1,"0198f77c-3963-776b-878f-30e97a46e5eb","0198f767-55c9-7875-8d21-563b3c0b86ed","2025-08-29_13h20.23.651",NA,NA,138.8733,138.8735,138.8735,139.1832,NA,NA,NA,NA,NA,NA,NA,TRUE,2,2.267300001,135.8298,138.8729,0,15,15,5,1,7,35,NA,NA,NA,NA,NA,1,16,"binary"
"78A3DC02B28A4FC08B54935A39CEA689",1,"0198f77c-3963-776b-878f-30e97a46e5eb","0198f767-55c9-7875-8d21-563b3c0b86ed","2025-08-29_13h20.23.651",NA,NA,142.1991,142.1994,142.1994,142.5478,NA,NA,NA,NA,NA,NA,NA,TRUE,1,1.207699999,139.187,142.1977,0,16,16,92,1,150,35,NA,NA,NA,NA,NA,1,17,"binary"
"78A3DC02B28A4FC08B54935A39CEA689",1,"0198f77c-3963-776b-878f-30e97a46e5eb","0198f767-55c9-7875-8d21-563b3c0b86ed","2025-08-29_13h20.23.651",NA,NA,145.5483,145.5484,145.5484,145.8943,NA,NA,NA,NA,NA,NA,NA,TRUE,1,2.101299999,142.5502,145.5482,0,17,17,66,1,60,29,NA,NA,NA,NA,NA,1,18,"binary"
"78A3DC02B28A4FC08B54935A39CEA689",1,"0198f77c-3963-776b-878f-30e97a46e5eb","0198f767-55c9-7875-8d21-563b3c0b86ed","2025-08-29_13h20.23.651",NA,NA,148.9076,148.9078,148.9078,149.2311,NA,NA,NA,NA,NA,NA,NA,TRUE,1,1.2539,145.8969,148.907,0,18,18,104,1,200,35,NA,NA,NA,NA,NA,1,19,"binary"
"78A3DC02B28A4FC08B54935A39CEA689",1,"0198f77c-3963-776b-878f-30e97a46e5eb","0198f767-55c9-7875-8d21-563b3c0b86ed","2025-08-29_13h20.23.651",NA,NA,152.2545,152.2547,152.2547,152.5871,NA,NA,NA,NA,NA,NA,NA,TRUE,1,1.0606,149.2344,152.2541,0,19,19,80,1,95,35,NA,NA,NA,NA,NA,1,20,"binary"
"78A3DC02B28A4FC08B54935A39CEA689",1,"0198f77c-3963-776b-878f-30e97a46e5eb","0198f767-55c9-7875-8d21-563b3c0b86ed","2025-08-29_13h20.23.651",NA,NA,155.5879,155.5879,155.5879,155.9375,NA,NA,NA,NA,NA,NA,NA,TRUE,1,0.831700001,152.5903,155.5874,0,20,20,34,1,25,35,NA,NA,NA,NA,NA,1,21,"binary"
"78A3DC02B28A4FC08B54935A39CEA689",1,"0198f77c-3963-776b-878f-30e97a46e5eb","0198f767-55c9-7875-8d21-563b3c0b86ed","2025-08-29_13h20.23.651",NA,NA,158.9404,158.9405,158.9405,159.2905,NA,NA,NA,NA,NA,NA,NA,TRUE,2,2.2344,155.9406,158.9399,0,21,21,11,1,10,32,NA,NA,NA,NA,NA,1,22,"binary"
"78A3DC02B28A4FC08B54935A39CEA689",1,"0198f77c-3963-776b-878f-30e97a46e5eb","0198f767-55c9-7875-8d21-563b3c0b86ed","2025-08-29_13h20.23.651",NA,NA,162.291,162.291,162.291,162.6409,NA,NA,NA,NA,NA,NA,NA,TRUE,1,1.199199999,159.2924,162.2907,0,22,22,84,1,100,26,NA,NA,NA,NA,NA,1,23,"binary"
"78A3DC02B28A4FC08B54935A39CEA689",1,"0198f77c-3963-776b-878f-30e97a46e5eb","0198f767-55c9-7875-8d21-563b3c0b86ed","2025-08-29_13h20.23.651",NA,NA,165.6417,165.6417,165.6417,165.9911,NA,NA,NA,NA,NA,NA,NA,TRUE,1,1.384299999,162.6427,165.6415,0,23,23,81,1,95,40,NA,NA,NA,NA,NA,1,24,"binary"
"78A3DC02B28A4FC08B54935A39CEA689",1,"0198f77c-3963-776b-878f-30e97a46e5eb","0198f767-55c9-7875-8d21-563b3c0b86ed","2025-08-29_13h20.23.651",NA,NA,168.9893,168.9894,168.9894,169.3385,NA,NA,NA,NA,NA,NA,NA,TRUE,1,0.947299999,165.9929,168.9887,0,24,24,71,1,60,54,NA,NA,NA,NA,NA,1,25,"binary"
"78A3DC02B28A4FC08B54935A39CEA689",1,"0198f77c-3963-776b-878f-30e97a46e5eb","0198f767-55c9-7875-8d21-563b3c0b86ed","2025-08-29_13h20.23.651",NA,NA,172.3286,172.3286,172.3286,172.69,NA,NA,NA,NA,NA,NA,NA,TRUE,1,1.0414,169.3416,172.328,0,25,25,97,1,180,31,NA,NA,NA,NA,NA,1,26,"binary"
"78A3DC02B28A4FC08B54935A39CEA689",1,"0198f77c-3963-776b-878f-30e97a46e5eb","0198f767-55c9-7875-8d21-563b3c0b86ed","2025-08-29_13h20.23.651",NA,NA,175.6919,175.6919,175.6919,176.0548,NA,NA,NA,NA,NA,NA,NA,TRUE,1,1.2945,172.6931,175.6914,0,26,26,20,1,14,28,NA,NA,NA,NA,NA,1,27,"binary"
"78A3DC02B28A4FC08B54935A39CEA689",1,"0198f77c-3963-776b-878f-30e97a46e5eb","0198f767-55c9-7875-8d21-563b3c0b86ed","2025-08-29_13h20.23.651",NA,NA,179.0386,179.0387,179.0387,179.3829,NA,NA,NA,NA,NA,NA,NA,TRUE,2,1.2734,176.0578,179.0381,0,27,27,4,1,7,32,NA,NA,NA,NA,NA,1,28,"binary"
"78A3DC02B28A4FC08B54935A39CEA689",1,"0198f77c-3963-776b-878f-30e97a46e5eb","0198f767-55c9-7875-8d21-563b3c0b86ed","2025-08-29_13h20.23.651",NA,NA,182.3928,182.3928,182.3929,182.743,NA,NA,NA,NA,NA,NA,NA,TRUE,1,1.226,179.3854,182.3925,0,28,28,102,1,200,26,NA,NA,NA,NA,NA,1,29,"binary"
"78A3DC02B28A4FC08B54935A39CEA689",1,"0198f77c-3963-776b-878f-30e97a46e5eb","0198f767-55c9-7875-8d21-563b3c0b86ed","2025-08-29_13h20.23.651",NA,NA,185.753,185.7531,185.7531,186.1027,NA,NA,NA,NA,NA,NA,NA,TRUE,1,0.8115,182.7449,185.7525,0,29,29,16,1,12,33,NA,NA,NA,NA,NA,1,30,"binary"
"78A3DC02B28A4FC08B54935A39CEA689",1,"0198f77c-3963-776b-878f-30e97a46e5eb","0198f767-55c9-7875-8d21-563b3c0b86ed","2025-08-29_13h20.23.651",NA,NA,189.0877,189.0878,189.0878,189.447,NA,NA,NA,NA,NA,NA,NA,TRUE,2,1.8966,186.1052,189.0871,0,30,30,40,1,28,39,NA,NA,NA,NA,NA,1,31,"binary"
"78A3DC02B28A4FC08B54935A39CEA689",1,"0198f77c-3963-776b-878f-30e97a46e5eb","0198f767-55c9-7875-8d21-563b3c0b86ed","2025-08-29_13h20.23.651",NA,NA,192.4442,192.4443,192.4444,192.7936,NA,NA,NA,NA,NA,NA,NA,TRUE,2,1.8825,189.4497,192.4441,0,31,31,17,1,12,35,NA,NA,NA,NA,NA,1,32,"binary"
"78A3DC02B28A4FC08B54935A39CEA689",1,"0198f77c-3963-776b-878f-30e97a46e5eb","0198f767-55c9-7875-8d21-563b3c0b86ed","2025-08-29_13h20.23.651",NA,NA,195.7918,195.7919,195.7919,196.1411,NA,NA,NA,NA,NA,NA,NA,TRUE,1,1.277,192.7958,195.7912,0,32,32,62,1,50,35,NA,NA,NA,NA,NA,1,33,"binary"
"78A3DC02B28A4FC08B54935A39CEA689",1,"0198f77c-3963-776b-878f-30e97a46e5eb","0198f767-55c9-7875-8d21-563b3c0b86ed","2025-08-29_13h20.23.651",NA,NA,199.1452,199.1452,199.1452,199.4947,NA,NA,NA,NA,NA,NA,NA,TRUE,1,1.143900002,196.1443,199.1447,0,33,33,54,1,45,26,NA,NA,NA,NA,NA,1,34,"binary"
"78A3DC02B28A4FC08B54935A39CEA689",1,"0198f77c-3963-776b-878f-30e97a46e5eb","0198f767-55c9-7875-8d21-563b3c0b86ed","2025-08-29_13h20.23.651",NA,NA,202.5129,202.5129,202.513,202.8411,NA,NA,NA,NA,NA,NA,NA,TRUE,1,1.2481,199.4975,202.5125,0,34,34,6,1,10,25,NA,NA,NA,NA,NA,1,35,"binary"
"78A3DC02B28A4FC08B54935A39CEA689",1,"0198f77c-3963-776b-878f-30e97a46e5eb","0198f767-55c9-7875-8d21-563b3c0b86ed","2025-08-29_13h20.23.651",NA,NA,205.8261,205.8262,205.8262,206.1955,NA,NA,NA,NA,NA,NA,NA,TRUE,1,1.226799999,202.844,205.8256,0,35,35,60,1,50,27,NA,NA,NA,NA,NA,1,36,"binary"
"78A3DC02B28A4FC08B54935A39CEA689",1,"0198f77c-3963-776b-878f-30e97a46e5eb","0198f767-55c9-7875-8d21-563b3c0b86ed","2025-08-29_13h20.23.651",NA,NA,209.1877,209.1877,209.1877,209.5386,NA,NA,NA,NA,NA,NA,NA,TRUE,1,2.0981,206.1981,209.1872,0,36,36,65,1,50,54,NA,NA,NA,NA,NA,1,37,"binary"
"78A3DC02B28A4FC08B54935A39CEA689",1,"0198f77c-3963-776b-878f-30e97a46e5eb","0198f767-55c9-7875-8d21-563b3c0b86ed","2025-08-29_13h20.23.651",NA,NA,212.5453,212.5453,212.5453,212.8948,NA,NA,NA,NA,NA,NA,NA,TRUE,1,0.690800001,209.5413,212.5447,0,37,37,21,1,14,32,NA,NA,NA,NA,NA,1,38,"binary"
"78A3DC02B28A4FC08B54935A39CEA689",1,"0198f77c-3963-776b-878f-30e97a46e5eb","0198f767-55c9-7875-8d21-563b3c0b86ed","2025-08-29_13h20.23.651",NA,NA,215.9049,215.905,215.905,216.2411,NA,NA,NA,NA,NA,NA,NA,TRUE,1,1.0565,212.8973,215.9044,0,38,38,93,1,150,40,NA,NA,NA,NA,NA,1,39,"binary"
"78A3DC02B28A4FC08B54935A39CEA689",1,"0198f77c-3963-776b-878f-30e97a46e5eb","0198f767-55c9-7875-8d21-563b3c0b86ed","2025-08-29_13h20.23.651",NA,NA,219.2564,219.2566,219.2566,219.5964,NA,NA,NA,NA,NA,NA,NA,TRUE,1,2.099699999,216.2437,219.2559,0,39,39,45,1,30,30,NA,NA,NA,NA,NA,1,40,"binary"
"78A3DC02B28A4FC08B54935A39CEA689",1,"0198f77c-3963-776b-878f-30e97a46e5eb","0198f767-55c9-7875-8d21-563b3c0b86ed","2025-08-29_13h20.23.651",NA,NA,222.592,222.592,222.5921,222.9371,NA,NA,NA,NA,NA,NA,NA,TRUE,1,1.1536,219.5995,222.5914,0,40,40,61,1,50,30,NA,NA,NA,NA,NA,1,41,"binary"
"78A3DC02B28A4FC08B54935A39CEA689",1,"0198f77c-3963-776b-878f-30e97a46e5eb","0198f767-55c9-7875-8d21-563b3c0b86ed","2025-08-29_13h20.23.651",NA,NA,225.9422,225.9423,225.9423,226.2871,NA,NA,NA,NA,NA,NA,NA,TRUE,1,1.3504,222.9398,225.9417,0,41,41,13,1,12,26,NA,NA,NA,NA,NA,1,42,"binary"
"78A3DC02B28A4FC08B54935A39CEA689",1,"0198f77c-3963-776b-878f-30e97a46e5eb","0198f767-55c9-7875-8d21-563b3c0b86ed","2025-08-29_13h20.23.651",NA,NA,229.289,229.289,229.289,229.641,NA,NA,NA,NA,NA,NA,NA,TRUE,1,1.018299999,226.2898,229.2887,0,42,42,55,1,45,29,NA,NA,NA,NA,NA,1,43,"binary"
"78A3DC02B28A4FC08B54935A39CEA689",1,"0198f77c-3963-776b-878f-30e97a46e5eb","0198f767-55c9-7875-8d21-563b3c0b86ed","2025-08-29_13h20.23.651",NA,NA,232.647,232.647,232.6471,232.9872,NA,NA,NA,NA,NA,NA,NA,TRUE,1,2.080700001,229.6436,232.6465,0,43,43,85,1,100,31,NA,NA,NA,NA,NA,1,44,"binary"
"78A3DC02B28A4FC08B54935A39CEA689",1,"0198f77c-3963-776b-878f-30e97a46e5eb","0198f767-55c9-7875-8d21-563b3c0b86ed","2025-08-29_13h20.23.651",NA,NA,235.9787,235.9787,235.9788,236.3575,NA,NA,NA,NA,NA,NA,NA,TRUE,1,0.5731,232.9898,235.9781,0,44,44,41,1,28,46,NA,NA,NA,NA,NA,1,45,"binary"
"78A3DC02B28A4FC08B54935A39CEA689",1,"0198f77c-3963-776b-878f-30e97a46e5eb","0198f767-55c9-7875-8d21-563b3c0b86ed","2025-08-29_13h20.23.651",NA,NA,239.343,239.3431,239.3431,239.7031,NA,NA,NA,NA,NA,NA,NA,TRUE,1,1.7356,236.3601,239.3429,0,45,45,38,1,28,32,NA,NA,NA,NA,NA,1,46,"binary"
"78A3DC02B28A4FC08B54935A39CEA689",1,"0198f77c-3963-776b-878f-30e97a46e5eb","0198f767-55c9-7875-8d21-563b3c0b86ed","2025-08-29_13h20.23.651",NA,NA,242.7074,242.7075,242.7075,243.0397,NA,NA,NA,NA,NA,NA,NA,TRUE,1,1.031699999,239.7058,242.707,0,46,46,48,1,40,27,NA,NA,NA,NA,NA,1,47,"binary"
"78A3DC02B28A4FC08B54935A39CEA689",1,"0198f77c-3963-776b-878f-30e97a46e5eb","0198f767-55c9-7875-8d21-563b3c0b86ed","2025-08-29_13h20.23.651",NA,NA,246.0579,246.058,246.058,246.4073,NA,NA,NA,NA,NA,NA,NA,TRUE,2,2.092300001,243.0424,246.0574,0,47,47,47,1,30,38,NA,NA,NA,NA,NA,1,48,"binary"
"78A3DC02B28A4FC08B54935A39CEA689",1,"0198f77c-3963-776b-878f-30e97a46e5eb","0198f767-55c9-7875-8d21-563b3c0b86ed","2025-08-29_13h20.23.651",NA,NA,249.3911,249.3911,249.3912,249.7393,NA,NA,NA,NA,NA,NA,NA,TRUE,1,1.130300001,246.4098,249.3905,0,48,48,8,1,10,27,NA,NA,NA,NA,NA,1,49,"binary"
"78A3DC02B28A4FC08B54935A39CEA689",1,"0198f77c-3963-776b-878f-30e97a46e5eb","0198f767-55c9-7875-8d21-563b3c0b86ed","2025-08-29_13h20.23.651",NA,NA,252.7496,252.7498,252.7498,253.0987,NA,NA,NA,NA,NA,NA,NA,TRUE,1,1.017200001,249.7419,252.749,0,49,49,105,1,200,39,NA,NA,NA,NA,NA,1,50,"binary"
"78A3DC02B28A4FC08B54935A39CEA689",1,"0198f77c-3963-776b-878f-30e97a46e5eb","0198f767-55c9-7875-8d21-563b3c0b86ed","2025-08-29_13h20.23.651",NA,NA,256.0991,256.0992,256.0992,256.4445,NA,NA,NA,NA,NA,NA,NA,TRUE,1,0.935,253.1013,256.0985,0,50,50,24,1,21,26,NA,NA,NA,NA,NA,1,51,"binary"
"78A3DC02B28A4FC08B54935A39CEA689",1,"0198f77c-3963-776b-878f-30e97a46e5eb","0198f767-55c9-7875-8d21-563b3c0b86ed","2025-08-29_13h20.23.651",NA,NA,259.4499,259.45,259.45,259.7994,NA,NA,NA,NA,NA,NA,NA,TRUE,1,0.5326,256.447,259.4493,0,51,51,53,1,40,54,NA,NA,NA,NA,NA,1,52,"binary"
"78A3DC02B28A4FC08B54935A39CEA689",1,"0198f77c-3963-776b-878f-30e97a46e5eb","0198f767-55c9-7875-8d21-563b3c0b86ed","2025-08-29_13h20.23.651",NA,NA,262.7884,262.7885,262.7885,263.1377,NA,NA,NA,NA,NA,NA,NA,TRUE,1,0.698,259.8019,262.7879,0,52,52,35,1,25,46,NA,NA,NA,NA,NA,1,53,"binary"
"78A3DC02B28A4FC08B54935A39CEA689",1,"0198f77c-3963-776b-878f-30e97a46e5eb","0198f767-55c9-7875-8d21-563b3c0b86ed","2025-08-29_13h20.23.651",NA,NA,266.15,266.1501,266.1501,266.4926,NA,NA,NA,NA,NA,NA,NA,TRUE,1,2.486400002,263.1401,266.1495,0,53,53,39,1,28,35,NA,NA,NA,NA,NA,1,54,"binary"
"78A3DC02B28A4FC08B54935A39CEA689",1,"0198f77c-3963-776b-878f-30e97a46e5eb","0198f767-55c9-7875-8d21-563b3c0b86ed","2025-08-29_13h20.23.651",NA,NA,269.5008,269.5009,269.5009,269.8503,NA,NA,NA,NA,NA,NA,NA,TRUE,1,1.6799,266.4956,269.5003,0,54,54,32,1,25,31,NA,NA,NA,NA,NA,1,55,"binary"
"78A3DC02B28A4FC08B54935A39CEA689",1,"0198f77c-3963-776b-878f-30e97a46e5eb","0198f767-55c9-7875-8d21-563b3c0b86ed","2025-08-29_13h20.23.651",NA,NA,272.8454,272.8454,272.8455,273.1889,NA,NA,NA,NA,NA,NA,NA,TRUE,1,1.581700001,269.8526,272.8449,0,55,55,1,1,7,26,NA,NA,NA,NA,NA,1,56,"binary"
"78A3DC02B28A4FC08B54935A39CEA689",1,"0198f77c-3963-776b-878f-30e97a46e5eb","0198f767-55c9-7875-8d21-563b3c0b86ed","2025-08-29_13h20.23.651",NA,NA,276.1959,276.1959,276.196,276.538,NA,NA,NA,NA,NA,NA,NA,TRUE,1,1.082699999,273.1914,276.1953,0,56,56,9,1,10,29,NA,NA,NA,NA,NA,1,57,"binary"
"78A3DC02B28A4FC08B54935A39CEA689",1,"0198f77c-3963-776b-878f-30e97a46e5eb","0198f767-55c9-7875-8d21-563b3c0b86ed","2025-08-29_13h20.23.651",NA,NA,279.5519,279.5521,279.5521,279.9015,NA,NA,NA,NA,NA,NA,NA,TRUE,1,0.850699999,276.5407,279.5518,0,57,57,103,1,200,28,NA,NA,NA,NA,NA,1,58,"binary"
"78A3DC02B28A4FC08B54935A39CEA689",1,"0198f77c-3963-776b-878f-30e97a46e5eb","0198f767-55c9-7875-8d21-563b3c0b86ed","2025-08-29_13h20.23.651",NA,NA,282.9018,282.9019,282.902,283.2519,NA,NA,NA,NA,NA,NA,NA,TRUE,2,2.151300001,279.9035,282.9017,0,58,58,77,1,90,54,NA,NA,NA,NA,NA,1,59,"binary"
"78A3DC02B28A4FC08B54935A39CEA689",1,"0198f77c-3963-776b-878f-30e97a46e5eb","0198f767-55c9-7875-8d21-563b3c0b86ed","2025-08-29_13h20.23.651",NA,NA,286.2527,286.2527,286.2527,286.6021,NA,NA,NA,NA,NA,NA,NA,TRUE,1,1.970200001,283.2536,286.2525,0,59,59,31,1,25,29,NA,NA,NA,NA,NA,1,60,"binary"
"78A3DC02B28A4FC08B54935A39CEA689",1,"0198f77c-3963-776b-878f-30e97a46e5eb","0198f767-55c9-7875-8d21-563b3c0b86ed","2025-08-29_13h20.23.651",NA,NA,289.6029,289.603,289.603,289.9523,NA,NA,NA,NA,NA,NA,NA,TRUE,1,1.7124,286.6039,289.6028,0,60,60,27,1,21,30,NA,NA,NA,NA,NA,1,61,"binary"
"78A3DC02B28A4FC08B54935A39CEA689",1,"0198f77c-3963-776b-878f-30e97a46e5eb","0198f767-55c9-7875-8d21-563b3c0b86ed","2025-08-29_13h20.23.651",NA,NA,292.9532,292.9532,292.9532,293.304,NA,NA,NA,NA,NA,NA,NA,TRUE,1,1.2176,289.954,292.9531,0,61,61,42,1,30,26,NA,NA,NA,NA,NA,1,62,"binary"
"78A3DC02B28A4FC08B54935A39CEA689",1,"0198f77c-3963-776b-878f-30e97a46e5eb","0198f767-55c9-7875-8d21-563b3c0b86ed","2025-08-29_13h20.23.651",NA,NA,296.2869,296.287,296.287,296.6533,NA,NA,NA,NA,NA,NA,NA,TRUE,1,1.062300001,293.3064,296.2867,0,62,62,89,1,100,54,NA,NA,NA,NA,NA,1,63,"binary"
"78A3DC02B28A4FC08B54935A39CEA689",1,"0198f77c-3963-776b-878f-30e97a46e5eb","0198f767-55c9-7875-8d21-563b3c0b86ed","2025-08-29_13h20.23.651",NA,NA,299.641,299.641,299.641,299.9911,NA,NA,NA,NA,NA,NA,NA,TRUE,1,1.048,296.6551,299.6406,0,63,63,18,1,14,25,NA,NA,NA,NA,NA,1,64,"binary"
"78A3DC02B28A4FC08B54935A39CEA689",1,"0198f77c-3963-776b-878f-30e97a46e5eb","0198f767-55c9-7875-8d21-563b3c0b86ed","2025-08-29_13h20.23.651",NA,NA,302.9916,302.9917,302.9918,303.3413,NA,NA,NA,NA,NA,NA,NA,TRUE,1,1.2495,299.9935,302.9912,0,64,64,46,1,30,32,NA,NA,NA,NA,NA,1,65,"binary"
"78A3DC02B28A4FC08B54935A39CEA689",1,"0198f77c-3963-776b-878f-30e97a46e5eb","0198f767-55c9-7875-8d21-563b3c0b86ed","2025-08-29_13h20.23.651",NA,NA,306.3435,306.3437,306.3437,306.6954,NA,NA,NA,NA,NA,NA,NA,TRUE,1,1.884900002,303.3437,306.3433,0,65,65,95,1,150,54,NA,NA,NA,NA,NA,1,66,"binary"
"78A3DC02B28A4FC08B54935A39CEA689",1,"0198f77c-3963-776b-878f-30e97a46e5eb","0198f767-55c9-7875-8d21-563b3c0b86ed","2025-08-29_13h20.23.651",NA,NA,309.6881,309.6882,309.6882,310.0377,NA,NA,NA,NA,NA,NA,NA,TRUE,1,1.925900002,306.6981,309.6878,0,66,66,57,1,45,35,NA,NA,NA,NA,NA,1,67,"binary"
"78A3DC02B28A4FC08B54935A39CEA689",1,"0198f77c-3963-776b-878f-30e97a46e5eb","0198f767-55c9-7875-8d21-563b3c0b86ed","2025-08-29_13h20.23.651",NA,NA,313.038,313.038,313.038,313.3883,NA,NA,NA,NA,NA,NA,NA,TRUE,1,2.1376,310.0396,313.0378,0,67,67,49,1,40,33,NA,NA,NA,NA,NA,1,68,"binary"
"78A3DC02B28A4FC08B54935A39CEA689",1,"0198f77c-3963-776b-878f-30e97a46e5eb","0198f767-55c9-7875-8d21-563b3c0b86ed","2025-08-29_13h20.23.651",NA,NA,316.4022,316.4022,316.4022,316.7426,NA,NA,NA,NA,NA,NA,NA,TRUE,1,1.387299999,313.3899,316.4016,0,68,68,79,1,95,33,NA,NA,NA,NA,NA,1,69,"binary"
"78A3DC02B28A4FC08B54935A39CEA689",1,"0198f77c-3963-776b-878f-30e97a46e5eb","0198f767-55c9-7875-8d21-563b3c0b86ed","2025-08-29_13h20.23.651",NA,NA,319.7477,319.7477,319.7477,320.0946,NA,NA,NA,NA,NA,NA,NA,TRUE,1,0.966799999,316.7454,319.7471,0,69,69,99,1,180,39,NA,NA,NA,NA,NA,1,70,"binary"
"78A3DC02B28A4FC08B54935A39CEA689",1,"0198f77c-3963-776b-878f-30e97a46e5eb","0198f767-55c9-7875-8d21-563b3c0b86ed","2025-08-29_13h20.23.651",NA,NA,323.1035,323.3505,323.3505,323.4482,NA,NA,NA,NA,NA,NA,NA,FALSE,NA,NA,320.097,323.1029,0,70,70,28,1,21,32,NA,NA,NA,NA,NA,1,71,"binary"
"78A3DC02B28A4FC08B54935A39CEA689",1,"0198f77c-3963-776b-878f-30e97a46e5eb","0198f767-55c9-7875-8d21-563b3c0b86ed","2025-08-29_13h20.23.651",NA,NA,326.4494,326.4494,326.4495,326.8022,NA,NA,NA,NA,NA,NA,NA,TRUE,2,0.883700001,323.4516,326.4488,0,71,71,15,1,12,31,NA,NA,NA,NA,NA,1,72,"binary"
"78A3DC02B28A4FC08B54935A39CEA689",1,"0198f77c-3963-776b-878f-30e97a46e5eb","0198f767-55c9-7875-8d21-563b3c0b86ed","2025-08-29_13h20.23.651",NA,NA,329.8007,329.8007,329.8008,330.1313,NA,NA,NA,NA,NA,NA,NA,TRUE,2,1.462799999,326.8053,329.8001,0,72,72,10,1,10,30,NA,NA,NA,NA,NA,1,73,"binary"
"78A3DC02B28A4FC08B54935A39CEA689",1,"0198f77c-3963-776b-878f-30e97a46e5eb","0198f767-55c9-7875-8d21-563b3c0b86ed","2025-08-29_13h20.23.651",NA,NA,333.1473,333.1473,333.1473,333.4874,NA,NA,NA,NA,NA,NA,NA,TRUE,1,1.304199999,330.1335,333.1467,0,73,73,82,1,95,47,NA,NA,NA,NA,NA,1,74,"binary"
"78A3DC02B28A4FC08B54935A39CEA689",1,"0198f77c-3963-776b-878f-30e97a46e5eb","0198f767-55c9-7875-8d21-563b3c0b86ed","2025-08-29_13h20.23.651",NA,NA,336.4879,336.488,336.488,336.8456,NA,NA,NA,NA,NA,NA,NA,TRUE,1,1.458300001,333.4901,336.4875,0,74,74,63,1,50,40,NA,NA,NA,NA,NA,1,75,"binary"
"78A3DC02B28A4FC08B54935A39CEA689",1,"0198f77c-3963-776b-878f-30e97a46e5eb","0198f767-55c9-7875-8d21-563b3c0b86ed","2025-08-29_13h20.23.651",NA,NA,339.8401,339.8402,339.8402,340.1908,NA,NA,NA,NA,NA,NA,NA,TRUE,1,1.137599998,336.8482,339.8397,0,75,75,73,1,90,30,NA,NA,NA,NA,NA,1,76,"binary"
"78A3DC02B28A4FC08B54935A39CEA689",1,"0198f77c-3963-776b-878f-30e97a46e5eb","0198f767-55c9-7875-8d21-563b3c0b86ed","2025-08-29_13h20.23.651",NA,NA,343.1906,343.1906,343.1907,343.54,NA,NA,NA,NA,NA,NA,NA,TRUE,1,0.704200001,340.193,343.1901,0,76,76,3,1,7,30,NA,NA,NA,NA,NA,1,77,"binary"
"78A3DC02B28A4FC08B54935A39CEA689",1,"0198f77c-3963-776b-878f-30e97a46e5eb","0198f767-55c9-7875-8d21-563b3c0b86ed","2025-08-29_13h20.23.651",NA,NA,346.5411,346.5412,346.5412,346.8901,NA,NA,NA,NA,NA,NA,NA,TRUE,1,1.283300001,343.5425,346.5405,0,77,77,70,1,60,47,NA,NA,NA,NA,NA,1,78,"binary"
"78A3DC02B28A4FC08B54935A39CEA689",1,"0198f77c-3963-776b-878f-30e97a46e5eb","0198f767-55c9-7875-8d21-563b3c0b86ed","2025-08-29_13h20.23.651",NA,NA,349.8915,349.8916,349.8916,350.2409,NA,NA,NA,NA,NA,NA,NA,TRUE,1,1.287200001,346.8927,349.8909,0,78,78,50,1,40,35,NA,NA,NA,NA,NA,1,79,"binary"
"78A3DC02B28A4FC08B54935A39CEA689",1,"0198f77c-3963-776b-878f-30e97a46e5eb","0198f767-55c9-7875-8d21-563b3c0b86ed","2025-08-29_13h20.23.651",NA,NA,353.2485,353.2485,353.2485,353.5979,NA,NA,NA,NA,NA,NA,NA,TRUE,1,1.603700001,350.2435,353.2481,0,79,79,88,1,100,46,NA,NA,NA,NA,NA,1,80,"binary"
"78A3DC02B28A4FC08B54935A39CEA689",1,"0198f77c-3963-776b-878f-30e97a46e5eb","0198f767-55c9-7875-8d21-563b3c0b86ed","2025-08-29_13h20.23.651",NA,NA,356.5927,356.5927,356.5927,356.953,NA,NA,NA,NA,NA,NA,NA,TRUE,1,2.972299999,353.6003,356.5921,0,80,80,26,1,21,29,NA,NA,NA,NA,NA,1,81,"binary"
"78A3DC02B28A4FC08B54935A39CEA689",1,"0198f77c-3963-776b-878f-30e97a46e5eb","0198f767-55c9-7875-8d21-563b3c0b86ed","2025-08-29_13h20.23.651",NA,NA,359.9542,359.9543,359.9543,360.2986,NA,NA,NA,NA,NA,NA,NA,TRUE,1,1.2606,356.955,359.9536,0,81,81,94,1,150,47,NA,NA,NA,NA,NA,1,82,"binary"
"78A3DC02B28A4FC08B54935A39CEA689",1,"0198f77c-3963-776b-878f-30e97a46e5eb","0198f767-55c9-7875-8d21-563b3c0b86ed","2025-08-29_13h20.23.651",NA,NA,363.2925,363.2925,363.2925,363.6419,NA,NA,NA,NA,NA,NA,NA,TRUE,1,1.3419,360.3013,363.2918,0,82,82,74,1,90,33,NA,NA,NA,NA,NA,1,83,"binary"
"78A3DC02B28A4FC08B54935A39CEA689",1,"0198f77c-3963-776b-878f-30e97a46e5eb","0198f767-55c9-7875-8d21-563b3c0b86ed","2025-08-29_13h20.23.651",NA,NA,366.6405,366.6405,366.6406,367.0018,NA,NA,NA,NA,NA,NA,NA,TRUE,1,0.7105,363.6447,366.6399,0,83,83,58,1,45,40,NA,NA,NA,NA,NA,1,84,"binary"
"78A3DC02B28A4FC08B54935A39CEA689",1,"0198f77c-3963-776b-878f-30e97a46e5eb","0198f767-55c9-7875-8d21-563b3c0b86ed","2025-08-29_13h20.23.651",NA,NA,370.0023,370.0024,370.0024,370.3369,NA,NA,NA,NA,NA,NA,NA,TRUE,1,0.467699999,367.004,370.0019,0,84,84,90,1,150,31,NA,NA,NA,NA,NA,1,85,"binary"
"78A3DC02B28A4FC08B54935A39CEA689",1,"0198f77c-3963-776b-878f-30e97a46e5eb","0198f767-55c9-7875-8d21-563b3c0b86ed","2025-08-29_13h20.23.651",NA,NA,373.3498,373.35,373.35,373.687,NA,NA,NA,NA,NA,NA,NA,TRUE,2,1.858200001,370.3395,373.3494,0,85,85,33,1,25,33,NA,NA,NA,NA,NA,1,86,"binary"
"78A3DC02B28A4FC08B54935A39CEA689",1,"0198f77c-3963-776b-878f-30e97a46e5eb","0198f767-55c9-7875-8d21-563b3c0b86ed","2025-08-29_13h20.23.651",NA,NA,376.6803,376.6803,376.6803,377.058,NA,NA,NA,NA,NA,NA,NA,TRUE,2,1.3464,373.6895,376.6798,0,86,86,29,1,21,38,NA,NA,NA,NA,NA,1,87,"binary"
"78A3DC02B28A4FC08B54935A39CEA689",1,"0198f77c-3963-776b-878f-30e97a46e5eb","0198f767-55c9-7875-8d21-563b3c0b86ed","2025-08-29_13h20.23.651",NA,NA,381.5168,381.517,381.517,381.5171,NA,NA,NA,NA,NA,NA,NA,TRUE,1,1.955200001,377.0607,381.5163,0,87,87,7,1,10,26,NA,NA,NA,NA,NA,1,88,"binary"
"78A3DC02B28A4FC08B54935A39CEA689",1,"0198f77c-3963-776b-878f-30e97a46e5eb","0198f767-55c9-7875-8d21-563b3c0b86ed","2025-08-29_13h20.23.651",NA,NA,383.4623,383.4624,383.4624,384.336,NA,NA,NA,NA,NA,NA,NA,TRUE,1,1.3115,381.5199,383.4618,0,88,88,19,1,14,26,NA,NA,NA,NA,NA,1,89,"binary"
"78A3DC02B28A4FC08B54935A39CEA689",1,"0198f77c-3963-776b-878f-30e97a46e5eb","0198f767-55c9-7875-8d21-563b3c0b86ed","2025-08-29_13h20.23.651",NA,NA,386.7466,386.7466,386.7466,387.0622,NA,NA,NA,NA,NA,NA,NA,TRUE,1,1.1655,384.3393,386.7461,0,89,89,43,1,30,27,NA,NA,NA,NA,NA,1,90,"binary"
"78A3DC02B28A4FC08B54935A39CEA689",1,"0198f77c-3963-776b-878f-30e97a46e5eb","0198f767-55c9-7875-8d21-563b3c0b86ed","2025-08-29_13h20.23.651",NA,NA,390.0859,390.086,390.086,390.4249,NA,NA,NA,NA,NA,NA,NA,TRUE,1,0.5945,387.0648,390.0853,0,90,90,59,1,45,46,NA,NA,NA,NA,NA,1,91,"binary"
"78A3DC02B28A4FC08B54935A39CEA689",1,"0198f77c-3963-776b-878f-30e97a46e5eb","0198f767-55c9-7875-8d21-563b3c0b86ed","2025-08-29_13h20.23.651",NA,NA,393.4434,393.4434,393.4434,393.8153,NA,NA,NA,NA,NA,NA,NA,TRUE,1,0.967799999,390.4272,393.4429,0,91,91,0,1,7,25,NA,NA,NA,NA,NA,1,92,"binary"
"78A3DC02B28A4FC08B54935A39CEA689",1,"0198f77c-3963-776b-878f-30e97a46e5eb","0198f767-55c9-7875-8d21-563b3c0b86ed","2025-08-29_13h20.23.651",NA,NA,396.7325,396.7325,396.7325,397.137,NA,NA,NA,NA,NA,NA,NA,TRUE,1,1.0521,393.8178,396.732,0,92,92,86,1,100,38,NA,NA,NA,NA,NA,1,93,"binary"
"78A3DC02B28A4FC08B54935A39CEA689",1,"0198f77c-3963-776b-878f-30e97a46e5eb","0198f767-55c9-7875-8d21-563b3c0b86ed","2025-08-29_13h20.23.651",NA,NA,400.1411,400.1411,400.1411,400.4872,NA,NA,NA,NA,NA,NA,NA,TRUE,1,0.7785,397.1397,400.1405,0,93,93,25,1,21,27,NA,NA,NA,NA,NA,1,94,"binary"
"78A3DC02B28A4FC08B54935A39CEA689",1,"0198f77c-3963-776b-878f-30e97a46e5eb","0198f767-55c9-7875-8d21-563b3c0b86ed","2025-08-29_13h20.23.651",NA,NA,403.4901,403.4901,403.4901,403.8375,NA,NA,NA,NA,NA,NA,NA,TRUE,1,0.283800001,400.49,403.4895,0,94,94,91,1,150,33,NA,NA,NA,NA,NA,1,95,"binary"
"78A3DC02B28A4FC08B54935A39CEA689",1,"0198f77c-3963-776b-878f-30e97a46e5eb","0198f767-55c9-7875-8d21-563b3c0b86ed","2025-08-29_13h20.23.651",NA,NA,406.8579,407.0898,407.0899,407.2015,NA,NA,NA,NA,NA,NA,NA,FALSE,NA,NA,403.8401,406.8574,0,95,95,2,1,7,28,NA,NA,NA,NA,NA,1,96,"binary"
"78A3DC02B28A4FC08B54935A39CEA689",1,"0198f77c-3963-776b-878f-30e97a46e5eb","0198f767-55c9-7875-8d21-563b3c0b86ed","2025-08-29_13h20.23.651",NA,NA,410.1919,410.1919,410.1919,410.5529,NA,NA,NA,NA,NA,NA,NA,TRUE,1,0.2845,407.2042,410.1914,0,96,96,23,1,14,39,NA,NA,NA,NA,NA,1,97,"binary"
"78A3DC02B28A4FC08B54935A39CEA689",1,"0198f77c-3963-776b-878f-30e97a46e5eb","0198f767-55c9-7875-8d21-563b3c0b86ed","2025-08-29_13h20.23.651",NA,NA,413.5468,413.5469,413.5469,413.8973,NA,NA,NA,NA,NA,NA,NA,TRUE,1,1.230800001,410.5555,413.5467,0,97,97,67,1,60,33,NA,NA,NA,NA,NA,1,98,"binary"
"78A3DC02B28A4FC08B54935A39CEA689",1,"0198f77c-3963-776b-878f-30e97a46e5eb","0198f767-55c9-7875-8d21-563b3c0b86ed","2025-08-29_13h20.23.651",NA,NA,416.9001,416.9003,416.9003,417.2487,NA,NA,NA,NA,NA,NA,NA,TRUE,1,1.1649,413.8994,416.8998,0,98,98,51,1,40,40,NA,NA,NA,NA,NA,1,99,"binary"
"78A3DC02B28A4FC08B54935A39CEA689",1,"0198f77c-3963-776b-878f-30e97a46e5eb","0198f767-55c9-7875-8d21-563b3c0b86ed","2025-08-29_13h20.23.651",NA,NA,420.2488,420.2489,420.2489,420.5985,NA,NA,NA,NA,NA,NA,NA,TRUE,1,1.0764,417.2517,420.2486,0,99,99,98,1,180,35,NA,NA,NA,NA,NA,1,100,"binary"
"78A3DC02B28A4FC08B54935A39CEA689",1,"0198f77c-3963-776b-878f-30e97a46e5eb","0198f767-55c9-7875-8d21-563b3c0b86ed","2025-08-29_13h20.23.651",NA,NA,423.5884,423.5884,423.5884,423.9465,NA,NA,NA,NA,NA,NA,NA,TRUE,1,0.892200001,420.602,423.588,0,100,100,96,1,180,27,NA,NA,NA,NA,NA,1,101,"binary"
"78A3DC02B28A4FC08B54935A39CEA689",1,"0198f77c-3963-776b-878f-30e97a46e5eb","0198f767-55c9-7875-8d21-563b3c0b86ed","2025-08-29_13h20.23.651",NA,NA,426.9384,426.9384,426.9384,427.2929,NA,NA,NA,NA,NA,NA,NA,TRUE,2,1.9856,423.9494,426.9378,0,101,101,64,1,50,46,NA,NA,NA,NA,NA,1,102,"binary"
"78A3DC02B28A4FC08B54935A39CEA689",1,"0198f77c-3963-776b-878f-30e97a46e5eb","0198f767-55c9-7875-8d21-563b3c0b86ed","2025-08-29_13h20.23.651",NA,NA,430.2959,430.2959,430.296,430.6455,NA,NA,NA,NA,NA,NA,NA,TRUE,1,1.2031,427.2955,430.2954,0,102,102,75,1,90,40,NA,NA,NA,NA,NA,1,103,"binary"
"78A3DC02B28A4FC08B54935A39CEA689",1,"0198f77c-3963-776b-878f-30e97a46e5eb","0198f767-55c9-7875-8d21-563b3c0b86ed","2025-08-29_13h20.23.651",NA,NA,433.6489,433.649,433.649,433.9989,NA,NA,NA,NA,NA,NA,NA,TRUE,1,1.863800001,430.6487,433.6487,0,103,103,37,1,28,28,NA,NA,NA,NA,NA,1,104,"binary"
"78A3DC02B28A4FC08B54935A39CEA689",1,"0198f77c-3963-776b-878f-30e97a46e5eb","0198f767-55c9-7875-8d21-563b3c0b86ed","2025-08-29_13h20.23.651",NA,NA,437.0003,437.0005,437.0005,437.3492,NA,NA,NA,NA,NA,NA,NA,TRUE,1,0.947900002,434.0005,437,0,104,104,12,1,12,25,NA,NA,NA,NA,NA,1,105,"binary"
"78A3DC02B28A4FC08B54935A39CEA689",1,"0198f77c-3963-776b-878f-30e97a46e5eb","0198f767-55c9-7875-8d21-563b3c0b86ed","2025-08-29_13h20.23.651",NA,NA,440.3496,440.3497,440.3497,440.6988,NA,NA,NA,NA,NA,NA,NA,TRUE,1,1.7185,437.351,440.349,0,105,105,56,1,45,31,NA,NA,NA,NA,NA,1,106,"binary"
"78A3DC02B28A4FC08B54935A39CEA689",1,"0198f77c-3963-776b-878f-30e97a46e5eb","0198f767-55c9-7875-8d21-563b3c0b86ed","2025-08-29_13h20.23.651",NA,NA,443.6877,443.6877,443.6877,444.0392,NA,NA,NA,NA,NA,NA,NA,TRUE,1,1.7765,440.701,443.6872,0,106,106,44,1,30,29,NA,NA,NA,NA,NA,1,107,"binary"
"78A3DC02B28A4FC08B54935A39CEA689",1,"0198f77c-3963-776b-878f-30e97a46e5eb","0198f767-55c9-7875-8d21-563b3c0b86ed","2025-08-29_13h20.23.651",NA,NA,447.0381,447.0381,447.0381,447.3896,NA,NA,NA,NA,NA,NA,NA,TRUE,1,1.43,444.0416,447.0376,0,107,107,36,1,28,26,NA,NA,NA,NA,NA,1,108,"binary"
"78A3DC02B28A4FC08B54935A39CEA689",1,"0198f77c-3963-776b-878f-30e97a46e5eb","0198f767-55c9-7875-8d21-563b3c0b86ed","2025-08-29_13h20.23.651",NA,NA,453.677,453.677,453.677,454.0227,NA,NA,NA,NA,NA,NA,NA,TRUE,1,1.4619,450.7013,453.6765,NA,NA,NA,NA,NA,200,47,0,0,0,106,1,2,1,"binary"
"78A3DC02B28A4FC08B54935A39CEA689",1,"0198f77c-3963-776b-878f-30e97a46e5eb","0198f767-55c9-7875-8d21-563b3c0b86ed","2025-08-29_13h20.23.651",NA,NA,457.0277,457.0278,457.0278,457.3771,NA,NA,NA,NA,NA,NA,NA,TRUE,2,1.4846,454.027,457.0268,NA,NA,NA,NA,NA,7,35,0,1,1,5,1,2,2,"binary"
"78A3DC02B28A4FC08B54935A39CEA689",1,"0198f77c-3963-776b-878f-30e97a46e5eb","0198f767-55c9-7875-8d21-563b3c0b86ed","2025-08-29_13h20.23.651",NA,NA,460.3768,460.3769,460.3769,460.7269,NA,NA,NA,NA,NA,NA,NA,TRUE,2,1.4456,457.3814,460.3764,NA,NA,NA,NA,NA,7,32,0,2,2,4,1,2,3,"binary"
"78A3DC02B28A4FC08B54935A39CEA689",1,"0198f77c-3963-776b-878f-30e97a46e5eb","0198f767-55c9-7875-8d21-563b3c0b86ed","2025-08-29_13h20.23.651",NA,NA,463.7229,463.7229,463.7229,464.0724,NA,NA,NA,NA,NA,NA,NA,TRUE,1,1.117,460.7311,463.7225,NA,NA,NA,NA,NA,100,39,0,3,3,87,1,2,4,"binary"
"78A3DC02B28A4FC08B54935A39CEA689",1,"0198f77c-3963-776b-878f-30e97a46e5eb","0198f767-55c9-7875-8d21-563b3c0b86ed","2025-08-29_13h20.23.651",NA,NA,467.0732,467.0732,467.0732,467.4275,NA,NA,NA,NA,NA,NA,NA,TRUE,1,0.903799999,464.0747,467.0727,NA,NA,NA,NA,NA,150,47,0,4,4,94,1,2,5,"binary"
"78A3DC02B28A4FC08B54935A39CEA689",1,"0198f77c-3963-776b-878f-30e97a46e5eb","0198f767-55c9-7875-8d21-563b3c0b86ed","2025-08-29_13h20.23.651",NA,NA,470.4242,470.4244,470.4245,470.773,NA,NA,NA,NA,NA,NA,NA,TRUE,1,1.1841,467.4318,470.4235,NA,NA,NA,NA,NA,25,35,0,5,5,34,1,2,6,"binary"
"78A3DC02B28A4FC08B54935A39CEA689",1,"0198f77c-3963-776b-878f-30e97a46e5eb","0198f767-55c9-7875-8d21-563b3c0b86ed","2025-08-29_13h20.23.651",NA,NA,473.7749,473.7751,473.7751,474.1284,NA,NA,NA,NA,NA,NA,NA,TRUE,1,1.1835,470.7753,473.7741,NA,NA,NA,NA,NA,30,27,0,6,6,43,1,2,7,"binary"
"78A3DC02B28A4FC08B54935A39CEA689",1,"0198f77c-3963-776b-878f-30e97a46e5eb","0198f767-55c9-7875-8d21-563b3c0b86ed","2025-08-29_13h20.23.651",NA,NA,477.1284,477.1284,477.1285,477.4778,NA,NA,NA,NA,NA,NA,NA,TRUE,2,1.2605,474.133,477.128,NA,NA,NA,NA,NA,21,38,0,7,7,29,1,2,8,"binary"
"78A3DC02B28A4FC08B54935A39CEA689",1,"0198f77c-3963-776b-878f-30e97a46e5eb","0198f767-55c9-7875-8d21-563b3c0b86ed","2025-08-29_13h20.23.651",NA,NA,480.4824,480.7273,480.7274,480.8278,NA,NA,NA,NA,NA,NA,NA,FALSE,NA,NA,477.4802,480.4821,NA,NA,NA,NA,NA,10,27,0,8,8,8,1,2,9,"binary"
"78A3DC02B28A4FC08B54935A39CEA689",1,"0198f77c-3963-776b-878f-30e97a46e5eb","0198f767-55c9-7875-8d21-563b3c0b86ed","2025-08-29_13h20.23.651",NA,NA,483.8246,483.8247,483.8247,484.1766,NA,NA,NA,NA,NA,NA,NA,TRUE,1,1.649700001,480.83,483.8242,NA,NA,NA,NA,NA,40,27,0,9,9,48,1,2,10,"binary"
"78A3DC02B28A4FC08B54935A39CEA689",1,"0198f77c-3963-776b-878f-30e97a46e5eb","0198f767-55c9-7875-8d21-563b3c0b86ed","2025-08-29_13h20.23.651",NA,NA,487.1762,487.1763,487.1763,487.5253,NA,NA,NA,NA,NA,NA,NA,TRUE,1,1.148,484.1806,487.1755,NA,NA,NA,NA,NA,60,33,0,10,10,67,1,2,11,"binary"
"78A3DC02B28A4FC08B54935A39CEA689",1,"0198f77c-3963-776b-878f-30e97a46e5eb","0198f767-55c9-7875-8d21-563b3c0b86ed","2025-08-29_13h20.23.651",NA,NA,490.5296,490.5297,490.5297,490.8696,NA,NA,NA,NA,NA,NA,NA,TRUE,1,1.0296,487.5294,490.5292,NA,NA,NA,NA,NA,90,33,0,11,11,74,1,2,12,"binary"
"78A3DC02B28A4FC08B54935A39CEA689",1,"0198f77c-3963-776b-878f-30e97a46e5eb","0198f767-55c9-7875-8d21-563b3c0b86ed","2025-08-29_13h20.23.651",NA,NA,493.8799,493.8799,493.88,494.2249,NA,NA,NA,NA,NA,NA,NA,TRUE,1,1.231700001,490.8724,493.8795,NA,NA,NA,NA,NA,28,32,0,12,12,38,1,2,13,"binary"
"78A3DC02B28A4FC08B54935A39CEA689",1,"0198f77c-3963-776b-878f-30e97a46e5eb","0198f767-55c9-7875-8d21-563b3c0b86ed","2025-08-29_13h20.23.651",NA,NA,497.2283,497.2283,497.2286,497.5802,NA,NA,NA,NA,NA,NA,NA,TRUE,1,0.2675,494.2271,497.2278,NA,NA,NA,NA,NA,28,46,0,13,13,41,1,2,14,"binary"
"78A3DC02B28A4FC08B54935A39CEA689",1,"0198f77c-3963-776b-878f-30e97a46e5eb","0198f767-55c9-7875-8d21-563b3c0b86ed","2025-08-29_13h20.23.651",NA,NA,500.5823,500.5825,500.5826,500.9304,NA,NA,NA,NA,NA,NA,NA,TRUE,2,0.9965,497.5844,500.5816,NA,NA,NA,NA,NA,50,54,0,14,14,65,1,2,15,"binary"
"78A3DC02B28A4FC08B54935A39CEA689",1,"0198f77c-3963-776b-878f-30e97a46e5eb","0198f767-55c9-7875-8d21-563b3c0b86ed","2025-08-29_13h20.23.651",NA,NA,503.9307,503.9308,503.9308,504.2758,NA,NA,NA,NA,NA,NA,NA,TRUE,2,1.779200001,500.9352,503.9302,NA,NA,NA,NA,NA,21,32,0,15,15,28,1,2,16,"binary"
"78A3DC02B28A4FC08B54935A39CEA689",1,"0198f77c-3963-776b-878f-30e97a46e5eb","0198f767-55c9-7875-8d21-563b3c0b86ed","2025-08-29_13h20.23.651",NA,NA,507.2775,507.2776,507.2776,507.6308,NA,NA,NA,NA,NA,NA,NA,TRUE,1,1.037700001,504.2779,507.2768,NA,NA,NA,NA,NA,200,54,0,16,16,107,1,2,17,"binary"
"78A3DC02B28A4FC08B54935A39CEA689",1,"0198f77c-3963-776b-878f-30e97a46e5eb","0198f767-55c9-7875-8d21-563b3c0b86ed","2025-08-29_13h20.23.651",NA,NA,510.6285,510.6285,510.6286,510.9791,NA,NA,NA,NA,NA,NA,NA,TRUE,1,0.8615,507.635,510.6277,NA,NA,NA,NA,NA,30,30,0,17,17,45,1,2,18,"binary"
"78A3DC02B28A4FC08B54935A39CEA689",1,"0198f77c-3963-776b-878f-30e97a46e5eb","0198f767-55c9-7875-8d21-563b3c0b86ed","2025-08-29_13h20.23.651",NA,NA,513.9748,513.975,513.975,514.3279,NA,NA,NA,NA,NA,NA,NA,TRUE,2,1.4674,510.9832,513.974,NA,NA,NA,NA,NA,28,39,0,18,18,40,1,2,19,"binary"
"78A3DC02B28A4FC08B54935A39CEA689",1,"0198f77c-3963-776b-878f-30e97a46e5eb","0198f767-55c9-7875-8d21-563b3c0b86ed","2025-08-29_13h20.23.651",NA,NA,517.3329,517.3331,517.3331,517.6741,NA,NA,NA,NA,NA,NA,NA,TRUE,1,1.317,514.3326,517.3321,NA,NA,NA,NA,NA,30,26,0,19,19,42,1,2,20,"binary"
"78A3DC02B28A4FC08B54935A39CEA689",1,"0198f77c-3963-776b-878f-30e97a46e5eb","0198f767-55c9-7875-8d21-563b3c0b86ed","2025-08-29_13h20.23.651",NA,NA,520.6785,520.6786,520.6786,521.0232,NA,NA,NA,NA,NA,NA,NA,TRUE,1,1.352199999,517.6785,520.6776,NA,NA,NA,NA,NA,100,54,0,20,20,89,1,2,21,"binary"
"78A3DC02B28A4FC08B54935A39CEA689",1,"0198f77c-3963-776b-878f-30e97a46e5eb","0198f767-55c9-7875-8d21-563b3c0b86ed","2025-08-29_13h20.23.651",NA,NA,524.0232,524.0233,524.0233,524.3725,NA,NA,NA,NA,NA,NA,NA,TRUE,1,1.483700001,521.0249,524.0231,NA,NA,NA,NA,NA,200,35,0,21,21,104,1,2,22,"binary"
"78A3DC02B28A4FC08B54935A39CEA689",1,"0198f77c-3963-776b-878f-30e97a46e5eb","0198f767-55c9-7875-8d21-563b3c0b86ed","2025-08-29_13h20.23.651",NA,NA,527.3741,527.3741,527.3741,527.7239,NA,NA,NA,NA,NA,NA,NA,TRUE,1,0.767700001,524.3747,527.3739,NA,NA,NA,NA,NA,150,40,0,22,22,93,1,2,23,"binary"
"78A3DC02B28A4FC08B54935A39CEA689",1,"0198f77c-3963-776b-878f-30e97a46e5eb","0198f767-55c9-7875-8d21-563b3c0b86ed","2025-08-29_13h20.23.651",NA,NA,530.7243,530.7243,530.7244,531.0742,NA,NA,NA,NA,NA,NA,NA,TRUE,1,1.500800001,527.7256,530.7242,NA,NA,NA,NA,NA,25,29,0,23,23,31,1,2,24,"binary"
"78A3DC02B28A4FC08B54935A39CEA689",1,"0198f77c-3963-776b-878f-30e97a46e5eb","0198f767-55c9-7875-8d21-563b3c0b86ed","2025-08-29_13h20.23.651",NA,NA,534.0747,534.0747,534.0747,534.4241,NA,NA,NA,NA,NA,NA,NA,TRUE,2,1.600699999,531.076,534.0745,NA,NA,NA,NA,NA,28,35,0,24,24,39,1,2,25,"binary"
"78A3DC02B28A4FC08B54935A39CEA689",1,"0198f77c-3963-776b-878f-30e97a46e5eb","0198f767-55c9-7875-8d21-563b3c0b86ed","2025-08-29_13h20.23.651",NA,NA,537.4249,537.4249,537.425,537.7748,NA,NA,NA,NA,NA,NA,NA,TRUE,1,1.868200001,534.4261,537.4248,NA,NA,NA,NA,NA,30,29,0,25,25,44,1,2,26,"binary"
"78A3DC02B28A4FC08B54935A39CEA689",1,"0198f77c-3963-776b-878f-30e97a46e5eb","0198f767-55c9-7875-8d21-563b3c0b86ed","2025-08-29_13h20.23.651",NA,NA,540.7752,540.7753,540.7754,541.1251,NA,NA,NA,NA,NA,NA,NA,TRUE,1,0.783700001,537.7765,540.7751,NA,NA,NA,NA,NA,21,26,0,26,26,24,1,2,27,"binary"
"78A3DC02B28A4FC08B54935A39CEA689",1,"0198f77c-3963-776b-878f-30e97a46e5eb","0198f767-55c9-7875-8d21-563b3c0b86ed","2025-08-29_13h20.23.651",NA,NA,544.1255,544.1255,544.1256,544.4754,NA,NA,NA,NA,NA,NA,NA,TRUE,2,1.334,541.1268,544.1253,NA,NA,NA,NA,NA,40,40,0,27,27,51,1,2,28,"binary"
"78A3DC02B28A4FC08B54935A39CEA689",1,"0198f77c-3963-776b-878f-30e97a46e5eb","0198f767-55c9-7875-8d21-563b3c0b86ed","2025-08-29_13h20.23.651",NA,NA,547.4759,547.4759,547.4759,547.8253,NA,NA,NA,NA,NA,NA,NA,TRUE,1,0.8679,544.4775,547.4753,NA,NA,NA,NA,NA,14,35,0,28,28,22,1,2,29,"binary"
"78A3DC02B28A4FC08B54935A39CEA689",1,"0198f77c-3963-776b-878f-30e97a46e5eb","0198f767-55c9-7875-8d21-563b3c0b86ed","2025-08-29_13h20.23.651",NA,NA,550.8261,550.8261,550.8261,551.1759,NA,NA,NA,NA,NA,NA,NA,TRUE,1,1.3316,547.8271,550.8259,NA,NA,NA,NA,NA,28,28,0,29,29,37,1,2,30,"binary"
"78A3DC02B28A4FC08B54935A39CEA689",1,"0198f77c-3963-776b-878f-30e97a46e5eb","0198f767-55c9-7875-8d21-563b3c0b86ed","2025-08-29_13h20.23.651",NA,NA,554.1764,554.1765,554.1765,554.5262,NA,NA,NA,NA,NA,NA,NA,TRUE,2,1.304699999,551.1777,554.1763,NA,NA,NA,NA,NA,10,32,0,30,30,11,1,2,31,"binary"
"78A3DC02B28A4FC08B54935A39CEA689",1,"0198f77c-3963-776b-878f-30e97a46e5eb","0198f767-55c9-7875-8d21-563b3c0b86ed","2025-08-29_13h20.23.651",NA,NA,557.5268,557.5268,557.5269,557.8765,NA,NA,NA,NA,NA,NA,NA,TRUE,2,1.723,554.528,557.5266,NA,NA,NA,NA,NA,95,47,0,31,31,82,1,2,32,"binary"
"78A3DC02B28A4FC08B54935A39CEA689",1,"0198f77c-3963-776b-878f-30e97a46e5eb","0198f767-55c9-7875-8d21-563b3c0b86ed","2025-08-29_13h20.23.651",NA,NA,560.8771,560.8771,560.8771,561.2269,NA,NA,NA,NA,NA,NA,NA,TRUE,1,0.6176,557.8785,560.8769,NA,NA,NA,NA,NA,7,30,0,32,32,3,1,2,33,"binary"
"78A3DC02B28A4FC08B54935A39CEA689",1,"0198f77c-3963-776b-878f-30e97a46e5eb","0198f767-55c9-7875-8d21-563b3c0b86ed","2025-08-29_13h20.23.651",NA,NA,564.2271,564.2271,564.2271,564.5771,NA,NA,NA,NA,NA,NA,NA,TRUE,1,1.215300001,561.2292,564.227,NA,NA,NA,NA,NA,100,38,0,33,33,86,1,2,34,"binary"
"78A3DC02B28A4FC08B54935A39CEA689",1,"0198f77c-3963-776b-878f-30e97a46e5eb","0198f767-55c9-7875-8d21-563b3c0b86ed","2025-08-29_13h20.23.651",NA,NA,567.5776,567.5776,567.5776,567.9277,NA,NA,NA,NA,NA,NA,NA,TRUE,1,1.1814,564.5789,567.5774,NA,NA,NA,NA,NA,200,26,0,34,34,102,1,2,35,"binary"
"78A3DC02B28A4FC08B54935A39CEA689",1,"0198f77c-3963-776b-878f-30e97a46e5eb","0198f767-55c9-7875-8d21-563b3c0b86ed","2025-08-29_13h20.23.651",NA,NA,570.9291,570.9291,570.9291,571.2777,NA,NA,NA,NA,NA,NA,NA,TRUE,1,1.065599998,567.9296,570.9289,NA,NA,NA,NA,NA,40,54,0,35,35,53,1,2,36,"binary"
"78A3DC02B28A4FC08B54935A39CEA689",1,"0198f77c-3963-776b-878f-30e97a46e5eb","0198f767-55c9-7875-8d21-563b3c0b86ed","2025-08-29_13h20.23.651",NA,NA,574.2781,574.2782,574.2782,574.6281,NA,NA,NA,NA,NA,NA,NA,TRUE,1,0.5819,571.2795,574.278,NA,NA,NA,NA,NA,95,54,0,36,36,83,1,2,37,"binary"
"78A3DC02B28A4FC08B54935A39CEA689",1,"0198f77c-3963-776b-878f-30e97a46e5eb","0198f767-55c9-7875-8d21-563b3c0b86ed","2025-08-29_13h20.23.651",NA,NA,577.6285,577.6285,577.6286,577.9785,NA,NA,NA,NA,NA,NA,NA,TRUE,1,0.9816,574.6298,577.6284,NA,NA,NA,NA,NA,95,40,0,37,37,81,1,2,38,"binary"
"78A3DC02B28A4FC08B54935A39CEA689",1,"0198f77c-3963-776b-878f-30e97a46e5eb","0198f767-55c9-7875-8d21-563b3c0b86ed","2025-08-29_13h20.23.651",NA,NA,580.9789,580.979,580.979,581.3284,NA,NA,NA,NA,NA,NA,NA,TRUE,1,0.898700001,577.9802,580.9788,NA,NA,NA,NA,NA,90,54,0,38,38,77,1,2,39,"binary"
"78A3DC02B28A4FC08B54935A39CEA689",1,"0198f77c-3963-776b-878f-30e97a46e5eb","0198f767-55c9-7875-8d21-563b3c0b86ed","2025-08-29_13h20.23.651",NA,NA,584.3291,584.3293,584.3293,584.6789,NA,NA,NA,NA,NA,NA,NA,TRUE,1,1.8484,581.3301,584.3289,NA,NA,NA,NA,NA,12,26,0,39,39,13,1,2,40,"binary"
"78A3DC02B28A4FC08B54935A39CEA689",1,"0198f77c-3963-776b-878f-30e97a46e5eb","0198f767-55c9-7875-8d21-563b3c0b86ed","2025-08-29_13h20.23.651",NA,NA,587.679,587.6791,587.6791,588.0285,NA,NA,NA,NA,NA,NA,NA,TRUE,1,1.2656,584.6809,587.6788,NA,NA,NA,NA,NA,180,54,0,40,40,101,1,2,41,"binary"
"78A3DC02B28A4FC08B54935A39CEA689",1,"0198f77c-3963-776b-878f-30e97a46e5eb","0198f767-55c9-7875-8d21-563b3c0b86ed","2025-08-29_13h20.23.651",NA,NA,591.0298,591.0299,591.0299,591.3796,NA,NA,NA,NA,NA,NA,NA,TRUE,1,0.956,588.0303,591.0296,NA,NA,NA,NA,NA,180,39,0,41,41,99,1,2,42,"binary"
"78A3DC02B28A4FC08B54935A39CEA689",1,"0198f77c-3963-776b-878f-30e97a46e5eb","0198f767-55c9-7875-8d21-563b3c0b86ed","2025-08-29_13h20.23.651",NA,NA,594.38,594.3802,594.3802,594.7299,NA,NA,NA,NA,NA,NA,NA,TRUE,1,1.7566,591.3813,594.3799,NA,NA,NA,NA,NA,45,29,0,42,42,55,1,2,43,"binary"
"78A3DC02B28A4FC08B54935A39CEA689",1,"0198f77c-3963-776b-878f-30e97a46e5eb","0198f767-55c9-7875-8d21-563b3c0b86ed","2025-08-29_13h20.23.651",NA,NA,597.7314,597.7316,597.7316,598.0812,NA,NA,NA,NA,NA,NA,NA,TRUE,1,0.7004,594.7316,597.7312,NA,NA,NA,NA,NA,50,40,0,43,43,63,1,2,44,"binary"
"78A3DC02B28A4FC08B54935A39CEA689",1,"0198f77c-3963-776b-878f-30e97a46e5eb","0198f767-55c9-7875-8d21-563b3c0b86ed","2025-08-29_13h20.23.651",NA,NA,601.0806,601.0807,601.0807,601.4305,NA,NA,NA,NA,NA,NA,NA,TRUE,1,1.009700001,598.0842,601.0804,NA,NA,NA,NA,NA,150,35,0,44,44,92,1,2,45,"binary"
"78A3DC02B28A4FC08B54935A39CEA689",1,"0198f77c-3963-776b-878f-30e97a46e5eb","0198f767-55c9-7875-8d21-563b3c0b86ed","2025-08-29_13h20.23.651",NA,NA,604.4309,604.4309,604.4309,604.781,NA,NA,NA,NA,NA,NA,NA,TRUE,2,1.571299999,601.4324,604.4307,NA,NA,NA,NA,NA,60,54,0,45,45,71,1,2,46,"binary"
"78A3DC02B28A4FC08B54935A39CEA689",1,"0198f77c-3963-776b-878f-30e97a46e5eb","0198f767-55c9-7875-8d21-563b3c0b86ed","2025-08-29_13h20.23.651",NA,NA,607.7825,607.7826,607.7827,608.1321,NA,NA,NA,NA,NA,NA,NA,TRUE,1,1.554200001,604.7828,607.7822,NA,NA,NA,NA,NA,14,26,0,46,46,19,1,2,47,"binary"
"78A3DC02B28A4FC08B54935A39CEA689",1,"0198f77c-3963-776b-878f-30e97a46e5eb","0198f767-55c9-7875-8d21-563b3c0b86ed","2025-08-29_13h20.23.651",NA,NA,611.1336,611.1338,611.1338,611.4823,NA,NA,NA,NA,NA,NA,NA,TRUE,2,2.2346,608.1351,611.1335,NA,NA,NA,NA,NA,14,32,0,47,47,21,1,2,48,"binary"
"78A3DC02B28A4FC08B54935A39CEA689",1,"0198f77c-3963-776b-878f-30e97a46e5eb","0198f767-55c9-7875-8d21-563b3c0b86ed","2025-08-29_13h20.23.651",NA,NA,614.4827,614.4828,614.4829,614.8325,NA,NA,NA,NA,NA,NA,NA,TRUE,1,1.426099998,611.4855,614.4824,NA,NA,NA,NA,NA,50,35,0,48,48,62,1,2,49,"binary"
"78A3DC02B28A4FC08B54935A39CEA689",1,"0198f77c-3963-776b-878f-30e97a46e5eb","0198f767-55c9-7875-8d21-563b3c0b86ed","2025-08-29_13h20.23.651",NA,NA,617.8318,617.8319,617.8319,618.1817,NA,NA,NA,NA,NA,NA,NA,TRUE,1,1.309699999,614.8362,617.8316,NA,NA,NA,NA,NA,14,28,0,49,49,20,1,2,50,"binary"
"78A3DC02B28A4FC08B54935A39CEA689",1,"0198f77c-3963-776b-878f-30e97a46e5eb","0198f767-55c9-7875-8d21-563b3c0b86ed","2025-08-29_13h20.23.651",NA,NA,621.1674,621.1674,621.1674,621.5324,NA,NA,NA,NA,NA,NA,NA,TRUE,1,1.017300001,618.1833,621.1668,NA,NA,NA,NA,NA,12,28,0,50,50,14,1,2,51,"binary"
"78A3DC02B28A4FC08B54935A39CEA689",1,"0198f77c-3963-776b-878f-30e97a46e5eb","0198f767-55c9-7875-8d21-563b3c0b86ed","2025-08-29_13h20.23.651",NA,NA,624.5323,624.5324,624.5324,624.8821,NA,NA,NA,NA,NA,NA,NA,TRUE,1,1.068299999,621.5341,624.5321,NA,NA,NA,NA,NA,50,30,0,51,51,61,1,2,52,"binary"
"78A3DC02B28A4FC08B54935A39CEA689",1,"0198f77c-3963-776b-878f-30e97a46e5eb","0198f767-55c9-7875-8d21-563b3c0b86ed","2025-08-29_13h20.23.651",NA,NA,627.8826,627.8826,627.8826,628.2328,NA,NA,NA,NA,NA,NA,NA,TRUE,1,0.681,624.8839,627.8824,NA,NA,NA,NA,NA,95,33,0,52,52,79,1,2,53,"binary"
"78A3DC02B28A4FC08B54935A39CEA689",1,"0198f77c-3963-776b-878f-30e97a46e5eb","0198f767-55c9-7875-8d21-563b3c0b86ed","2025-08-29_13h20.23.651",NA,NA,631.2333,631.2333,631.2334,631.5664,NA,NA,NA,NA,NA,NA,NA,TRUE,1,0.616599998,628.2347,631.2331,NA,NA,NA,NA,NA,60,47,0,53,53,70,1,2,54,"binary"
"78A3DC02B28A4FC08B54935A39CEA689",1,"0198f77c-3963-776b-878f-30e97a46e5eb","0198f767-55c9-7875-8d21-563b3c0b86ed","2025-08-29_13h20.23.651",NA,NA,634.5669,634.5669,634.5669,634.9168,NA,NA,NA,NA,NA,NA,NA,TRUE,1,1.9175,631.5682,634.5667,NA,NA,NA,NA,NA,45,31,0,54,54,56,1,2,55,"binary"
"78A3DC02B28A4FC08B54935A39CEA689",1,"0198f77c-3963-776b-878f-30e97a46e5eb","0198f767-55c9-7875-8d21-563b3c0b86ed","2025-08-29_13h20.23.651",NA,NA,637.9173,637.9173,637.9173,638.2671,NA,NA,NA,NA,NA,NA,NA,TRUE,1,1.0006,634.9187,637.917,NA,NA,NA,NA,NA,7,25,0,55,55,0,1,2,56,"binary"
"78A3DC02B28A4FC08B54935A39CEA689",1,"0198f77c-3963-776b-878f-30e97a46e5eb","0198f767-55c9-7875-8d21-563b3c0b86ed","2025-08-29_13h20.23.651",NA,NA,641.2678,641.2678,641.2678,641.6174,NA,NA,NA,NA,NA,NA,NA,TRUE,1,1.0175,638.269,641.2676,NA,NA,NA,NA,NA,14,25,0,56,56,18,1,2,57,"binary"
"78A3DC02B28A4FC08B54935A39CEA689",1,"0198f77c-3963-776b-878f-30e97a46e5eb","0198f767-55c9-7875-8d21-563b3c0b86ed","2025-08-29_13h20.23.651",NA,NA,644.6188,644.6189,644.6189,644.9685,NA,NA,NA,NA,NA,NA,NA,TRUE,1,0.271700001,641.6192,644.6185,NA,NA,NA,NA,NA,10,26,0,57,57,7,1,2,58,"binary"
"78A3DC02B28A4FC08B54935A39CEA689",1,"0198f77c-3963-776b-878f-30e97a46e5eb","0198f767-55c9-7875-8d21-563b3c0b86ed","2025-08-29_13h20.23.651",NA,NA,647.9681,647.9682,647.9682,648.3177,NA,NA,NA,NA,NA,NA,NA,TRUE,1,1.0539,644.9713,647.968,NA,NA,NA,NA,NA,30,38,0,58,58,47,1,2,59,"binary"
"78A3DC02B28A4FC08B54935A39CEA689",1,"0198f77c-3963-776b-878f-30e97a46e5eb","0198f767-55c9-7875-8d21-563b3c0b86ed","2025-08-29_13h20.23.651",NA,NA,651.3185,651.3185,651.3186,651.6682,NA,NA,NA,NA,NA,NA,NA,TRUE,2,1.867299999,648.3195,651.3183,NA,NA,NA,NA,NA,10,29,0,59,59,9,1,2,60,"binary"
"78A3DC02B28A4FC08B54935A39CEA689",1,"0198f77c-3963-776b-878f-30e97a46e5eb","0198f767-55c9-7875-8d21-563b3c0b86ed","2025-08-29_13h20.23.651",NA,NA,654.6689,654.669,654.669,655.0186,NA,NA,NA,NA,NA,NA,NA,TRUE,1,1.384800001,651.6701,654.6688,NA,NA,NA,NA,NA,25,27,0,60,60,30,1,2,61,"binary"
"78A3DC02B28A4FC08B54935A39CEA689",1,"0198f77c-3963-776b-878f-30e97a46e5eb","0198f767-55c9-7875-8d21-563b3c0b86ed","2025-08-29_13h20.23.651",NA,NA,658.0191,658.0191,658.0191,658.3688,NA,NA,NA,NA,NA,NA,NA,TRUE,1,0.917,655.0205,658.0188,NA,NA,NA,NA,NA,100,26,0,61,61,84,1,2,62,"binary"
"78A3DC02B28A4FC08B54935A39CEA689",1,"0198f77c-3963-776b-878f-30e97a46e5eb","0198f767-55c9-7875-8d21-563b3c0b86ed","2025-08-29_13h20.23.651",NA,NA,661.3698,661.3698,661.3698,661.7187,NA,NA,NA,NA,NA,NA,NA,TRUE,1,1.054299999,658.3706,661.3696,NA,NA,NA,NA,NA,60,40,0,62,62,69,1,2,63,"binary"
"78A3DC02B28A4FC08B54935A39CEA689",1,"0198f77c-3963-776b-878f-30e97a46e5eb","0198f767-55c9-7875-8d21-563b3c0b86ed","2025-08-29_13h20.23.651",NA,NA,664.7195,664.7195,664.7195,665.0695,NA,NA,NA,NA,NA,NA,NA,TRUE,1,0.709200001,661.7204,664.7193,NA,NA,NA,NA,NA,180,35,0,63,63,98,1,2,64,"binary"
"78A3DC02B28A4FC08B54935A39CEA689",1,"0198f77c-3963-776b-878f-30e97a46e5eb","0198f767-55c9-7875-8d21-563b3c0b86ed","2025-08-29_13h20.23.651",NA,NA,668.0699,668.07,668.07,668.4197,NA,NA,NA,NA,NA,NA,NA,TRUE,1,0.8874,665.0713,668.0698,NA,NA,NA,NA,NA,150,54,0,64,64,95,1,2,65,"binary"
"78A3DC02B28A4FC08B54935A39CEA689",1,"0198f77c-3963-776b-878f-30e97a46e5eb","0198f767-55c9-7875-8d21-563b3c0b86ed","2025-08-29_13h20.23.651",NA,NA,671.4202,671.4203,671.4203,671.7702,NA,NA,NA,NA,NA,NA,NA,TRUE,1,1.6175,668.4216,671.4201,NA,NA,NA,NA,NA,200,28,0,65,65,103,1,2,66,"binary"
"78A3DC02B28A4FC08B54935A39CEA689",1,"0198f77c-3963-776b-878f-30e97a46e5eb","0198f767-55c9-7875-8d21-563b3c0b86ed","2025-08-29_13h20.23.651",NA,NA,674.7706,674.7707,674.7707,675.1204,NA,NA,NA,NA,NA,NA,NA,TRUE,1,0.922,671.772,674.7706,NA,NA,NA,NA,NA,180,27,0,66,66,96,1,2,67,"binary"
"78A3DC02B28A4FC08B54935A39CEA689",1,"0198f77c-3963-776b-878f-30e97a46e5eb","0198f767-55c9-7875-8d21-563b3c0b86ed","2025-08-29_13h20.23.651",NA,NA,678.1227,678.1227,678.1227,678.4709,NA,NA,NA,NA,NA,NA,NA,TRUE,1,1.600700001,675.1222,678.1222,NA,NA,NA,NA,NA,7,26,0,67,67,1,1,2,68,"binary"
"78A3DC02B28A4FC08B54935A39CEA689",1,"0198f77c-3963-776b-878f-30e97a46e5eb","0198f767-55c9-7875-8d21-563b3c0b86ed","2025-08-29_13h20.23.651",NA,NA,681.4712,681.4712,681.4712,681.821,NA,NA,NA,NA,NA,NA,NA,TRUE,1,1.284300001,678.4726,681.471,NA,NA,NA,NA,NA,90,46,0,68,68,76,1,2,69,"binary"
"78A3DC02B28A4FC08B54935A39CEA689",1,"0198f77c-3963-776b-878f-30e97a46e5eb","0198f767-55c9-7875-8d21-563b3c0b86ed","2025-08-29_13h20.23.651",NA,NA,684.8216,684.8217,684.8217,685.172,NA,NA,NA,NA,NA,NA,NA,TRUE,1,0.8344,681.8227,684.8214,NA,NA,NA,NA,NA,10,30,0,69,69,10,1,2,70,"binary"
"78A3DC02B28A4FC08B54935A39CEA689",1,"0198f77c-3963-776b-878f-30e97a46e5eb","0198f767-55c9-7875-8d21-563b3c0b86ed","2025-08-29_13h20.23.651",NA,NA,688.1717,688.1717,688.1718,688.5216,NA,NA,NA,NA,NA,NA,NA,TRUE,2,1.5835,685.1751,688.1716,NA,NA,NA,NA,NA,40,47,0,70,70,52,1,2,71,"binary"
"78A3DC02B28A4FC08B54935A39CEA689",1,"0198f77c-3963-776b-878f-30e97a46e5eb","0198f767-55c9-7875-8d21-563b3c0b86ed","2025-08-29_13h20.23.651",NA,NA,691.5221,691.5221,691.5221,691.8716,NA,NA,NA,NA,NA,NA,NA,TRUE,1,1.289799999,688.5233,691.5215,NA,NA,NA,NA,NA,50,27,0,71,71,60,1,2,72,"binary"
"78A3DC02B28A4FC08B54935A39CEA689",1,"0198f77c-3963-776b-878f-30e97a46e5eb","0198f767-55c9-7875-8d21-563b3c0b86ed","2025-08-29_13h20.23.651",NA,NA,694.8721,694.8722,694.8722,695.2224,NA,NA,NA,NA,NA,NA,NA,TRUE,2,1.4424,691.874,694.872,NA,NA,NA,NA,NA,12,33,0,72,72,16,1,2,73,"binary"
"78A3DC02B28A4FC08B54935A39CEA689",1,"0198f77c-3963-776b-878f-30e97a46e5eb","0198f767-55c9-7875-8d21-563b3c0b86ed","2025-08-29_13h20.23.651",NA,NA,698.2222,698.2222,698.2222,698.5722,NA,NA,NA,NA,NA,NA,NA,TRUE,1,1.7354,695.2243,698.222,NA,NA,NA,NA,NA,60,29,0,73,73,66,1,2,74,"binary"
"78A3DC02B28A4FC08B54935A39CEA689",1,"0198f77c-3963-776b-878f-30e97a46e5eb","0198f767-55c9-7875-8d21-563b3c0b86ed","2025-08-29_13h20.23.651",NA,NA,701.573,701.573,701.573,701.9232,NA,NA,NA,NA,NA,NA,NA,TRUE,1,1.0861,698.574,701.5728,NA,NA,NA,NA,NA,90,40,0,74,74,75,1,2,75,"binary"
"78A3DC02B28A4FC08B54935A39CEA689",1,"0198f77c-3963-776b-878f-30e97a46e5eb","0198f767-55c9-7875-8d21-563b3c0b86ed","2025-08-29_13h20.23.651",NA,NA,704.9233,704.9234,704.9234,705.2731,NA,NA,NA,NA,NA,NA,NA,TRUE,1,1.117300001,701.9254,704.9231,NA,NA,NA,NA,NA,95,31,0,75,75,78,1,2,76,"binary"
"78A3DC02B28A4FC08B54935A39CEA689",1,"0198f77c-3963-776b-878f-30e97a46e5eb","0198f767-55c9-7875-8d21-563b3c0b86ed","2025-08-29_13h20.23.651",NA,NA,708.2751,708.2751,708.2751,708.6242,NA,NA,NA,NA,NA,NA,NA,TRUE,1,1.3446,705.2749,708.2748,NA,NA,NA,NA,NA,100,46,0,76,76,88,1,2,77,"binary"
"78A3DC02B28A4FC08B54935A39CEA689",1,"0198f77c-3963-776b-878f-30e97a46e5eb","0198f767-55c9-7875-8d21-563b3c0b86ed","2025-08-29_13h20.23.651",NA,NA,711.6241,711.6241,711.6241,711.9737,NA,NA,NA,NA,NA,NA,NA,TRUE,1,1.7225,708.627,711.6239,NA,NA,NA,NA,NA,50,46,0,77,77,64,1,2,78,"binary"
"78A3DC02B28A4FC08B54935A39CEA689",1,"0198f77c-3963-776b-878f-30e97a46e5eb","0198f767-55c9-7875-8d21-563b3c0b86ed","2025-08-29_13h20.23.651",NA,NA,714.9742,714.9742,714.9742,715.324,NA,NA,NA,NA,NA,NA,NA,TRUE,2,2.100800001,711.9755,714.9739,NA,NA,NA,NA,NA,21,29,0,78,78,26,1,2,79,"binary"
"78A3DC02B28A4FC08B54935A39CEA689",1,"0198f77c-3963-776b-878f-30e97a46e5eb","0198f767-55c9-7875-8d21-563b3c0b86ed","2025-08-29_13h20.23.651",NA,NA,718.3244,718.3244,718.3245,718.6741,NA,NA,NA,NA,NA,NA,NA,TRUE,1,1.6346,715.3258,718.3243,NA,NA,NA,NA,NA,40,33,0,79,79,49,1,2,80,"binary"
"78A3DC02B28A4FC08B54935A39CEA689",1,"0198f77c-3963-776b-878f-30e97a46e5eb","0198f767-55c9-7875-8d21-563b3c0b86ed","2025-08-29_13h20.23.651",NA,NA,721.6757,721.6758,721.6759,722.0252,NA,NA,NA,NA,NA,NA,NA,TRUE,1,1.317799999,718.6759,721.6755,NA,NA,NA,NA,NA,7,28,0,80,80,2,1,2,81,"binary"
"78A3DC02B28A4FC08B54935A39CEA689",1,"0198f77c-3963-776b-878f-30e97a46e5eb","0198f767-55c9-7875-8d21-563b3c0b86ed","2025-08-29_13h20.23.651",NA,NA,725.0261,725.0262,725.0262,725.3759,NA,NA,NA,NA,NA,NA,NA,TRUE,1,1.217300001,722.0281,725.026,NA,NA,NA,NA,NA,90,26,0,81,81,72,1,2,82,"binary"
"78A3DC02B28A4FC08B54935A39CEA689",1,"0198f77c-3963-776b-878f-30e97a46e5eb","0198f767-55c9-7875-8d21-563b3c0b86ed","2025-08-29_13h20.23.651",NA,NA,728.3755,728.3756,728.3756,728.7251,NA,NA,NA,NA,NA,NA,NA,TRUE,1,0.896799999,725.3789,728.3754,NA,NA,NA,NA,NA,95,35,0,82,82,80,1,2,83,"binary"
"78A3DC02B28A4FC08B54935A39CEA689",1,"0198f77c-3963-776b-878f-30e97a46e5eb","0198f767-55c9-7875-8d21-563b3c0b86ed","2025-08-29_13h20.23.651",NA,NA,731.7257,731.7258,731.7258,732.0755,NA,NA,NA,NA,NA,NA,NA,TRUE,1,0.905799999,728.7269,731.7255,NA,NA,NA,NA,NA,150,33,0,83,83,91,1,2,84,"binary"
"78A3DC02B28A4FC08B54935A39CEA689",1,"0198f77c-3963-776b-878f-30e97a46e5eb","0198f767-55c9-7875-8d21-563b3c0b86ed","2025-08-29_13h20.23.651",NA,NA,735.0759,735.0759,735.0759,735.4258,NA,NA,NA,NA,NA,NA,NA,TRUE,1,1.8344,732.0773,735.0758,NA,NA,NA,NA,NA,25,46,0,84,84,35,1,2,85,"binary"
"78A3DC02B28A4FC08B54935A39CEA689",1,"0198f77c-3963-776b-878f-30e97a46e5eb","0198f767-55c9-7875-8d21-563b3c0b86ed","2025-08-29_13h20.23.651",NA,NA,738.4263,738.4263,738.4263,738.776,NA,NA,NA,NA,NA,NA,NA,TRUE,1,1.867699999,735.4276,738.4261,NA,NA,NA,NA,NA,180,31,0,85,85,97,1,2,86,"binary"
"78A3DC02B28A4FC08B54935A39CEA689",1,"0198f77c-3963-776b-878f-30e97a46e5eb","0198f767-55c9-7875-8d21-563b3c0b86ed","2025-08-29_13h20.23.651",NA,NA,741.7765,741.7766,741.7766,742.1264,NA,NA,NA,NA,NA,NA,NA,TRUE,2,1.8385,738.7778,741.7764,NA,NA,NA,NA,NA,21,30,0,86,86,27,1,2,87,"binary"
"78A3DC02B28A4FC08B54935A39CEA689",1,"0198f77c-3963-776b-878f-30e97a46e5eb","0198f767-55c9-7875-8d21-563b3c0b86ed","2025-08-29_13h20.23.651",NA,NA,745.1268,745.1269,745.1269,745.4767,NA,NA,NA,NA,NA,NA,NA,TRUE,1,1.9676,742.1282,745.1266,NA,NA,NA,NA,NA,10,25,0,87,87,6,1,2,88,"binary"
"78A3DC02B28A4FC08B54935A39CEA689",1,"0198f77c-3963-776b-878f-30e97a46e5eb","0198f767-55c9-7875-8d21-563b3c0b86ed","2025-08-29_13h20.23.651",NA,NA,748.4771,748.4772,748.4772,748.827,NA,NA,NA,NA,NA,NA,NA,TRUE,2,1.300800001,745.4785,748.4769,NA,NA,NA,NA,NA,30,32,0,88,88,46,1,2,89,"binary"
"78A3DC02B28A4FC08B54935A39CEA689",1,"0198f77c-3963-776b-878f-30e97a46e5eb","0198f767-55c9-7875-8d21-563b3c0b86ed","2025-08-29_13h20.23.651",NA,NA,751.8274,751.8274,751.8275,752.1774,NA,NA,NA,NA,NA,NA,NA,TRUE,2,1.348199999,748.8288,751.8272,NA,NA,NA,NA,NA,25,33,0,89,89,33,1,2,90,"binary"
"78A3DC02B28A4FC08B54935A39CEA689",1,"0198f77c-3963-776b-878f-30e97a46e5eb","0198f767-55c9-7875-8d21-563b3c0b86ed","2025-08-29_13h20.23.651",NA,NA,755.1778,755.1778,755.1778,755.5275,NA,NA,NA,NA,NA,NA,NA,TRUE,1,1.589699999,752.1791,755.1775,NA,NA,NA,NA,NA,90,30,0,90,90,73,1,2,91,"binary"
"78A3DC02B28A4FC08B54935A39CEA689",1,"0198f77c-3963-776b-878f-30e97a46e5eb","0198f767-55c9-7875-8d21-563b3c0b86ed","2025-08-29_13h20.23.651",NA,NA,758.528,758.5281,758.5281,758.8778,NA,NA,NA,NA,NA,NA,NA,TRUE,1,1.3389,755.5294,758.5278,NA,NA,NA,NA,NA,25,31,0,91,91,32,1,2,92,"binary"
"78A3DC02B28A4FC08B54935A39CEA689",1,"0198f77c-3963-776b-878f-30e97a46e5eb","0198f767-55c9-7875-8d21-563b3c0b86ed","2025-08-29_13h20.23.651",NA,NA,761.8781,761.8781,761.8781,762.2281,NA,NA,NA,NA,NA,NA,NA,TRUE,1,1.1021,758.8797,761.8779,NA,NA,NA,NA,NA,60,35,0,92,92,68,1,2,93,"binary"
"78A3DC02B28A4FC08B54935A39CEA689",1,"0198f77c-3963-776b-878f-30e97a46e5eb","0198f767-55c9-7875-8d21-563b3c0b86ed","2025-08-29_13h20.23.651",NA,NA,765.2286,765.2287,765.2287,765.5784,NA,NA,NA,NA,NA,NA,NA,TRUE,2,1.2476,762.2301,765.2285,NA,NA,NA,NA,NA,12,31,0,93,93,15,1,2,94,"binary"
"78A3DC02B28A4FC08B54935A39CEA689",1,"0198f77c-3963-776b-878f-30e97a46e5eb","0198f767-55c9-7875-8d21-563b3c0b86ed","2025-08-29_13h20.23.651",NA,NA,768.5791,768.5792,768.5792,768.9287,NA,NA,NA,NA,NA,NA,NA,TRUE,1,1.265299999,765.5803,768.5788,NA,NA,NA,NA,NA,180,46,0,94,94,100,1,2,95,"binary"
"78A3DC02B28A4FC08B54935A39CEA689",1,"0198f77c-3963-776b-878f-30e97a46e5eb","0198f767-55c9-7875-8d21-563b3c0b86ed","2025-08-29_13h20.23.651",NA,NA,771.9292,771.9293,771.9294,772.279,NA,NA,NA,NA,NA,NA,NA,TRUE,1,1.582,768.9307,771.9291,NA,NA,NA,NA,NA,14,39,0,95,95,23,1,2,96,"binary"
"78A3DC02B28A4FC08B54935A39CEA689",1,"0198f77c-3963-776b-878f-30e97a46e5eb","0198f767-55c9-7875-8d21-563b3c0b86ed","2025-08-29_13h20.23.651",NA,NA,775.2805,775.2806,775.2808,775.6302,NA,NA,NA,NA,NA,NA,NA,TRUE,2,2.748599998,772.2808,775.2803,NA,NA,NA,NA,NA,12,35,0,96,96,17,1,2,97,"binary"
"78A3DC02B28A4FC08B54935A39CEA689",1,"0198f77c-3963-776b-878f-30e97a46e5eb","0198f767-55c9-7875-8d21-563b3c0b86ed","2025-08-29_13h20.23.651",NA,NA,778.6298,778.6299,778.6299,778.9796,NA,NA,NA,NA,NA,NA,NA,TRUE,1,1.8131,775.6334,778.6296,NA,NA,NA,NA,NA,150,31,0,97,97,90,1,2,98,"binary"
"78A3DC02B28A4FC08B54935A39CEA689",1,"0198f77c-3963-776b-878f-30e97a46e5eb","0198f767-55c9-7875-8d21-563b3c0b86ed","2025-08-29_13h20.23.651",NA,NA,781.9807,781.9808,781.9808,782.3301,NA,NA,NA,NA,NA,NA,NA,TRUE,1,2.0855,778.9815,781.9803,NA,NA,NA,NA,NA,45,35,0,98,98,57,1,2,99,"binary"
"78A3DC02B28A4FC08B54935A39CEA689",1,"0198f77c-3963-776b-878f-30e97a46e5eb","0198f767-55c9-7875-8d21-563b3c0b86ed","2025-08-29_13h20.23.651",NA,NA,785.3304,785.3306,785.3306,785.6803,NA,NA,NA,NA,NA,NA,NA,TRUE,1,2.2321,782.3319,785.3303,NA,NA,NA,NA,NA,12,25,0,99,99,12,1,2,100,"binary"
"78A3DC02B28A4FC08B54935A39CEA689",1,"0198f77c-3963-776b-878f-30e97a46e5eb","0198f767-55c9-7875-8d21-563b3c0b86ed","2025-08-29_13h20.23.651",NA,NA,788.6808,788.6808,788.6808,789.0305,NA,NA,NA,NA,NA,NA,NA,TRUE,1,1.820099998,785.6827,788.6806,NA,NA,NA,NA,NA,28,26,0,100,100,36,1,2,101,"binary"
"78A3DC02B28A4FC08B54935A39CEA689",1,"0198f77c-3963-776b-878f-30e97a46e5eb","0198f767-55c9-7875-8d21-563b3c0b86ed","2025-08-29_13h20.23.651",NA,NA,792.0324,792.0325,792.0326,792.3817,NA,NA,NA,NA,NA,NA,NA,TRUE,1,1.1209,789.0324,792.0322,NA,NA,NA,NA,NA,100,31,0,101,101,85,1,2,102,"binary"
"78A3DC02B28A4FC08B54935A39CEA689",1,"0198f77c-3963-776b-878f-30e97a46e5eb","0198f767-55c9-7875-8d21-563b3c0b86ed","2025-08-29_13h20.23.651",NA,NA,795.3824,795.3826,795.3826,795.7321,NA,NA,NA,NA,NA,NA,NA,TRUE,1,1.0784,792.3847,795.3822,NA,NA,NA,NA,NA,21,27,0,102,102,25,1,2,103,"binary"
"78A3DC02B28A4FC08B54935A39CEA689",1,"0198f77c-3963-776b-878f-30e97a46e5eb","0198f767-55c9-7875-8d21-563b3c0b86ed","2025-08-29_13h20.23.651",NA,NA,798.7314,798.7315,798.7315,799.0812,NA,NA,NA,NA,NA,NA,NA,TRUE,1,1.31,795.7351,798.7312,NA,NA,NA,NA,NA,45,26,0,103,103,54,1,2,104,"binary"
"78A3DC02B28A4FC08B54935A39CEA689",1,"0198f77c-3963-776b-878f-30e97a46e5eb","0198f767-55c9-7875-8d21-563b3c0b86ed","2025-08-29_13h20.23.651",NA,NA,802.0816,802.0817,802.0817,802.4317,NA,NA,NA,NA,NA,NA,NA,TRUE,1,1.498700001,799.083,802.0814,NA,NA,NA,NA,NA,45,46,0,104,104,59,1,2,105,"binary"
"78A3DC02B28A4FC08B54935A39CEA689",1,"0198f77c-3963-776b-878f-30e97a46e5eb","0198f767-55c9-7875-8d21-563b3c0b86ed","2025-08-29_13h20.23.651",NA,NA,805.4318,805.4318,805.4319,805.7817,NA,NA,NA,NA,NA,NA,NA,TRUE,1,1.5725,802.4335,805.4317,NA,NA,NA,NA,NA,45,40,0,105,105,58,1,2,106,"binary"
"78A3DC02B28A4FC08B54935A39CEA689",1,"0198f77c-3963-776b-878f-30e97a46e5eb","0198f767-55c9-7875-8d21-563b3c0b86ed","2025-08-29_13h20.23.651",NA,NA,808.7822,808.7823,808.7823,809.1314,NA,NA,NA,NA,NA,NA,NA,TRUE,1,1.799,805.7834,808.782,NA,NA,NA,NA,NA,40,35,0,106,106,50,1,2,107,"binary"
"78A3DC02B28A4FC08B54935A39CEA689",1,"0198f77c-3963-776b-878f-30e97a46e5eb","0198f767-55c9-7875-8d21-563b3c0b86ed","2025-08-29_13h20.23.651",NA,NA,812.1328,812.3823,812.3824,812.4824,NA,NA,NA,NA,NA,NA,NA,FALSE,NA,NA,809.1339,812.1327,NA,NA,NA,NA,NA,200,39,0,107,107,105,1,2,108,"binary"
