"participant","session","assignmentId","projectId","date","practiceTrial.started","practiceTrial.stopped","tooLate.started","tooLate.stopped","blank.started","blank.stopped","trials_pract.thisRepN","trials_pract.thisTrialN","trials_pract.thisN","trials_pract.thisIndex","trials_pract.ran","delay_pract","amount_pract","responseMade","key","rt","trial.started","trial.stopped","trials.thisRepN","trials.thisTrialN","trials.thisN","trials.thisIndex","trials.ran","delay","amount","trials_2.thisRepN","trials_2.thisTrialN","trials_2.thisN","trials_2.thisIndex","trials_2.ran","block","trial","taskType"
"7AC8373AD14E4BD593197CAD7D85C323",1,"0198ecee-4bfa-7820-9385-39fbc1dc09ca","0198c47e-224f-7cc7-87e7-f5ab0011d1ce","2025-08-27_14h08.48.693",67.657,70.6454,70.6458,70.6463,70.6463,70.9953,0,0,0,2,1,14,45,TRUE,2,2.3046,NA,NA,NA,NA,NA,NA,NA,NA,NA,NA,NA,NA,NA,NA,0,1,"binary"
"7AC8373AD14E4BD593197CAD7D85C323",1,"0198ecee-4bfa-7820-9385-39fbc1dc09ca","0198c47e-224f-7cc7-87e7-f5ab0011d1ce","2025-08-27_14h08.48.693",70.9961,73.9954,73.9956,74.2455,74.2456,74.3455,0,1,1,4,1,30,40,FALSE,NA,NA,NA,NA,NA,NA,NA,NA,NA,NA,NA,NA,NA,NA,NA,NA,0,2,"binary"
"7AC8373AD14E4BD593197CAD7D85C323",1,"0198ecee-4bfa-7820-9385-39fbc1dc09ca","0198c47e-224f-7cc7-87e7-f5ab0011d1ce","2025-08-27_14h08.48.693",74.3474,77.3453,77.3455,77.3455,77.3455,77.6952,0,2,2,0,1,7,30,TRUE,2,1.6101,NA,NA,NA,NA,NA,NA,NA,NA,NA,NA,NA,NA,NA,NA,0,3,"binary"
"7AC8373AD14E4BD593197CAD7D85C323",1,"0198ecee-4bfa-7820-9385-39fbc1dc09ca","0198c47e-224f-7cc7-87e7-f5ab0011d1ce","2025-08-27_14h08.48.693",77.696,80.6953,80.6954,80.6954,80.6954,81.0452,0,3,3,3,1,3,27,TRUE,2,2.3148,NA,NA,NA,NA,NA,NA,NA,NA,NA,NA,NA,NA,NA,NA,0,4,"binary"
"7AC8373AD14E4BD593197CAD7D85C323",1,"0198ecee-4bfa-7820-9385-39fbc1dc09ca","0198c47e-224f-7cc7-87e7-f5ab0011d1ce","2025-08-27_14h08.48.693",81.0462,84.0451,84.0452,84.0452,84.0452,84.3951,0,4,4,1,1,100,50,TRUE,1,2.222,NA,NA,NA,NA,NA,NA,NA,NA,NA,NA,NA,NA,NA,NA,0,5,"binary"
"7AC8373AD14E4BD593197CAD7D85C323",1,"0198ecee-4bfa-7820-9385-39fbc1dc09ca","0198c47e-224f-7cc7-87e7-f5ab0011d1ce","2025-08-27_14h08.48.693",NA,NA,125.0455,125.0457,125.0459,125.3948,NA,NA,NA,NA,NA,NA,NA,TRUE,2,1.1884,122.0566,125.045,0,0,0,5,1,7,35,NA,NA,NA,NA,NA,1,1,"binary"
"7AC8373AD14E4BD593197CAD7D85C323",1,"0198ecee-4bfa-7820-9385-39fbc1dc09ca","0198c47e-224f-7cc7-87e7-f5ab0011d1ce","2025-08-27_14h08.48.693",NA,NA,128.3948,128.3948,128.3948,128.7446,NA,NA,NA,NA,NA,NA,NA,TRUE,1,1.23,125.3973,128.3947,0,1,1,26,1,21,29,NA,NA,NA,NA,NA,1,2,"binary"
"7AC8373AD14E4BD593197CAD7D85C323",1,"0198ecee-4bfa-7820-9385-39fbc1dc09ca","0198c47e-224f-7cc7-87e7-f5ab0011d1ce","2025-08-27_14h08.48.693",NA,NA,131.7448,131.7449,131.7449,132.0944,NA,NA,NA,NA,NA,NA,NA,TRUE,1,1.3762,128.7466,131.7446,0,2,2,45,1,30,30,NA,NA,NA,NA,NA,1,3,"binary"
"7AC8373AD14E4BD593197CAD7D85C323",1,"0198ecee-4bfa-7820-9385-39fbc1dc09ca","0198c47e-224f-7cc7-87e7-f5ab0011d1ce","2025-08-27_14h08.48.693",NA,NA,135.0946,135.0947,135.0947,135.4444,NA,NA,NA,NA,NA,NA,NA,TRUE,1,2.1329,132.096,135.0945,0,3,3,87,1,100,39,NA,NA,NA,NA,NA,1,4,"binary"
"7AC8373AD14E4BD593197CAD7D85C323",1,"0198ecee-4bfa-7820-9385-39fbc1dc09ca","0198c47e-224f-7cc7-87e7-f5ab0011d1ce","2025-08-27_14h08.48.693",NA,NA,138.4446,138.4446,138.4446,138.7945,NA,NA,NA,NA,NA,NA,NA,TRUE,2,1.2539,135.4466,138.4445,0,4,4,3,1,7,30,NA,NA,NA,NA,NA,1,5,"binary"
"7AC8373AD14E4BD593197CAD7D85C323",1,"0198ecee-4bfa-7820-9385-39fbc1dc09ca","0198c47e-224f-7cc7-87e7-f5ab0011d1ce","2025-08-27_14h08.48.693",NA,NA,141.7947,141.7947,141.7947,142.1442,NA,NA,NA,NA,NA,NA,NA,TRUE,2,1.1005,138.7971,141.7945,0,5,5,89,1,100,54,NA,NA,NA,NA,NA,1,6,"binary"
"7AC8373AD14E4BD593197CAD7D85C323",1,"0198ecee-4bfa-7820-9385-39fbc1dc09ca","0198c47e-224f-7cc7-87e7-f5ab0011d1ce","2025-08-27_14h08.48.693",NA,NA,145.1443,145.1443,145.1444,145.4942,NA,NA,NA,NA,NA,NA,NA,TRUE,1,1.6367,142.1452,145.1442,0,6,6,12,1,12,25,NA,NA,NA,NA,NA,1,7,"binary"
"7AC8373AD14E4BD593197CAD7D85C323",1,"0198ecee-4bfa-7820-9385-39fbc1dc09ca","0198c47e-224f-7cc7-87e7-f5ab0011d1ce","2025-08-27_14h08.48.693",NA,NA,148.4943,148.4943,148.4943,148.8444,NA,NA,NA,NA,NA,NA,NA,TRUE,1,1.0035,145.4954,148.4941,0,7,7,13,1,12,26,NA,NA,NA,NA,NA,1,8,"binary"
"7AC8373AD14E4BD593197CAD7D85C323",1,"0198ecee-4bfa-7820-9385-39fbc1dc09ca","0198c47e-224f-7cc7-87e7-f5ab0011d1ce","2025-08-27_14h08.48.693",NA,NA,151.8444,151.8444,151.8444,152.194,NA,NA,NA,NA,NA,NA,NA,TRUE,1,1.5874,148.8467,151.8442,0,8,8,75,1,90,40,NA,NA,NA,NA,NA,1,9,"binary"
"7AC8373AD14E4BD593197CAD7D85C323",1,"0198ecee-4bfa-7820-9385-39fbc1dc09ca","0198c47e-224f-7cc7-87e7-f5ab0011d1ce","2025-08-27_14h08.48.693",NA,NA,155.194,155.1941,155.1941,155.5442,NA,NA,NA,NA,NA,NA,NA,TRUE,1,1.3466,152.1967,155.194,0,9,9,96,1,180,27,NA,NA,NA,NA,NA,1,10,"binary"
"7AC8373AD14E4BD593197CAD7D85C323",1,"0198ecee-4bfa-7820-9385-39fbc1dc09ca","0198c47e-224f-7cc7-87e7-f5ab0011d1ce","2025-08-27_14h08.48.693",NA,NA,158.5442,158.5442,158.5442,158.8942,NA,NA,NA,NA,NA,NA,NA,TRUE,2,1.8048,155.5463,158.5441,0,10,10,58,1,45,40,NA,NA,NA,NA,NA,1,11,"binary"
"7AC8373AD14E4BD593197CAD7D85C323",1,"0198ecee-4bfa-7820-9385-39fbc1dc09ca","0198c47e-224f-7cc7-87e7-f5ab0011d1ce","2025-08-27_14h08.48.693",NA,NA,161.8943,161.8943,161.8943,162.244,NA,NA,NA,NA,NA,NA,NA,TRUE,1,1.2088,158.8965,161.8941,0,11,11,103,1,200,28,NA,NA,NA,NA,NA,1,12,"binary"
"7AC8373AD14E4BD593197CAD7D85C323",1,"0198ecee-4bfa-7820-9385-39fbc1dc09ca","0198c47e-224f-7cc7-87e7-f5ab0011d1ce","2025-08-27_14h08.48.693",NA,NA,165.2439,165.2439,165.2439,165.5939,NA,NA,NA,NA,NA,NA,NA,TRUE,1,1.1442,162.2459,165.2438,0,12,12,33,1,25,33,NA,NA,NA,NA,NA,1,13,"binary"
"7AC8373AD14E4BD593197CAD7D85C323",1,"0198ecee-4bfa-7820-9385-39fbc1dc09ca","0198c47e-224f-7cc7-87e7-f5ab0011d1ce","2025-08-27_14h08.48.693",NA,NA,168.5939,168.5939,168.5939,168.9437,NA,NA,NA,NA,NA,NA,NA,TRUE,1,1.1271,165.5954,168.5938,0,13,13,105,1,200,39,NA,NA,NA,NA,NA,1,14,"binary"
"7AC8373AD14E4BD593197CAD7D85C323",1,"0198ecee-4bfa-7820-9385-39fbc1dc09ca","0198c47e-224f-7cc7-87e7-f5ab0011d1ce","2025-08-27_14h08.48.693",NA,NA,171.9441,171.9442,171.9443,172.2937,NA,NA,NA,NA,NA,NA,NA,TRUE,1,1.4803,168.9446,171.944,0,14,14,6,1,10,25,NA,NA,NA,NA,NA,1,15,"binary"
"7AC8373AD14E4BD593197CAD7D85C323",1,"0198ecee-4bfa-7820-9385-39fbc1dc09ca","0198c47e-224f-7cc7-87e7-f5ab0011d1ce","2025-08-27_14h08.48.693",NA,NA,175.294,175.294,175.294,175.6437,NA,NA,NA,NA,NA,NA,NA,TRUE,1,0.9233,172.2949,175.2938,0,15,15,14,1,12,28,NA,NA,NA,NA,NA,1,16,"binary"
"7AC8373AD14E4BD593197CAD7D85C323",1,"0198ecee-4bfa-7820-9385-39fbc1dc09ca","0198c47e-224f-7cc7-87e7-f5ab0011d1ce","2025-08-27_14h08.48.693",NA,NA,178.6435,178.6435,178.6435,178.9937,NA,NA,NA,NA,NA,NA,NA,TRUE,1,1.15,175.6448,178.6434,0,16,16,92,1,150,35,NA,NA,NA,NA,NA,1,17,"binary"
"7AC8373AD14E4BD593197CAD7D85C323",1,"0198ecee-4bfa-7820-9385-39fbc1dc09ca","0198c47e-224f-7cc7-87e7-f5ab0011d1ce","2025-08-27_14h08.48.693",NA,NA,181.9941,181.9941,181.9941,182.3436,NA,NA,NA,NA,NA,NA,NA,TRUE,1,1.2959,178.9972,181.9939,0,17,17,78,1,95,31,NA,NA,NA,NA,NA,1,18,"binary"
"7AC8373AD14E4BD593197CAD7D85C323",1,"0198ecee-4bfa-7820-9385-39fbc1dc09ca","0198c47e-224f-7cc7-87e7-f5ab0011d1ce","2025-08-27_14h08.48.693",NA,NA,185.3439,185.3439,185.3439,185.6936,NA,NA,NA,NA,NA,NA,NA,TRUE,1,0.9578,182.3447,185.3438,0,18,18,48,1,40,27,NA,NA,NA,NA,NA,1,19,"binary"
"7AC8373AD14E4BD593197CAD7D85C323",1,"0198ecee-4bfa-7820-9385-39fbc1dc09ca","0198c47e-224f-7cc7-87e7-f5ab0011d1ce","2025-08-27_14h08.48.693",NA,NA,188.6936,188.6936,188.6936,189.0435,NA,NA,NA,NA,NA,NA,NA,TRUE,2,1.1886,185.6964,188.6934,0,19,19,4,1,7,32,NA,NA,NA,NA,NA,1,20,"binary"
"7AC8373AD14E4BD593197CAD7D85C323",1,"0198ecee-4bfa-7820-9385-39fbc1dc09ca","0198c47e-224f-7cc7-87e7-f5ab0011d1ce","2025-08-27_14h08.48.693",NA,NA,192.0437,192.0437,192.0437,192.3934,NA,NA,NA,NA,NA,NA,NA,TRUE,1,1.0433,189.0447,192.0435,0,20,20,62,1,50,35,NA,NA,NA,NA,NA,1,21,"binary"
"7AC8373AD14E4BD593197CAD7D85C323",1,"0198ecee-4bfa-7820-9385-39fbc1dc09ca","0198c47e-224f-7cc7-87e7-f5ab0011d1ce","2025-08-27_14h08.48.693",NA,NA,195.3935,195.3935,195.3935,195.7434,NA,NA,NA,NA,NA,NA,NA,TRUE,1,1.0386,192.3953,195.3933,0,21,21,46,1,30,32,NA,NA,NA,NA,NA,1,22,"binary"
"7AC8373AD14E4BD593197CAD7D85C323",1,"0198ecee-4bfa-7820-9385-39fbc1dc09ca","0198c47e-224f-7cc7-87e7-f5ab0011d1ce","2025-08-27_14h08.48.693",NA,NA,198.7435,198.7435,198.7435,199.0931,NA,NA,NA,NA,NA,NA,NA,TRUE,2,1.1242,195.7446,198.7434,0,22,22,35,1,25,46,NA,NA,NA,NA,NA,1,23,"binary"
"7AC8373AD14E4BD593197CAD7D85C323",1,"0198ecee-4bfa-7820-9385-39fbc1dc09ca","0198c47e-224f-7cc7-87e7-f5ab0011d1ce","2025-08-27_14h08.48.693",NA,NA,202.0934,202.0935,202.0935,202.4433,NA,NA,NA,NA,NA,NA,NA,TRUE,2,1.259,199.0939,202.0933,0,23,23,53,1,40,54,NA,NA,NA,NA,NA,1,24,"binary"
"7AC8373AD14E4BD593197CAD7D85C323",1,"0198ecee-4bfa-7820-9385-39fbc1dc09ca","0198c47e-224f-7cc7-87e7-f5ab0011d1ce","2025-08-27_14h08.48.693",NA,NA,205.4432,205.4432,205.4432,205.7932,NA,NA,NA,NA,NA,NA,NA,TRUE,1,1.1207,202.4446,205.4432,0,24,24,38,1,28,32,NA,NA,NA,NA,NA,1,25,"binary"
"7AC8373AD14E4BD593197CAD7D85C323",1,"0198ecee-4bfa-7820-9385-39fbc1dc09ca","0198c47e-224f-7cc7-87e7-f5ab0011d1ce","2025-08-27_14h08.48.693",NA,NA,208.7932,208.7932,208.7932,209.143,NA,NA,NA,NA,NA,NA,NA,TRUE,1,1.0583,205.7947,208.7931,0,25,25,0,1,7,25,NA,NA,NA,NA,NA,1,26,"binary"
"7AC8373AD14E4BD593197CAD7D85C323",1,"0198ecee-4bfa-7820-9385-39fbc1dc09ca","0198c47e-224f-7cc7-87e7-f5ab0011d1ce","2025-08-27_14h08.48.693",NA,NA,212.1431,212.1431,212.1431,212.493,NA,NA,NA,NA,NA,NA,NA,TRUE,1,1.3788,209.1445,212.1429,0,26,26,68,1,60,35,NA,NA,NA,NA,NA,1,27,"binary"
"7AC8373AD14E4BD593197CAD7D85C323",1,"0198ecee-4bfa-7820-9385-39fbc1dc09ca","0198c47e-224f-7cc7-87e7-f5ab0011d1ce","2025-08-27_14h08.48.693",NA,NA,215.493,215.493,215.493,215.8429,NA,NA,NA,NA,NA,NA,NA,TRUE,2,1.8786,212.494,215.4929,0,27,27,70,1,60,47,NA,NA,NA,NA,NA,1,28,"binary"
"7AC8373AD14E4BD593197CAD7D85C323",1,"0198ecee-4bfa-7820-9385-39fbc1dc09ca","0198c47e-224f-7cc7-87e7-f5ab0011d1ce","2025-08-27_14h08.48.693",NA,NA,218.8431,218.8431,218.8431,219.1929,NA,NA,NA,NA,NA,NA,NA,TRUE,1,0.954,215.8437,218.843,0,28,28,31,1,25,29,NA,NA,NA,NA,NA,1,29,"binary"
"7AC8373AD14E4BD593197CAD7D85C323",1,"0198ecee-4bfa-7820-9385-39fbc1dc09ca","0198c47e-224f-7cc7-87e7-f5ab0011d1ce","2025-08-27_14h08.48.693",NA,NA,222.1931,222.1931,222.1931,222.5429,NA,NA,NA,NA,NA,NA,NA,TRUE,1,1.1036,219.194,222.193,0,29,29,67,1,60,33,NA,NA,NA,NA,NA,1,30,"binary"
"7AC8373AD14E4BD593197CAD7D85C323",1,"0198ecee-4bfa-7820-9385-39fbc1dc09ca","0198c47e-224f-7cc7-87e7-f5ab0011d1ce","2025-08-27_14h08.48.693",NA,NA,225.5429,225.543,225.543,225.8929,NA,NA,NA,NA,NA,NA,NA,TRUE,1,1.0455,222.5444,225.5429,0,30,30,28,1,21,32,NA,NA,NA,NA,NA,1,31,"binary"
"7AC8373AD14E4BD593197CAD7D85C323",1,"0198ecee-4bfa-7820-9385-39fbc1dc09ca","0198c47e-224f-7cc7-87e7-f5ab0011d1ce","2025-08-27_14h08.48.693",NA,NA,228.8928,228.8928,228.8928,229.2426,NA,NA,NA,NA,NA,NA,NA,TRUE,1,1.8686,225.8955,228.8927,0,31,31,101,1,180,54,NA,NA,NA,NA,NA,1,32,"binary"
"7AC8373AD14E4BD593197CAD7D85C323",1,"0198ecee-4bfa-7820-9385-39fbc1dc09ca","0198c47e-224f-7cc7-87e7-f5ab0011d1ce","2025-08-27_14h08.48.693",NA,NA,232.243,232.2431,232.2431,232.5926,NA,NA,NA,NA,NA,NA,NA,TRUE,1,1.6196,229.2432,232.2429,0,32,32,30,1,25,27,NA,NA,NA,NA,NA,1,33,"binary"
"7AC8373AD14E4BD593197CAD7D85C323",1,"0198ecee-4bfa-7820-9385-39fbc1dc09ca","0198c47e-224f-7cc7-87e7-f5ab0011d1ce","2025-08-27_14h08.48.693",NA,NA,235.5927,235.5928,235.5928,235.9429,NA,NA,NA,NA,NA,NA,NA,TRUE,1,1.1211,232.594,235.5926,0,33,33,47,1,30,38,NA,NA,NA,NA,NA,1,34,"binary"
"7AC8373AD14E4BD593197CAD7D85C323",1,"0198ecee-4bfa-7820-9385-39fbc1dc09ca","0198c47e-224f-7cc7-87e7-f5ab0011d1ce","2025-08-27_14h08.48.693",NA,NA,238.943,238.9431,238.9431,239.2926,NA,NA,NA,NA,NA,NA,NA,TRUE,1,1.7014,235.9447,238.9428,0,34,34,1,1,7,26,NA,NA,NA,NA,NA,1,35,"binary"
"7AC8373AD14E4BD593197CAD7D85C323",1,"0198ecee-4bfa-7820-9385-39fbc1dc09ca","0198c47e-224f-7cc7-87e7-f5ab0011d1ce","2025-08-27_14h08.48.693",NA,NA,242.2925,242.2926,242.2926,242.6425,NA,NA,NA,NA,NA,NA,NA,TRUE,2,1.3416,239.2936,242.2925,0,35,35,22,1,14,35,NA,NA,NA,NA,NA,1,36,"binary"
"7AC8373AD14E4BD593197CAD7D85C323",1,"0198ecee-4bfa-7820-9385-39fbc1dc09ca","0198c47e-224f-7cc7-87e7-f5ab0011d1ce","2025-08-27_14h08.48.693",NA,NA,245.6423,245.6423,245.6424,245.9926,NA,NA,NA,NA,NA,NA,NA,TRUE,1,1.0921,242.6442,245.6422,0,36,36,57,1,45,35,NA,NA,NA,NA,NA,1,37,"binary"
"7AC8373AD14E4BD593197CAD7D85C323",1,"0198ecee-4bfa-7820-9385-39fbc1dc09ca","0198c47e-224f-7cc7-87e7-f5ab0011d1ce","2025-08-27_14h08.48.693",NA,NA,248.9927,248.9927,248.9927,249.3423,NA,NA,NA,NA,NA,NA,NA,TRUE,1,1.5815,245.9947,248.9925,0,37,37,69,1,60,40,NA,NA,NA,NA,NA,1,38,"binary"
"7AC8373AD14E4BD593197CAD7D85C323",1,"0198ecee-4bfa-7820-9385-39fbc1dc09ca","0198c47e-224f-7cc7-87e7-f5ab0011d1ce","2025-08-27_14h08.48.693",NA,NA,252.3423,252.3423,252.3424,252.6924,NA,NA,NA,NA,NA,NA,NA,TRUE,1,1.5388,249.3432,252.3423,0,38,38,98,1,180,35,NA,NA,NA,NA,NA,1,39,"binary"
"7AC8373AD14E4BD593197CAD7D85C323",1,"0198ecee-4bfa-7820-9385-39fbc1dc09ca","0198c47e-224f-7cc7-87e7-f5ab0011d1ce","2025-08-27_14h08.48.693",NA,NA,255.6923,255.6924,255.6924,256.0428,NA,NA,NA,NA,NA,NA,NA,TRUE,1,0.9393,252.694,255.6922,0,39,39,32,1,25,31,NA,NA,NA,NA,NA,1,40,"binary"
"7AC8373AD14E4BD593197CAD7D85C323",1,"0198ecee-4bfa-7820-9385-39fbc1dc09ca","0198c47e-224f-7cc7-87e7-f5ab0011d1ce","2025-08-27_14h08.48.693",NA,NA,259.0421,259.0421,259.0421,259.392,NA,NA,NA,NA,NA,NA,NA,TRUE,1,0.9227,256.0448,259.0421,0,40,40,2,1,7,28,NA,NA,NA,NA,NA,1,41,"binary"
"7AC8373AD14E4BD593197CAD7D85C323",1,"0198ecee-4bfa-7820-9385-39fbc1dc09ca","0198c47e-224f-7cc7-87e7-f5ab0011d1ce","2025-08-27_14h08.48.693",NA,NA,262.3922,262.3922,262.3922,262.7421,NA,NA,NA,NA,NA,NA,NA,TRUE,1,1.7642,259.3928,262.3921,0,41,41,49,1,40,33,NA,NA,NA,NA,NA,1,42,"binary"
"7AC8373AD14E4BD593197CAD7D85C323",1,"0198ecee-4bfa-7820-9385-39fbc1dc09ca","0198c47e-224f-7cc7-87e7-f5ab0011d1ce","2025-08-27_14h08.48.693",NA,NA,265.742,265.742,265.7421,266.0921,NA,NA,NA,NA,NA,NA,NA,TRUE,1,2.5196,262.7436,265.742,0,42,42,9,1,10,29,NA,NA,NA,NA,NA,1,43,"binary"
"7AC8373AD14E4BD593197CAD7D85C323",1,"0198ecee-4bfa-7820-9385-39fbc1dc09ca","0198c47e-224f-7cc7-87e7-f5ab0011d1ce","2025-08-27_14h08.48.693",NA,NA,269.0924,269.0924,269.0924,269.442,NA,NA,NA,NA,NA,NA,NA,TRUE,1,1.1553,266.0936,269.0922,0,43,43,77,1,90,54,NA,NA,NA,NA,NA,1,44,"binary"
"7AC8373AD14E4BD593197CAD7D85C323",1,"0198ecee-4bfa-7820-9385-39fbc1dc09ca","0198c47e-224f-7cc7-87e7-f5ab0011d1ce","2025-08-27_14h08.48.693",NA,NA,272.4421,272.4421,272.4421,272.7921,NA,NA,NA,NA,NA,NA,NA,TRUE,1,0.9807,269.4442,272.4421,0,44,44,25,1,21,27,NA,NA,NA,NA,NA,1,45,"binary"
"7AC8373AD14E4BD593197CAD7D85C323",1,"0198ecee-4bfa-7820-9385-39fbc1dc09ca","0198c47e-224f-7cc7-87e7-f5ab0011d1ce","2025-08-27_14h08.48.693",NA,NA,275.7918,275.7918,275.7918,276.1422,NA,NA,NA,NA,NA,NA,NA,TRUE,2,1.3635,272.7938,275.7917,0,45,45,16,1,12,33,NA,NA,NA,NA,NA,1,46,"binary"
"7AC8373AD14E4BD593197CAD7D85C323",1,"0198ecee-4bfa-7820-9385-39fbc1dc09ca","0198c47e-224f-7cc7-87e7-f5ab0011d1ce","2025-08-27_14h08.48.693",NA,NA,279.1421,279.1422,279.1422,279.4916,NA,NA,NA,NA,NA,NA,NA,TRUE,1,1.1133,276.145,279.142,0,46,46,7,1,10,26,NA,NA,NA,NA,NA,1,47,"binary"
"7AC8373AD14E4BD593197CAD7D85C323",1,"0198ecee-4bfa-7820-9385-39fbc1dc09ca","0198c47e-224f-7cc7-87e7-f5ab0011d1ce","2025-08-27_14h08.48.693",NA,NA,282.4921,282.4921,282.4921,282.8419,NA,NA,NA,NA,NA,NA,NA,TRUE,1,1.1988,279.4924,282.4919,0,47,47,29,1,21,38,NA,NA,NA,NA,NA,1,48,"binary"
"7AC8373AD14E4BD593197CAD7D85C323",1,"0198ecee-4bfa-7820-9385-39fbc1dc09ca","0198c47e-224f-7cc7-87e7-f5ab0011d1ce","2025-08-27_14h08.48.693",NA,NA,285.842,285.8421,285.8421,286.1916,NA,NA,NA,NA,NA,NA,NA,TRUE,1,1.1838,282.8437,285.8419,0,48,48,81,1,95,40,NA,NA,NA,NA,NA,1,49,"binary"
"7AC8373AD14E4BD593197CAD7D85C323",1,"0198ecee-4bfa-7820-9385-39fbc1dc09ca","0198c47e-224f-7cc7-87e7-f5ab0011d1ce","2025-08-27_14h08.48.693",NA,NA,289.1918,289.1918,289.1918,289.5416,NA,NA,NA,NA,NA,NA,NA,TRUE,1,1.326,286.1927,289.1917,0,49,49,88,1,100,46,NA,NA,NA,NA,NA,1,50,"binary"
"7AC8373AD14E4BD593197CAD7D85C323",1,"0198ecee-4bfa-7820-9385-39fbc1dc09ca","0198c47e-224f-7cc7-87e7-f5ab0011d1ce","2025-08-27_14h08.48.693",NA,NA,292.5418,292.5418,292.5418,292.8918,NA,NA,NA,NA,NA,NA,NA,TRUE,1,1.0082,289.5424,292.5417,0,50,50,61,1,50,30,NA,NA,NA,NA,NA,1,51,"binary"
"7AC8373AD14E4BD593197CAD7D85C323",1,"0198ecee-4bfa-7820-9385-39fbc1dc09ca","0198c47e-224f-7cc7-87e7-f5ab0011d1ce","2025-08-27_14h08.48.693",NA,NA,295.8919,295.8919,295.8919,296.2416,NA,NA,NA,NA,NA,NA,NA,TRUE,1,0.9362,292.8935,295.8917,0,51,51,93,1,150,40,NA,NA,NA,NA,NA,1,52,"binary"
"7AC8373AD14E4BD593197CAD7D85C323",1,"0198ecee-4bfa-7820-9385-39fbc1dc09ca","0198c47e-224f-7cc7-87e7-f5ab0011d1ce","2025-08-27_14h08.48.693",NA,NA,299.2418,299.2418,299.2419,299.5915,NA,NA,NA,NA,NA,NA,NA,TRUE,1,1.3135,296.2425,299.2416,0,52,52,79,1,95,33,NA,NA,NA,NA,NA,1,53,"binary"
"7AC8373AD14E4BD593197CAD7D85C323",1,"0198ecee-4bfa-7820-9385-39fbc1dc09ca","0198c47e-224f-7cc7-87e7-f5ab0011d1ce","2025-08-27_14h08.48.693",NA,NA,302.5916,302.5916,302.5916,302.9415,NA,NA,NA,NA,NA,NA,NA,TRUE,1,1.0509,299.5939,302.5914,0,53,53,39,1,28,35,NA,NA,NA,NA,NA,1,54,"binary"
"7AC8373AD14E4BD593197CAD7D85C323",1,"0198ecee-4bfa-7820-9385-39fbc1dc09ca","0198c47e-224f-7cc7-87e7-f5ab0011d1ce","2025-08-27_14h08.48.693",NA,NA,305.9414,305.9415,305.9415,306.2916,NA,NA,NA,NA,NA,NA,NA,TRUE,1,1.5019,302.943,305.9414,0,54,54,10,1,10,30,NA,NA,NA,NA,NA,1,55,"binary"
"7AC8373AD14E4BD593197CAD7D85C323",1,"0198ecee-4bfa-7820-9385-39fbc1dc09ca","0198c47e-224f-7cc7-87e7-f5ab0011d1ce","2025-08-27_14h08.48.693",NA,NA,309.2915,309.2916,309.2916,309.6414,NA,NA,NA,NA,NA,NA,NA,TRUE,1,1.0188,306.2929,309.2914,0,55,55,37,1,28,28,NA,NA,NA,NA,NA,1,56,"binary"
"7AC8373AD14E4BD593197CAD7D85C323",1,"0198ecee-4bfa-7820-9385-39fbc1dc09ca","0198c47e-224f-7cc7-87e7-f5ab0011d1ce","2025-08-27_14h08.48.693",NA,NA,312.6415,312.6415,312.6415,312.9911,NA,NA,NA,NA,NA,NA,NA,TRUE,1,0.8858,309.643,312.6414,0,56,56,50,1,40,35,NA,NA,NA,NA,NA,1,57,"binary"
"7AC8373AD14E4BD593197CAD7D85C323",1,"0198ecee-4bfa-7820-9385-39fbc1dc09ca","0198c47e-224f-7cc7-87e7-f5ab0011d1ce","2025-08-27_14h08.48.693",NA,NA,315.9914,315.9915,315.9915,316.341,NA,NA,NA,NA,NA,NA,NA,TRUE,1,0.8678,312.9926,315.9914,0,57,57,80,1,95,35,NA,NA,NA,NA,NA,1,58,"binary"
"7AC8373AD14E4BD593197CAD7D85C323",1,"0198ecee-4bfa-7820-9385-39fbc1dc09ca","0198c47e-224f-7cc7-87e7-f5ab0011d1ce","2025-08-27_14h08.48.693",NA,NA,319.3411,319.3411,319.3411,319.6911,NA,NA,NA,NA,NA,NA,NA,TRUE,1,0.8725,316.342,319.341,0,58,58,8,1,10,27,NA,NA,NA,NA,NA,1,59,"binary"
"7AC8373AD14E4BD593197CAD7D85C323",1,"0198ecee-4bfa-7820-9385-39fbc1dc09ca","0198c47e-224f-7cc7-87e7-f5ab0011d1ce","2025-08-27_14h08.48.693",NA,NA,322.6915,322.6915,322.6915,323.0411,NA,NA,NA,NA,NA,NA,NA,TRUE,1,2.3284,319.6928,322.6912,0,59,59,97,1,180,31,NA,NA,NA,NA,NA,1,60,"binary"
"7AC8373AD14E4BD593197CAD7D85C323",1,"0198ecee-4bfa-7820-9385-39fbc1dc09ca","0198c47e-224f-7cc7-87e7-f5ab0011d1ce","2025-08-27_14h08.48.693",NA,NA,326.0412,326.0412,326.0412,326.3912,NA,NA,NA,NA,NA,NA,NA,TRUE,1,1.7594,323.0424,326.0411,0,60,60,18,1,14,25,NA,NA,NA,NA,NA,1,61,"binary"
"7AC8373AD14E4BD593197CAD7D85C323",1,"0198ecee-4bfa-7820-9385-39fbc1dc09ca","0198c47e-224f-7cc7-87e7-f5ab0011d1ce","2025-08-27_14h08.48.693",NA,NA,329.3917,329.3917,329.3917,329.7411,NA,NA,NA,NA,NA,NA,NA,TRUE,1,0.7929,326.3936,329.3915,0,61,61,43,1,30,27,NA,NA,NA,NA,NA,1,62,"binary"
"7AC8373AD14E4BD593197CAD7D85C323",1,"0198ecee-4bfa-7820-9385-39fbc1dc09ca","0198c47e-224f-7cc7-87e7-f5ab0011d1ce","2025-08-27_14h08.48.693",NA,NA,332.741,332.741,332.741,333.091,NA,NA,NA,NA,NA,NA,NA,TRUE,1,0.7736,329.7425,332.7408,0,62,62,36,1,28,26,NA,NA,NA,NA,NA,1,63,"binary"
"7AC8373AD14E4BD593197CAD7D85C323",1,"0198ecee-4bfa-7820-9385-39fbc1dc09ca","0198c47e-224f-7cc7-87e7-f5ab0011d1ce","2025-08-27_14h08.48.693",NA,NA,336.0912,336.0912,336.0912,336.4407,NA,NA,NA,NA,NA,NA,NA,TRUE,1,0.8089,333.0928,336.0909,0,63,63,72,1,90,26,NA,NA,NA,NA,NA,1,64,"binary"
"7AC8373AD14E4BD593197CAD7D85C323",1,"0198ecee-4bfa-7820-9385-39fbc1dc09ca","0198c47e-224f-7cc7-87e7-f5ab0011d1ce","2025-08-27_14h08.48.693",NA,NA,339.4408,339.4408,339.4408,339.7911,NA,NA,NA,NA,NA,NA,NA,TRUE,1,1.1412,336.4417,339.4408,0,64,64,95,1,150,54,NA,NA,NA,NA,NA,1,65,"binary"
"7AC8373AD14E4BD593197CAD7D85C323",1,"0198ecee-4bfa-7820-9385-39fbc1dc09ca","0198c47e-224f-7cc7-87e7-f5ab0011d1ce","2025-08-27_14h08.48.693",NA,NA,342.7908,342.7908,342.7908,343.1409,NA,NA,NA,NA,NA,NA,NA,TRUE,1,0.9704,339.7927,342.7908,0,65,65,56,1,45,31,NA,NA,NA,NA,NA,1,66,"binary"
"7AC8373AD14E4BD593197CAD7D85C323",1,"0198ecee-4bfa-7820-9385-39fbc1dc09ca","0198c47e-224f-7cc7-87e7-f5ab0011d1ce","2025-08-27_14h08.48.693",NA,NA,346.1408,346.1409,346.1409,346.4907,NA,NA,NA,NA,NA,NA,NA,TRUE,1,0.9763,343.1435,346.1407,0,66,66,71,1,60,54,NA,NA,NA,NA,NA,1,67,"binary"
"7AC8373AD14E4BD593197CAD7D85C323",1,"0198ecee-4bfa-7820-9385-39fbc1dc09ca","0198c47e-224f-7cc7-87e7-f5ab0011d1ce","2025-08-27_14h08.48.693",NA,NA,349.4906,349.4906,349.4906,349.8407,NA,NA,NA,NA,NA,NA,NA,TRUE,1,0.775,346.4916,349.4905,0,67,67,82,1,95,47,NA,NA,NA,NA,NA,1,68,"binary"
"7AC8373AD14E4BD593197CAD7D85C323",1,"0198ecee-4bfa-7820-9385-39fbc1dc09ca","0198c47e-224f-7cc7-87e7-f5ab0011d1ce","2025-08-27_14h08.48.693",NA,NA,352.8409,352.8409,352.8409,353.1905,NA,NA,NA,NA,NA,NA,NA,TRUE,1,0.9869,349.8421,352.8408,0,68,68,55,1,45,29,NA,NA,NA,NA,NA,1,69,"binary"
"7AC8373AD14E4BD593197CAD7D85C323",1,"0198ecee-4bfa-7820-9385-39fbc1dc09ca","0198c47e-224f-7cc7-87e7-f5ab0011d1ce","2025-08-27_14h08.48.693",NA,NA,356.1907,356.1908,356.1908,356.5406,NA,NA,NA,NA,NA,NA,NA,TRUE,1,1.0914,353.1918,356.1906,0,69,69,106,1,200,47,NA,NA,NA,NA,NA,1,70,"binary"
"7AC8373AD14E4BD593197CAD7D85C323",1,"0198ecee-4bfa-7820-9385-39fbc1dc09ca","0198c47e-224f-7cc7-87e7-f5ab0011d1ce","2025-08-27_14h08.48.693",NA,NA,359.541,359.541,359.541,359.8905,NA,NA,NA,NA,NA,NA,NA,TRUE,1,0.7088,356.5425,359.5408,0,70,70,52,1,40,47,NA,NA,NA,NA,NA,1,71,"binary"
"7AC8373AD14E4BD593197CAD7D85C323",1,"0198ecee-4bfa-7820-9385-39fbc1dc09ca","0198c47e-224f-7cc7-87e7-f5ab0011d1ce","2025-08-27_14h08.48.693",NA,NA,362.8906,362.8906,362.8906,363.2406,NA,NA,NA,NA,NA,NA,NA,TRUE,1,1.0462,359.8916,362.8905,0,71,71,21,1,14,32,NA,NA,NA,NA,NA,1,72,"binary"
"7AC8373AD14E4BD593197CAD7D85C323",1,"0198ecee-4bfa-7820-9385-39fbc1dc09ca","0198c47e-224f-7cc7-87e7-f5ab0011d1ce","2025-08-27_14h08.48.693",NA,NA,366.2406,366.2406,366.2407,366.5906,NA,NA,NA,NA,NA,NA,NA,TRUE,1,0.9513,363.2425,366.2405,0,72,72,24,1,21,26,NA,NA,NA,NA,NA,1,73,"binary"
"7AC8373AD14E4BD593197CAD7D85C323",1,"0198ecee-4bfa-7820-9385-39fbc1dc09ca","0198c47e-224f-7cc7-87e7-f5ab0011d1ce","2025-08-27_14h08.48.693",NA,NA,369.5903,369.5903,369.5903,369.9404,NA,NA,NA,NA,NA,NA,NA,TRUE,1,0.9772,366.5927,369.5902,0,73,73,104,1,200,35,NA,NA,NA,NA,NA,1,74,"binary"
"7AC8373AD14E4BD593197CAD7D85C323",1,"0198ecee-4bfa-7820-9385-39fbc1dc09ca","0198c47e-224f-7cc7-87e7-f5ab0011d1ce","2025-08-27_14h08.48.693",NA,NA,372.9403,372.9403,372.9403,373.2904,NA,NA,NA,NA,NA,NA,NA,TRUE,1,0.6177,369.9419,372.9402,0,74,74,85,1,100,31,NA,NA,NA,NA,NA,1,75,"binary"
"7AC8373AD14E4BD593197CAD7D85C323",1,"0198ecee-4bfa-7820-9385-39fbc1dc09ca","0198c47e-224f-7cc7-87e7-f5ab0011d1ce","2025-08-27_14h08.48.693",NA,NA,376.2905,376.2905,376.2905,376.6401,NA,NA,NA,NA,NA,NA,NA,TRUE,1,0.9655,373.2923,376.2903,0,75,75,23,1,14,39,NA,NA,NA,NA,NA,1,76,"binary"
"7AC8373AD14E4BD593197CAD7D85C323",1,"0198ecee-4bfa-7820-9385-39fbc1dc09ca","0198c47e-224f-7cc7-87e7-f5ab0011d1ce","2025-08-27_14h08.48.693",NA,NA,379.6402,379.6403,379.6403,379.9901,NA,NA,NA,NA,NA,NA,NA,TRUE,1,0.6113,376.641,379.6401,0,76,76,76,1,90,46,NA,NA,NA,NA,NA,1,77,"binary"
"7AC8373AD14E4BD593197CAD7D85C323",1,"0198ecee-4bfa-7820-9385-39fbc1dc09ca","0198c47e-224f-7cc7-87e7-f5ab0011d1ce","2025-08-27_14h08.48.693",NA,NA,382.9903,382.9903,382.9903,383.34,NA,NA,NA,NA,NA,NA,NA,TRUE,1,2.7286,379.9911,382.9903,0,77,77,34,1,25,35,NA,NA,NA,NA,NA,1,78,"binary"
"7AC8373AD14E4BD593197CAD7D85C323",1,"0198ecee-4bfa-7820-9385-39fbc1dc09ca","0198c47e-224f-7cc7-87e7-f5ab0011d1ce","2025-08-27_14h08.48.693",NA,NA,386.3399,386.3399,386.3399,386.69,NA,NA,NA,NA,NA,NA,NA,TRUE,1,1.1146,383.3415,386.3398,0,78,78,94,1,150,47,NA,NA,NA,NA,NA,1,79,"binary"
"7AC8373AD14E4BD593197CAD7D85C323",1,"0198ecee-4bfa-7820-9385-39fbc1dc09ca","0198c47e-224f-7cc7-87e7-f5ab0011d1ce","2025-08-27_14h08.48.693",NA,NA,389.6902,389.6902,389.6902,390.04,NA,NA,NA,NA,NA,NA,NA,TRUE,1,2.034,386.691,389.6901,0,79,79,40,1,28,39,NA,NA,NA,NA,NA,1,80,"binary"
"7AC8373AD14E4BD593197CAD7D85C323",1,"0198ecee-4bfa-7820-9385-39fbc1dc09ca","0198c47e-224f-7cc7-87e7-f5ab0011d1ce","2025-08-27_14h08.48.693",NA,NA,393.0402,393.0402,393.0403,393.3901,NA,NA,NA,NA,NA,NA,NA,TRUE,1,0.7101,390.0418,393.0401,0,80,80,84,1,100,26,NA,NA,NA,NA,NA,1,81,"binary"
"7AC8373AD14E4BD593197CAD7D85C323",1,"0198ecee-4bfa-7820-9385-39fbc1dc09ca","0198c47e-224f-7cc7-87e7-f5ab0011d1ce","2025-08-27_14h08.48.693",NA,NA,396.3902,396.3902,396.3902,396.7398,NA,NA,NA,NA,NA,NA,NA,TRUE,1,0.5925,393.3923,396.3901,0,81,81,41,1,28,46,NA,NA,NA,NA,NA,1,82,"binary"
"7AC8373AD14E4BD593197CAD7D85C323",1,"0198ecee-4bfa-7820-9385-39fbc1dc09ca","0198c47e-224f-7cc7-87e7-f5ab0011d1ce","2025-08-27_14h08.48.693",NA,NA,399.7399,399.7399,399.7399,400.0898,NA,NA,NA,NA,NA,NA,NA,TRUE,1,0.6679,396.7423,399.7398,0,82,82,51,1,40,40,NA,NA,NA,NA,NA,1,83,"binary"
"7AC8373AD14E4BD593197CAD7D85C323",1,"0198ecee-4bfa-7820-9385-39fbc1dc09ca","0198c47e-224f-7cc7-87e7-f5ab0011d1ce","2025-08-27_14h08.48.693",NA,NA,403.09,403.09,403.09,403.4397,NA,NA,NA,NA,NA,NA,NA,TRUE,1,1.0976,400.0908,403.0899,0,83,83,20,1,14,28,NA,NA,NA,NA,NA,1,84,"binary"
"7AC8373AD14E4BD593197CAD7D85C323",1,"0198ecee-4bfa-7820-9385-39fbc1dc09ca","0198c47e-224f-7cc7-87e7-f5ab0011d1ce","2025-08-27_14h08.48.693",NA,NA,406.4398,406.4399,406.4399,406.7896,NA,NA,NA,NA,NA,NA,NA,TRUE,1,0.5889,403.4405,406.4398,0,84,84,86,1,100,38,NA,NA,NA,NA,NA,1,85,"binary"
"7AC8373AD14E4BD593197CAD7D85C323",1,"0198ecee-4bfa-7820-9385-39fbc1dc09ca","0198c47e-224f-7cc7-87e7-f5ab0011d1ce","2025-08-27_14h08.48.693",NA,NA,409.7896,409.7896,409.7896,410.1398,NA,NA,NA,NA,NA,NA,NA,TRUE,1,0.6682,406.7908,409.7896,0,85,85,90,1,150,31,NA,NA,NA,NA,NA,1,86,"binary"
"7AC8373AD14E4BD593197CAD7D85C323",1,"0198ecee-4bfa-7820-9385-39fbc1dc09ca","0198c47e-224f-7cc7-87e7-f5ab0011d1ce","2025-08-27_14h08.48.693",NA,NA,413.1396,413.1396,413.1396,413.4897,NA,NA,NA,NA,NA,NA,NA,TRUE,1,0.8206,410.1415,413.1395,0,86,86,83,1,95,54,NA,NA,NA,NA,NA,1,87,"binary"
"7AC8373AD14E4BD593197CAD7D85C323",1,"0198ecee-4bfa-7820-9385-39fbc1dc09ca","0198c47e-224f-7cc7-87e7-f5ab0011d1ce","2025-08-27_14h08.48.693",NA,NA,416.4899,416.4899,416.49,416.8396,NA,NA,NA,NA,NA,NA,NA,TRUE,1,0.8485,413.4911,416.4897,0,87,87,100,1,180,46,NA,NA,NA,NA,NA,1,88,"binary"
"7AC8373AD14E4BD593197CAD7D85C323",1,"0198ecee-4bfa-7820-9385-39fbc1dc09ca","0198c47e-224f-7cc7-87e7-f5ab0011d1ce","2025-08-27_14h08.48.693",NA,NA,419.8396,419.8396,419.8396,420.1896,NA,NA,NA,NA,NA,NA,NA,TRUE,1,1.1425,416.8409,419.8395,0,88,88,27,1,21,30,NA,NA,NA,NA,NA,1,89,"binary"
"7AC8373AD14E4BD593197CAD7D85C323",1,"0198ecee-4bfa-7820-9385-39fbc1dc09ca","0198c47e-224f-7cc7-87e7-f5ab0011d1ce","2025-08-27_14h08.48.693",NA,NA,423.1896,423.1896,423.1897,423.5393,NA,NA,NA,NA,NA,NA,NA,TRUE,1,0.9465,420.1908,423.1896,0,89,89,54,1,45,26,NA,NA,NA,NA,NA,1,90,"binary"
"7AC8373AD14E4BD593197CAD7D85C323",1,"0198ecee-4bfa-7820-9385-39fbc1dc09ca","0198c47e-224f-7cc7-87e7-f5ab0011d1ce","2025-08-27_14h08.48.693",NA,NA,426.5396,426.5397,426.5397,426.8893,NA,NA,NA,NA,NA,NA,NA,TRUE,1,1.0339,423.5406,426.5395,0,90,90,63,1,50,40,NA,NA,NA,NA,NA,1,91,"binary"
"7AC8373AD14E4BD593197CAD7D85C323",1,"0198ecee-4bfa-7820-9385-39fbc1dc09ca","0198c47e-224f-7cc7-87e7-f5ab0011d1ce","2025-08-27_14h08.48.693",NA,NA,429.8893,429.8893,429.8893,430.2393,NA,NA,NA,NA,NA,NA,NA,TRUE,1,0.9353,426.8902,429.8892,0,91,91,74,1,90,33,NA,NA,NA,NA,NA,1,92,"binary"
"7AC8373AD14E4BD593197CAD7D85C323",1,"0198ecee-4bfa-7820-9385-39fbc1dc09ca","0198c47e-224f-7cc7-87e7-f5ab0011d1ce","2025-08-27_14h08.48.693",NA,NA,433.2397,433.2397,433.2397,433.5893,NA,NA,NA,NA,NA,NA,NA,TRUE,1,0.795,430.2411,433.2395,0,92,92,60,1,50,27,NA,NA,NA,NA,NA,1,93,"binary"
"7AC8373AD14E4BD593197CAD7D85C323",1,"0198ecee-4bfa-7820-9385-39fbc1dc09ca","0198c47e-224f-7cc7-87e7-f5ab0011d1ce","2025-08-27_14h08.48.693",NA,NA,436.5893,436.5893,436.5893,436.9391,NA,NA,NA,NA,NA,NA,NA,TRUE,1,0.7445,433.5905,436.589,0,93,93,59,1,45,46,NA,NA,NA,NA,NA,1,94,"binary"
"7AC8373AD14E4BD593197CAD7D85C323",1,"0198ecee-4bfa-7820-9385-39fbc1dc09ca","0198c47e-224f-7cc7-87e7-f5ab0011d1ce","2025-08-27_14h08.48.693",NA,NA,439.9393,439.9393,439.9394,440.2889,NA,NA,NA,NA,NA,NA,NA,TRUE,1,0.7517,436.9408,439.9391,0,94,94,73,1,90,30,NA,NA,NA,NA,NA,1,95,"binary"
"7AC8373AD14E4BD593197CAD7D85C323",1,"0198ecee-4bfa-7820-9385-39fbc1dc09ca","0198c47e-224f-7cc7-87e7-f5ab0011d1ce","2025-08-27_14h08.48.693",NA,NA,443.2893,443.2893,443.2894,443.6391,NA,NA,NA,NA,NA,NA,NA,TRUE,1,0.5328,440.2899,443.2892,0,95,95,17,1,12,35,NA,NA,NA,NA,NA,1,96,"binary"
"7AC8373AD14E4BD593197CAD7D85C323",1,"0198ecee-4bfa-7820-9385-39fbc1dc09ca","0198c47e-224f-7cc7-87e7-f5ab0011d1ce","2025-08-27_14h08.48.693",NA,NA,446.6392,446.6392,446.6393,446.9889,NA,NA,NA,NA,NA,NA,NA,TRUE,1,0.5113,443.6408,446.639,0,96,96,19,1,14,26,NA,NA,NA,NA,NA,1,97,"binary"
"7AC8373AD14E4BD593197CAD7D85C323",1,"0198ecee-4bfa-7820-9385-39fbc1dc09ca","0198c47e-224f-7cc7-87e7-f5ab0011d1ce","2025-08-27_14h08.48.693",NA,NA,449.9888,449.9888,449.9888,450.3391,NA,NA,NA,NA,NA,NA,NA,TRUE,1,2.3585,446.9901,449.9887,0,97,97,15,1,12,31,NA,NA,NA,NA,NA,1,98,"binary"
"7AC8373AD14E4BD593197CAD7D85C323",1,"0198ecee-4bfa-7820-9385-39fbc1dc09ca","0198c47e-224f-7cc7-87e7-f5ab0011d1ce","2025-08-27_14h08.48.693",NA,NA,453.3393,453.3393,453.3393,453.6888,NA,NA,NA,NA,NA,NA,NA,TRUE,1,2.9372,450.3411,453.3392,0,98,98,11,1,10,32,NA,NA,NA,NA,NA,1,99,"binary"
"7AC8373AD14E4BD593197CAD7D85C323",1,"0198ecee-4bfa-7820-9385-39fbc1dc09ca","0198c47e-224f-7cc7-87e7-f5ab0011d1ce","2025-08-27_14h08.48.693",NA,NA,456.6891,456.6892,456.6892,457.0389,NA,NA,NA,NA,NA,NA,NA,TRUE,1,1.0717,453.6896,456.689,0,99,99,66,1,60,29,NA,NA,NA,NA,NA,1,100,"binary"
"7AC8373AD14E4BD593197CAD7D85C323",1,"0198ecee-4bfa-7820-9385-39fbc1dc09ca","0198c47e-224f-7cc7-87e7-f5ab0011d1ce","2025-08-27_14h08.48.693",NA,NA,460.0387,460.0387,460.0387,460.3888,NA,NA,NA,NA,NA,NA,NA,TRUE,1,0.885,457.0403,460.0386,0,100,100,44,1,30,29,NA,NA,NA,NA,NA,1,101,"binary"
"7AC8373AD14E4BD593197CAD7D85C323",1,"0198ecee-4bfa-7820-9385-39fbc1dc09ca","0198c47e-224f-7cc7-87e7-f5ab0011d1ce","2025-08-27_14h08.48.693",NA,NA,463.3889,463.3889,463.3889,463.7387,NA,NA,NA,NA,NA,NA,NA,TRUE,1,0.6304,460.3904,463.3888,0,101,101,102,1,200,26,NA,NA,NA,NA,NA,1,102,"binary"
"7AC8373AD14E4BD593197CAD7D85C323",1,"0198ecee-4bfa-7820-9385-39fbc1dc09ca","0198c47e-224f-7cc7-87e7-f5ab0011d1ce","2025-08-27_14h08.48.693",NA,NA,466.7388,466.7389,466.739,467.0887,NA,NA,NA,NA,NA,NA,NA,TRUE,1,0.8743,463.7405,466.7388,0,102,102,42,1,30,26,NA,NA,NA,NA,NA,1,103,"binary"
"7AC8373AD14E4BD593197CAD7D85C323",1,"0198ecee-4bfa-7820-9385-39fbc1dc09ca","0198c47e-224f-7cc7-87e7-f5ab0011d1ce","2025-08-27_14h08.48.693",NA,NA,470.0887,470.0887,470.0887,470.4387,NA,NA,NA,NA,NA,NA,NA,TRUE,1,0.5672,467.0899,470.0886,0,103,103,99,1,180,39,NA,NA,NA,NA,NA,1,104,"binary"
"7AC8373AD14E4BD593197CAD7D85C323",1,"0198ecee-4bfa-7820-9385-39fbc1dc09ca","0198c47e-224f-7cc7-87e7-f5ab0011d1ce","2025-08-27_14h08.48.693",NA,NA,473.4386,473.4386,473.4386,473.7885,NA,NA,NA,NA,NA,NA,NA,TRUE,1,0.5627,470.4402,473.4385,0,104,104,91,1,150,33,NA,NA,NA,NA,NA,1,105,"binary"
"7AC8373AD14E4BD593197CAD7D85C323",1,"0198ecee-4bfa-7820-9385-39fbc1dc09ca","0198c47e-224f-7cc7-87e7-f5ab0011d1ce","2025-08-27_14h08.48.693",NA,NA,476.7889,476.7889,476.7889,477.1385,NA,NA,NA,NA,NA,NA,NA,TRUE,1,0.9534,473.7897,476.7887,0,105,105,65,1,50,54,NA,NA,NA,NA,NA,1,106,"binary"
"7AC8373AD14E4BD593197CAD7D85C323",1,"0198ecee-4bfa-7820-9385-39fbc1dc09ca","0198c47e-224f-7cc7-87e7-f5ab0011d1ce","2025-08-27_14h08.48.693",NA,NA,480.1386,480.1386,480.1387,480.4885,NA,NA,NA,NA,NA,NA,NA,TRUE,1,0.6547,477.1398,480.1385,0,106,106,64,1,50,46,NA,NA,NA,NA,NA,1,107,"binary"
"7AC8373AD14E4BD593197CAD7D85C323",1,"0198ecee-4bfa-7820-9385-39fbc1dc09ca","0198c47e-224f-7cc7-87e7-f5ab0011d1ce","2025-08-27_14h08.48.693",NA,NA,483.4885,483.4885,483.4886,483.8383,NA,NA,NA,NA,NA,NA,NA,TRUE,1,0.6608,480.4903,483.4884,0,107,107,107,1,200,54,NA,NA,NA,NA,NA,1,108,"binary"
"7AC8373AD14E4BD593197CAD7D85C323",1,"0198ecee-4bfa-7820-9385-39fbc1dc09ca","0198c47e-224f-7cc7-87e7-f5ab0011d1ce","2025-08-27_14h08.48.693",NA,NA,489.6718,489.6718,489.6718,490.0216,NA,NA,NA,NA,NA,NA,NA,TRUE,1,0.8427,486.686,489.6717,NA,NA,NA,NA,NA,200,28,0,0,0,103,1,2,1,"binary"
"7AC8373AD14E4BD593197CAD7D85C323",1,"0198ecee-4bfa-7820-9385-39fbc1dc09ca","0198c47e-224f-7cc7-87e7-f5ab0011d1ce","2025-08-27_14h08.48.693",NA,NA,493.0218,493.0218,493.0218,493.3715,NA,NA,NA,NA,NA,NA,NA,TRUE,1,1.8174,490.0232,493.0216,NA,NA,NA,NA,NA,14,28,0,1,1,20,1,2,2,"binary"
"7AC8373AD14E4BD593197CAD7D85C323",1,"0198ecee-4bfa-7820-9385-39fbc1dc09ca","0198c47e-224f-7cc7-87e7-f5ab0011d1ce","2025-08-27_14h08.48.693",NA,NA,496.3716,496.3716,496.3716,496.7214,NA,NA,NA,NA,NA,NA,NA,TRUE,1,1.0697,493.3727,496.3715,NA,NA,NA,NA,NA,100,39,0,2,2,87,1,2,3,"binary"
"7AC8373AD14E4BD593197CAD7D85C323",1,"0198ecee-4bfa-7820-9385-39fbc1dc09ca","0198c47e-224f-7cc7-87e7-f5ab0011d1ce","2025-08-27_14h08.48.693",NA,NA,499.7215,499.7215,499.7215,500.0714,NA,NA,NA,NA,NA,NA,NA,TRUE,1,0.7357,496.7222,499.7214,NA,NA,NA,NA,NA,40,27,0,3,3,48,1,2,4,"binary"
"7AC8373AD14E4BD593197CAD7D85C323",1,"0198ecee-4bfa-7820-9385-39fbc1dc09ca","0198c47e-224f-7cc7-87e7-f5ab0011d1ce","2025-08-27_14h08.48.693",NA,NA,503.0714,503.0714,503.0714,503.4213,NA,NA,NA,NA,NA,NA,NA,TRUE,1,1.7406,500.0728,503.0713,NA,NA,NA,NA,NA,21,26,0,4,4,24,1,2,5,"binary"
"7AC8373AD14E4BD593197CAD7D85C323",1,"0198ecee-4bfa-7820-9385-39fbc1dc09ca","0198c47e-224f-7cc7-87e7-f5ab0011d1ce","2025-08-27_14h08.48.693",NA,NA,506.4215,506.4215,506.4215,506.7714,NA,NA,NA,NA,NA,NA,NA,TRUE,1,1.4286,503.4226,506.4213,NA,NA,NA,NA,NA,150,40,0,5,5,93,1,2,6,"binary"
"7AC8373AD14E4BD593197CAD7D85C323",1,"0198ecee-4bfa-7820-9385-39fbc1dc09ca","0198c47e-224f-7cc7-87e7-f5ab0011d1ce","2025-08-27_14h08.48.693",NA,NA,509.7714,509.7715,509.7715,510.1212,NA,NA,NA,NA,NA,NA,NA,TRUE,1,1.1747,506.7726,509.7713,NA,NA,NA,NA,NA,95,54,0,6,6,83,1,2,7,"binary"
"7AC8373AD14E4BD593197CAD7D85C323",1,"0198ecee-4bfa-7820-9385-39fbc1dc09ca","0198c47e-224f-7cc7-87e7-f5ab0011d1ce","2025-08-27_14h08.48.693",NA,NA,513.1212,513.1212,513.1212,513.4712,NA,NA,NA,NA,NA,NA,NA,TRUE,1,0.7377,510.1222,513.1212,NA,NA,NA,NA,NA,100,26,0,7,7,84,1,2,8,"binary"
"7AC8373AD14E4BD593197CAD7D85C323",1,"0198ecee-4bfa-7820-9385-39fbc1dc09ca","0198c47e-224f-7cc7-87e7-f5ab0011d1ce","2025-08-27_14h08.48.693",NA,NA,516.4714,516.4715,516.4715,516.821,NA,NA,NA,NA,NA,NA,NA,TRUE,1,0.6104,513.4729,516.4713,NA,NA,NA,NA,NA,150,47,0,8,8,94,1,2,9,"binary"
"7AC8373AD14E4BD593197CAD7D85C323",1,"0198ecee-4bfa-7820-9385-39fbc1dc09ca","0198c47e-224f-7cc7-87e7-f5ab0011d1ce","2025-08-27_14h08.48.693",NA,NA,519.8213,519.8214,519.8215,520.1709,NA,NA,NA,NA,NA,NA,NA,TRUE,1,0.9639,516.8218,519.8212,NA,NA,NA,NA,NA,45,26,0,9,9,54,1,2,10,"binary"
"7AC8373AD14E4BD593197CAD7D85C323",1,"0198ecee-4bfa-7820-9385-39fbc1dc09ca","0198c47e-224f-7cc7-87e7-f5ab0011d1ce","2025-08-27_14h08.48.693",NA,NA,523.1712,523.1712,523.1713,523.521,NA,NA,NA,NA,NA,NA,NA,TRUE,1,0.7427,520.1718,523.1711,NA,NA,NA,NA,NA,25,27,0,10,10,30,1,2,11,"binary"
"7AC8373AD14E4BD593197CAD7D85C323",1,"0198ecee-4bfa-7820-9385-39fbc1dc09ca","0198c47e-224f-7cc7-87e7-f5ab0011d1ce","2025-08-27_14h08.48.693",NA,NA,526.5212,526.5213,526.5213,526.8708,NA,NA,NA,NA,NA,NA,NA,TRUE,1,0.6542,523.5224,526.5211,NA,NA,NA,NA,NA,25,46,0,11,11,35,1,2,12,"binary"
"7AC8373AD14E4BD593197CAD7D85C323",1,"0198ecee-4bfa-7820-9385-39fbc1dc09ca","0198c47e-224f-7cc7-87e7-f5ab0011d1ce","2025-08-27_14h08.48.693",NA,NA,529.871,529.871,529.871,530.2208,NA,NA,NA,NA,NA,NA,NA,TRUE,1,0.846,526.8718,529.8709,NA,NA,NA,NA,NA,200,54,0,12,12,107,1,2,13,"binary"
"7AC8373AD14E4BD593197CAD7D85C323",1,"0198ecee-4bfa-7820-9385-39fbc1dc09ca","0198c47e-224f-7cc7-87e7-f5ab0011d1ce","2025-08-27_14h08.48.693",NA,NA,533.2212,533.2213,533.2213,533.5707,NA,NA,NA,NA,NA,NA,NA,TRUE,1,0.8721,530.2218,533.2211,NA,NA,NA,NA,NA,28,28,0,13,13,37,1,2,14,"binary"
"7AC8373AD14E4BD593197CAD7D85C323",1,"0198ecee-4bfa-7820-9385-39fbc1dc09ca","0198c47e-224f-7cc7-87e7-f5ab0011d1ce","2025-08-27_14h08.48.693",NA,NA,536.5708,536.5708,536.5708,536.9208,NA,NA,NA,NA,NA,NA,NA,TRUE,1,1.128,533.5722,536.5708,NA,NA,NA,NA,NA,10,30,0,14,14,10,1,2,15,"binary"
"7AC8373AD14E4BD593197CAD7D85C323",1,"0198ecee-4bfa-7820-9385-39fbc1dc09ca","0198c47e-224f-7cc7-87e7-f5ab0011d1ce","2025-08-27_14h08.48.693",NA,NA,539.9208,539.9209,539.9209,540.2707,NA,NA,NA,NA,NA,NA,NA,TRUE,1,0.7352,536.9227,539.9206,NA,NA,NA,NA,NA,45,29,0,15,15,55,1,2,16,"binary"
"7AC8373AD14E4BD593197CAD7D85C323",1,"0198ecee-4bfa-7820-9385-39fbc1dc09ca","0198c47e-224f-7cc7-87e7-f5ab0011d1ce","2025-08-27_14h08.48.693",NA,NA,543.2706,543.2707,543.2707,543.6205,NA,NA,NA,NA,NA,NA,NA,TRUE,1,0.8214,540.2722,543.2706,NA,NA,NA,NA,NA,30,30,0,16,16,45,1,2,17,"binary"
"7AC8373AD14E4BD593197CAD7D85C323",1,"0198ecee-4bfa-7820-9385-39fbc1dc09ca","0198c47e-224f-7cc7-87e7-f5ab0011d1ce","2025-08-27_14h08.48.693",NA,NA,546.621,546.621,546.621,546.9707,NA,NA,NA,NA,NA,NA,NA,TRUE,1,0.7905,543.6213,546.6208,NA,NA,NA,NA,NA,90,30,0,17,17,73,1,2,18,"binary"
"7AC8373AD14E4BD593197CAD7D85C323",1,"0198ecee-4bfa-7820-9385-39fbc1dc09ca","0198c47e-224f-7cc7-87e7-f5ab0011d1ce","2025-08-27_14h08.48.693",NA,NA,549.9709,549.9709,549.9709,550.3205,NA,NA,NA,NA,NA,NA,NA,TRUE,1,0.6498,546.9728,549.9707,NA,NA,NA,NA,NA,28,46,0,18,18,41,1,2,19,"binary"
"7AC8373AD14E4BD593197CAD7D85C323",1,"0198ecee-4bfa-7820-9385-39fbc1dc09ca","0198c47e-224f-7cc7-87e7-f5ab0011d1ce","2025-08-27_14h08.48.693",NA,NA,553.3206,553.3208,553.3209,553.6704,NA,NA,NA,NA,NA,NA,NA,TRUE,1,0.6231,550.3216,553.3206,NA,NA,NA,NA,NA,180,46,0,19,19,100,1,2,20,"binary"
"7AC8373AD14E4BD593197CAD7D85C323",1,"0198ecee-4bfa-7820-9385-39fbc1dc09ca","0198c47e-224f-7cc7-87e7-f5ab0011d1ce","2025-08-27_14h08.48.693",NA,NA,556.6705,556.6705,556.6705,557.0204,NA,NA,NA,NA,NA,NA,NA,TRUE,1,0.5639,553.6724,556.6703,NA,NA,NA,NA,NA,50,46,0,20,20,64,1,2,21,"binary"
"7AC8373AD14E4BD593197CAD7D85C323",1,"0198ecee-4bfa-7820-9385-39fbc1dc09ca","0198c47e-224f-7cc7-87e7-f5ab0011d1ce","2025-08-27_14h08.48.693",NA,NA,560.0205,560.0205,560.0205,560.3704,NA,NA,NA,NA,NA,NA,NA,TRUE,1,2.4439,557.0218,560.0203,NA,NA,NA,NA,NA,14,35,0,21,21,22,1,2,22,"binary"
"7AC8373AD14E4BD593197CAD7D85C323",1,"0198ecee-4bfa-7820-9385-39fbc1dc09ca","0198c47e-224f-7cc7-87e7-f5ab0011d1ce","2025-08-27_14h08.48.693",NA,NA,563.371,563.371,563.371,563.7201,NA,NA,NA,NA,NA,NA,NA,TRUE,1,1.1306,560.3736,563.3707,NA,NA,NA,NA,NA,100,46,0,22,22,88,1,2,23,"binary"
"7AC8373AD14E4BD593197CAD7D85C323",1,"0198ecee-4bfa-7820-9385-39fbc1dc09ca","0198c47e-224f-7cc7-87e7-f5ab0011d1ce","2025-08-27_14h08.48.693",NA,NA,566.7205,566.7205,566.7205,567.0703,NA,NA,NA,NA,NA,NA,NA,TRUE,1,0.71,563.7213,566.7204,NA,NA,NA,NA,NA,95,31,0,23,23,78,1,2,24,"binary"
"7AC8373AD14E4BD593197CAD7D85C323",1,"0198ecee-4bfa-7820-9385-39fbc1dc09ca","0198c47e-224f-7cc7-87e7-f5ab0011d1ce","2025-08-27_14h08.48.693",NA,NA,570.0701,570.0701,570.0701,570.4201,NA,NA,NA,NA,NA,NA,NA,TRUE,1,1.2435,567.0717,570.0701,NA,NA,NA,NA,NA,30,26,0,24,24,42,1,2,25,"binary"
"7AC8373AD14E4BD593197CAD7D85C323",1,"0198ecee-4bfa-7820-9385-39fbc1dc09ca","0198c47e-224f-7cc7-87e7-f5ab0011d1ce","2025-08-27_14h08.48.693",NA,NA,573.4203,573.4203,573.4203,573.7701,NA,NA,NA,NA,NA,NA,NA,TRUE,1,2.0271,570.4226,573.4202,NA,NA,NA,NA,NA,30,27,0,25,25,43,1,2,26,"binary"
"7AC8373AD14E4BD593197CAD7D85C323",1,"0198ecee-4bfa-7820-9385-39fbc1dc09ca","0198c47e-224f-7cc7-87e7-f5ab0011d1ce","2025-08-27_14h08.48.693",NA,NA,576.7702,576.7703,576.7703,577.1201,NA,NA,NA,NA,NA,NA,NA,TRUE,1,1.3519,573.7712,576.7701,NA,NA,NA,NA,NA,95,40,0,26,26,81,1,2,27,"binary"
"7AC8373AD14E4BD593197CAD7D85C323",1,"0198ecee-4bfa-7820-9385-39fbc1dc09ca","0198c47e-224f-7cc7-87e7-f5ab0011d1ce","2025-08-27_14h08.48.693",NA,NA,580.1202,580.1203,580.1204,580.4703,NA,NA,NA,NA,NA,NA,NA,TRUE,1,1.1897,577.1216,580.1201,NA,NA,NA,NA,NA,40,33,0,27,27,49,1,2,28,"binary"
"7AC8373AD14E4BD593197CAD7D85C323",1,"0198ecee-4bfa-7820-9385-39fbc1dc09ca","0198c47e-224f-7cc7-87e7-f5ab0011d1ce","2025-08-27_14h08.48.693",NA,NA,583.4699,583.47,583.47,583.82,NA,NA,NA,NA,NA,NA,NA,TRUE,1,1.0569,580.4723,583.4698,NA,NA,NA,NA,NA,12,25,0,28,28,12,1,2,29,"binary"
"7AC8373AD14E4BD593197CAD7D85C323",1,"0198ecee-4bfa-7820-9385-39fbc1dc09ca","0198c47e-224f-7cc7-87e7-f5ab0011d1ce","2025-08-27_14h08.48.693",NA,NA,586.8199,586.8199,586.8199,587.17,NA,NA,NA,NA,NA,NA,NA,TRUE,1,0.8828,583.8211,586.8198,NA,NA,NA,NA,NA,28,39,0,29,29,40,1,2,30,"binary"
"7AC8373AD14E4BD593197CAD7D85C323",1,"0198ecee-4bfa-7820-9385-39fbc1dc09ca","0198c47e-224f-7cc7-87e7-f5ab0011d1ce","2025-08-27_14h08.48.693",NA,NA,590.1701,590.1702,590.1702,590.5202,NA,NA,NA,NA,NA,NA,NA,TRUE,1,0.705,587.1724,590.17,NA,NA,NA,NA,NA,28,32,0,30,30,38,1,2,31,"binary"
"7AC8373AD14E4BD593197CAD7D85C323",1,"0198ecee-4bfa-7820-9385-39fbc1dc09ca","0198c47e-224f-7cc7-87e7-f5ab0011d1ce","2025-08-27_14h08.48.693",NA,NA,593.5198,593.5199,593.5199,593.8697,NA,NA,NA,NA,NA,NA,NA,TRUE,1,0.6001,590.5225,593.5198,NA,NA,NA,NA,NA,45,40,0,31,31,58,1,2,32,"binary"
"7AC8373AD14E4BD593197CAD7D85C323",1,"0198ecee-4bfa-7820-9385-39fbc1dc09ca","0198c47e-224f-7cc7-87e7-f5ab0011d1ce","2025-08-27_14h08.48.693",NA,NA,596.8697,596.8697,596.8697,597.2198,NA,NA,NA,NA,NA,NA,NA,TRUE,1,0.5973,593.8716,596.8696,NA,NA,NA,NA,NA,45,31,0,32,32,56,1,2,33,"binary"
"7AC8373AD14E4BD593197CAD7D85C323",1,"0198ecee-4bfa-7820-9385-39fbc1dc09ca","0198c47e-224f-7cc7-87e7-f5ab0011d1ce","2025-08-27_14h08.48.693",NA,NA,600.2199,600.2199,600.22,600.5698,NA,NA,NA,NA,NA,NA,NA,TRUE,1,0.5871,597.2214,600.2198,NA,NA,NA,NA,NA,21,29,0,33,33,26,1,2,34,"binary"
"7AC8373AD14E4BD593197CAD7D85C323",1,"0198ecee-4bfa-7820-9385-39fbc1dc09ca","0198c47e-224f-7cc7-87e7-f5ab0011d1ce","2025-08-27_14h08.48.693",NA,NA,603.5697,603.5697,603.5697,603.9197,NA,NA,NA,NA,NA,NA,NA,TRUE,1,1.6618,600.5723,603.5696,NA,NA,NA,NA,NA,50,27,0,34,34,60,1,2,35,"binary"
"7AC8373AD14E4BD593197CAD7D85C323",1,"0198ecee-4bfa-7820-9385-39fbc1dc09ca","0198c47e-224f-7cc7-87e7-f5ab0011d1ce","2025-08-27_14h08.48.693",NA,NA,606.9197,606.9197,606.9198,607.2696,NA,NA,NA,NA,NA,NA,NA,TRUE,1,1.8047,603.9211,606.9197,NA,NA,NA,NA,NA,200,35,0,35,35,104,1,2,36,"binary"
"7AC8373AD14E4BD593197CAD7D85C323",1,"0198ecee-4bfa-7820-9385-39fbc1dc09ca","0198c47e-224f-7cc7-87e7-f5ab0011d1ce","2025-08-27_14h08.48.693",NA,NA,610.2699,610.2699,610.2699,610.6195,NA,NA,NA,NA,NA,NA,NA,TRUE,1,2.2031,607.2714,610.2697,NA,NA,NA,NA,NA,21,38,0,36,36,29,1,2,37,"binary"
"7AC8373AD14E4BD593197CAD7D85C323",1,"0198ecee-4bfa-7820-9385-39fbc1dc09ca","0198c47e-224f-7cc7-87e7-f5ab0011d1ce","2025-08-27_14h08.48.693",NA,NA,613.6198,613.8695,613.8695,613.9697,NA,NA,NA,NA,NA,NA,NA,FALSE,NA,NA,610.6207,613.6195,NA,NA,NA,NA,NA,100,31,0,37,37,85,1,2,38,"binary"
"7AC8373AD14E4BD593197CAD7D85C323",1,"0198ecee-4bfa-7820-9385-39fbc1dc09ca","0198c47e-224f-7cc7-87e7-f5ab0011d1ce","2025-08-27_14h08.48.693",NA,NA,616.9696,616.9696,616.9697,617.3194,NA,NA,NA,NA,NA,NA,NA,TRUE,1,0.9274,613.972,616.9696,NA,NA,NA,NA,NA,10,26,0,38,38,7,1,2,39,"binary"
"7AC8373AD14E4BD593197CAD7D85C323",1,"0198ecee-4bfa-7820-9385-39fbc1dc09ca","0198c47e-224f-7cc7-87e7-f5ab0011d1ce","2025-08-27_14h08.48.693",NA,NA,620.3195,620.3195,620.3195,620.6693,NA,NA,NA,NA,NA,NA,NA,TRUE,1,0.8618,617.3215,620.3195,NA,NA,NA,NA,NA,150,33,0,39,39,91,1,2,40,"binary"
"7AC8373AD14E4BD593197CAD7D85C323",1,"0198ecee-4bfa-7820-9385-39fbc1dc09ca","0198c47e-224f-7cc7-87e7-f5ab0011d1ce","2025-08-27_14h08.48.693",NA,NA,623.6695,623.6695,623.6695,624.0192,NA,NA,NA,NA,NA,NA,NA,TRUE,1,0.9097,620.6707,623.6694,NA,NA,NA,NA,NA,30,29,0,40,40,44,1,2,41,"binary"
"7AC8373AD14E4BD593197CAD7D85C323",1,"0198ecee-4bfa-7820-9385-39fbc1dc09ca","0198c47e-224f-7cc7-87e7-f5ab0011d1ce","2025-08-27_14h08.48.693",NA,NA,627.0194,627.0195,627.0195,627.3692,NA,NA,NA,NA,NA,NA,NA,TRUE,1,0.7663,624.0223,627.0193,NA,NA,NA,NA,NA,12,35,0,41,41,17,1,2,42,"binary"
"7AC8373AD14E4BD593197CAD7D85C323",1,"0198ecee-4bfa-7820-9385-39fbc1dc09ca","0198c47e-224f-7cc7-87e7-f5ab0011d1ce","2025-08-27_14h08.48.693",NA,NA,630.3693,630.3693,630.3693,630.7191,NA,NA,NA,NA,NA,NA,NA,TRUE,1,1.9531,627.3714,630.3692,NA,NA,NA,NA,NA,10,29,0,42,42,9,1,2,43,"binary"
"7AC8373AD14E4BD593197CAD7D85C323",1,"0198ecee-4bfa-7820-9385-39fbc1dc09ca","0198c47e-224f-7cc7-87e7-f5ab0011d1ce","2025-08-27_14h08.48.693",NA,NA,633.7191,633.7192,633.7192,634.0689,NA,NA,NA,NA,NA,NA,NA,TRUE,1,1.383,630.7202,633.719,NA,NA,NA,NA,NA,95,33,0,43,43,79,1,2,44,"binary"
"7AC8373AD14E4BD593197CAD7D85C323",1,"0198ecee-4bfa-7820-9385-39fbc1dc09ca","0198c47e-224f-7cc7-87e7-f5ab0011d1ce","2025-08-27_14h08.48.693",NA,NA,637.069,637.069,637.069,637.4192,NA,NA,NA,NA,NA,NA,NA,TRUE,1,0.9246,634.0703,637.069,NA,NA,NA,NA,NA,150,31,0,44,44,90,1,2,45,"binary"
"7AC8373AD14E4BD593197CAD7D85C323",1,"0198ecee-4bfa-7820-9385-39fbc1dc09ca","0198c47e-224f-7cc7-87e7-f5ab0011d1ce","2025-08-27_14h08.48.693",NA,NA,640.4191,640.4192,640.4192,640.7693,NA,NA,NA,NA,NA,NA,NA,TRUE,1,0.718,637.421,640.4191,NA,NA,NA,NA,NA,14,26,0,45,45,19,1,2,46,"binary"
"7AC8373AD14E4BD593197CAD7D85C323",1,"0198ecee-4bfa-7820-9385-39fbc1dc09ca","0198c47e-224f-7cc7-87e7-f5ab0011d1ce","2025-08-27_14h08.48.693",NA,NA,643.7691,643.7691,643.7691,644.1194,NA,NA,NA,NA,NA,NA,NA,TRUE,1,1.7098,640.7714,643.769,NA,NA,NA,NA,NA,40,40,0,46,46,51,1,2,47,"binary"
"7AC8373AD14E4BD593197CAD7D85C323",1,"0198ecee-4bfa-7820-9385-39fbc1dc09ca","0198c47e-224f-7cc7-87e7-f5ab0011d1ce","2025-08-27_14h08.48.693",NA,NA,647.1189,647.1189,647.1189,647.4691,NA,NA,NA,NA,NA,NA,NA,TRUE,1,1.2086,644.1214,647.1188,NA,NA,NA,NA,NA,12,28,0,47,47,14,1,2,48,"binary"
"7AC8373AD14E4BD593197CAD7D85C323",1,"0198ecee-4bfa-7820-9385-39fbc1dc09ca","0198c47e-224f-7cc7-87e7-f5ab0011d1ce","2025-08-27_14h08.48.693",NA,NA,650.4693,650.4693,650.4693,650.8188,NA,NA,NA,NA,NA,NA,NA,TRUE,1,1.2074,647.471,650.4691,NA,NA,NA,NA,NA,60,29,0,48,48,66,1,2,49,"binary"
"7AC8373AD14E4BD593197CAD7D85C323",1,"0198ecee-4bfa-7820-9385-39fbc1dc09ca","0198c47e-224f-7cc7-87e7-f5ab0011d1ce","2025-08-27_14h08.48.693",NA,NA,653.8189,653.8189,653.8189,654.1687,NA,NA,NA,NA,NA,NA,NA,TRUE,1,1.194,650.8201,653.8188,NA,NA,NA,NA,NA,10,27,0,49,49,8,1,2,50,"binary"
"7AC8373AD14E4BD593197CAD7D85C323",1,"0198ecee-4bfa-7820-9385-39fbc1dc09ca","0198c47e-224f-7cc7-87e7-f5ab0011d1ce","2025-08-27_14h08.48.693",NA,NA,657.1687,657.1688,657.1688,657.5186,NA,NA,NA,NA,NA,NA,NA,TRUE,1,0.4885,654.1696,657.1687,NA,NA,NA,NA,NA,50,35,0,50,50,62,1,2,51,"binary"
"7AC8373AD14E4BD593197CAD7D85C323",1,"0198ecee-4bfa-7820-9385-39fbc1dc09ca","0198c47e-224f-7cc7-87e7-f5ab0011d1ce","2025-08-27_14h08.48.693",NA,NA,660.5189,660.5189,660.519,660.8685,NA,NA,NA,NA,NA,NA,NA,TRUE,1,0.7859,657.5195,660.5188,NA,NA,NA,NA,NA,50,30,0,51,51,61,1,2,52,"binary"
"7AC8373AD14E4BD593197CAD7D85C323",1,"0198ecee-4bfa-7820-9385-39fbc1dc09ca","0198c47e-224f-7cc7-87e7-f5ab0011d1ce","2025-08-27_14h08.48.693",NA,NA,663.8686,663.8686,663.8686,664.2185,NA,NA,NA,NA,NA,NA,NA,TRUE,1,0.5636,660.8694,663.8685,NA,NA,NA,NA,NA,200,39,0,52,52,105,1,2,53,"binary"
"7AC8373AD14E4BD593197CAD7D85C323",1,"0198ecee-4bfa-7820-9385-39fbc1dc09ca","0198c47e-224f-7cc7-87e7-f5ab0011d1ce","2025-08-27_14h08.48.693",NA,NA,667.2186,667.2186,667.2186,667.5688,NA,NA,NA,NA,NA,NA,NA,TRUE,1,0.4356,664.2207,667.2184,NA,NA,NA,NA,NA,25,35,0,53,53,34,1,2,54,"binary"
"7AC8373AD14E4BD593197CAD7D85C323",1,"0198ecee-4bfa-7820-9385-39fbc1dc09ca","0198c47e-224f-7cc7-87e7-f5ab0011d1ce","2025-08-27_14h08.48.693",NA,NA,670.5688,670.5688,670.5688,670.9183,NA,NA,NA,NA,NA,NA,NA,TRUE,1,1.3125,667.5712,670.5686,NA,NA,NA,NA,NA,45,46,0,54,54,59,1,2,55,"binary"
"7AC8373AD14E4BD593197CAD7D85C323",1,"0198ecee-4bfa-7820-9385-39fbc1dc09ca","0198c47e-224f-7cc7-87e7-f5ab0011d1ce","2025-08-27_14h08.48.693",NA,NA,673.9183,673.9183,673.9183,674.2684,NA,NA,NA,NA,NA,NA,NA,TRUE,1,1.2634,670.9193,673.9182,NA,NA,NA,NA,NA,180,27,0,55,55,96,1,2,56,"binary"
"7AC8373AD14E4BD593197CAD7D85C323",1,"0198ecee-4bfa-7820-9385-39fbc1dc09ca","0198c47e-224f-7cc7-87e7-f5ab0011d1ce","2025-08-27_14h08.48.693",NA,NA,677.2686,677.2686,677.2686,677.6184,NA,NA,NA,NA,NA,NA,NA,TRUE,1,1.4604,674.2705,677.2685,NA,NA,NA,NA,NA,30,32,0,56,56,46,1,2,57,"binary"
"7AC8373AD14E4BD593197CAD7D85C323",1,"0198ecee-4bfa-7820-9385-39fbc1dc09ca","0198c47e-224f-7cc7-87e7-f5ab0011d1ce","2025-08-27_14h08.48.693",NA,NA,680.6187,680.8682,680.8683,680.9683,NA,NA,NA,NA,NA,NA,NA,FALSE,NA,NA,677.6196,680.6185,NA,NA,NA,NA,NA,50,54,0,57,57,65,1,2,58,"binary"
"7AC8373AD14E4BD593197CAD7D85C323",1,"0198ecee-4bfa-7820-9385-39fbc1dc09ca","0198c47e-224f-7cc7-87e7-f5ab0011d1ce","2025-08-27_14h08.48.693",NA,NA,683.9684,683.9684,683.9685,684.3185,NA,NA,NA,NA,NA,NA,NA,TRUE,1,1.0819,680.9696,683.9683,NA,NA,NA,NA,NA,7,28,0,58,58,2,1,2,59,"binary"
"7AC8373AD14E4BD593197CAD7D85C323",1,"0198ecee-4bfa-7820-9385-39fbc1dc09ca","0198c47e-224f-7cc7-87e7-f5ab0011d1ce","2025-08-27_14h08.48.693",NA,NA,687.3184,687.3184,687.3185,687.668,NA,NA,NA,NA,NA,NA,NA,TRUE,1,1.4259,684.321,687.3183,NA,NA,NA,NA,NA,150,54,0,59,59,95,1,2,60,"binary"
"7AC8373AD14E4BD593197CAD7D85C323",1,"0198ecee-4bfa-7820-9385-39fbc1dc09ca","0198c47e-224f-7cc7-87e7-f5ab0011d1ce","2025-08-27_14h08.48.693",NA,NA,690.6686,690.6686,690.6686,691.018,NA,NA,NA,NA,NA,NA,NA,TRUE,1,0.8927,687.6691,690.6684,NA,NA,NA,NA,NA,12,26,0,60,60,13,1,2,61,"binary"
"7AC8373AD14E4BD593197CAD7D85C323",1,"0198ecee-4bfa-7820-9385-39fbc1dc09ca","0198c47e-224f-7cc7-87e7-f5ab0011d1ce","2025-08-27_14h08.48.693",NA,NA,694.0184,694.0184,694.0184,694.3684,NA,NA,NA,NA,NA,NA,NA,TRUE,1,0.6797,691.0192,694.0182,NA,NA,NA,NA,NA,25,33,0,61,61,33,1,2,62,"binary"
"7AC8373AD14E4BD593197CAD7D85C323",1,"0198ecee-4bfa-7820-9385-39fbc1dc09ca","0198c47e-224f-7cc7-87e7-f5ab0011d1ce","2025-08-27_14h08.48.693",NA,NA,697.3683,697.3684,697.3684,697.7178,NA,NA,NA,NA,NA,NA,NA,TRUE,1,0.9536,694.3704,697.3682,NA,NA,NA,NA,NA,100,38,0,62,62,86,1,2,63,"binary"
"7AC8373AD14E4BD593197CAD7D85C323",1,"0198ecee-4bfa-7820-9385-39fbc1dc09ca","0198c47e-224f-7cc7-87e7-f5ab0011d1ce","2025-08-27_14h08.48.693",NA,NA,700.718,700.718,700.718,701.0679,NA,NA,NA,NA,NA,NA,NA,TRUE,1,1.3236,697.7187,700.7179,NA,NA,NA,NA,NA,60,47,0,63,63,70,1,2,64,"binary"
"7AC8373AD14E4BD593197CAD7D85C323",1,"0198ecee-4bfa-7820-9385-39fbc1dc09ca","0198c47e-224f-7cc7-87e7-f5ab0011d1ce","2025-08-27_14h08.48.693",NA,NA,704.0681,704.0681,704.0681,704.418,NA,NA,NA,NA,NA,NA,NA,TRUE,1,1.5516,701.07,704.068,NA,NA,NA,NA,NA,25,31,0,64,64,32,1,2,65,"binary"
"7AC8373AD14E4BD593197CAD7D85C323",1,"0198ecee-4bfa-7820-9385-39fbc1dc09ca","0198c47e-224f-7cc7-87e7-f5ab0011d1ce","2025-08-27_14h08.48.693",NA,NA,707.4181,707.4182,707.4182,707.7678,NA,NA,NA,NA,NA,NA,NA,TRUE,1,1.3755,704.4203,707.418,NA,NA,NA,NA,NA,7,26,0,65,65,1,1,2,66,"binary"
"7AC8373AD14E4BD593197CAD7D85C323",1,"0198ecee-4bfa-7820-9385-39fbc1dc09ca","0198c47e-224f-7cc7-87e7-f5ab0011d1ce","2025-08-27_14h08.48.693",NA,NA,710.7679,710.768,710.768,711.1178,NA,NA,NA,NA,NA,NA,NA,TRUE,1,0.9986,707.7694,710.7678,NA,NA,NA,NA,NA,10,32,0,66,66,11,1,2,67,"binary"
"7AC8373AD14E4BD593197CAD7D85C323",1,"0198ecee-4bfa-7820-9385-39fbc1dc09ca","0198c47e-224f-7cc7-87e7-f5ab0011d1ce","2025-08-27_14h08.48.693",NA,NA,714.1179,714.1179,714.1179,714.4677,NA,NA,NA,NA,NA,NA,NA,TRUE,1,0.652,711.1202,714.1178,NA,NA,NA,NA,NA,7,32,0,67,67,4,1,2,68,"binary"
"7AC8373AD14E4BD593197CAD7D85C323",1,"0198ecee-4bfa-7820-9385-39fbc1dc09ca","0198c47e-224f-7cc7-87e7-f5ab0011d1ce","2025-08-27_14h08.48.693",NA,NA,717.4682,717.4682,717.4682,717.8176,NA,NA,NA,NA,NA,NA,NA,TRUE,1,0.8198,714.4695,717.4679,NA,NA,NA,NA,NA,25,29,0,68,68,31,1,2,69,"binary"
"7AC8373AD14E4BD593197CAD7D85C323",1,"0198ecee-4bfa-7820-9385-39fbc1dc09ca","0198c47e-224f-7cc7-87e7-f5ab0011d1ce","2025-08-27_14h08.48.693",NA,NA,720.8176,720.8177,720.8177,721.1676,NA,NA,NA,NA,NA,NA,NA,TRUE,1,0.919,717.819,720.8176,NA,NA,NA,NA,NA,95,35,0,69,69,80,1,2,70,"binary"
"7AC8373AD14E4BD593197CAD7D85C323",1,"0198ecee-4bfa-7820-9385-39fbc1dc09ca","0198c47e-224f-7cc7-87e7-f5ab0011d1ce","2025-08-27_14h08.48.693",NA,NA,724.1675,724.4175,724.4175,724.5175,NA,NA,NA,NA,NA,NA,NA,FALSE,NA,NA,721.169,724.1674,NA,NA,NA,NA,NA,180,54,0,70,70,101,1,2,71,"binary"
"7AC8373AD14E4BD593197CAD7D85C323",1,"0198ecee-4bfa-7820-9385-39fbc1dc09ca","0198c47e-224f-7cc7-87e7-f5ab0011d1ce","2025-08-27_14h08.48.693",NA,NA,727.5177,727.5177,727.5177,727.8674,NA,NA,NA,NA,NA,NA,NA,TRUE,1,0.6073,724.5189,727.5176,NA,NA,NA,NA,NA,40,35,0,71,71,50,1,2,72,"binary"
"7AC8373AD14E4BD593197CAD7D85C323",1,"0198ecee-4bfa-7820-9385-39fbc1dc09ca","0198c47e-224f-7cc7-87e7-f5ab0011d1ce","2025-08-27_14h08.48.693",NA,NA,730.8674,730.8674,730.8674,731.2175,NA,NA,NA,NA,NA,NA,NA,TRUE,1,0.7001,727.8684,730.8673,NA,NA,NA,NA,NA,200,26,0,72,72,102,1,2,73,"binary"
"7AC8373AD14E4BD593197CAD7D85C323",1,"0198ecee-4bfa-7820-9385-39fbc1dc09ca","0198c47e-224f-7cc7-87e7-f5ab0011d1ce","2025-08-27_14h08.48.693",NA,NA,734.2176,734.2176,734.2177,734.5675,NA,NA,NA,NA,NA,NA,NA,TRUE,1,1.4682,731.2193,734.2175,NA,NA,NA,NA,NA,90,40,0,73,73,75,1,2,74,"binary"
"7AC8373AD14E4BD593197CAD7D85C323",1,"0198ecee-4bfa-7820-9385-39fbc1dc09ca","0198c47e-224f-7cc7-87e7-f5ab0011d1ce","2025-08-27_14h08.48.693",NA,NA,737.5677,737.5677,737.5677,737.9173,NA,NA,NA,NA,NA,NA,NA,TRUE,1,1.9532,734.5693,737.5676,NA,NA,NA,NA,NA,180,35,0,74,74,98,1,2,75,"binary"
"7AC8373AD14E4BD593197CAD7D85C323",1,"0198ecee-4bfa-7820-9385-39fbc1dc09ca","0198c47e-224f-7cc7-87e7-f5ab0011d1ce","2025-08-27_14h08.48.693",NA,NA,740.9174,740.9174,740.9174,741.2674,NA,NA,NA,NA,NA,NA,NA,TRUE,1,1.4798,737.9185,740.9172,NA,NA,NA,NA,NA,45,35,0,75,75,57,1,2,76,"binary"
"7AC8373AD14E4BD593197CAD7D85C323",1,"0198ecee-4bfa-7820-9385-39fbc1dc09ca","0198c47e-224f-7cc7-87e7-f5ab0011d1ce","2025-08-27_14h08.48.693",NA,NA,744.2673,744.2673,744.2673,744.6172,NA,NA,NA,NA,NA,NA,NA,TRUE,1,1.4685,741.27,744.2672,NA,NA,NA,NA,NA,60,33,0,76,76,67,1,2,77,"binary"
"7AC8373AD14E4BD593197CAD7D85C323",1,"0198ecee-4bfa-7820-9385-39fbc1dc09ca","0198c47e-224f-7cc7-87e7-f5ab0011d1ce","2025-08-27_14h08.48.693",NA,NA,747.6174,747.6174,747.6174,747.9671,NA,NA,NA,NA,NA,NA,NA,TRUE,1,1.2965,744.6186,747.6173,NA,NA,NA,NA,NA,100,54,0,77,77,89,1,2,78,"binary"
"7AC8373AD14E4BD593197CAD7D85C323",1,"0198ecee-4bfa-7820-9385-39fbc1dc09ca","0198c47e-224f-7cc7-87e7-f5ab0011d1ce","2025-08-27_14h08.48.693",NA,NA,750.967,750.9671,750.9671,751.3169,NA,NA,NA,NA,NA,NA,NA,TRUE,1,0.8298,747.9697,750.967,NA,NA,NA,NA,NA,90,46,0,78,78,76,1,2,79,"binary"
"7AC8373AD14E4BD593197CAD7D85C323",1,"0198ecee-4bfa-7820-9385-39fbc1dc09ca","0198c47e-224f-7cc7-87e7-f5ab0011d1ce","2025-08-27_14h08.48.693",NA,NA,754.3168,754.3168,754.3168,754.6673,NA,NA,NA,NA,NA,NA,NA,TRUE,1,1.3527,751.3197,754.3168,NA,NA,NA,NA,NA,150,35,0,79,79,92,1,2,80,"binary"
"7AC8373AD14E4BD593197CAD7D85C323",1,"0198ecee-4bfa-7820-9385-39fbc1dc09ca","0198c47e-224f-7cc7-87e7-f5ab0011d1ce","2025-08-27_14h08.48.693",NA,NA,757.6671,757.6671,757.6671,758.0171,NA,NA,NA,NA,NA,NA,NA,TRUE,1,1.0899,754.6693,757.667,NA,NA,NA,NA,NA,90,54,0,80,80,77,1,2,81,"binary"
"7AC8373AD14E4BD593197CAD7D85C323",1,"0198ecee-4bfa-7820-9385-39fbc1dc09ca","0198c47e-224f-7cc7-87e7-f5ab0011d1ce","2025-08-27_14h08.48.693",NA,NA,761.017,761.017,761.017,761.3668,NA,NA,NA,NA,NA,NA,NA,TRUE,1,0.929,758.019,761.0168,NA,NA,NA,NA,NA,12,31,0,81,81,15,1,2,82,"binary"
"7AC8373AD14E4BD593197CAD7D85C323",1,"0198ecee-4bfa-7820-9385-39fbc1dc09ca","0198c47e-224f-7cc7-87e7-f5ab0011d1ce","2025-08-27_14h08.48.693",NA,NA,764.3668,764.3668,764.3668,764.7169,NA,NA,NA,NA,NA,NA,NA,TRUE,1,0.8068,761.3681,764.3667,NA,NA,NA,NA,NA,10,25,0,82,82,6,1,2,83,"binary"
"7AC8373AD14E4BD593197CAD7D85C323",1,"0198ecee-4bfa-7820-9385-39fbc1dc09ca","0198c47e-224f-7cc7-87e7-f5ab0011d1ce","2025-08-27_14h08.48.693",NA,NA,767.7173,767.7173,767.7174,768.0669,NA,NA,NA,NA,NA,NA,NA,TRUE,1,0.6342,764.7187,767.7171,NA,NA,NA,NA,NA,180,31,0,83,83,97,1,2,84,"binary"
"7AC8373AD14E4BD593197CAD7D85C323",1,"0198ecee-4bfa-7820-9385-39fbc1dc09ca","0198c47e-224f-7cc7-87e7-f5ab0011d1ce","2025-08-27_14h08.48.693",NA,NA,771.0669,771.0669,771.0669,771.4169,NA,NA,NA,NA,NA,NA,NA,TRUE,1,0.621,768.0683,771.0668,NA,NA,NA,NA,NA,180,39,0,84,84,99,1,2,85,"binary"
"7AC8373AD14E4BD593197CAD7D85C323",1,"0198ecee-4bfa-7820-9385-39fbc1dc09ca","0198c47e-224f-7cc7-87e7-f5ab0011d1ce","2025-08-27_14h08.48.693",NA,NA,774.4168,774.4168,774.4168,774.7666,NA,NA,NA,NA,NA,NA,NA,TRUE,1,1.0126,771.419,774.4166,NA,NA,NA,NA,NA,14,39,0,85,85,23,1,2,86,"binary"
"7AC8373AD14E4BD593197CAD7D85C323",1,"0198ecee-4bfa-7820-9385-39fbc1dc09ca","0198c47e-224f-7cc7-87e7-f5ab0011d1ce","2025-08-27_14h08.48.693",NA,NA,777.7667,777.7668,777.7668,778.1165,NA,NA,NA,NA,NA,NA,NA,TRUE,1,0.306,774.7687,777.7666,NA,NA,NA,NA,NA,40,54,0,86,86,53,1,2,87,"binary"
"7AC8373AD14E4BD593197CAD7D85C323",1,"0198ecee-4bfa-7820-9385-39fbc1dc09ca","0198c47e-224f-7cc7-87e7-f5ab0011d1ce","2025-08-27_14h08.48.693",NA,NA,781.1165,781.1165,781.1166,781.4667,NA,NA,NA,NA,NA,NA,NA,TRUE,1,0.6605,778.1172,781.1165,NA,NA,NA,NA,NA,90,33,0,87,87,74,1,2,88,"binary"
"7AC8373AD14E4BD593197CAD7D85C323",1,"0198ecee-4bfa-7820-9385-39fbc1dc09ca","0198c47e-224f-7cc7-87e7-f5ab0011d1ce","2025-08-27_14h08.48.693",NA,NA,784.4667,784.4668,784.4669,784.8164,NA,NA,NA,NA,NA,NA,NA,TRUE,1,1.0936,781.4691,784.4667,NA,NA,NA,NA,NA,95,47,0,88,88,82,1,2,89,"binary"
"7AC8373AD14E4BD593197CAD7D85C323",1,"0198ecee-4bfa-7820-9385-39fbc1dc09ca","0198c47e-224f-7cc7-87e7-f5ab0011d1ce","2025-08-27_14h08.48.693",NA,NA,787.8166,787.8167,787.8167,788.1663,NA,NA,NA,NA,NA,NA,NA,TRUE,1,0.9931,784.818,787.8165,NA,NA,NA,NA,NA,21,30,0,89,89,27,1,2,90,"binary"
"7AC8373AD14E4BD593197CAD7D85C323",1,"0198ecee-4bfa-7820-9385-39fbc1dc09ca","0198c47e-224f-7cc7-87e7-f5ab0011d1ce","2025-08-27_14h08.48.693",NA,NA,791.1662,791.1663,791.1663,791.5165,NA,NA,NA,NA,NA,NA,NA,TRUE,1,0.8505,788.1674,791.1662,NA,NA,NA,NA,NA,21,27,0,90,90,25,1,2,91,"binary"
"7AC8373AD14E4BD593197CAD7D85C323",1,"0198ecee-4bfa-7820-9385-39fbc1dc09ca","0198c47e-224f-7cc7-87e7-f5ab0011d1ce","2025-08-27_14h08.48.693",NA,NA,794.5166,794.5166,794.5166,794.8661,NA,NA,NA,NA,NA,NA,NA,TRUE,1,1.0048,791.5197,794.5163,NA,NA,NA,NA,NA,28,35,0,91,91,39,1,2,92,"binary"
"7AC8373AD14E4BD593197CAD7D85C323",1,"0198ecee-4bfa-7820-9385-39fbc1dc09ca","0198c47e-224f-7cc7-87e7-f5ab0011d1ce","2025-08-27_14h08.48.693",NA,NA,797.8666,797.8666,797.8666,798.2161,NA,NA,NA,NA,NA,NA,NA,TRUE,1,0.8122,794.8674,797.8664,NA,NA,NA,NA,NA,40,47,0,92,92,52,1,2,93,"binary"
"7AC8373AD14E4BD593197CAD7D85C323",1,"0198ecee-4bfa-7820-9385-39fbc1dc09ca","0198c47e-224f-7cc7-87e7-f5ab0011d1ce","2025-08-27_14h08.48.693",NA,NA,801.2162,801.2162,801.2163,801.5661,NA,NA,NA,NA,NA,NA,NA,TRUE,1,0.7258,798.2176,801.216,NA,NA,NA,NA,NA,7,35,0,93,93,5,1,2,94,"binary"
"7AC8373AD14E4BD593197CAD7D85C323",1,"0198ecee-4bfa-7820-9385-39fbc1dc09ca","0198c47e-224f-7cc7-87e7-f5ab0011d1ce","2025-08-27_14h08.48.693",NA,NA,804.5663,804.5663,804.5663,804.9159,NA,NA,NA,NA,NA,NA,NA,TRUE,1,1.9342,801.5674,804.5661,NA,NA,NA,NA,NA,60,35,0,94,94,68,1,2,95,"binary"
"7AC8373AD14E4BD593197CAD7D85C323",1,"0198ecee-4bfa-7820-9385-39fbc1dc09ca","0198c47e-224f-7cc7-87e7-f5ab0011d1ce","2025-08-27_14h08.48.693",NA,NA,807.9163,807.9163,807.9164,808.2659,NA,NA,NA,NA,NA,NA,NA,TRUE,1,1.5036,804.9168,807.9162,NA,NA,NA,NA,NA,200,47,0,95,95,106,1,2,96,"binary"
"7AC8373AD14E4BD593197CAD7D85C323",1,"0198ecee-4bfa-7820-9385-39fbc1dc09ca","0198c47e-224f-7cc7-87e7-f5ab0011d1ce","2025-08-27_14h08.48.693",NA,NA,811.2659,811.2659,811.266,811.616,NA,NA,NA,NA,NA,NA,NA,TRUE,1,0.6091,808.2667,811.2658,NA,NA,NA,NA,NA,7,25,0,96,96,0,1,2,97,"binary"
"7AC8373AD14E4BD593197CAD7D85C323",1,"0198ecee-4bfa-7820-9385-39fbc1dc09ca","0198c47e-224f-7cc7-87e7-f5ab0011d1ce","2025-08-27_14h08.48.693",NA,NA,814.6161,814.6161,814.6161,814.9658,NA,NA,NA,NA,NA,NA,NA,TRUE,1,0.7302,811.6179,814.616,NA,NA,NA,NA,NA,14,25,0,97,97,18,1,2,98,"binary"
"7AC8373AD14E4BD593197CAD7D85C323",1,"0198ecee-4bfa-7820-9385-39fbc1dc09ca","0198c47e-224f-7cc7-87e7-f5ab0011d1ce","2025-08-27_14h08.48.693",NA,NA,817.966,817.966,817.966,818.3163,NA,NA,NA,NA,NA,NA,NA,TRUE,1,0.5292,814.9673,817.9659,NA,NA,NA,NA,NA,7,30,0,98,98,3,1,2,99,"binary"
"7AC8373AD14E4BD593197CAD7D85C323",1,"0198ecee-4bfa-7820-9385-39fbc1dc09ca","0198c47e-224f-7cc7-87e7-f5ab0011d1ce","2025-08-27_14h08.48.693",NA,NA,821.3159,821.316,821.316,821.6658,NA,NA,NA,NA,NA,NA,NA,TRUE,1,0.5072,818.3186,821.3158,NA,NA,NA,NA,NA,60,40,0,99,99,69,1,2,100,"binary"
"7AC8373AD14E4BD593197CAD7D85C323",1,"0198ecee-4bfa-7820-9385-39fbc1dc09ca","0198c47e-224f-7cc7-87e7-f5ab0011d1ce","2025-08-27_14h08.48.693",NA,NA,824.6659,824.6659,824.6659,825.016,NA,NA,NA,NA,NA,NA,NA,TRUE,1,0.6312,821.6675,824.6658,NA,NA,NA,NA,NA,21,32,0,100,100,28,1,2,101,"binary"
"7AC8373AD14E4BD593197CAD7D85C323",1,"0198ecee-4bfa-7820-9385-39fbc1dc09ca","0198c47e-224f-7cc7-87e7-f5ab0011d1ce","2025-08-27_14h08.48.693",NA,NA,828.0159,828.0159,828.0159,828.3659,NA,NA,NA,NA,NA,NA,NA,TRUE,1,0.4918,825.0178,828.0158,NA,NA,NA,NA,NA,30,38,0,101,101,47,1,2,102,"binary"
"7AC8373AD14E4BD593197CAD7D85C323",1,"0198ecee-4bfa-7820-9385-39fbc1dc09ca","0198c47e-224f-7cc7-87e7-f5ab0011d1ce","2025-08-27_14h08.48.693",NA,NA,831.3655,831.3656,831.3656,831.7157,NA,NA,NA,NA,NA,NA,NA,TRUE,1,0.7626,828.3678,831.3655,NA,NA,NA,NA,NA,28,26,0,102,102,36,1,2,103,"binary"
"7AC8373AD14E4BD593197CAD7D85C323",1,"0198ecee-4bfa-7820-9385-39fbc1dc09ca","0198c47e-224f-7cc7-87e7-f5ab0011d1ce","2025-08-27_14h08.48.693",NA,NA,834.7159,834.7159,834.7159,835.0655,NA,NA,NA,NA,NA,NA,NA,TRUE,1,1.1575,831.7179,834.7158,NA,NA,NA,NA,NA,60,54,0,103,103,71,1,2,104,"binary"
"7AC8373AD14E4BD593197CAD7D85C323",1,"0198ecee-4bfa-7820-9385-39fbc1dc09ca","0198c47e-224f-7cc7-87e7-f5ab0011d1ce","2025-08-27_14h08.48.693",NA,NA,838.0658,838.0659,838.066,838.4154,NA,NA,NA,NA,NA,NA,NA,TRUE,1,0.8693,835.0663,838.0657,NA,NA,NA,NA,NA,14,32,0,104,104,21,1,2,105,"binary"
"7AC8373AD14E4BD593197CAD7D85C323",1,"0198ecee-4bfa-7820-9385-39fbc1dc09ca","0198c47e-224f-7cc7-87e7-f5ab0011d1ce","2025-08-27_14h08.48.693",NA,NA,841.4156,841.4156,841.4156,841.7653,NA,NA,NA,NA,NA,NA,NA,TRUE,1,0.924,838.4161,841.4155,NA,NA,NA,NA,NA,90,26,0,105,105,72,1,2,106,"binary"
"7AC8373AD14E4BD593197CAD7D85C323",1,"0198ecee-4bfa-7820-9385-39fbc1dc09ca","0198c47e-224f-7cc7-87e7-f5ab0011d1ce","2025-08-27_14h08.48.693",NA,NA,844.7657,844.7657,844.7657,845.1154,NA,NA,NA,NA,NA,NA,NA,TRUE,1,1.4225,841.7664,844.7656,NA,NA,NA,NA,NA,50,40,0,106,106,63,1,2,107,"binary"
"7AC8373AD14E4BD593197CAD7D85C323",1,"0198ecee-4bfa-7820-9385-39fbc1dc09ca","0198c47e-224f-7cc7-87e7-f5ab0011d1ce","2025-08-27_14h08.48.693",NA,NA,848.1157,848.1157,848.1157,848.4654,NA,NA,NA,NA,NA,NA,NA,TRUE,2,1.2367,845.1172,848.1155,NA,NA,NA,NA,NA,12,33,0,107,107,16,1,2,108,"binary"
