"participant","session","assignmentId","projectId","date","practiceTrial.started","practiceTrial.stopped","tooLate.started","tooLate.stopped","blank.started","blank.stopped","trials_pract.thisRepN","trials_pract.thisTrialN","trials_pract.thisN","trials_pract.thisIndex","trials_pract.ran","delay_pract","amount_pract","responseMade","key","rt","trial.started","trial.stopped","trials.thisRepN","trials.thisTrialN","trials.thisN","trials.thisIndex","trials.ran","delay","amount","trials_2.thisRepN","trials_2.thisTrialN","trials_2.thisN","trials_2.thisIndex","trials_2.ran","block","trial","taskType"
"8784FE690A76442085157931DB41E1FD",1,"01990a99-b9b5-7cb1-89fb-620b3453727b","01990a83-7673-7c0c-a792-bbd8fbbaf673","2025-09-02_09h24.45.574",23.2452,26.234,26.2347,26.2357,26.2358,26.5836,0,0,0,4,1,30,40,TRUE,1,1.0919,NA,NA,NA,NA,NA,NA,NA,NA,NA,NA,NA,NA,NA,NA,0,1,"binary"
"8784FE690A76442085157931DB41E1FD",1,"01990a99-b9b5-7cb1-89fb-620b3453727b","01990a83-7673-7c0c-a792-bbd8fbbaf673","2025-09-02_09h24.45.574",26.5862,29.5831,29.5832,29.5834,29.5834,29.9328,0,1,1,0,1,7,30,TRUE,1,1.1029,NA,NA,NA,NA,NA,NA,NA,NA,NA,NA,NA,NA,NA,NA,0,2,"binary"
"8784FE690A76442085157931DB41E1FD",1,"01990a99-b9b5-7cb1-89fb-620b3453727b","01990a83-7673-7c0c-a792-bbd8fbbaf673","2025-09-02_09h24.45.574",29.9348,32.9327,32.9327,32.9327,32.9327,33.2826,0,2,2,3,1,3,27,TRUE,1,1.2148,NA,NA,NA,NA,NA,NA,NA,NA,NA,NA,NA,NA,NA,NA,0,3,"binary"
"8784FE690A76442085157931DB41E1FD",1,"01990a99-b9b5-7cb1-89fb-620b3453727b","01990a83-7673-7c0c-a792-bbd8fbbaf673","2025-09-02_09h24.45.574",33.2848,36.2823,36.2825,36.2825,36.2825,36.6323,0,3,3,1,1,100,50,TRUE,1,2.1708,NA,NA,NA,NA,NA,NA,NA,NA,NA,NA,NA,NA,NA,NA,0,4,"binary"
"8784FE690A76442085157931DB41E1FD",1,"01990a99-b9b5-7cb1-89fb-620b3453727b","01990a83-7673-7c0c-a792-bbd8fbbaf673","2025-09-02_09h24.45.574",36.6345,39.6315,39.6316,39.6316,39.6316,39.9814,0,4,4,2,1,14,45,TRUE,1,1.062,NA,NA,NA,NA,NA,NA,NA,NA,NA,NA,NA,NA,NA,NA,0,5,"binary"
"8784FE690A76442085157931DB41E1FD",1,"01990a99-b9b5-7cb1-89fb-620b3453727b","01990a83-7673-7c0c-a792-bbd8fbbaf673","2025-09-02_09h24.45.574",NA,NA,55.4472,55.4477,55.4478,55.7962,NA,NA,NA,NA,NA,NA,NA,TRUE,1,1.0546,52.459,55.4468,0,0,0,65,1,50,54,NA,NA,NA,NA,NA,1,1,"binary"
"8784FE690A76442085157931DB41E1FD",1,"01990a99-b9b5-7cb1-89fb-620b3453727b","01990a83-7673-7c0c-a792-bbd8fbbaf673","2025-09-02_09h24.45.574",NA,NA,58.7965,58.7967,58.7967,59.1464,NA,NA,NA,NA,NA,NA,NA,TRUE,1,0.885,55.7972,58.7962,0,1,1,28,1,21,32,NA,NA,NA,NA,NA,1,2,"binary"
"8784FE690A76442085157931DB41E1FD",1,"01990a99-b9b5-7cb1-89fb-620b3453727b","01990a83-7673-7c0c-a792-bbd8fbbaf673","2025-09-02_09h24.45.574",NA,NA,62.1456,62.1456,62.1456,62.4957,NA,NA,NA,NA,NA,NA,NA,TRUE,1,0.9161,59.1484,62.1455,0,2,2,46,1,30,32,NA,NA,NA,NA,NA,1,3,"binary"
"8784FE690A76442085157931DB41E1FD",1,"01990a99-b9b5-7cb1-89fb-620b3453727b","01990a83-7673-7c0c-a792-bbd8fbbaf673","2025-09-02_09h24.45.574",NA,NA,65.4956,65.4958,65.4958,65.8453,NA,NA,NA,NA,NA,NA,NA,TRUE,1,0.7313,62.4972,65.4954,0,3,3,52,1,40,47,NA,NA,NA,NA,NA,1,4,"binary"
"8784FE690A76442085157931DB41E1FD",1,"01990a99-b9b5-7cb1-89fb-620b3453727b","01990a83-7673-7c0c-a792-bbd8fbbaf673","2025-09-02_09h24.45.574",NA,NA,68.8454,68.8454,68.8454,69.1947,NA,NA,NA,NA,NA,NA,NA,TRUE,1,1.0114,65.8481,68.8451,0,4,4,92,1,150,35,NA,NA,NA,NA,NA,1,5,"binary"
"8784FE690A76442085157931DB41E1FD",1,"01990a99-b9b5-7cb1-89fb-620b3453727b","01990a83-7673-7c0c-a792-bbd8fbbaf673","2025-09-02_09h24.45.574",NA,NA,72.1948,72.1949,72.1949,72.5445,NA,NA,NA,NA,NA,NA,NA,TRUE,1,0.6874,69.196,72.1946,0,5,5,75,1,90,40,NA,NA,NA,NA,NA,1,6,"binary"
"8784FE690A76442085157931DB41E1FD",1,"01990a99-b9b5-7cb1-89fb-620b3453727b","01990a83-7673-7c0c-a792-bbd8fbbaf673","2025-09-02_09h24.45.574",NA,NA,75.5445,75.5447,75.5447,75.8941,NA,NA,NA,NA,NA,NA,NA,TRUE,1,0.9402,72.5473,75.5441,0,6,6,100,1,180,46,NA,NA,NA,NA,NA,1,7,"binary"
"8784FE690A76442085157931DB41E1FD",1,"01990a99-b9b5-7cb1-89fb-620b3453727b","01990a83-7673-7c0c-a792-bbd8fbbaf673","2025-09-02_09h24.45.574",NA,NA,78.894,78.8942,78.8943,79.2433,NA,NA,NA,NA,NA,NA,NA,TRUE,1,0.7002,75.8967,78.8937,0,7,7,35,1,25,46,NA,NA,NA,NA,NA,1,8,"binary"
"8784FE690A76442085157931DB41E1FD",1,"01990a99-b9b5-7cb1-89fb-620b3453727b","01990a83-7673-7c0c-a792-bbd8fbbaf673","2025-09-02_09h24.45.574",NA,NA,82.2437,82.2438,82.2438,82.5935,NA,NA,NA,NA,NA,NA,NA,TRUE,1,0.6949,79.2442,82.2433,0,8,8,104,1,200,35,NA,NA,NA,NA,NA,1,9,"binary"
"8784FE690A76442085157931DB41E1FD",1,"01990a99-b9b5-7cb1-89fb-620b3453727b","01990a83-7673-7c0c-a792-bbd8fbbaf673","2025-09-02_09h24.45.574",NA,NA,85.5933,85.5933,85.5934,85.9429,NA,NA,NA,NA,NA,NA,NA,TRUE,1,0.7761,82.5961,85.593,0,9,9,89,1,100,54,NA,NA,NA,NA,NA,1,10,"binary"
"8784FE690A76442085157931DB41E1FD",1,"01990a99-b9b5-7cb1-89fb-620b3453727b","01990a83-7673-7c0c-a792-bbd8fbbaf673","2025-09-02_09h24.45.574",NA,NA,88.9429,88.9429,88.9429,89.2923,NA,NA,NA,NA,NA,NA,NA,TRUE,1,0.8185,85.9456,88.9426,0,10,10,48,1,40,27,NA,NA,NA,NA,NA,1,11,"binary"
"8784FE690A76442085157931DB41E1FD",1,"01990a99-b9b5-7cb1-89fb-620b3453727b","01990a83-7673-7c0c-a792-bbd8fbbaf673","2025-09-02_09h24.45.574",NA,NA,92.2921,92.2922,92.2922,92.6419,NA,NA,NA,NA,NA,NA,NA,TRUE,1,0.8048,89.2949,92.292,0,11,11,30,1,25,27,NA,NA,NA,NA,NA,1,12,"binary"
"8784FE690A76442085157931DB41E1FD",1,"01990a99-b9b5-7cb1-89fb-620b3453727b","01990a83-7673-7c0c-a792-bbd8fbbaf673","2025-09-02_09h24.45.574",NA,NA,95.6418,95.6419,95.6419,95.9917,NA,NA,NA,NA,NA,NA,NA,TRUE,1,0.6876,92.6441,95.6417,0,12,12,24,1,21,26,NA,NA,NA,NA,NA,1,13,"binary"
"8784FE690A76442085157931DB41E1FD",1,"01990a99-b9b5-7cb1-89fb-620b3453727b","01990a83-7673-7c0c-a792-bbd8fbbaf673","2025-09-02_09h24.45.574",NA,NA,98.9916,98.9916,98.9916,99.3412,NA,NA,NA,NA,NA,NA,NA,TRUE,1,0.907,95.994,98.9912,0,13,13,82,1,95,47,NA,NA,NA,NA,NA,1,14,"binary"
"8784FE690A76442085157931DB41E1FD",1,"01990a99-b9b5-7cb1-89fb-620b3453727b","01990a83-7673-7c0c-a792-bbd8fbbaf673","2025-09-02_09h24.45.574",NA,NA,102.3411,102.3413,102.3413,102.6907,NA,NA,NA,NA,NA,NA,NA,TRUE,1,0.5553,99.3436,102.3409,0,14,14,17,1,12,35,NA,NA,NA,NA,NA,1,15,"binary"
"8784FE690A76442085157931DB41E1FD",1,"01990a99-b9b5-7cb1-89fb-620b3453727b","01990a83-7673-7c0c-a792-bbd8fbbaf673","2025-09-02_09h24.45.574",NA,NA,105.6909,105.6911,105.6911,106.0405,NA,NA,NA,NA,NA,NA,NA,TRUE,1,0.7901,102.6934,105.6907,0,15,15,21,1,14,32,NA,NA,NA,NA,NA,1,16,"binary"
"8784FE690A76442085157931DB41E1FD",1,"01990a99-b9b5-7cb1-89fb-620b3453727b","01990a83-7673-7c0c-a792-bbd8fbbaf673","2025-09-02_09h24.45.574",NA,NA,109.0402,109.0402,109.0402,109.3896,NA,NA,NA,NA,NA,NA,NA,TRUE,1,0.6515,106.0437,109.0399,0,16,16,93,1,150,40,NA,NA,NA,NA,NA,1,17,"binary"
"8784FE690A76442085157931DB41E1FD",1,"01990a99-b9b5-7cb1-89fb-620b3453727b","01990a83-7673-7c0c-a792-bbd8fbbaf673","2025-09-02_09h24.45.574",NA,NA,112.3901,112.3901,112.3902,112.7395,NA,NA,NA,NA,NA,NA,NA,TRUE,1,0.6204,109.3904,112.39,0,17,17,18,1,14,25,NA,NA,NA,NA,NA,1,18,"binary"
"8784FE690A76442085157931DB41E1FD",1,"01990a99-b9b5-7cb1-89fb-620b3453727b","01990a83-7673-7c0c-a792-bbd8fbbaf673","2025-09-02_09h24.45.574",NA,NA,115.7388,115.7389,115.7389,116.0892,NA,NA,NA,NA,NA,NA,NA,TRUE,1,0.7514,112.7418,115.7387,0,18,18,61,1,50,30,NA,NA,NA,NA,NA,1,19,"binary"
"8784FE690A76442085157931DB41E1FD",1,"01990a99-b9b5-7cb1-89fb-620b3453727b","01990a83-7673-7c0c-a792-bbd8fbbaf673","2025-09-02_09h24.45.574",NA,NA,119.0889,119.0889,119.089,119.4387,NA,NA,NA,NA,NA,NA,NA,TRUE,1,0.6721,116.0917,119.0887,0,19,19,51,1,40,40,NA,NA,NA,NA,NA,1,20,"binary"
"8784FE690A76442085157931DB41E1FD",1,"01990a99-b9b5-7cb1-89fb-620b3453727b","01990a83-7673-7c0c-a792-bbd8fbbaf673","2025-09-02_09h24.45.574",NA,NA,122.4382,122.4383,122.4383,122.7885,NA,NA,NA,NA,NA,NA,NA,TRUE,1,0.6349,119.4407,122.4381,0,20,20,14,1,12,28,NA,NA,NA,NA,NA,1,21,"binary"
"8784FE690A76442085157931DB41E1FD",1,"01990a99-b9b5-7cb1-89fb-620b3453727b","01990a83-7673-7c0c-a792-bbd8fbbaf673","2025-09-02_09h24.45.574",NA,NA,125.7883,125.7884,125.7884,126.1379,NA,NA,NA,NA,NA,NA,NA,TRUE,1,0.7489,122.7907,125.7881,0,21,21,41,1,28,46,NA,NA,NA,NA,NA,1,22,"binary"
"8784FE690A76442085157931DB41E1FD",1,"01990a99-b9b5-7cb1-89fb-620b3453727b","01990a83-7673-7c0c-a792-bbd8fbbaf673","2025-09-02_09h24.45.574",NA,NA,129.1378,129.1379,129.1379,129.4876,NA,NA,NA,NA,NA,NA,NA,TRUE,1,0.6562,126.1402,129.1377,0,22,22,55,1,45,29,NA,NA,NA,NA,NA,1,23,"binary"
"8784FE690A76442085157931DB41E1FD",1,"01990a99-b9b5-7cb1-89fb-620b3453727b","01990a83-7673-7c0c-a792-bbd8fbbaf673","2025-09-02_09h24.45.574",NA,NA,132.4873,132.4873,132.4873,132.837,NA,NA,NA,NA,NA,NA,NA,TRUE,1,0.6028,129.4898,132.4871,0,23,23,80,1,95,35,NA,NA,NA,NA,NA,1,24,"binary"
"8784FE690A76442085157931DB41E1FD",1,"01990a99-b9b5-7cb1-89fb-620b3453727b","01990a83-7673-7c0c-a792-bbd8fbbaf673","2025-09-02_09h24.45.574",NA,NA,135.837,135.837,135.8371,136.1868,NA,NA,NA,NA,NA,NA,NA,TRUE,1,0.5328,132.8394,135.8368,0,24,24,69,1,60,40,NA,NA,NA,NA,NA,1,25,"binary"
"8784FE690A76442085157931DB41E1FD",1,"01990a99-b9b5-7cb1-89fb-620b3453727b","01990a83-7673-7c0c-a792-bbd8fbbaf673","2025-09-02_09h24.45.574",NA,NA,139.1865,139.1865,139.1865,139.5362,NA,NA,NA,NA,NA,NA,NA,TRUE,1,0.5842,136.1894,139.1864,0,25,25,37,1,28,28,NA,NA,NA,NA,NA,1,26,"binary"
"8784FE690A76442085157931DB41E1FD",1,"01990a99-b9b5-7cb1-89fb-620b3453727b","01990a83-7673-7c0c-a792-bbd8fbbaf673","2025-09-02_09h24.45.574",NA,NA,142.5359,142.536,142.536,142.8858,NA,NA,NA,NA,NA,NA,NA,TRUE,1,0.5858,139.5386,142.5358,0,26,26,60,1,50,27,NA,NA,NA,NA,NA,1,27,"binary"
"8784FE690A76442085157931DB41E1FD",1,"01990a99-b9b5-7cb1-89fb-620b3453727b","01990a83-7673-7c0c-a792-bbd8fbbaf673","2025-09-02_09h24.45.574",NA,NA,145.886,145.886,145.886,146.2356,NA,NA,NA,NA,NA,NA,NA,TRUE,1,0.9717,142.8886,145.8858,0,27,27,101,1,180,54,NA,NA,NA,NA,NA,1,28,"binary"
"8784FE690A76442085157931DB41E1FD",1,"01990a99-b9b5-7cb1-89fb-620b3453727b","01990a83-7673-7c0c-a792-bbd8fbbaf673","2025-09-02_09h24.45.574",NA,NA,149.2353,149.2353,149.2353,149.5851,NA,NA,NA,NA,NA,NA,NA,TRUE,1,0.7028,146.2381,149.2351,0,28,28,11,1,10,32,NA,NA,NA,NA,NA,1,29,"binary"
"8784FE690A76442085157931DB41E1FD",1,"01990a99-b9b5-7cb1-89fb-620b3453727b","01990a83-7673-7c0c-a792-bbd8fbbaf673","2025-09-02_09h24.45.574",NA,NA,152.6015,152.6016,152.6016,152.9347,NA,NA,NA,NA,NA,NA,NA,TRUE,1,0.6244,149.5875,152.6013,0,29,29,36,1,28,26,NA,NA,NA,NA,NA,1,30,"binary"
"8784FE690A76442085157931DB41E1FD",1,"01990a99-b9b5-7cb1-89fb-620b3453727b","01990a83-7673-7c0c-a792-bbd8fbbaf673","2025-09-02_09h24.45.574",NA,NA,155.9513,155.9516,155.9517,156.3009,NA,NA,NA,NA,NA,NA,NA,TRUE,1,0.5706,152.9372,155.9512,0,30,30,56,1,45,31,NA,NA,NA,NA,NA,1,31,"binary"
"8784FE690A76442085157931DB41E1FD",1,"01990a99-b9b5-7cb1-89fb-620b3453727b","01990a83-7673-7c0c-a792-bbd8fbbaf673","2025-09-02_09h24.45.574",NA,NA,159.3007,159.3008,159.3008,159.6506,NA,NA,NA,NA,NA,NA,NA,TRUE,1,0.6648,156.3034,159.3005,0,31,31,29,1,21,38,NA,NA,NA,NA,NA,1,32,"binary"
"8784FE690A76442085157931DB41E1FD",1,"01990a99-b9b5-7cb1-89fb-620b3453727b","01990a83-7673-7c0c-a792-bbd8fbbaf673","2025-09-02_09h24.45.574",NA,NA,162.6501,162.6501,162.6501,162.9999,NA,NA,NA,NA,NA,NA,NA,TRUE,1,0.8277,159.6534,162.6499,0,32,32,102,1,200,26,NA,NA,NA,NA,NA,1,33,"binary"
"8784FE690A76442085157931DB41E1FD",1,"01990a99-b9b5-7cb1-89fb-620b3453727b","01990a83-7673-7c0c-a792-bbd8fbbaf673","2025-09-02_09h24.45.574",NA,NA,165.9999,166,166,166.3496,NA,NA,NA,NA,NA,NA,NA,TRUE,1,0.8093,163.0007,165.9998,0,33,33,7,1,10,26,NA,NA,NA,NA,NA,1,34,"binary"
"8784FE690A76442085157931DB41E1FD",1,"01990a99-b9b5-7cb1-89fb-620b3453727b","01990a83-7673-7c0c-a792-bbd8fbbaf673","2025-09-02_09h24.45.574",NA,NA,169.3491,169.3491,169.3491,169.6995,NA,NA,NA,NA,NA,NA,NA,TRUE,1,0.7476,166.3515,169.349,0,34,34,33,1,25,33,NA,NA,NA,NA,NA,1,35,"binary"
"8784FE690A76442085157931DB41E1FD",1,"01990a99-b9b5-7cb1-89fb-620b3453727b","01990a83-7673-7c0c-a792-bbd8fbbaf673","2025-09-02_09h24.45.574",NA,NA,172.6992,172.6994,172.6995,173.0489,NA,NA,NA,NA,NA,NA,NA,TRUE,2,1.0746,169.702,172.699,0,35,35,40,1,28,39,NA,NA,NA,NA,NA,1,36,"binary"
"8784FE690A76442085157931DB41E1FD",1,"01990a99-b9b5-7cb1-89fb-620b3453727b","01990a83-7673-7c0c-a792-bbd8fbbaf673","2025-09-02_09h24.45.574",NA,NA,176.0487,176.0488,176.0489,176.3984,NA,NA,NA,NA,NA,NA,NA,TRUE,1,0.7658,173.051,176.0485,0,36,36,12,1,12,25,NA,NA,NA,NA,NA,1,37,"binary"
"8784FE690A76442085157931DB41E1FD",1,"01990a99-b9b5-7cb1-89fb-620b3453727b","01990a83-7673-7c0c-a792-bbd8fbbaf673","2025-09-02_09h24.45.574",NA,NA,179.3983,179.3984,179.3984,179.7481,NA,NA,NA,NA,NA,NA,NA,TRUE,2,1.5845,176.4007,179.3981,0,37,37,47,1,30,38,NA,NA,NA,NA,NA,1,38,"binary"
"8784FE690A76442085157931DB41E1FD",1,"01990a99-b9b5-7cb1-89fb-620b3453727b","01990a83-7673-7c0c-a792-bbd8fbbaf673","2025-09-02_09h24.45.574",NA,NA,182.748,182.748,182.7481,183.0977,NA,NA,NA,NA,NA,NA,NA,TRUE,1,0.8628,179.7508,182.7477,0,38,38,103,1,200,28,NA,NA,NA,NA,NA,1,39,"binary"
"8784FE690A76442085157931DB41E1FD",1,"01990a99-b9b5-7cb1-89fb-620b3453727b","01990a83-7673-7c0c-a792-bbd8fbbaf673","2025-09-02_09h24.45.574",NA,NA,186.0974,186.0975,186.0976,186.4471,NA,NA,NA,NA,NA,NA,NA,TRUE,2,0.9635,183.1001,186.0973,0,39,39,38,1,28,32,NA,NA,NA,NA,NA,1,40,"binary"
"8784FE690A76442085157931DB41E1FD",1,"01990a99-b9b5-7cb1-89fb-620b3453727b","01990a83-7673-7c0c-a792-bbd8fbbaf673","2025-09-02_09h24.45.574",NA,NA,189.4471,189.4472,189.4472,189.7967,NA,NA,NA,NA,NA,NA,NA,TRUE,1,0.9743,186.4497,189.4469,0,40,40,95,1,150,54,NA,NA,NA,NA,NA,1,41,"binary"
"8784FE690A76442085157931DB41E1FD",1,"01990a99-b9b5-7cb1-89fb-620b3453727b","01990a83-7673-7c0c-a792-bbd8fbbaf673","2025-09-02_09h24.45.574",NA,NA,192.7967,192.7967,192.7967,193.1463,NA,NA,NA,NA,NA,NA,NA,TRUE,1,1.5467,189.7992,192.7965,0,41,41,57,1,45,35,NA,NA,NA,NA,NA,1,42,"binary"
"8784FE690A76442085157931DB41E1FD",1,"01990a99-b9b5-7cb1-89fb-620b3453727b","01990a83-7673-7c0c-a792-bbd8fbbaf673","2025-09-02_09h24.45.574",NA,NA,196.1462,196.1464,196.1465,196.4963,NA,NA,NA,NA,NA,NA,NA,TRUE,1,1.2519,193.1488,196.1461,0,42,42,76,1,90,46,NA,NA,NA,NA,NA,1,43,"binary"
"8784FE690A76442085157931DB41E1FD",1,"01990a99-b9b5-7cb1-89fb-620b3453727b","01990a83-7673-7c0c-a792-bbd8fbbaf673","2025-09-02_09h24.45.574",NA,NA,199.4961,199.4963,199.4963,199.8455,NA,NA,NA,NA,NA,NA,NA,TRUE,1,0.7661,196.4983,199.4959,0,43,43,6,1,10,25,NA,NA,NA,NA,NA,1,44,"binary"
"8784FE690A76442085157931DB41E1FD",1,"01990a99-b9b5-7cb1-89fb-620b3453727b","01990a83-7673-7c0c-a792-bbd8fbbaf673","2025-09-02_09h24.45.574",NA,NA,202.8456,202.8457,202.8457,203.1952,NA,NA,NA,NA,NA,NA,NA,TRUE,1,0.7349,199.848,202.8454,0,44,44,72,1,90,26,NA,NA,NA,NA,NA,1,45,"binary"
"8784FE690A76442085157931DB41E1FD",1,"01990a99-b9b5-7cb1-89fb-620b3453727b","01990a83-7673-7c0c-a792-bbd8fbbaf673","2025-09-02_09h24.45.574",NA,NA,206.1952,206.1953,206.1953,206.545,NA,NA,NA,NA,NA,NA,NA,TRUE,1,1.2029,203.1979,206.195,0,45,45,32,1,25,31,NA,NA,NA,NA,NA,1,46,"binary"
"8784FE690A76442085157931DB41E1FD",1,"01990a99-b9b5-7cb1-89fb-620b3453727b","01990a83-7673-7c0c-a792-bbd8fbbaf673","2025-09-02_09h24.45.574",NA,NA,209.5449,209.545,209.5451,209.8944,NA,NA,NA,NA,NA,NA,NA,TRUE,1,0.7555,206.5477,209.5445,0,46,46,43,1,30,27,NA,NA,NA,NA,NA,1,47,"binary"
"8784FE690A76442085157931DB41E1FD",1,"01990a99-b9b5-7cb1-89fb-620b3453727b","01990a83-7673-7c0c-a792-bbd8fbbaf673","2025-09-02_09h24.45.574",NA,NA,212.8943,212.8945,212.8945,213.244,NA,NA,NA,NA,NA,NA,NA,TRUE,2,1.1066,209.8965,212.8941,0,47,47,53,1,40,54,NA,NA,NA,NA,NA,1,48,"binary"
"8784FE690A76442085157931DB41E1FD",1,"01990a99-b9b5-7cb1-89fb-620b3453727b","01990a83-7673-7c0c-a792-bbd8fbbaf673","2025-09-02_09h24.45.574",NA,NA,216.2438,216.2439,216.244,216.5936,NA,NA,NA,NA,NA,NA,NA,TRUE,2,0.9896,213.2464,216.2436,0,48,48,22,1,14,35,NA,NA,NA,NA,NA,1,49,"binary"
"8784FE690A76442085157931DB41E1FD",1,"01990a99-b9b5-7cb1-89fb-620b3453727b","01990a83-7673-7c0c-a792-bbd8fbbaf673","2025-09-02_09h24.45.574",NA,NA,219.5935,219.5935,219.5937,219.9428,NA,NA,NA,NA,NA,NA,NA,TRUE,1,0.7931,216.5961,219.5932,0,49,49,26,1,21,29,NA,NA,NA,NA,NA,1,50,"binary"
"8784FE690A76442085157931DB41E1FD",1,"01990a99-b9b5-7cb1-89fb-620b3453727b","01990a83-7673-7c0c-a792-bbd8fbbaf673","2025-09-02_09h24.45.574",NA,NA,222.9432,222.9432,222.9433,223.2928,NA,NA,NA,NA,NA,NA,NA,TRUE,2,0.8685,219.9436,222.9429,0,50,50,10,1,10,30,NA,NA,NA,NA,NA,1,51,"binary"
"8784FE690A76442085157931DB41E1FD",1,"01990a99-b9b5-7cb1-89fb-620b3453727b","01990a83-7673-7c0c-a792-bbd8fbbaf673","2025-09-02_09h24.45.574",NA,NA,226.2924,226.2926,226.2926,226.6425,NA,NA,NA,NA,NA,NA,NA,TRUE,1,0.9407,223.2953,226.2923,0,51,51,88,1,100,46,NA,NA,NA,NA,NA,1,52,"binary"
"8784FE690A76442085157931DB41E1FD",1,"01990a99-b9b5-7cb1-89fb-620b3453727b","01990a83-7673-7c0c-a792-bbd8fbbaf673","2025-09-02_09h24.45.574",NA,NA,229.6422,229.6423,229.6424,229.992,NA,NA,NA,NA,NA,NA,NA,TRUE,1,0.7595,226.6451,229.642,0,52,52,31,1,25,29,NA,NA,NA,NA,NA,1,53,"binary"
"8784FE690A76442085157931DB41E1FD",1,"01990a99-b9b5-7cb1-89fb-620b3453727b","01990a83-7673-7c0c-a792-bbd8fbbaf673","2025-09-02_09h24.45.574",NA,NA,232.9919,232.992,232.9922,233.3413,NA,NA,NA,NA,NA,NA,NA,TRUE,2,0.8343,229.9943,232.9918,0,53,53,5,1,7,35,NA,NA,NA,NA,NA,1,54,"binary"
"8784FE690A76442085157931DB41E1FD",1,"01990a99-b9b5-7cb1-89fb-620b3453727b","01990a83-7673-7c0c-a792-bbd8fbbaf673","2025-09-02_09h24.45.574",NA,NA,236.3412,236.3413,236.3414,236.691,NA,NA,NA,NA,NA,NA,NA,TRUE,1,0.8691,233.3426,236.3411,0,54,54,105,1,200,39,NA,NA,NA,NA,NA,1,55,"binary"
"8784FE690A76442085157931DB41E1FD",1,"01990a99-b9b5-7cb1-89fb-620b3453727b","01990a83-7673-7c0c-a792-bbd8fbbaf673","2025-09-02_09h24.45.574",NA,NA,239.6911,239.6913,239.6913,240.0407,NA,NA,NA,NA,NA,NA,NA,TRUE,1,1.079,236.6935,239.6909,0,55,55,1,1,7,26,NA,NA,NA,NA,NA,1,56,"binary"
"8784FE690A76442085157931DB41E1FD",1,"01990a99-b9b5-7cb1-89fb-620b3453727b","01990a83-7673-7c0c-a792-bbd8fbbaf673","2025-09-02_09h24.45.574",NA,NA,243.0405,243.0406,243.0406,243.3903,NA,NA,NA,NA,NA,NA,NA,TRUE,1,1.1206,240.0434,243.0404,0,56,56,68,1,60,35,NA,NA,NA,NA,NA,1,57,"binary"
"8784FE690A76442085157931DB41E1FD",1,"01990a99-b9b5-7cb1-89fb-620b3453727b","01990a83-7673-7c0c-a792-bbd8fbbaf673","2025-09-02_09h24.45.574",NA,NA,246.3895,246.3895,246.3895,246.7399,NA,NA,NA,NA,NA,NA,NA,TRUE,1,0.811,243.3933,246.3895,0,57,57,83,1,95,54,NA,NA,NA,NA,NA,1,58,"binary"
"8784FE690A76442085157931DB41E1FD",1,"01990a99-b9b5-7cb1-89fb-620b3453727b","01990a83-7673-7c0c-a792-bbd8fbbaf673","2025-09-02_09h24.45.574",NA,NA,249.7397,249.7397,249.7397,250.0895,NA,NA,NA,NA,NA,NA,NA,TRUE,1,0.7732,246.7427,249.7395,0,58,58,97,1,180,31,NA,NA,NA,NA,NA,1,59,"binary"
"8784FE690A76442085157931DB41E1FD",1,"01990a99-b9b5-7cb1-89fb-620b3453727b","01990a83-7673-7c0c-a792-bbd8fbbaf673","2025-09-02_09h24.45.574",NA,NA,253.0893,253.0893,253.0893,253.4387,NA,NA,NA,NA,NA,NA,NA,TRUE,1,0.7852,250.0918,253.0891,0,59,59,107,1,200,54,NA,NA,NA,NA,NA,1,60,"binary"
"8784FE690A76442085157931DB41E1FD",1,"01990a99-b9b5-7cb1-89fb-620b3453727b","01990a83-7673-7c0c-a792-bbd8fbbaf673","2025-09-02_09h24.45.574",NA,NA,256.4388,256.4389,256.439,256.7886,NA,NA,NA,NA,NA,NA,NA,TRUE,2,0.8521,253.4395,256.4387,0,60,60,4,1,7,32,NA,NA,NA,NA,NA,1,61,"binary"
"8784FE690A76442085157931DB41E1FD",1,"01990a99-b9b5-7cb1-89fb-620b3453727b","01990a83-7673-7c0c-a792-bbd8fbbaf673","2025-09-02_09h24.45.574",NA,NA,259.7884,259.7884,259.7884,260.1382,NA,NA,NA,NA,NA,NA,NA,TRUE,2,1.0054,256.7912,259.7882,0,61,61,16,1,12,33,NA,NA,NA,NA,NA,1,62,"binary"
"8784FE690A76442085157931DB41E1FD",1,"01990a99-b9b5-7cb1-89fb-620b3453727b","01990a83-7673-7c0c-a792-bbd8fbbaf673","2025-09-02_09h24.45.574",NA,NA,263.1379,263.138,263.138,263.4878,NA,NA,NA,NA,NA,NA,NA,TRUE,1,0.7832,260.1405,263.1378,0,62,62,58,1,45,40,NA,NA,NA,NA,NA,1,63,"binary"
"8784FE690A76442085157931DB41E1FD",1,"01990a99-b9b5-7cb1-89fb-620b3453727b","01990a83-7673-7c0c-a792-bbd8fbbaf673","2025-09-02_09h24.45.574",NA,NA,266.4877,266.4877,266.4878,266.8371,NA,NA,NA,NA,NA,NA,NA,TRUE,2,0.9613,263.49,266.4876,0,63,63,23,1,14,39,NA,NA,NA,NA,NA,1,64,"binary"
"8784FE690A76442085157931DB41E1FD",1,"01990a99-b9b5-7cb1-89fb-620b3453727b","01990a83-7673-7c0c-a792-bbd8fbbaf673","2025-09-02_09h24.45.574",NA,NA,269.8367,269.8367,269.8367,270.1867,NA,NA,NA,NA,NA,NA,NA,TRUE,1,0.9736,266.8378,269.8366,0,64,64,9,1,10,29,NA,NA,NA,NA,NA,1,65,"binary"
"8784FE690A76442085157931DB41E1FD",1,"01990a99-b9b5-7cb1-89fb-620b3453727b","01990a83-7673-7c0c-a792-bbd8fbbaf673","2025-09-02_09h24.45.574",NA,NA,273.1871,273.1871,273.1871,273.5363,NA,NA,NA,NA,NA,NA,NA,TRUE,2,0.8724,270.1873,273.1869,0,65,65,15,1,12,31,NA,NA,NA,NA,NA,1,66,"binary"
"8784FE690A76442085157931DB41E1FD",1,"01990a99-b9b5-7cb1-89fb-620b3453727b","01990a83-7673-7c0c-a792-bbd8fbbaf673","2025-09-02_09h24.45.574",NA,NA,276.5363,276.5363,276.5364,276.8859,NA,NA,NA,NA,NA,NA,NA,TRUE,1,0.6581,273.5369,276.5361,0,66,66,8,1,10,27,NA,NA,NA,NA,NA,1,67,"binary"
"8784FE690A76442085157931DB41E1FD",1,"01990a99-b9b5-7cb1-89fb-620b3453727b","01990a83-7673-7c0c-a792-bbd8fbbaf673","2025-09-02_09h24.45.574",NA,NA,279.8861,279.8862,279.8862,280.2355,NA,NA,NA,NA,NA,NA,NA,TRUE,1,0.7172,276.8872,279.8859,0,67,67,90,1,150,31,NA,NA,NA,NA,NA,1,68,"binary"
"8784FE690A76442085157931DB41E1FD",1,"01990a99-b9b5-7cb1-89fb-620b3453727b","01990a83-7673-7c0c-a792-bbd8fbbaf673","2025-09-02_09h24.45.574",NA,NA,283.2356,283.2357,283.2357,283.5857,NA,NA,NA,NA,NA,NA,NA,TRUE,1,0.7342,280.2368,283.2355,0,68,68,98,1,180,35,NA,NA,NA,NA,NA,1,69,"binary"
"8784FE690A76442085157931DB41E1FD",1,"01990a99-b9b5-7cb1-89fb-620b3453727b","01990a83-7673-7c0c-a792-bbd8fbbaf673","2025-09-02_09h24.45.574",NA,NA,286.5854,286.5854,286.5855,286.935,NA,NA,NA,NA,NA,NA,NA,TRUE,1,0.746,283.588,286.5853,0,69,69,42,1,30,26,NA,NA,NA,NA,NA,1,70,"binary"
"8784FE690A76442085157931DB41E1FD",1,"01990a99-b9b5-7cb1-89fb-620b3453727b","01990a83-7673-7c0c-a792-bbd8fbbaf673","2025-09-02_09h24.45.574",NA,NA,289.9512,289.9513,289.9513,290.3012,NA,NA,NA,NA,NA,NA,NA,TRUE,1,0.8355,286.9374,289.9511,0,70,70,94,1,150,47,NA,NA,NA,NA,NA,1,71,"binary"
"8784FE690A76442085157931DB41E1FD",1,"01990a99-b9b5-7cb1-89fb-620b3453727b","01990a83-7673-7c0c-a792-bbd8fbbaf673","2025-09-02_09h24.45.574",NA,NA,293.301,293.301,293.3011,293.6504,NA,NA,NA,NA,NA,NA,NA,TRUE,1,0.713,290.3034,293.3009,0,71,71,2,1,7,28,NA,NA,NA,NA,NA,1,72,"binary"
"8784FE690A76442085157931DB41E1FD",1,"01990a99-b9b5-7cb1-89fb-620b3453727b","01990a83-7673-7c0c-a792-bbd8fbbaf673","2025-09-02_09h24.45.574",NA,NA,296.6501,296.6501,296.6501,297,NA,NA,NA,NA,NA,NA,NA,TRUE,1,1.0159,293.6512,296.65,0,72,72,50,1,40,35,NA,NA,NA,NA,NA,1,73,"binary"
"8784FE690A76442085157931DB41E1FD",1,"01990a99-b9b5-7cb1-89fb-620b3453727b","01990a83-7673-7c0c-a792-bbd8fbbaf673","2025-09-02_09h24.45.574",NA,NA,300.0002,300.0003,300.0003,300.3501,NA,NA,NA,NA,NA,NA,NA,TRUE,1,0.6846,297.0006,300,0,73,73,13,1,12,26,NA,NA,NA,NA,NA,1,74,"binary"
"8784FE690A76442085157931DB41E1FD",1,"01990a99-b9b5-7cb1-89fb-620b3453727b","01990a83-7673-7c0c-a792-bbd8fbbaf673","2025-09-02_09h24.45.574",NA,NA,303.3499,303.35,303.3502,303.6994,NA,NA,NA,NA,NA,NA,NA,TRUE,2,1.329,300.3523,303.3497,0,74,74,70,1,60,47,NA,NA,NA,NA,NA,1,75,"binary"
"8784FE690A76442085157931DB41E1FD",1,"01990a99-b9b5-7cb1-89fb-620b3453727b","01990a83-7673-7c0c-a792-bbd8fbbaf673","2025-09-02_09h24.45.574",NA,NA,306.6995,306.6997,306.6997,307.0492,NA,NA,NA,NA,NA,NA,NA,TRUE,1,1.0521,303.7009,306.6993,0,75,75,74,1,90,33,NA,NA,NA,NA,NA,1,76,"binary"
"8784FE690A76442085157931DB41E1FD",1,"01990a99-b9b5-7cb1-89fb-620b3453727b","01990a83-7673-7c0c-a792-bbd8fbbaf673","2025-09-02_09h24.45.574",NA,NA,310.0492,310.0493,310.0493,310.3986,NA,NA,NA,NA,NA,NA,NA,TRUE,1,0.8047,307.0511,310.0488,0,76,76,81,1,95,40,NA,NA,NA,NA,NA,1,77,"binary"
"8784FE690A76442085157931DB41E1FD",1,"01990a99-b9b5-7cb1-89fb-620b3453727b","01990a83-7673-7c0c-a792-bbd8fbbaf673","2025-09-02_09h24.45.574",NA,NA,313.3988,313.3989,313.3991,313.7482,NA,NA,NA,NA,NA,NA,NA,TRUE,1,0.7506,310.4014,313.3986,0,77,77,85,1,100,31,NA,NA,NA,NA,NA,1,78,"binary"
"8784FE690A76442085157931DB41E1FD",1,"01990a99-b9b5-7cb1-89fb-620b3453727b","01990a83-7673-7c0c-a792-bbd8fbbaf673","2025-09-02_09h24.45.574",NA,NA,316.7486,316.7487,316.7488,317.098,NA,NA,NA,NA,NA,NA,NA,TRUE,1,0.688,313.7506,316.7484,0,78,78,25,1,21,27,NA,NA,NA,NA,NA,1,79,"binary"
"8784FE690A76442085157931DB41E1FD",1,"01990a99-b9b5-7cb1-89fb-620b3453727b","01990a83-7673-7c0c-a792-bbd8fbbaf673","2025-09-02_09h24.45.574",NA,NA,320.0977,320.0979,320.0979,320.4476,NA,NA,NA,NA,NA,NA,NA,TRUE,1,0.7811,317.0999,320.0975,0,79,79,78,1,95,31,NA,NA,NA,NA,NA,1,80,"binary"
"8784FE690A76442085157931DB41E1FD",1,"01990a99-b9b5-7cb1-89fb-620b3453727b","01990a83-7673-7c0c-a792-bbd8fbbaf673","2025-09-02_09h24.45.574",NA,NA,439.2303,439.2303,439.2303,439.2303,NA,NA,NA,NA,NA,NA,NA,FALSE,NA,NA,320.4499,439.2299,0,80,80,59,1,45,46,NA,NA,NA,NA,NA,1,81,"binary"
"8784FE690A76442085157931DB41E1FD",1,"01990a99-b9b5-7cb1-89fb-620b3453727b","01990a83-7673-7c0c-a792-bbd8fbbaf673","2025-09-02_09h24.45.574",NA,NA,439.2351,439.2351,439.2351,439.2351,NA,NA,NA,NA,NA,NA,NA,FALSE,NA,NA,439.2349,439.235,0,81,81,19,1,14,26,NA,NA,NA,NA,NA,1,82,"binary"
"8784FE690A76442085157931DB41E1FD",1,"01990a99-b9b5-7cb1-89fb-620b3453727b","01990a83-7673-7c0c-a792-bbd8fbbaf673","2025-09-02_09h24.45.574",NA,NA,439.2357,439.2357,439.2357,439.2357,NA,NA,NA,NA,NA,NA,NA,FALSE,NA,NA,439.2355,439.2357,0,82,82,77,1,90,54,NA,NA,NA,NA,NA,1,83,"binary"
"8784FE690A76442085157931DB41E1FD",1,"01990a99-b9b5-7cb1-89fb-620b3453727b","01990a83-7673-7c0c-a792-bbd8fbbaf673","2025-09-02_09h24.45.574",NA,NA,439.2361,439.2361,439.2361,439.2361,NA,NA,NA,NA,NA,NA,NA,FALSE,NA,NA,439.236,439.236,0,83,83,71,1,60,54,NA,NA,NA,NA,NA,1,84,"binary"
"8784FE690A76442085157931DB41E1FD",1,"01990a99-b9b5-7cb1-89fb-620b3453727b","01990a83-7673-7c0c-a792-bbd8fbbaf673","2025-09-02_09h24.45.574",NA,NA,439.2365,439.2365,439.2365,439.2365,NA,NA,NA,NA,NA,NA,NA,FALSE,NA,NA,439.2364,439.2364,0,84,84,79,1,95,33,NA,NA,NA,NA,NA,1,85,"binary"
"8784FE690A76442085157931DB41E1FD",1,"01990a99-b9b5-7cb1-89fb-620b3453727b","01990a83-7673-7c0c-a792-bbd8fbbaf673","2025-09-02_09h24.45.574",NA,NA,439.2368,439.2368,439.2368,439.2368,NA,NA,NA,NA,NA,NA,NA,FALSE,NA,NA,439.2368,439.2368,0,85,85,49,1,40,33,NA,NA,NA,NA,NA,1,86,"binary"
"8784FE690A76442085157931DB41E1FD",1,"01990a99-b9b5-7cb1-89fb-620b3453727b","01990a83-7673-7c0c-a792-bbd8fbbaf673","2025-09-02_09h24.45.574",NA,NA,439.2372,439.2372,439.2372,439.2372,NA,NA,NA,NA,NA,NA,NA,FALSE,NA,NA,439.2372,439.2372,0,86,86,86,1,100,38,NA,NA,NA,NA,NA,1,87,"binary"
"8784FE690A76442085157931DB41E1FD",1,"01990a99-b9b5-7cb1-89fb-620b3453727b","01990a83-7673-7c0c-a792-bbd8fbbaf673","2025-09-02_09h24.45.574",NA,NA,439.2376,439.2376,439.2376,439.2376,NA,NA,NA,NA,NA,NA,NA,FALSE,NA,NA,439.2375,439.2376,0,87,87,66,1,60,29,NA,NA,NA,NA,NA,1,88,"binary"
"8784FE690A76442085157931DB41E1FD",1,"01990a99-b9b5-7cb1-89fb-620b3453727b","01990a83-7673-7c0c-a792-bbd8fbbaf673","2025-09-02_09h24.45.574",NA,NA,439.238,439.238,439.238,439.238,NA,NA,NA,NA,NA,NA,NA,FALSE,NA,NA,439.238,439.238,0,88,88,54,1,45,26,NA,NA,NA,NA,NA,1,89,"binary"
"8784FE690A76442085157931DB41E1FD",1,"01990a99-b9b5-7cb1-89fb-620b3453727b","01990a83-7673-7c0c-a792-bbd8fbbaf673","2025-09-02_09h24.45.574",NA,NA,439.2384,439.2384,439.2384,439.2384,NA,NA,NA,NA,NA,NA,NA,FALSE,NA,NA,439.2383,439.2384,0,89,89,45,1,30,30,NA,NA,NA,NA,NA,1,90,"binary"
"8784FE690A76442085157931DB41E1FD",1,"01990a99-b9b5-7cb1-89fb-620b3453727b","01990a83-7673-7c0c-a792-bbd8fbbaf673","2025-09-02_09h24.45.574",NA,NA,439.2388,439.2388,439.2388,439.2388,NA,NA,NA,NA,NA,NA,NA,FALSE,NA,NA,439.2387,439.2387,0,90,90,44,1,30,29,NA,NA,NA,NA,NA,1,91,"binary"
"8784FE690A76442085157931DB41E1FD",1,"01990a99-b9b5-7cb1-89fb-620b3453727b","01990a83-7673-7c0c-a792-bbd8fbbaf673","2025-09-02_09h24.45.574",NA,NA,439.2392,439.2392,439.2392,439.2392,NA,NA,NA,NA,NA,NA,NA,FALSE,NA,NA,439.239,439.239,0,91,91,106,1,200,47,NA,NA,NA,NA,NA,1,92,"binary"
"8784FE690A76442085157931DB41E1FD",1,"01990a99-b9b5-7cb1-89fb-620b3453727b","01990a83-7673-7c0c-a792-bbd8fbbaf673","2025-09-02_09h24.45.574",NA,NA,439.2395,439.2395,439.2395,439.2395,NA,NA,NA,NA,NA,NA,NA,FALSE,NA,NA,439.2394,439.2394,0,92,92,99,1,180,39,NA,NA,NA,NA,NA,1,93,"binary"
"8784FE690A76442085157931DB41E1FD",1,"01990a99-b9b5-7cb1-89fb-620b3453727b","01990a83-7673-7c0c-a792-bbd8fbbaf673","2025-09-02_09h24.45.574",NA,NA,439.2399,439.2399,439.2399,439.2399,NA,NA,NA,NA,NA,NA,NA,FALSE,NA,NA,439.2398,439.2398,0,93,93,67,1,60,33,NA,NA,NA,NA,NA,1,94,"binary"
"8784FE690A76442085157931DB41E1FD",1,"01990a99-b9b5-7cb1-89fb-620b3453727b","01990a83-7673-7c0c-a792-bbd8fbbaf673","2025-09-02_09h24.45.574",NA,NA,439.2403,439.2403,439.2403,439.2403,NA,NA,NA,NA,NA,NA,NA,FALSE,NA,NA,439.2402,439.2402,0,94,94,62,1,50,35,NA,NA,NA,NA,NA,1,95,"binary"
"8784FE690A76442085157931DB41E1FD",1,"01990a99-b9b5-7cb1-89fb-620b3453727b","01990a83-7673-7c0c-a792-bbd8fbbaf673","2025-09-02_09h24.45.574",NA,NA,439.2407,439.2407,439.2407,439.2407,NA,NA,NA,NA,NA,NA,NA,FALSE,NA,NA,439.2405,439.2406,0,95,95,0,1,7,25,NA,NA,NA,NA,NA,1,96,"binary"
"8784FE690A76442085157931DB41E1FD",1,"01990a99-b9b5-7cb1-89fb-620b3453727b","01990a83-7673-7c0c-a792-bbd8fbbaf673","2025-09-02_09h24.45.574",NA,NA,439.241,439.241,439.241,439.241,NA,NA,NA,NA,NA,NA,NA,FALSE,NA,NA,439.241,439.241,0,96,96,63,1,50,40,NA,NA,NA,NA,NA,1,97,"binary"
"8784FE690A76442085157931DB41E1FD",1,"01990a99-b9b5-7cb1-89fb-620b3453727b","01990a83-7673-7c0c-a792-bbd8fbbaf673","2025-09-02_09h24.45.574",NA,NA,439.2414,439.2414,439.2414,439.2415,NA,NA,NA,NA,NA,NA,NA,FALSE,NA,NA,439.2413,439.2413,0,97,97,34,1,25,35,NA,NA,NA,NA,NA,1,98,"binary"
"8784FE690A76442085157931DB41E1FD",1,"01990a99-b9b5-7cb1-89fb-620b3453727b","01990a83-7673-7c0c-a792-bbd8fbbaf673","2025-09-02_09h24.45.574",NA,NA,439.2419,439.2419,439.2419,439.2419,NA,NA,NA,NA,NA,NA,NA,FALSE,NA,NA,439.2418,439.2419,0,98,98,27,1,21,30,NA,NA,NA,NA,NA,1,99,"binary"
"8784FE690A76442085157931DB41E1FD",1,"01990a99-b9b5-7cb1-89fb-620b3453727b","01990a83-7673-7c0c-a792-bbd8fbbaf673","2025-09-02_09h24.45.574",NA,NA,439.2423,439.2423,439.2423,439.2423,NA,NA,NA,NA,NA,NA,NA,FALSE,NA,NA,439.2422,439.2423,0,99,99,20,1,14,28,NA,NA,NA,NA,NA,1,100,"binary"
"8784FE690A76442085157931DB41E1FD",1,"01990a99-b9b5-7cb1-89fb-620b3453727b","01990a83-7673-7c0c-a792-bbd8fbbaf673","2025-09-02_09h24.45.574",NA,NA,439.2428,439.2428,439.2428,439.2428,NA,NA,NA,NA,NA,NA,NA,FALSE,NA,NA,439.2427,439.2427,0,100,100,73,1,90,30,NA,NA,NA,NA,NA,1,101,"binary"
"8784FE690A76442085157931DB41E1FD",1,"01990a99-b9b5-7cb1-89fb-620b3453727b","01990a83-7673-7c0c-a792-bbd8fbbaf673","2025-09-02_09h24.45.574",NA,NA,439.2431,439.2431,439.2431,439.2432,NA,NA,NA,NA,NA,NA,NA,FALSE,NA,NA,439.2431,439.2431,0,101,101,91,1,150,33,NA,NA,NA,NA,NA,1,102,"binary"
"8784FE690A76442085157931DB41E1FD",1,"01990a99-b9b5-7cb1-89fb-620b3453727b","01990a83-7673-7c0c-a792-bbd8fbbaf673","2025-09-02_09h24.45.574",NA,NA,439.2435,439.2435,439.2435,439.2435,NA,NA,NA,NA,NA,NA,NA,FALSE,NA,NA,439.2435,439.2435,0,102,102,39,1,28,35,NA,NA,NA,NA,NA,1,103,"binary"
"8784FE690A76442085157931DB41E1FD",1,"01990a99-b9b5-7cb1-89fb-620b3453727b","01990a83-7673-7c0c-a792-bbd8fbbaf673","2025-09-02_09h24.45.574",NA,NA,439.244,439.244,439.244,439.244,NA,NA,NA,NA,NA,NA,NA,FALSE,NA,NA,439.2439,439.244,0,103,103,84,1,100,26,NA,NA,NA,NA,NA,1,104,"binary"
"8784FE690A76442085157931DB41E1FD",1,"01990a99-b9b5-7cb1-89fb-620b3453727b","01990a83-7673-7c0c-a792-bbd8fbbaf673","2025-09-02_09h24.45.574",NA,NA,439.2444,439.2444,439.2444,439.2444,NA,NA,NA,NA,NA,NA,NA,FALSE,NA,NA,439.2443,439.2443,0,104,104,87,1,100,39,NA,NA,NA,NA,NA,1,105,"binary"
"8784FE690A76442085157931DB41E1FD",1,"01990a99-b9b5-7cb1-89fb-620b3453727b","01990a83-7673-7c0c-a792-bbd8fbbaf673","2025-09-02_09h24.45.574",NA,NA,439.2448,439.2448,439.2448,439.2448,NA,NA,NA,NA,NA,NA,NA,FALSE,NA,NA,439.2447,439.2448,0,105,105,64,1,50,46,NA,NA,NA,NA,NA,1,106,"binary"
"8784FE690A76442085157931DB41E1FD",1,"01990a99-b9b5-7cb1-89fb-620b3453727b","01990a83-7673-7c0c-a792-bbd8fbbaf673","2025-09-02_09h24.45.574",NA,NA,439.2455,439.2455,439.2455,439.2455,NA,NA,NA,NA,NA,NA,NA,FALSE,NA,NA,439.2454,439.2455,0,106,106,96,1,180,27,NA,NA,NA,NA,NA,1,107,"binary"
"8784FE690A76442085157931DB41E1FD",1,"01990a99-b9b5-7cb1-89fb-620b3453727b","01990a83-7673-7c0c-a792-bbd8fbbaf673","2025-09-02_09h24.45.574",NA,NA,439.2458,439.2459,439.2459,439.2459,NA,NA,NA,NA,NA,NA,NA,FALSE,NA,NA,439.2458,439.2458,0,107,107,3,1,7,30,NA,NA,NA,NA,NA,1,108,"binary"
"8784FE690A76442085157931DB41E1FD",1,"01990a99-b9b5-7cb1-89fb-620b3453727b","01990a83-7673-7c0c-a792-bbd8fbbaf673","2025-09-02_09h24.45.574",NA,NA,485.5104,485.5104,485.5104,485.8606,NA,NA,NA,NA,NA,NA,NA,TRUE,1,1.4903,482.5246,485.5103,NA,NA,NA,NA,NA,50,46,0,0,0,64,1,2,1,"binary"
"8784FE690A76442085157931DB41E1FD",1,"01990a99-b9b5-7cb1-89fb-620b3453727b","01990a83-7673-7c0c-a792-bbd8fbbaf673","2025-09-02_09h24.45.574",NA,NA,488.8606,488.8606,488.8606,489.21,NA,NA,NA,NA,NA,NA,NA,TRUE,1,0.7679,485.8631,488.8604,NA,NA,NA,NA,NA,50,27,0,1,1,60,1,2,2,"binary"
"8784FE690A76442085157931DB41E1FD",1,"01990a99-b9b5-7cb1-89fb-620b3453727b","01990a83-7673-7c0c-a792-bbd8fbbaf673","2025-09-02_09h24.45.574",NA,NA,492.2119,492.2119,492.2119,492.5598,NA,NA,NA,NA,NA,NA,NA,TRUE,1,0.6914,489.2117,492.2118,NA,NA,NA,NA,NA,28,28,0,2,2,37,1,2,3,"binary"
"8784FE690A76442085157931DB41E1FD",1,"01990a99-b9b5-7cb1-89fb-620b3453727b","01990a83-7673-7c0c-a792-bbd8fbbaf673","2025-09-02_09h24.45.574",NA,NA,496.1179,496.1179,496.1179,496.1179,NA,NA,NA,NA,NA,NA,NA,TRUE,1,0.6015,492.5624,496.1178,NA,NA,NA,NA,NA,12,28,0,3,3,14,1,2,4,"binary"
"8784FE690A76442085157931DB41E1FD",1,"01990a99-b9b5-7cb1-89fb-620b3453727b","01990a83-7673-7c0c-a792-bbd8fbbaf673","2025-09-02_09h24.45.574",NA,NA,498.9095,498.9095,498.9096,499.2592,NA,NA,NA,NA,NA,NA,NA,TRUE,1,0.835,496.119,498.9094,NA,NA,NA,NA,NA,50,30,0,4,4,61,1,2,5,"binary"
"8784FE690A76442085157931DB41E1FD",1,"01990a99-b9b5-7cb1-89fb-620b3453727b","01990a83-7673-7c0c-a792-bbd8fbbaf673","2025-09-02_09h24.45.574",NA,NA,502.2584,502.2584,502.2584,502.6087,NA,NA,NA,NA,NA,NA,NA,TRUE,1,0.7577,499.2613,502.2583,NA,NA,NA,NA,NA,7,30,0,5,5,3,1,2,6,"binary"
"8784FE690A76442085157931DB41E1FD",1,"01990a99-b9b5-7cb1-89fb-620b3453727b","01990a83-7673-7c0c-a792-bbd8fbbaf673","2025-09-02_09h24.45.574",NA,NA,510.4278,510.4278,510.4279,510.4279,NA,NA,NA,NA,NA,NA,NA,TRUE,1,1.1368,502.6114,510.4277,NA,NA,NA,NA,NA,12,31,0,6,6,15,1,2,7,"binary"
"8784FE690A76442085157931DB41E1FD",1,"01990a99-b9b5-7cb1-89fb-620b3453727b","01990a83-7673-7c0c-a792-bbd8fbbaf673","2025-09-02_09h24.45.574",NA,NA,510.4287,510.4287,510.4287,510.4287,NA,NA,NA,NA,NA,NA,NA,FALSE,NA,NA,510.4286,510.4286,NA,NA,NA,NA,NA,12,25,0,7,7,12,1,2,8,"binary"
"8784FE690A76442085157931DB41E1FD",1,"01990a99-b9b5-7cb1-89fb-620b3453727b","01990a83-7673-7c0c-a792-bbd8fbbaf673","2025-09-02_09h24.45.574",NA,NA,510.4407,512.557,512.557,512.6569,NA,NA,NA,NA,NA,NA,NA,FALSE,NA,NA,510.429,510.4406,NA,NA,NA,NA,NA,21,27,0,8,8,25,1,2,9,"binary"
"8784FE690A76442085157931DB41E1FD",1,"01990a99-b9b5-7cb1-89fb-620b3453727b","01990a83-7673-7c0c-a792-bbd8fbbaf673","2025-09-02_09h24.45.574",NA,NA,515.6567,515.6567,515.6567,516.007,NA,NA,NA,NA,NA,NA,NA,TRUE,1,0.8089,512.6578,515.6567,NA,NA,NA,NA,NA,150,54,0,9,9,95,1,2,10,"binary"
"8784FE690A76442085157931DB41E1FD",1,"01990a99-b9b5-7cb1-89fb-620b3453727b","01990a83-7673-7c0c-a792-bbd8fbbaf673","2025-09-02_09h24.45.574",NA,NA,519.0066,519.0067,519.0067,519.3564,NA,NA,NA,NA,NA,NA,NA,TRUE,1,0.7005,516.0089,519.0066,NA,NA,NA,NA,NA,180,27,0,10,10,96,1,2,11,"binary"
"8784FE690A76442085157931DB41E1FD",1,"01990a99-b9b5-7cb1-89fb-620b3453727b","01990a83-7673-7c0c-a792-bbd8fbbaf673","2025-09-02_09h24.45.574",NA,NA,522.3562,522.3563,522.3563,522.7061,NA,NA,NA,NA,NA,NA,NA,TRUE,1,1.0166,519.3582,522.3561,NA,NA,NA,NA,NA,7,25,0,11,11,0,1,2,12,"binary"
"8784FE690A76442085157931DB41E1FD",1,"01990a99-b9b5-7cb1-89fb-620b3453727b","01990a83-7673-7c0c-a792-bbd8fbbaf673","2025-09-02_09h24.45.574",NA,NA,525.7058,525.7058,525.7058,526.0556,NA,NA,NA,NA,NA,NA,NA,TRUE,2,1.2842,522.7078,525.7058,NA,NA,NA,NA,NA,40,47,0,12,12,52,1,2,13,"binary"
"8784FE690A76442085157931DB41E1FD",1,"01990a99-b9b5-7cb1-89fb-620b3453727b","01990a83-7673-7c0c-a792-bbd8fbbaf673","2025-09-02_09h24.45.574",NA,NA,529.0555,529.0555,529.0555,529.4052,NA,NA,NA,NA,NA,NA,NA,TRUE,1,1.7068,526.0574,529.0553,NA,NA,NA,NA,NA,45,46,0,13,13,59,1,2,14,"binary"
"8784FE690A76442085157931DB41E1FD",1,"01990a99-b9b5-7cb1-89fb-620b3453727b","01990a83-7673-7c0c-a792-bbd8fbbaf673","2025-09-02_09h24.45.574",NA,NA,532.4052,532.4052,532.4053,532.7548,NA,NA,NA,NA,NA,NA,NA,TRUE,1,0.9566,529.4073,532.4051,NA,NA,NA,NA,NA,7,28,0,14,14,2,1,2,15,"binary"
"8784FE690A76442085157931DB41E1FD",1,"01990a99-b9b5-7cb1-89fb-620b3453727b","01990a83-7673-7c0c-a792-bbd8fbbaf673","2025-09-02_09h24.45.574",NA,NA,535.7545,535.7546,535.7546,536.1045,NA,NA,NA,NA,NA,NA,NA,TRUE,1,0.6954,532.7569,535.7545,NA,NA,NA,NA,NA,200,28,0,15,15,103,1,2,16,"binary"
"8784FE690A76442085157931DB41E1FD",1,"01990a99-b9b5-7cb1-89fb-620b3453727b","01990a83-7673-7c0c-a792-bbd8fbbaf673","2025-09-02_09h24.45.574",NA,NA,539.1044,539.1044,539.1044,539.454,NA,NA,NA,NA,NA,NA,NA,TRUE,1,0.8019,536.1066,539.1042,NA,NA,NA,NA,NA,100,39,0,16,16,87,1,2,17,"binary"
"8784FE690A76442085157931DB41E1FD",1,"01990a99-b9b5-7cb1-89fb-620b3453727b","01990a83-7673-7c0c-a792-bbd8fbbaf673","2025-09-02_09h24.45.574",NA,NA,542.4534,542.4534,542.4534,542.8037,NA,NA,NA,NA,NA,NA,NA,TRUE,2,1.101,539.4563,542.4533,NA,NA,NA,NA,NA,14,35,0,17,17,22,1,2,18,"binary"
"8784FE690A76442085157931DB41E1FD",1,"01990a99-b9b5-7cb1-89fb-620b3453727b","01990a83-7673-7c0c-a792-bbd8fbbaf673","2025-09-02_09h24.45.574",NA,NA,545.8035,545.8035,545.8035,546.1532,NA,NA,NA,NA,NA,NA,NA,TRUE,2,0.9895,542.8058,545.8033,NA,NA,NA,NA,NA,28,46,0,18,18,41,1,2,19,"binary"
"8784FE690A76442085157931DB41E1FD",1,"01990a99-b9b5-7cb1-89fb-620b3453727b","01990a83-7673-7c0c-a792-bbd8fbbaf673","2025-09-02_09h24.45.574",NA,NA,549.1532,549.1532,549.1532,549.5028,NA,NA,NA,NA,NA,NA,NA,TRUE,2,0.7608,546.1547,549.153,NA,NA,NA,NA,NA,7,32,0,19,19,4,1,2,20,"binary"
"8784FE690A76442085157931DB41E1FD",1,"01990a99-b9b5-7cb1-89fb-620b3453727b","01990a83-7673-7c0c-a792-bbd8fbbaf673","2025-09-02_09h24.45.574",NA,NA,552.5028,552.5028,552.5028,552.8524,NA,NA,NA,NA,NA,NA,NA,TRUE,2,0.8103,549.5049,552.5026,NA,NA,NA,NA,NA,25,46,0,20,20,35,1,2,21,"binary"
"8784FE690A76442085157931DB41E1FD",1,"01990a99-b9b5-7cb1-89fb-620b3453727b","01990a83-7673-7c0c-a792-bbd8fbbaf673","2025-09-02_09h24.45.574",NA,NA,555.8523,555.8524,555.8524,556.2018,NA,NA,NA,NA,NA,NA,NA,TRUE,1,0.7491,552.8546,555.8522,NA,NA,NA,NA,NA,90,40,0,21,21,75,1,2,22,"binary"
"8784FE690A76442085157931DB41E1FD",1,"01990a99-b9b5-7cb1-89fb-620b3453727b","01990a83-7673-7c0c-a792-bbd8fbbaf673","2025-09-02_09h24.45.574",NA,NA,559.2017,559.2017,559.2017,559.5516,NA,NA,NA,NA,NA,NA,NA,TRUE,1,1.4967,556.2031,559.2016,NA,NA,NA,NA,NA,40,40,0,22,22,51,1,2,23,"binary"
"8784FE690A76442085157931DB41E1FD",1,"01990a99-b9b5-7cb1-89fb-620b3453727b","01990a83-7673-7c0c-a792-bbd8fbbaf673","2025-09-02_09h24.45.574",NA,NA,562.5514,562.5514,562.5515,562.9012,NA,NA,NA,NA,NA,NA,NA,TRUE,1,0.9789,559.5533,562.5511,NA,NA,NA,NA,NA,25,33,0,23,23,33,1,2,24,"binary"
"8784FE690A76442085157931DB41E1FD",1,"01990a99-b9b5-7cb1-89fb-620b3453727b","01990a83-7673-7c0c-a792-bbd8fbbaf673","2025-09-02_09h24.45.574",NA,NA,565.9005,565.9005,565.9005,566.2504,NA,NA,NA,NA,NA,NA,NA,TRUE,1,0.8121,562.9032,565.9005,NA,NA,NA,NA,NA,40,35,0,24,24,50,1,2,25,"binary"
"8784FE690A76442085157931DB41E1FD",1,"01990a99-b9b5-7cb1-89fb-620b3453727b","01990a83-7673-7c0c-a792-bbd8fbbaf673","2025-09-02_09h24.45.574",NA,NA,569.2501,569.2502,569.2502,569.6006,NA,NA,NA,NA,NA,NA,NA,TRUE,1,0.7521,566.2512,569.25,NA,NA,NA,NA,NA,10,29,0,25,25,9,1,2,26,"binary"
"8784FE690A76442085157931DB41E1FD",1,"01990a99-b9b5-7cb1-89fb-620b3453727b","01990a83-7673-7c0c-a792-bbd8fbbaf673","2025-09-02_09h24.45.574",NA,NA,572.6002,572.6002,572.6002,572.9502,NA,NA,NA,NA,NA,NA,NA,TRUE,1,0.8679,569.6028,572.6001,NA,NA,NA,NA,NA,45,31,0,26,26,56,1,2,27,"binary"
"8784FE690A76442085157931DB41E1FD",1,"01990a99-b9b5-7cb1-89fb-620b3453727b","01990a83-7673-7c0c-a792-bbd8fbbaf673","2025-09-02_09h24.45.574",NA,NA,575.9501,575.9502,575.9502,576.3163,NA,NA,NA,NA,NA,NA,NA,TRUE,1,1.5682,572.9518,575.95,NA,NA,NA,NA,NA,90,26,0,27,27,72,1,2,28,"binary"
"8784FE690A76442085157931DB41E1FD",1,"01990a99-b9b5-7cb1-89fb-620b3453727b","01990a83-7673-7c0c-a792-bbd8fbbaf673","2025-09-02_09h24.45.574",NA,NA,579.3161,579.3162,579.3162,579.6659,NA,NA,NA,NA,NA,NA,NA,TRUE,2,1.2349,576.3182,579.3159,NA,NA,NA,NA,NA,12,33,0,28,28,16,1,2,29,"binary"
"8784FE690A76442085157931DB41E1FD",1,"01990a99-b9b5-7cb1-89fb-620b3453727b","01990a83-7673-7c0c-a792-bbd8fbbaf673","2025-09-02_09h24.45.574",NA,NA,582.6656,582.6657,582.6657,583.0153,NA,NA,NA,NA,NA,NA,NA,TRUE,1,0.8634,579.6679,582.6655,NA,NA,NA,NA,NA,45,26,0,29,29,54,1,2,30,"binary"
"8784FE690A76442085157931DB41E1FD",1,"01990a99-b9b5-7cb1-89fb-620b3453727b","01990a83-7673-7c0c-a792-bbd8fbbaf673","2025-09-02_09h24.45.574",NA,NA,586.0151,586.0152,586.0152,586.3648,NA,NA,NA,NA,NA,NA,NA,TRUE,1,0.7336,583.0178,586.015,NA,NA,NA,NA,NA,150,33,0,30,30,91,1,2,31,"binary"
"8784FE690A76442085157931DB41E1FD",1,"01990a99-b9b5-7cb1-89fb-620b3453727b","01990a83-7673-7c0c-a792-bbd8fbbaf673","2025-09-02_09h24.45.574",NA,NA,589.3648,589.3648,589.3648,589.7144,NA,NA,NA,NA,NA,NA,NA,TRUE,1,0.7984,586.3657,589.3646,NA,NA,NA,NA,NA,90,54,0,31,31,77,1,2,32,"binary"
"8784FE690A76442085157931DB41E1FD",1,"01990a99-b9b5-7cb1-89fb-620b3453727b","01990a83-7673-7c0c-a792-bbd8fbbaf673","2025-09-02_09h24.45.574",NA,NA,592.7142,592.7143,592.7143,593.0642,NA,NA,NA,NA,NA,NA,NA,TRUE,2,1.0839,589.7165,592.7141,NA,NA,NA,NA,NA,14,39,0,32,32,23,1,2,33,"binary"
"8784FE690A76442085157931DB41E1FD",1,"01990a99-b9b5-7cb1-89fb-620b3453727b","01990a83-7673-7c0c-a792-bbd8fbbaf673","2025-09-02_09h24.45.574",NA,NA,596.064,596.0641,596.0641,596.4136,NA,NA,NA,NA,NA,NA,NA,TRUE,1,0.7122,593.0662,596.0638,NA,NA,NA,NA,NA,10,26,0,33,33,7,1,2,34,"binary"
"8784FE690A76442085157931DB41E1FD",1,"01990a99-b9b5-7cb1-89fb-620b3453727b","01990a83-7673-7c0c-a792-bbd8fbbaf673","2025-09-02_09h24.45.574",NA,NA,599.4135,599.4136,599.4136,599.7633,NA,NA,NA,NA,NA,NA,NA,TRUE,1,0.7351,596.4158,599.4134,NA,NA,NA,NA,NA,200,35,0,34,34,104,1,2,35,"binary"
"8784FE690A76442085157931DB41E1FD",1,"01990a99-b9b5-7cb1-89fb-620b3453727b","01990a83-7673-7c0c-a792-bbd8fbbaf673","2025-09-02_09h24.45.574",NA,NA,602.763,602.7631,602.7631,603.113,NA,NA,NA,NA,NA,NA,NA,TRUE,1,0.596,599.7654,602.7629,NA,NA,NA,NA,NA,12,26,0,35,35,13,1,2,36,"binary"
"8784FE690A76442085157931DB41E1FD",1,"01990a99-b9b5-7cb1-89fb-620b3453727b","01990a83-7673-7c0c-a792-bbd8fbbaf673","2025-09-02_09h24.45.574",NA,NA,606.1128,606.1129,606.1129,606.4621,NA,NA,NA,NA,NA,NA,NA,TRUE,1,0.8365,603.1151,606.1127,NA,NA,NA,NA,NA,90,33,0,36,36,74,1,2,37,"binary"
"8784FE690A76442085157931DB41E1FD",1,"01990a99-b9b5-7cb1-89fb-620b3453727b","01990a83-7673-7c0c-a792-bbd8fbbaf673","2025-09-02_09h24.45.574",NA,NA,609.4623,609.4623,609.4623,609.8121,NA,NA,NA,NA,NA,NA,NA,TRUE,1,0.9385,606.4629,609.4621,NA,NA,NA,NA,NA,90,46,0,37,37,76,1,2,38,"binary"
"8784FE690A76442085157931DB41E1FD",1,"01990a99-b9b5-7cb1-89fb-620b3453727b","01990a83-7673-7c0c-a792-bbd8fbbaf673","2025-09-02_09h24.45.574",NA,NA,612.8119,612.812,612.812,613.1618,NA,NA,NA,NA,NA,NA,NA,TRUE,1,0.7796,609.814,612.8118,NA,NA,NA,NA,NA,30,30,0,38,38,45,1,2,39,"binary"
"8784FE690A76442085157931DB41E1FD",1,"01990a99-b9b5-7cb1-89fb-620b3453727b","01990a83-7673-7c0c-a792-bbd8fbbaf673","2025-09-02_09h24.45.574",NA,NA,616.1616,616.1616,616.1616,616.5114,NA,NA,NA,NA,NA,NA,NA,TRUE,1,0.7321,613.1644,616.1613,NA,NA,NA,NA,NA,180,31,0,39,39,97,1,2,40,"binary"
"8784FE690A76442085157931DB41E1FD",1,"01990a99-b9b5-7cb1-89fb-620b3453727b","01990a83-7673-7c0c-a792-bbd8fbbaf673","2025-09-02_09h24.45.574",NA,NA,619.511,619.511,619.5111,619.8605,NA,NA,NA,NA,NA,NA,NA,TRUE,1,1.1974,616.5137,619.5109,NA,NA,NA,NA,NA,14,28,0,40,40,20,1,2,41,"binary"
"8784FE690A76442085157931DB41E1FD",1,"01990a99-b9b5-7cb1-89fb-620b3453727b","01990a83-7673-7c0c-a792-bbd8fbbaf673","2025-09-02_09h24.45.574",NA,NA,622.8606,622.8606,622.8607,623.2103,NA,NA,NA,NA,NA,NA,NA,TRUE,1,0.8223,619.8613,622.8605,NA,NA,NA,NA,NA,45,35,0,41,41,57,1,2,42,"binary"
"8784FE690A76442085157931DB41E1FD",1,"01990a99-b9b5-7cb1-89fb-620b3453727b","01990a83-7673-7c0c-a792-bbd8fbbaf673","2025-09-02_09h24.45.574",NA,NA,626.2099,626.2099,626.2099,626.56,NA,NA,NA,NA,NA,NA,NA,TRUE,1,0.6723,623.2116,626.2098,NA,NA,NA,NA,NA,28,26,0,42,42,36,1,2,43,"binary"
"8784FE690A76442085157931DB41E1FD",1,"01990a99-b9b5-7cb1-89fb-620b3453727b","01990a83-7673-7c0c-a792-bbd8fbbaf673","2025-09-02_09h24.45.574",NA,NA,629.56,629.56,629.56,629.9097,NA,NA,NA,NA,NA,NA,NA,TRUE,1,1.0345,626.5617,629.5597,NA,NA,NA,NA,NA,40,54,0,43,43,53,1,2,44,"binary"
"8784FE690A76442085157931DB41E1FD",1,"01990a99-b9b5-7cb1-89fb-620b3453727b","01990a83-7673-7c0c-a792-bbd8fbbaf673","2025-09-02_09h24.45.574",NA,NA,632.9096,632.9096,632.9096,633.2592,NA,NA,NA,NA,NA,NA,NA,TRUE,1,0.821,629.9117,632.9094,NA,NA,NA,NA,NA,50,35,0,44,44,62,1,2,45,"binary"
"8784FE690A76442085157931DB41E1FD",1,"01990a99-b9b5-7cb1-89fb-620b3453727b","01990a83-7673-7c0c-a792-bbd8fbbaf673","2025-09-02_09h24.45.574",NA,NA,638.643,638.643,638.6431,638.6431,NA,NA,NA,NA,NA,NA,NA,TRUE,1,0.7682,633.2612,638.6429,NA,NA,NA,NA,NA,7,26,0,45,45,1,1,2,46,"binary"
"8784FE690A76442085157931DB41E1FD",1,"01990a99-b9b5-7cb1-89fb-620b3453727b","01990a83-7673-7c0c-a792-bbd8fbbaf673","2025-09-02_09h24.45.574",NA,NA,638.6583,639.8583,639.8583,639.9583,NA,NA,NA,NA,NA,NA,NA,FALSE,NA,NA,638.6437,638.6582,NA,NA,NA,NA,NA,30,38,0,46,46,47,1,2,47,"binary"
"8784FE690A76442085157931DB41E1FD",1,"01990a99-b9b5-7cb1-89fb-620b3453727b","01990a83-7673-7c0c-a792-bbd8fbbaf673","2025-09-02_09h24.45.574",NA,NA,642.9583,642.9583,642.9583,643.308,NA,NA,NA,NA,NA,NA,NA,TRUE,1,1.0759,639.9596,642.9582,NA,NA,NA,NA,NA,40,33,0,47,47,49,1,2,48,"binary"
"8784FE690A76442085157931DB41E1FD",1,"01990a99-b9b5-7cb1-89fb-620b3453727b","01990a83-7673-7c0c-a792-bbd8fbbaf673","2025-09-02_09h24.45.574",NA,NA,646.3078,646.3078,646.3078,646.6572,NA,NA,NA,NA,NA,NA,NA,TRUE,1,1.2223,643.3101,646.3077,NA,NA,NA,NA,NA,95,40,0,48,48,81,1,2,49,"binary"
"8784FE690A76442085157931DB41E1FD",1,"01990a99-b9b5-7cb1-89fb-620b3453727b","01990a83-7673-7c0c-a792-bbd8fbbaf673","2025-09-02_09h24.45.574",NA,NA,649.6573,649.6573,649.6573,650.0073,NA,NA,NA,NA,NA,NA,NA,TRUE,1,0.8521,646.658,649.6572,NA,NA,NA,NA,NA,60,40,0,49,49,69,1,2,50,"binary"
"8784FE690A76442085157931DB41E1FD",1,"01990a99-b9b5-7cb1-89fb-620b3453727b","01990a83-7673-7c0c-a792-bbd8fbbaf673","2025-09-02_09h24.45.574",NA,NA,653.0071,653.0071,653.0071,653.3568,NA,NA,NA,NA,NA,NA,NA,TRUE,1,1.1011,650.0097,653.0069,NA,NA,NA,NA,NA,21,32,0,50,50,28,1,2,51,"binary"
"8784FE690A76442085157931DB41E1FD",1,"01990a99-b9b5-7cb1-89fb-620b3453727b","01990a83-7673-7c0c-a792-bbd8fbbaf673","2025-09-02_09h24.45.574",NA,NA,656.3566,656.3566,656.3567,656.7065,NA,NA,NA,NA,NA,NA,NA,TRUE,1,0.8692,653.3589,656.3564,NA,NA,NA,NA,NA,45,40,0,51,51,58,1,2,52,"binary"
"8784FE690A76442085157931DB41E1FD",1,"01990a99-b9b5-7cb1-89fb-620b3453727b","01990a83-7673-7c0c-a792-bbd8fbbaf673","2025-09-02_09h24.45.574",NA,NA,659.7062,659.7062,659.7062,660.056,NA,NA,NA,NA,NA,NA,NA,TRUE,1,0.7841,656.7088,659.7061,NA,NA,NA,NA,NA,95,35,0,52,52,80,1,2,53,"binary"
"8784FE690A76442085157931DB41E1FD",1,"01990a99-b9b5-7cb1-89fb-620b3453727b","01990a83-7673-7c0c-a792-bbd8fbbaf673","2025-09-02_09h24.45.574",NA,NA,663.0558,663.0558,663.0558,663.4056,NA,NA,NA,NA,NA,NA,NA,TRUE,1,0.7532,660.0581,663.0556,NA,NA,NA,NA,NA,200,26,0,53,53,102,1,2,54,"binary"
"8784FE690A76442085157931DB41E1FD",1,"01990a99-b9b5-7cb1-89fb-620b3453727b","01990a83-7673-7c0c-a792-bbd8fbbaf673","2025-09-02_09h24.45.574",NA,NA,666.4054,666.4054,666.4054,666.7552,NA,NA,NA,NA,NA,NA,NA,TRUE,2,1.168,663.4078,666.4052,NA,NA,NA,NA,NA,21,38,0,54,54,29,1,2,55,"binary"
"8784FE690A76442085157931DB41E1FD",1,"01990a99-b9b5-7cb1-89fb-620b3453727b","01990a83-7673-7c0c-a792-bbd8fbbaf673","2025-09-02_09h24.45.574",NA,NA,669.7548,669.7548,669.7548,670.1046,NA,NA,NA,NA,NA,NA,NA,TRUE,2,0.855,666.7566,669.7547,NA,NA,NA,NA,NA,12,35,0,55,55,17,1,2,56,"binary"
"8784FE690A76442085157931DB41E1FD",1,"01990a99-b9b5-7cb1-89fb-620b3453727b","01990a83-7673-7c0c-a792-bbd8fbbaf673","2025-09-02_09h24.45.574",NA,NA,673.1048,673.1048,673.1048,673.4539,NA,NA,NA,NA,NA,NA,NA,TRUE,1,0.6603,670.1066,673.1047,NA,NA,NA,NA,NA,180,35,0,56,56,98,1,2,57,"binary"
"8784FE690A76442085157931DB41E1FD",1,"01990a99-b9b5-7cb1-89fb-620b3453727b","01990a83-7673-7c0c-a792-bbd8fbbaf673","2025-09-02_09h24.45.574",NA,NA,676.4543,676.4543,676.4543,676.8039,NA,NA,NA,NA,NA,NA,NA,TRUE,1,0.8924,673.4546,676.454,NA,NA,NA,NA,NA,10,27,0,57,57,8,1,2,58,"binary"
"8784FE690A76442085157931DB41E1FD",1,"01990a99-b9b5-7cb1-89fb-620b3453727b","01990a83-7673-7c0c-a792-bbd8fbbaf673","2025-09-02_09h24.45.574",NA,NA,679.8032,679.8032,679.8032,680.1534,NA,NA,NA,NA,NA,NA,NA,TRUE,1,0.8784,676.8058,679.8031,NA,NA,NA,NA,NA,50,40,0,58,58,63,1,2,59,"binary"
"8784FE690A76442085157931DB41E1FD",1,"01990a99-b9b5-7cb1-89fb-620b3453727b","01990a83-7673-7c0c-a792-bbd8fbbaf673","2025-09-02_09h24.45.574",NA,NA,683.1534,683.1534,683.1534,683.503,NA,NA,NA,NA,NA,NA,NA,TRUE,1,0.668,680.1553,683.1533,NA,NA,NA,NA,NA,60,54,0,59,59,71,1,2,60,"binary"
"8784FE690A76442085157931DB41E1FD",1,"01990a99-b9b5-7cb1-89fb-620b3453727b","01990a83-7673-7c0c-a792-bbd8fbbaf673","2025-09-02_09h24.45.574",NA,NA,686.5029,686.5029,686.5029,686.8527,NA,NA,NA,NA,NA,NA,NA,TRUE,1,0.7175,683.5043,686.5027,NA,NA,NA,NA,NA,100,54,0,60,60,89,1,2,61,"binary"
"8784FE690A76442085157931DB41E1FD",1,"01990a99-b9b5-7cb1-89fb-620b3453727b","01990a83-7673-7c0c-a792-bbd8fbbaf673","2025-09-02_09h24.45.574",NA,NA,689.8525,689.8525,689.8525,690.2023,NA,NA,NA,NA,NA,NA,NA,TRUE,1,0.7185,686.8548,689.8524,NA,NA,NA,NA,NA,95,47,0,61,61,82,1,2,62,"binary"
"8784FE690A76442085157931DB41E1FD",1,"01990a99-b9b5-7cb1-89fb-620b3453727b","01990a83-7673-7c0c-a792-bbd8fbbaf673","2025-09-02_09h24.45.574",NA,NA,693.2018,693.2018,693.2018,693.5517,NA,NA,NA,NA,NA,NA,NA,TRUE,1,0.8081,690.2043,693.2018,NA,NA,NA,NA,NA,100,46,0,62,62,88,1,2,63,"binary"
"8784FE690A76442085157931DB41E1FD",1,"01990a99-b9b5-7cb1-89fb-620b3453727b","01990a83-7673-7c0c-a792-bbd8fbbaf673","2025-09-02_09h24.45.574",NA,NA,696.5516,696.5517,696.5517,696.9011,NA,NA,NA,NA,NA,NA,NA,TRUE,1,0.8509,693.5539,696.5515,NA,NA,NA,NA,NA,30,26,0,63,63,42,1,2,64,"binary"
"8784FE690A76442085157931DB41E1FD",1,"01990a99-b9b5-7cb1-89fb-620b3453727b","01990a83-7673-7c0c-a792-bbd8fbbaf673","2025-09-02_09h24.45.574",NA,NA,699.9011,699.9012,699.9012,700.251,NA,NA,NA,NA,NA,NA,NA,TRUE,1,0.8133,696.902,699.901,NA,NA,NA,NA,NA,90,30,0,64,64,73,1,2,65,"binary"
"8784FE690A76442085157931DB41E1FD",1,"01990a99-b9b5-7cb1-89fb-620b3453727b","01990a83-7673-7c0c-a792-bbd8fbbaf673","2025-09-02_09h24.45.574",NA,NA,703.2507,703.2508,703.2508,703.6006,NA,NA,NA,NA,NA,NA,NA,TRUE,1,0.6798,700.2528,703.2506,NA,NA,NA,NA,NA,14,26,0,65,65,19,1,2,66,"binary"
"8784FE690A76442085157931DB41E1FD",1,"01990a99-b9b5-7cb1-89fb-620b3453727b","01990a83-7673-7c0c-a792-bbd8fbbaf673","2025-09-02_09h24.45.574",NA,NA,706.6004,706.6004,706.6004,706.9501,NA,NA,NA,NA,NA,NA,NA,TRUE,1,0.7379,703.6026,706.6002,NA,NA,NA,NA,NA,100,31,0,66,66,85,1,2,67,"binary"
"8784FE690A76442085157931DB41E1FD",1,"01990a99-b9b5-7cb1-89fb-620b3453727b","01990a83-7673-7c0c-a792-bbd8fbbaf673","2025-09-02_09h24.45.574",NA,NA,709.95,709.95,709.95,710.3166,NA,NA,NA,NA,NA,NA,NA,TRUE,1,0.7883,706.9522,709.9498,NA,NA,NA,NA,NA,28,32,0,67,67,38,1,2,68,"binary"
"8784FE690A76442085157931DB41E1FD",1,"01990a99-b9b5-7cb1-89fb-620b3453727b","01990a83-7673-7c0c-a792-bbd8fbbaf673","2025-09-02_09h24.45.574",NA,NA,713.3163,713.3163,713.3164,713.666,NA,NA,NA,NA,NA,NA,NA,TRUE,1,0.6412,710.3186,713.3162,NA,NA,NA,NA,NA,150,47,0,68,68,94,1,2,69,"binary"
"8784FE690A76442085157931DB41E1FD",1,"01990a99-b9b5-7cb1-89fb-620b3453727b","01990a83-7673-7c0c-a792-bbd8fbbaf673","2025-09-02_09h24.45.574",NA,NA,716.6659,716.666,716.666,717.0155,NA,NA,NA,NA,NA,NA,NA,TRUE,1,0.6211,713.6678,716.6658,NA,NA,NA,NA,NA,28,39,0,69,69,40,1,2,70,"binary"
"8784FE690A76442085157931DB41E1FD",1,"01990a99-b9b5-7cb1-89fb-620b3453727b","01990a83-7673-7c0c-a792-bbd8fbbaf673","2025-09-02_09h24.45.574",NA,NA,720.0155,720.0155,720.0155,720.3652,NA,NA,NA,NA,NA,NA,NA,TRUE,1,0.6863,717.0176,720.0153,NA,NA,NA,NA,NA,100,38,0,70,70,86,1,2,71,"binary"
"8784FE690A76442085157931DB41E1FD",1,"01990a99-b9b5-7cb1-89fb-620b3453727b","01990a83-7673-7c0c-a792-bbd8fbbaf673","2025-09-02_09h24.45.574",NA,NA,723.3651,723.3651,723.3651,723.7149,NA,NA,NA,NA,NA,NA,NA,TRUE,1,0.7679,720.3673,723.3649,NA,NA,NA,NA,NA,30,29,0,71,71,44,1,2,72,"binary"
"8784FE690A76442085157931DB41E1FD",1,"01990a99-b9b5-7cb1-89fb-620b3453727b","01990a83-7673-7c0c-a792-bbd8fbbaf673","2025-09-02_09h24.45.574",NA,NA,726.7146,726.7146,726.7147,727.0642,NA,NA,NA,NA,NA,NA,NA,TRUE,1,0.7795,723.717,726.7145,NA,NA,NA,NA,NA,150,35,0,72,72,92,1,2,73,"binary"
"8784FE690A76442085157931DB41E1FD",1,"01990a99-b9b5-7cb1-89fb-620b3453727b","01990a83-7673-7c0c-a792-bbd8fbbaf673","2025-09-02_09h24.45.574",NA,NA,730.0641,730.0641,730.0641,730.414,NA,NA,NA,NA,NA,NA,NA,TRUE,1,0.9779,727.0649,730.064,NA,NA,NA,NA,NA,25,31,0,73,73,32,1,2,74,"binary"
"8784FE690A76442085157931DB41E1FD",1,"01990a99-b9b5-7cb1-89fb-620b3453727b","01990a83-7673-7c0c-a792-bbd8fbbaf673","2025-09-02_09h24.45.574",NA,NA,733.4134,733.4134,733.4134,733.7635,NA,NA,NA,NA,NA,NA,NA,TRUE,1,0.8065,730.4162,733.4133,NA,NA,NA,NA,NA,95,54,0,74,74,83,1,2,75,"binary"
"8784FE690A76442085157931DB41E1FD",1,"01990a99-b9b5-7cb1-89fb-620b3453727b","01990a83-7673-7c0c-a792-bbd8fbbaf673","2025-09-02_09h24.45.574",NA,NA,736.7634,736.7635,736.7635,737.1133,NA,NA,NA,NA,NA,NA,NA,TRUE,1,0.8017,733.7657,736.7633,NA,NA,NA,NA,NA,25,29,0,75,75,31,1,2,76,"binary"
"8784FE690A76442085157931DB41E1FD",1,"01990a99-b9b5-7cb1-89fb-620b3453727b","01990a83-7673-7c0c-a792-bbd8fbbaf673","2025-09-02_09h24.45.574",NA,NA,740.113,740.1131,740.1131,740.4627,NA,NA,NA,NA,NA,NA,NA,TRUE,1,0.6351,737.1155,740.1129,NA,NA,NA,NA,NA,100,26,0,76,76,84,1,2,77,"binary"
"8784FE690A76442085157931DB41E1FD",1,"01990a99-b9b5-7cb1-89fb-620b3453727b","01990a83-7673-7c0c-a792-bbd8fbbaf673","2025-09-02_09h24.45.574",NA,NA,743.4623,743.4623,743.4624,743.8123,NA,NA,NA,NA,NA,NA,NA,TRUE,1,0.7483,740.464,743.4622,NA,NA,NA,NA,NA,150,31,0,77,77,90,1,2,78,"binary"
"8784FE690A76442085157931DB41E1FD",1,"01990a99-b9b5-7cb1-89fb-620b3453727b","01990a83-7673-7c0c-a792-bbd8fbbaf673","2025-09-02_09h24.45.574",NA,NA,746.8121,746.8121,746.8121,747.1616,NA,NA,NA,NA,NA,NA,NA,TRUE,2,1.0018,743.8145,746.8119,NA,NA,NA,NA,NA,28,35,0,78,78,39,1,2,79,"binary"
"8784FE690A76442085157931DB41E1FD",1,"01990a99-b9b5-7cb1-89fb-620b3453727b","01990a83-7673-7c0c-a792-bbd8fbbaf673","2025-09-02_09h24.45.574",NA,NA,750.1613,750.1613,750.1613,750.5114,NA,NA,NA,NA,NA,NA,NA,TRUE,1,1.0159,747.1626,750.1613,NA,NA,NA,NA,NA,60,47,0,79,79,70,1,2,80,"binary"
"8784FE690A76442085157931DB41E1FD",1,"01990a99-b9b5-7cb1-89fb-620b3453727b","01990a83-7673-7c0c-a792-bbd8fbbaf673","2025-09-02_09h24.45.574",NA,NA,753.5113,753.5113,753.5113,753.861,NA,NA,NA,NA,NA,NA,NA,TRUE,1,1.9632,750.5132,753.5111,NA,NA,NA,NA,NA,25,35,0,80,80,34,1,2,81,"binary"
"8784FE690A76442085157931DB41E1FD",1,"01990a99-b9b5-7cb1-89fb-620b3453727b","01990a83-7673-7c0c-a792-bbd8fbbaf673","2025-09-02_09h24.45.574",NA,NA,756.861,756.861,756.8611,757.2106,NA,NA,NA,NA,NA,NA,NA,TRUE,2,0.889,753.8632,756.8608,NA,NA,NA,NA,NA,7,35,0,81,81,5,1,2,82,"binary"
"8784FE690A76442085157931DB41E1FD",1,"01990a99-b9b5-7cb1-89fb-620b3453727b","01990a83-7673-7c0c-a792-bbd8fbbaf673","2025-09-02_09h24.45.574",NA,NA,760.2104,760.2104,760.2104,760.5603,NA,NA,NA,NA,NA,NA,NA,TRUE,2,0.8192,757.2126,760.2103,NA,NA,NA,NA,NA,10,32,0,82,82,11,1,2,83,"binary"
"8784FE690A76442085157931DB41E1FD",1,"01990a99-b9b5-7cb1-89fb-620b3453727b","01990a83-7673-7c0c-a792-bbd8fbbaf673","2025-09-02_09h24.45.574",NA,NA,763.56,763.56,763.5601,763.9098,NA,NA,NA,NA,NA,NA,NA,TRUE,1,1.2698,760.5624,763.5599,NA,NA,NA,NA,NA,21,30,0,83,83,27,1,2,84,"binary"
"8784FE690A76442085157931DB41E1FD",1,"01990a99-b9b5-7cb1-89fb-620b3453727b","01990a83-7673-7c0c-a792-bbd8fbbaf673","2025-09-02_09h24.45.574",NA,NA,766.9097,766.9097,766.9097,767.2592,NA,NA,NA,NA,NA,NA,NA,TRUE,1,0.853,763.9122,766.9095,NA,NA,NA,NA,NA,21,29,0,84,84,26,1,2,85,"binary"
"8784FE690A76442085157931DB41E1FD",1,"01990a99-b9b5-7cb1-89fb-620b3453727b","01990a83-7673-7c0c-a792-bbd8fbbaf673","2025-09-02_09h24.45.574",NA,NA,770.2593,770.2593,770.2593,770.609,NA,NA,NA,NA,NA,NA,NA,TRUE,2,1.5274,767.2603,770.2592,NA,NA,NA,NA,NA,10,30,0,85,85,10,1,2,86,"binary"
"8784FE690A76442085157931DB41E1FD",1,"01990a99-b9b5-7cb1-89fb-620b3453727b","01990a83-7673-7c0c-a792-bbd8fbbaf673","2025-09-02_09h24.45.574",NA,NA,773.6087,773.6088,773.6088,773.9586,NA,NA,NA,NA,NA,NA,NA,TRUE,1,1.0013,770.611,773.6086,NA,NA,NA,NA,NA,10,25,0,86,86,6,1,2,87,"binary"
"8784FE690A76442085157931DB41E1FD",1,"01990a99-b9b5-7cb1-89fb-620b3453727b","01990a83-7673-7c0c-a792-bbd8fbbaf673","2025-09-02_09h24.45.574",NA,NA,776.9584,776.9584,776.9584,777.3082,NA,NA,NA,NA,NA,NA,NA,TRUE,1,0.9176,773.9607,776.9583,NA,NA,NA,NA,NA,50,54,0,87,87,65,1,2,88,"binary"
"8784FE690A76442085157931DB41E1FD",1,"01990a99-b9b5-7cb1-89fb-620b3453727b","01990a83-7673-7c0c-a792-bbd8fbbaf673","2025-09-02_09h24.45.574",NA,NA,780.3081,780.3081,780.3081,780.6575,NA,NA,NA,NA,NA,NA,NA,TRUE,1,0.7343,777.3103,780.3079,NA,NA,NA,NA,NA,200,47,0,88,88,106,1,2,89,"binary"
"8784FE690A76442085157931DB41E1FD",1,"01990a99-b9b5-7cb1-89fb-620b3453727b","01990a83-7673-7c0c-a792-bbd8fbbaf673","2025-09-02_09h24.45.574",NA,NA,783.6575,783.6576,783.6576,784.0072,NA,NA,NA,NA,NA,NA,NA,TRUE,1,0.713,780.6582,783.6574,NA,NA,NA,NA,NA,95,33,0,89,89,79,1,2,90,"binary"
"8784FE690A76442085157931DB41E1FD",1,"01990a99-b9b5-7cb1-89fb-620b3453727b","01990a83-7673-7c0c-a792-bbd8fbbaf673","2025-09-02_09h24.45.574",NA,NA,787.0069,787.0069,787.0069,787.3568,NA,NA,NA,NA,NA,NA,NA,TRUE,1,0.9187,784.0083,787.0068,NA,NA,NA,NA,NA,40,27,0,90,90,48,1,2,91,"binary"
"8784FE690A76442085157931DB41E1FD",1,"01990a99-b9b5-7cb1-89fb-620b3453727b","01990a83-7673-7c0c-a792-bbd8fbbaf673","2025-09-02_09h24.45.574",NA,NA,790.3569,790.3569,790.3569,790.7067,NA,NA,NA,NA,NA,NA,NA,TRUE,1,0.7257,787.3582,790.3568,NA,NA,NA,NA,NA,60,35,0,91,91,68,1,2,92,"binary"
"8784FE690A76442085157931DB41E1FD",1,"01990a99-b9b5-7cb1-89fb-620b3453727b","01990a83-7673-7c0c-a792-bbd8fbbaf673","2025-09-02_09h24.45.574",NA,NA,793.7064,793.7064,793.7064,794.0562,NA,NA,NA,NA,NA,NA,NA,TRUE,1,0.6002,790.7089,793.7063,NA,NA,NA,NA,NA,14,25,0,92,92,18,1,2,93,"binary"
"8784FE690A76442085157931DB41E1FD",1,"01990a99-b9b5-7cb1-89fb-620b3453727b","01990a83-7673-7c0c-a792-bbd8fbbaf673","2025-09-02_09h24.45.574",NA,NA,797.0559,797.056,797.056,797.4058,NA,NA,NA,NA,NA,NA,NA,TRUE,1,0.5864,794.0576,797.0558,NA,NA,NA,NA,NA,180,46,0,93,93,100,1,2,94,"binary"
"8784FE690A76442085157931DB41E1FD",1,"01990a99-b9b5-7cb1-89fb-620b3453727b","01990a83-7673-7c0c-a792-bbd8fbbaf673","2025-09-02_09h24.45.574",NA,NA,800.4057,800.4057,800.4057,800.7555,NA,NA,NA,NA,NA,NA,NA,TRUE,1,0.734,797.4079,800.4056,NA,NA,NA,NA,NA,45,29,0,94,94,55,1,2,95,"binary"
"8784FE690A76442085157931DB41E1FD",1,"01990a99-b9b5-7cb1-89fb-620b3453727b","01990a83-7673-7c0c-a792-bbd8fbbaf673","2025-09-02_09h24.45.574",NA,NA,803.7553,803.7553,803.7553,804.1049,NA,NA,NA,NA,NA,NA,NA,TRUE,1,0.935,800.7576,803.7552,NA,NA,NA,NA,NA,200,39,0,95,95,105,1,2,96,"binary"
"8784FE690A76442085157931DB41E1FD",1,"01990a99-b9b5-7cb1-89fb-620b3453727b","01990a83-7673-7c0c-a792-bbd8fbbaf673","2025-09-02_09h24.45.574",NA,NA,807.1049,807.1049,807.105,807.4549,NA,NA,NA,NA,NA,NA,NA,TRUE,1,0.6003,804.107,807.1047,NA,NA,NA,NA,NA,150,40,0,96,96,93,1,2,97,"binary"
"8784FE690A76442085157931DB41E1FD",1,"01990a99-b9b5-7cb1-89fb-620b3453727b","01990a83-7673-7c0c-a792-bbd8fbbaf673","2025-09-02_09h24.45.574",NA,NA,810.454,810.454,810.454,810.8041,NA,NA,NA,NA,NA,NA,NA,TRUE,1,0.6845,807.4568,810.454,NA,NA,NA,NA,NA,21,26,0,97,97,24,1,2,98,"binary"
"8784FE690A76442085157931DB41E1FD",1,"01990a99-b9b5-7cb1-89fb-620b3453727b","01990a83-7673-7c0c-a792-bbd8fbbaf673","2025-09-02_09h24.45.574",NA,NA,813.8039,813.804,813.804,814.1538,NA,NA,NA,NA,NA,NA,NA,TRUE,1,1.054,810.8062,813.8037,NA,NA,NA,NA,NA,60,33,0,98,98,67,1,2,99,"binary"
"8784FE690A76442085157931DB41E1FD",1,"01990a99-b9b5-7cb1-89fb-620b3453727b","01990a83-7673-7c0c-a792-bbd8fbbaf673","2025-09-02_09h24.45.574",NA,NA,817.1536,817.1537,817.1537,817.5034,NA,NA,NA,NA,NA,NA,NA,TRUE,1,0.7851,814.156,817.1535,NA,NA,NA,NA,NA,200,54,0,99,99,107,1,2,100,"binary"
"8784FE690A76442085157931DB41E1FD",1,"01990a99-b9b5-7cb1-89fb-620b3453727b","01990a83-7673-7c0c-a792-bbd8fbbaf673","2025-09-02_09h24.45.574",NA,NA,820.5028,820.5028,820.5028,820.8528,NA,NA,NA,NA,NA,NA,NA,TRUE,1,0.6674,817.5055,820.5027,NA,NA,NA,NA,NA,180,39,0,100,100,99,1,2,101,"binary"
"8784FE690A76442085157931DB41E1FD",1,"01990a99-b9b5-7cb1-89fb-620b3453727b","01990a83-7673-7c0c-a792-bbd8fbbaf673","2025-09-02_09h24.45.574",NA,NA,823.8524,823.8524,823.8524,824.2023,NA,NA,NA,NA,NA,NA,NA,TRUE,1,0.5839,820.8549,823.8523,NA,NA,NA,NA,NA,180,54,0,101,101,101,1,2,102,"binary"
"8784FE690A76442085157931DB41E1FD",1,"01990a99-b9b5-7cb1-89fb-620b3453727b","01990a83-7673-7c0c-a792-bbd8fbbaf673","2025-09-02_09h24.45.574",NA,NA,827.2024,827.2024,827.2024,827.5518,NA,NA,NA,NA,NA,NA,NA,TRUE,1,0.753,824.2031,827.2022,NA,NA,NA,NA,NA,30,32,0,102,102,46,1,2,103,"binary"
"8784FE690A76442085157931DB41E1FD",1,"01990a99-b9b5-7cb1-89fb-620b3453727b","01990a83-7673-7c0c-a792-bbd8fbbaf673","2025-09-02_09h24.45.574",NA,NA,830.5519,830.552,830.552,830.9016,NA,NA,NA,NA,NA,NA,NA,TRUE,2,0.8188,827.5526,830.5518,NA,NA,NA,NA,NA,14,32,0,103,103,21,1,2,104,"binary"
"8784FE690A76442085157931DB41E1FD",1,"01990a99-b9b5-7cb1-89fb-620b3453727b","01990a83-7673-7c0c-a792-bbd8fbbaf673","2025-09-02_09h24.45.574",NA,NA,833.9014,833.9014,833.9014,834.251,NA,NA,NA,NA,NA,NA,NA,TRUE,1,0.6528,830.9037,833.9012,NA,NA,NA,NA,NA,25,27,0,104,104,30,1,2,105,"binary"
"8784FE690A76442085157931DB41E1FD",1,"01990a99-b9b5-7cb1-89fb-620b3453727b","01990a83-7673-7c0c-a792-bbd8fbbaf673","2025-09-02_09h24.45.574",NA,NA,837.2511,837.2511,837.2511,837.6009,NA,NA,NA,NA,NA,NA,NA,TRUE,1,0.6795,834.2518,837.251,NA,NA,NA,NA,NA,30,27,0,105,105,43,1,2,106,"binary"
"8784FE690A76442085157931DB41E1FD",1,"01990a99-b9b5-7cb1-89fb-620b3453727b","01990a83-7673-7c0c-a792-bbd8fbbaf673","2025-09-02_09h24.45.574",NA,NA,840.6003,840.6003,840.6003,840.9504,NA,NA,NA,NA,NA,NA,NA,TRUE,1,0.7537,837.6028,840.6002,NA,NA,NA,NA,NA,95,31,0,106,106,78,1,2,107,"binary"
"8784FE690A76442085157931DB41E1FD",1,"01990a99-b9b5-7cb1-89fb-620b3453727b","01990a83-7673-7c0c-a792-bbd8fbbaf673","2025-09-02_09h24.45.574",NA,NA,843.9667,843.9667,843.9667,844.3001,NA,NA,NA,NA,NA,NA,NA,TRUE,1,0.7234,840.9526,843.9666,NA,NA,NA,NA,NA,60,29,0,107,107,66,1,2,108,"binary"
