"participant","session","assignmentId","projectId","date","practiceTrial.started","practiceTrial.stopped","tooLate.started","tooLate.stopped","blank.started","blank.stopped","trials_pract.thisRepN","trials_pract.thisTrialN","trials_pract.thisN","trials_pract.thisIndex","trials_pract.ran","delay_pract","amount_pract","responseMade","key","rt","trial.started","trial.stopped","trials.thisRepN","trials.thisTrialN","trials.thisN","trials.thisIndex","trials.ran","delay","amount","trials_2.thisRepN","trials_2.thisTrialN","trials_2.thisN","trials_2.thisIndex","trials_2.ran","block","trial","taskType"
"8C9FE60E2714498B80B48606915608E2",1,"01990aa2-d7d2-7332-a269-39bac79299f0","01990a83-7673-7c0c-a792-bbd8fbbaf673","2025-09-02_06h34.45.444",29.7336,32.7226,32.7233,32.7412,32.7412,33.0721,0,0,0,2,1,14,45,TRUE,2,1.8508,NA,NA,NA,NA,NA,NA,NA,NA,NA,NA,NA,NA,NA,NA,0,1,"binary"
"8C9FE60E2714498B80B48606915608E2",1,"01990aa2-d7d2-7332-a269-39bac79299f0","01990a83-7673-7c0c-a792-bbd8fbbaf673","2025-09-02_06h34.45.444",33.0745,36.072,36.0723,36.0724,36.0724,36.4218,0,1,1,1,1,100,50,TRUE,2,1.1504,NA,NA,NA,NA,NA,NA,NA,NA,NA,NA,NA,NA,NA,NA,0,2,"binary"
"8C9FE60E2714498B80B48606915608E2",1,"01990aa2-d7d2-7332-a269-39bac79299f0","01990a83-7673-7c0c-a792-bbd8fbbaf673","2025-09-02_06h34.45.444",36.4239,39.4216,39.4219,39.422,39.422,39.7725,0,2,2,0,1,7,30,TRUE,2,2.9044,NA,NA,NA,NA,NA,NA,NA,NA,NA,NA,NA,NA,NA,NA,0,3,"binary"
"8C9FE60E2714498B80B48606915608E2",1,"01990aa2-d7d2-7332-a269-39bac79299f0","01990a83-7673-7c0c-a792-bbd8fbbaf673","2025-09-02_06h34.45.444",39.7748,42.7717,42.7719,42.7719,42.7719,43.1223,0,3,3,4,1,30,40,TRUE,2,1.5703,NA,NA,NA,NA,NA,NA,NA,NA,NA,NA,NA,NA,NA,NA,0,4,"binary"
"8C9FE60E2714498B80B48606915608E2",1,"01990aa2-d7d2-7332-a269-39bac79299f0","01990a83-7673-7c0c-a792-bbd8fbbaf673","2025-09-02_06h34.45.444",43.1248,46.122,46.1225,46.1226,46.1226,46.4713,0,4,4,3,1,3,27,TRUE,2,1.7688,NA,NA,NA,NA,NA,NA,NA,NA,NA,NA,NA,NA,NA,NA,0,5,"binary"
"8C9FE60E2714498B80B48606915608E2",1,"01990aa2-d7d2-7332-a269-39bac79299f0","01990a83-7673-7c0c-a792-bbd8fbbaf673","2025-09-02_06h34.45.444",NA,NA,67.9215,67.9217,67.9217,68.2716,NA,NA,NA,NA,NA,NA,NA,TRUE,1,2.9787,64.9319,67.9214,0,0,0,55,1,45,29,NA,NA,NA,NA,NA,1,1,"binary"
"8C9FE60E2714498B80B48606915608E2",1,"01990aa2-d7d2-7332-a269-39bac79299f0","01990a83-7673-7c0c-a792-bbd8fbbaf673","2025-09-02_06h34.45.444",NA,NA,71.2714,71.2715,71.2715,71.6212,NA,NA,NA,NA,NA,NA,NA,TRUE,2,1.7803,68.2727,71.2714,0,1,1,10,1,10,30,NA,NA,NA,NA,NA,1,2,"binary"
"8C9FE60E2714498B80B48606915608E2",1,"01990aa2-d7d2-7332-a269-39bac79299f0","01990a83-7673-7c0c-a792-bbd8fbbaf673","2025-09-02_06h34.45.444",NA,NA,74.6214,74.6214,74.6214,74.9712,NA,NA,NA,NA,NA,NA,NA,TRUE,2,1.7339,71.6222,74.6213,0,2,2,59,1,45,46,NA,NA,NA,NA,NA,1,3,"binary"
"8C9FE60E2714498B80B48606915608E2",1,"01990aa2-d7d2-7332-a269-39bac79299f0","01990a83-7673-7c0c-a792-bbd8fbbaf673","2025-09-02_06h34.45.444",NA,NA,77.9725,77.9725,77.9725,78.3214,NA,NA,NA,NA,NA,NA,NA,TRUE,2,2.417,74.9723,77.9724,0,3,3,28,1,21,32,NA,NA,NA,NA,NA,1,4,"binary"
"8C9FE60E2714498B80B48606915608E2",1,"01990aa2-d7d2-7332-a269-39bac79299f0","01990a83-7673-7c0c-a792-bbd8fbbaf673","2025-09-02_06h34.45.444",NA,NA,81.3216,81.3217,81.3217,81.6714,NA,NA,NA,NA,NA,NA,NA,TRUE,1,2.3696,78.3233,81.3215,0,4,4,104,1,200,35,NA,NA,NA,NA,NA,1,5,"binary"
"8C9FE60E2714498B80B48606915608E2",1,"01990aa2-d7d2-7332-a269-39bac79299f0","01990a83-7673-7c0c-a792-bbd8fbbaf673","2025-09-02_06h34.45.444",NA,NA,84.6716,84.6717,84.6717,85.0224,NA,NA,NA,NA,NA,NA,NA,TRUE,1,2.258,81.6724,84.6715,0,5,5,45,1,30,30,NA,NA,NA,NA,NA,1,6,"binary"
"8C9FE60E2714498B80B48606915608E2",1,"01990aa2-d7d2-7332-a269-39bac79299f0","01990a83-7673-7c0c-a792-bbd8fbbaf673","2025-09-02_06h34.45.444",NA,NA,88.0215,88.0215,88.0216,88.3712,NA,NA,NA,NA,NA,NA,NA,TRUE,1,1.2018,85.0234,88.0214,0,6,6,85,1,100,31,NA,NA,NA,NA,NA,1,7,"binary"
"8C9FE60E2714498B80B48606915608E2",1,"01990aa2-d7d2-7332-a269-39bac79299f0","01990a83-7673-7c0c-a792-bbd8fbbaf673","2025-09-02_06h34.45.444",NA,NA,91.3714,91.3715,91.3715,91.7214,NA,NA,NA,NA,NA,NA,NA,TRUE,1,1.6545,88.3722,91.3713,0,7,7,73,1,90,30,NA,NA,NA,NA,NA,1,8,"binary"
"8C9FE60E2714498B80B48606915608E2",1,"01990aa2-d7d2-7332-a269-39bac79299f0","01990a83-7673-7c0c-a792-bbd8fbbaf673","2025-09-02_06h34.45.444",NA,NA,94.7215,94.7215,94.7215,95.071,NA,NA,NA,NA,NA,NA,NA,TRUE,2,0.8045,91.7224,94.7213,0,8,8,51,1,40,40,NA,NA,NA,NA,NA,1,9,"binary"
"8C9FE60E2714498B80B48606915608E2",1,"01990aa2-d7d2-7332-a269-39bac79299f0","01990a83-7673-7c0c-a792-bbd8fbbaf673","2025-09-02_06h34.45.444",NA,NA,98.0716,98.0717,98.0717,98.4212,NA,NA,NA,NA,NA,NA,NA,TRUE,2,1.0206,95.072,98.0715,0,9,9,83,1,95,54,NA,NA,NA,NA,NA,1,10,"binary"
"8C9FE60E2714498B80B48606915608E2",1,"01990aa2-d7d2-7332-a269-39bac79299f0","01990a83-7673-7c0c-a792-bbd8fbbaf673","2025-09-02_06h34.45.444",NA,NA,101.4214,101.4214,101.4214,101.7717,NA,NA,NA,NA,NA,NA,NA,TRUE,2,1.4802,98.4222,101.4213,0,10,10,53,1,40,54,NA,NA,NA,NA,NA,1,11,"binary"
"8C9FE60E2714498B80B48606915608E2",1,"01990aa2-d7d2-7332-a269-39bac79299f0","01990a83-7673-7c0c-a792-bbd8fbbaf673","2025-09-02_06h34.45.444",NA,NA,104.7713,104.7714,104.7714,105.1213,NA,NA,NA,NA,NA,NA,NA,TRUE,1,0.9894,101.7731,104.7712,0,11,11,25,1,21,27,NA,NA,NA,NA,NA,1,12,"binary"
"8C9FE60E2714498B80B48606915608E2",1,"01990aa2-d7d2-7332-a269-39bac79299f0","01990a83-7673-7c0c-a792-bbd8fbbaf673","2025-09-02_06h34.45.444",NA,NA,108.1212,108.1212,108.1212,108.4711,NA,NA,NA,NA,NA,NA,NA,TRUE,2,0.9511,105.1221,108.1212,0,12,12,82,1,95,47,NA,NA,NA,NA,NA,1,13,"binary"
"8C9FE60E2714498B80B48606915608E2",1,"01990aa2-d7d2-7332-a269-39bac79299f0","01990a83-7673-7c0c-a792-bbd8fbbaf673","2025-09-02_06h34.45.444",NA,NA,111.4713,111.4713,111.4713,111.8212,NA,NA,NA,NA,NA,NA,NA,TRUE,2,1.3335,108.4728,111.4712,0,13,13,40,1,28,39,NA,NA,NA,NA,NA,1,14,"binary"
"8C9FE60E2714498B80B48606915608E2",1,"01990aa2-d7d2-7332-a269-39bac79299f0","01990a83-7673-7c0c-a792-bbd8fbbaf673","2025-09-02_06h34.45.444",NA,NA,114.8215,114.8215,114.8215,115.1711,NA,NA,NA,NA,NA,NA,NA,TRUE,1,1.7914,111.8222,114.8214,0,14,14,56,1,45,31,NA,NA,NA,NA,NA,1,15,"binary"
"8C9FE60E2714498B80B48606915608E2",1,"01990aa2-d7d2-7332-a269-39bac79299f0","01990a83-7673-7c0c-a792-bbd8fbbaf673","2025-09-02_06h34.45.444",NA,NA,118.1713,118.1714,118.1714,118.5218,NA,NA,NA,NA,NA,NA,NA,TRUE,2,0.7247,115.1721,118.1713,0,15,15,88,1,100,46,NA,NA,NA,NA,NA,1,16,"binary"
"8C9FE60E2714498B80B48606915608E2",1,"01990aa2-d7d2-7332-a269-39bac79299f0","01990a83-7673-7c0c-a792-bbd8fbbaf673","2025-09-02_06h34.45.444",NA,NA,121.5216,121.5217,121.5217,121.8712,NA,NA,NA,NA,NA,NA,NA,TRUE,2,1.4324,118.5233,121.5216,0,16,16,68,1,60,35,NA,NA,NA,NA,NA,1,17,"binary"
"8C9FE60E2714498B80B48606915608E2",1,"01990aa2-d7d2-7332-a269-39bac79299f0","01990a83-7673-7c0c-a792-bbd8fbbaf673","2025-09-02_06h34.45.444",NA,NA,124.8716,124.8716,124.8716,125.2213,NA,NA,NA,NA,NA,NA,NA,TRUE,1,0.7139,121.8721,124.8715,0,17,17,9,1,10,29,NA,NA,NA,NA,NA,1,18,"binary"
"8C9FE60E2714498B80B48606915608E2",1,"01990aa2-d7d2-7332-a269-39bac79299f0","01990a83-7673-7c0c-a792-bbd8fbbaf673","2025-09-02_06h34.45.444",NA,NA,128.2215,128.2215,128.2215,128.5713,NA,NA,NA,NA,NA,NA,NA,TRUE,1,1.8318,125.2221,128.2214,0,18,18,79,1,95,33,NA,NA,NA,NA,NA,1,19,"binary"
"8C9FE60E2714498B80B48606915608E2",1,"01990aa2-d7d2-7332-a269-39bac79299f0","01990a83-7673-7c0c-a792-bbd8fbbaf673","2025-09-02_06h34.45.444",NA,NA,131.5712,131.5712,131.5712,131.9215,NA,NA,NA,NA,NA,NA,NA,TRUE,1,0.8897,128.5726,131.5711,0,19,19,103,1,200,28,NA,NA,NA,NA,NA,1,20,"binary"
"8C9FE60E2714498B80B48606915608E2",1,"01990aa2-d7d2-7332-a269-39bac79299f0","01990a83-7673-7c0c-a792-bbd8fbbaf673","2025-09-02_06h34.45.444",NA,NA,134.9215,134.9216,134.9216,135.2712,NA,NA,NA,NA,NA,NA,NA,TRUE,2,0.9811,131.9225,134.9213,0,20,20,107,1,200,54,NA,NA,NA,NA,NA,1,21,"binary"
"8C9FE60E2714498B80B48606915608E2",1,"01990aa2-d7d2-7332-a269-39bac79299f0","01990a83-7673-7c0c-a792-bbd8fbbaf673","2025-09-02_06h34.45.444",NA,NA,138.2719,138.2719,138.2719,138.6212,NA,NA,NA,NA,NA,NA,NA,TRUE,1,1.6832,135.2731,138.2719,0,21,21,1,1,7,26,NA,NA,NA,NA,NA,1,22,"binary"
"8C9FE60E2714498B80B48606915608E2",1,"01990aa2-d7d2-7332-a269-39bac79299f0","01990a83-7673-7c0c-a792-bbd8fbbaf673","2025-09-02_06h34.45.444",NA,NA,141.6213,141.6213,141.6214,141.9711,NA,NA,NA,NA,NA,NA,NA,TRUE,1,1.441,138.6222,141.6213,0,22,22,8,1,10,27,NA,NA,NA,NA,NA,1,23,"binary"
"8C9FE60E2714498B80B48606915608E2",1,"01990aa2-d7d2-7332-a269-39bac79299f0","01990a83-7673-7c0c-a792-bbd8fbbaf673","2025-09-02_06h34.45.444",NA,NA,144.9713,144.9713,144.9713,145.3216,NA,NA,NA,NA,NA,NA,NA,TRUE,2,0.9741,141.9729,144.9711,0,23,23,71,1,60,54,NA,NA,NA,NA,NA,1,24,"binary"
"8C9FE60E2714498B80B48606915608E2",1,"01990aa2-d7d2-7332-a269-39bac79299f0","01990a83-7673-7c0c-a792-bbd8fbbaf673","2025-09-02_06h34.45.444",NA,NA,148.322,148.322,148.322,148.6714,NA,NA,NA,NA,NA,NA,NA,TRUE,2,1.6565,145.3231,148.3218,0,24,24,87,1,100,39,NA,NA,NA,NA,NA,1,25,"binary"
"8C9FE60E2714498B80B48606915608E2",1,"01990aa2-d7d2-7332-a269-39bac79299f0","01990a83-7673-7c0c-a792-bbd8fbbaf673","2025-09-02_06h34.45.444",NA,NA,151.6712,151.6712,151.6712,152.0224,NA,NA,NA,NA,NA,NA,NA,TRUE,1,1.0974,148.6731,151.6711,0,25,25,32,1,25,31,NA,NA,NA,NA,NA,1,26,"binary"
"8C9FE60E2714498B80B48606915608E2",1,"01990aa2-d7d2-7332-a269-39bac79299f0","01990a83-7673-7c0c-a792-bbd8fbbaf673","2025-09-02_06h34.45.444",NA,NA,155.021,155.021,155.021,155.3711,NA,NA,NA,NA,NA,NA,NA,TRUE,2,1.5801,152.0243,155.0209,0,26,26,80,1,95,35,NA,NA,NA,NA,NA,1,27,"binary"
"8C9FE60E2714498B80B48606915608E2",1,"01990aa2-d7d2-7332-a269-39bac79299f0","01990a83-7673-7c0c-a792-bbd8fbbaf673","2025-09-02_06h34.45.444",NA,NA,158.3712,158.3713,158.3713,158.7215,NA,NA,NA,NA,NA,NA,NA,TRUE,1,0.7384,155.3721,158.3711,0,27,27,36,1,28,26,NA,NA,NA,NA,NA,1,28,"binary"
"8C9FE60E2714498B80B48606915608E2",1,"01990aa2-d7d2-7332-a269-39bac79299f0","01990a83-7673-7c0c-a792-bbd8fbbaf673","2025-09-02_06h34.45.444",NA,NA,161.7213,161.7213,161.7213,162.0711,NA,NA,NA,NA,NA,NA,NA,TRUE,2,0.7409,158.7225,161.7211,0,28,28,81,1,95,40,NA,NA,NA,NA,NA,1,29,"binary"
"8C9FE60E2714498B80B48606915608E2",1,"01990aa2-d7d2-7332-a269-39bac79299f0","01990a83-7673-7c0c-a792-bbd8fbbaf673","2025-09-02_06h34.45.444",NA,NA,165.0713,165.0713,165.0713,165.421,NA,NA,NA,NA,NA,NA,NA,TRUE,2,0.714,162.0719,165.0712,0,29,29,101,1,180,54,NA,NA,NA,NA,NA,1,30,"binary"
"8C9FE60E2714498B80B48606915608E2",1,"01990aa2-d7d2-7332-a269-39bac79299f0","01990a83-7673-7c0c-a792-bbd8fbbaf673","2025-09-02_06h34.45.444",NA,NA,168.4213,168.4213,168.4213,168.7725,NA,NA,NA,NA,NA,NA,NA,TRUE,1,1.7067,165.422,168.4213,0,30,30,6,1,10,25,NA,NA,NA,NA,NA,1,31,"binary"
"8C9FE60E2714498B80B48606915608E2",1,"01990aa2-d7d2-7332-a269-39bac79299f0","01990a83-7673-7c0c-a792-bbd8fbbaf673","2025-09-02_06h34.45.444",NA,NA,171.7713,171.7715,171.7715,172.1211,NA,NA,NA,NA,NA,NA,NA,TRUE,1,1.8283,168.7741,171.7713,0,31,31,48,1,40,27,NA,NA,NA,NA,NA,1,32,"binary"
"8C9FE60E2714498B80B48606915608E2",1,"01990aa2-d7d2-7332-a269-39bac79299f0","01990a83-7673-7c0c-a792-bbd8fbbaf673","2025-09-02_06h34.45.444",NA,NA,175.1211,175.1211,175.1211,175.4711,NA,NA,NA,NA,NA,NA,NA,TRUE,2,0.9075,172.1222,175.1211,0,32,32,76,1,90,46,NA,NA,NA,NA,NA,1,33,"binary"
"8C9FE60E2714498B80B48606915608E2",1,"01990aa2-d7d2-7332-a269-39bac79299f0","01990a83-7673-7c0c-a792-bbd8fbbaf673","2025-09-02_06h34.45.444",NA,NA,178.4711,178.4711,178.4711,178.8216,NA,NA,NA,NA,NA,NA,NA,TRUE,2,1.1142,175.4721,178.4709,0,33,33,41,1,28,46,NA,NA,NA,NA,NA,1,34,"binary"
"8C9FE60E2714498B80B48606915608E2",1,"01990aa2-d7d2-7332-a269-39bac79299f0","01990a83-7673-7c0c-a792-bbd8fbbaf673","2025-09-02_06h34.45.444",NA,NA,181.8213,181.8214,181.8214,182.1711,NA,NA,NA,NA,NA,NA,NA,TRUE,1,0.8694,178.8231,181.8212,0,34,34,66,1,60,29,NA,NA,NA,NA,NA,1,35,"binary"
"8C9FE60E2714498B80B48606915608E2",1,"01990aa2-d7d2-7332-a269-39bac79299f0","01990a83-7673-7c0c-a792-bbd8fbbaf673","2025-09-02_06h34.45.444",NA,NA,185.1711,185.1711,185.1712,185.521,NA,NA,NA,NA,NA,NA,NA,TRUE,1,2.0668,182.172,185.171,0,35,35,72,1,90,26,NA,NA,NA,NA,NA,1,36,"binary"
"8C9FE60E2714498B80B48606915608E2",1,"01990aa2-d7d2-7332-a269-39bac79299f0","01990a83-7673-7c0c-a792-bbd8fbbaf673","2025-09-02_06h34.45.444",NA,NA,188.5212,188.5212,188.5212,188.8713,NA,NA,NA,NA,NA,NA,NA,TRUE,2,1.2495,185.522,188.5212,0,36,36,30,1,25,27,NA,NA,NA,NA,NA,1,37,"binary"
"8C9FE60E2714498B80B48606915608E2",1,"01990aa2-d7d2-7332-a269-39bac79299f0","01990a83-7673-7c0c-a792-bbd8fbbaf673","2025-09-02_06h34.45.444",NA,NA,191.8713,191.8713,191.8713,192.2212,NA,NA,NA,NA,NA,NA,NA,TRUE,2,0.6967,188.8722,191.8712,0,37,37,70,1,60,47,NA,NA,NA,NA,NA,1,38,"binary"
"8C9FE60E2714498B80B48606915608E2",1,"01990aa2-d7d2-7332-a269-39bac79299f0","01990a83-7673-7c0c-a792-bbd8fbbaf673","2025-09-02_06h34.45.444",NA,NA,195.2213,195.2213,195.2213,195.571,NA,NA,NA,NA,NA,NA,NA,TRUE,1,1.0885,192.2222,195.2213,0,38,38,0,1,7,25,NA,NA,NA,NA,NA,1,39,"binary"
"8C9FE60E2714498B80B48606915608E2",1,"01990aa2-d7d2-7332-a269-39bac79299f0","01990a83-7673-7c0c-a792-bbd8fbbaf673","2025-09-02_06h34.45.444",NA,NA,198.5711,198.5711,198.5711,198.9211,NA,NA,NA,NA,NA,NA,NA,TRUE,1,1.0983,195.572,198.5711,0,39,39,19,1,14,26,NA,NA,NA,NA,NA,1,40,"binary"
"8C9FE60E2714498B80B48606915608E2",1,"01990aa2-d7d2-7332-a269-39bac79299f0","01990a83-7673-7c0c-a792-bbd8fbbaf673","2025-09-02_06h34.45.444",NA,NA,201.9211,201.9211,201.9211,202.2713,NA,NA,NA,NA,NA,NA,NA,TRUE,1,1.5513,198.9221,201.9211,0,40,40,31,1,25,29,NA,NA,NA,NA,NA,1,41,"binary"
"8C9FE60E2714498B80B48606915608E2",1,"01990aa2-d7d2-7332-a269-39bac79299f0","01990a83-7673-7c0c-a792-bbd8fbbaf673","2025-09-02_06h34.45.444",NA,NA,205.2711,205.2711,205.2712,205.6209,NA,NA,NA,NA,NA,NA,NA,TRUE,1,0.964,202.2722,205.271,0,41,41,102,1,200,26,NA,NA,NA,NA,NA,1,42,"binary"
"8C9FE60E2714498B80B48606915608E2",1,"01990aa2-d7d2-7332-a269-39bac79299f0","01990a83-7673-7c0c-a792-bbd8fbbaf673","2025-09-02_06h34.45.444",NA,NA,208.621,208.621,208.621,208.9711,NA,NA,NA,NA,NA,NA,NA,TRUE,2,0.6169,205.6218,208.6209,0,42,42,75,1,90,40,NA,NA,NA,NA,NA,1,43,"binary"
"8C9FE60E2714498B80B48606915608E2",1,"01990aa2-d7d2-7332-a269-39bac79299f0","01990a83-7673-7c0c-a792-bbd8fbbaf673","2025-09-02_06h34.45.444",NA,NA,211.9712,211.9712,211.9712,212.321,NA,NA,NA,NA,NA,NA,NA,TRUE,2,1.4842,208.972,211.9711,0,43,43,23,1,14,39,NA,NA,NA,NA,NA,1,44,"binary"
"8C9FE60E2714498B80B48606915608E2",1,"01990aa2-d7d2-7332-a269-39bac79299f0","01990a83-7673-7c0c-a792-bbd8fbbaf673","2025-09-02_06h34.45.444",NA,NA,215.3213,215.3213,215.3213,215.6709,NA,NA,NA,NA,NA,NA,NA,TRUE,2,1.0472,212.322,215.3212,0,44,44,74,1,90,33,NA,NA,NA,NA,NA,1,45,"binary"
"8C9FE60E2714498B80B48606915608E2",1,"01990aa2-d7d2-7332-a269-39bac79299f0","01990a83-7673-7c0c-a792-bbd8fbbaf673","2025-09-02_06h34.45.444",NA,NA,218.671,218.6711,218.6711,219.0212,NA,NA,NA,NA,NA,NA,NA,TRUE,2,0.618,215.6718,218.6709,0,45,45,46,1,30,32,NA,NA,NA,NA,NA,1,46,"binary"
"8C9FE60E2714498B80B48606915608E2",1,"01990aa2-d7d2-7332-a269-39bac79299f0","01990a83-7673-7c0c-a792-bbd8fbbaf673","2025-09-02_06h34.45.444",NA,NA,222.0212,222.0212,222.0212,222.3711,NA,NA,NA,NA,NA,NA,NA,TRUE,2,0.9703,219.0228,222.021,0,46,46,17,1,12,35,NA,NA,NA,NA,NA,1,47,"binary"
"8C9FE60E2714498B80B48606915608E2",1,"01990aa2-d7d2-7332-a269-39bac79299f0","01990a83-7673-7c0c-a792-bbd8fbbaf673","2025-09-02_06h34.45.444",NA,NA,225.3715,225.3716,225.3716,225.7212,NA,NA,NA,NA,NA,NA,NA,TRUE,2,0.5071,222.372,225.3713,0,47,47,89,1,100,54,NA,NA,NA,NA,NA,1,48,"binary"
"8C9FE60E2714498B80B48606915608E2",1,"01990aa2-d7d2-7332-a269-39bac79299f0","01990a83-7673-7c0c-a792-bbd8fbbaf673","2025-09-02_06h34.45.444",NA,NA,228.7212,228.7212,228.7212,229.072,NA,NA,NA,NA,NA,NA,NA,TRUE,1,0.9033,225.7221,228.7211,0,48,48,7,1,10,26,NA,NA,NA,NA,NA,1,49,"binary"
"8C9FE60E2714498B80B48606915608E2",1,"01990aa2-d7d2-7332-a269-39bac79299f0","01990a83-7673-7c0c-a792-bbd8fbbaf673","2025-09-02_06h34.45.444",NA,NA,232.0718,232.0718,232.0718,232.421,NA,NA,NA,NA,NA,NA,NA,TRUE,2,0.6653,229.073,232.0717,0,49,49,57,1,45,35,NA,NA,NA,NA,NA,1,50,"binary"
"8C9FE60E2714498B80B48606915608E2",1,"01990aa2-d7d2-7332-a269-39bac79299f0","01990a83-7673-7c0c-a792-bbd8fbbaf673","2025-09-02_06h34.45.444",NA,NA,235.422,235.4221,235.4221,235.771,NA,NA,NA,NA,NA,NA,NA,TRUE,2,0.6503,232.4219,235.4219,0,50,50,65,1,50,54,NA,NA,NA,NA,NA,1,51,"binary"
"8C9FE60E2714498B80B48606915608E2",1,"01990aa2-d7d2-7332-a269-39bac79299f0","01990a83-7673-7c0c-a792-bbd8fbbaf673","2025-09-02_06h34.45.444",NA,NA,238.7715,238.7715,238.7715,239.121,NA,NA,NA,NA,NA,NA,NA,TRUE,1,1.4653,235.772,238.7714,0,51,51,27,1,21,30,NA,NA,NA,NA,NA,1,52,"binary"
"8C9FE60E2714498B80B48606915608E2",1,"01990aa2-d7d2-7332-a269-39bac79299f0","01990a83-7673-7c0c-a792-bbd8fbbaf673","2025-09-02_06h34.45.444",NA,NA,242.1209,242.1209,242.1209,242.4708,NA,NA,NA,NA,NA,NA,NA,TRUE,1,0.9193,239.122,242.1208,0,52,52,14,1,12,28,NA,NA,NA,NA,NA,1,53,"binary"
"8C9FE60E2714498B80B48606915608E2",1,"01990aa2-d7d2-7332-a269-39bac79299f0","01990a83-7673-7c0c-a792-bbd8fbbaf673","2025-09-02_06h34.45.444",NA,NA,245.4712,245.4712,245.4712,245.8211,NA,NA,NA,NA,NA,NA,NA,TRUE,2,1.4996,242.4723,245.471,0,53,53,15,1,12,31,NA,NA,NA,NA,NA,1,54,"binary"
"8C9FE60E2714498B80B48606915608E2",1,"01990aa2-d7d2-7332-a269-39bac79299f0","01990a83-7673-7c0c-a792-bbd8fbbaf673","2025-09-02_06h34.45.444",NA,NA,248.8211,248.8212,248.8212,249.1708,NA,NA,NA,NA,NA,NA,NA,TRUE,2,0.9721,245.822,248.8211,0,54,54,64,1,50,46,NA,NA,NA,NA,NA,1,55,"binary"
"8C9FE60E2714498B80B48606915608E2",1,"01990aa2-d7d2-7332-a269-39bac79299f0","01990a83-7673-7c0c-a792-bbd8fbbaf673","2025-09-02_06h34.45.444",NA,NA,252.1714,252.1714,252.1714,252.521,NA,NA,NA,NA,NA,NA,NA,TRUE,1,1.388,249.1719,252.1712,0,55,55,98,1,180,35,NA,NA,NA,NA,NA,1,56,"binary"
"8C9FE60E2714498B80B48606915608E2",1,"01990aa2-d7d2-7332-a269-39bac79299f0","01990a83-7673-7c0c-a792-bbd8fbbaf673","2025-09-02_06h34.45.444",NA,NA,255.521,255.5211,255.5211,255.8711,NA,NA,NA,NA,NA,NA,NA,TRUE,2,1.2248,252.5219,255.5209,0,56,56,21,1,14,32,NA,NA,NA,NA,NA,1,57,"binary"
"8C9FE60E2714498B80B48606915608E2",1,"01990aa2-d7d2-7332-a269-39bac79299f0","01990a83-7673-7c0c-a792-bbd8fbbaf673","2025-09-02_06h34.45.444",NA,NA,258.8711,258.8711,258.8711,259.2215,NA,NA,NA,NA,NA,NA,NA,TRUE,2,0.6144,255.8725,258.871,0,57,57,29,1,21,38,NA,NA,NA,NA,NA,1,58,"binary"
"8C9FE60E2714498B80B48606915608E2",1,"01990aa2-d7d2-7332-a269-39bac79299f0","01990a83-7673-7c0c-a792-bbd8fbbaf673","2025-09-02_06h34.45.444",NA,NA,262.2211,262.2211,262.2212,262.5709,NA,NA,NA,NA,NA,NA,NA,TRUE,2,0.8227,259.2225,262.2211,0,58,58,67,1,60,33,NA,NA,NA,NA,NA,1,59,"binary"
"8C9FE60E2714498B80B48606915608E2",1,"01990aa2-d7d2-7332-a269-39bac79299f0","01990a83-7673-7c0c-a792-bbd8fbbaf673","2025-09-02_06h34.45.444",NA,NA,265.5711,265.5711,265.5711,265.9215,NA,NA,NA,NA,NA,NA,NA,TRUE,2,0.732,262.5719,265.5711,0,59,59,47,1,30,38,NA,NA,NA,NA,NA,1,60,"binary"
"8C9FE60E2714498B80B48606915608E2",1,"01990aa2-d7d2-7332-a269-39bac79299f0","01990a83-7673-7c0c-a792-bbd8fbbaf673","2025-09-02_06h34.45.444",NA,NA,268.9211,268.9211,268.9211,269.2712,NA,NA,NA,NA,NA,NA,NA,TRUE,1,1.0894,265.9225,268.9211,0,60,60,97,1,180,31,NA,NA,NA,NA,NA,1,61,"binary"
"8C9FE60E2714498B80B48606915608E2",1,"01990aa2-d7d2-7332-a269-39bac79299f0","01990a83-7673-7c0c-a792-bbd8fbbaf673","2025-09-02_06h34.45.444",NA,NA,272.271,272.271,272.271,272.621,NA,NA,NA,NA,NA,NA,NA,TRUE,2,1.5972,269.2731,272.2709,0,61,61,33,1,25,33,NA,NA,NA,NA,NA,1,62,"binary"
"8C9FE60E2714498B80B48606915608E2",1,"01990aa2-d7d2-7332-a269-39bac79299f0","01990a83-7673-7c0c-a792-bbd8fbbaf673","2025-09-02_06h34.45.444",NA,NA,275.6212,275.6212,275.6213,275.971,NA,NA,NA,NA,NA,NA,NA,TRUE,2,0.5999,272.6218,275.6211,0,62,62,106,1,200,47,NA,NA,NA,NA,NA,1,63,"binary"
"8C9FE60E2714498B80B48606915608E2",1,"01990aa2-d7d2-7332-a269-39bac79299f0","01990a83-7673-7c0c-a792-bbd8fbbaf673","2025-09-02_06h34.45.444",NA,NA,278.9712,278.9713,278.9713,279.3211,NA,NA,NA,NA,NA,NA,NA,TRUE,1,1.03,275.9721,278.9712,0,63,63,2,1,7,28,NA,NA,NA,NA,NA,1,64,"binary"
"8C9FE60E2714498B80B48606915608E2",1,"01990aa2-d7d2-7332-a269-39bac79299f0","01990a83-7673-7c0c-a792-bbd8fbbaf673","2025-09-02_06h34.45.444",NA,NA,282.3214,282.3215,282.3215,282.6709,NA,NA,NA,NA,NA,NA,NA,TRUE,1,0.9409,279.3221,282.3213,0,64,64,54,1,45,26,NA,NA,NA,NA,NA,1,65,"binary"
"8C9FE60E2714498B80B48606915608E2",1,"01990aa2-d7d2-7332-a269-39bac79299f0","01990a83-7673-7c0c-a792-bbd8fbbaf673","2025-09-02_06h34.45.444",NA,NA,285.6711,285.6711,285.6712,286.021,NA,NA,NA,NA,NA,NA,NA,TRUE,2,0.781,282.6719,285.6709,0,65,65,77,1,90,54,NA,NA,NA,NA,NA,1,66,"binary"
"8C9FE60E2714498B80B48606915608E2",1,"01990aa2-d7d2-7332-a269-39bac79299f0","01990a83-7673-7c0c-a792-bbd8fbbaf673","2025-09-02_06h34.45.444",NA,NA,289.0213,289.0214,289.0214,289.3711,NA,NA,NA,NA,NA,NA,NA,TRUE,1,0.6915,286.0219,289.0212,0,66,66,13,1,12,26,NA,NA,NA,NA,NA,1,67,"binary"
"8C9FE60E2714498B80B48606915608E2",1,"01990aa2-d7d2-7332-a269-39bac79299f0","01990a83-7673-7c0c-a792-bbd8fbbaf673","2025-09-02_06h34.45.444",NA,NA,292.3711,292.3711,292.3711,292.7212,NA,NA,NA,NA,NA,NA,NA,TRUE,1,0.7206,289.3725,292.371,0,67,67,61,1,50,30,NA,NA,NA,NA,NA,1,68,"binary"
"8C9FE60E2714498B80B48606915608E2",1,"01990aa2-d7d2-7332-a269-39bac79299f0","01990a83-7673-7c0c-a792-bbd8fbbaf673","2025-09-02_06h34.45.444",NA,NA,295.7217,295.7217,295.7217,296.0709,NA,NA,NA,NA,NA,NA,NA,TRUE,1,0.9369,292.7222,295.7216,0,68,68,78,1,95,31,NA,NA,NA,NA,NA,1,69,"binary"
"8C9FE60E2714498B80B48606915608E2",1,"01990aa2-d7d2-7332-a269-39bac79299f0","01990a83-7673-7c0c-a792-bbd8fbbaf673","2025-09-02_06h34.45.444",NA,NA,299.0712,299.0712,299.0712,299.4211,NA,NA,NA,NA,NA,NA,NA,TRUE,1,2.0513,296.0718,299.0711,0,69,69,92,1,150,35,NA,NA,NA,NA,NA,1,70,"binary"
"8C9FE60E2714498B80B48606915608E2",1,"01990aa2-d7d2-7332-a269-39bac79299f0","01990a83-7673-7c0c-a792-bbd8fbbaf673","2025-09-02_06h34.45.444",NA,NA,302.421,302.421,302.421,302.7709,NA,NA,NA,NA,NA,NA,NA,TRUE,1,1.0508,299.4222,302.4209,0,70,70,43,1,30,27,NA,NA,NA,NA,NA,1,71,"binary"
"8C9FE60E2714498B80B48606915608E2",1,"01990aa2-d7d2-7332-a269-39bac79299f0","01990a83-7673-7c0c-a792-bbd8fbbaf673","2025-09-02_06h34.45.444",NA,NA,305.7715,305.7715,305.7715,306.121,NA,NA,NA,NA,NA,NA,NA,TRUE,2,0.6992,302.7723,305.7713,0,71,71,86,1,100,38,NA,NA,NA,NA,NA,1,72,"binary"
"8C9FE60E2714498B80B48606915608E2",1,"01990aa2-d7d2-7332-a269-39bac79299f0","01990a83-7673-7c0c-a792-bbd8fbbaf673","2025-09-02_06h34.45.444",NA,NA,309.1219,309.1219,309.1219,309.471,NA,NA,NA,NA,NA,NA,NA,TRUE,1,0.9838,306.122,309.1217,0,72,72,91,1,150,33,NA,NA,NA,NA,NA,1,73,"binary"
"8C9FE60E2714498B80B48606915608E2",1,"01990aa2-d7d2-7332-a269-39bac79299f0","01990a83-7673-7c0c-a792-bbd8fbbaf673","2025-09-02_06h34.45.444",NA,NA,312.471,312.471,312.471,312.8212,NA,NA,NA,NA,NA,NA,NA,TRUE,1,0.7812,309.4721,312.4709,0,73,73,24,1,21,26,NA,NA,NA,NA,NA,1,74,"binary"
"8C9FE60E2714498B80B48606915608E2",1,"01990aa2-d7d2-7332-a269-39bac79299f0","01990a83-7673-7c0c-a792-bbd8fbbaf673","2025-09-02_06h34.45.444",NA,NA,315.8209,315.8209,315.8209,316.1713,NA,NA,NA,NA,NA,NA,NA,TRUE,1,0.9641,312.8219,315.8208,0,74,74,62,1,50,35,NA,NA,NA,NA,NA,1,75,"binary"
"8C9FE60E2714498B80B48606915608E2",1,"01990aa2-d7d2-7332-a269-39bac79299f0","01990a83-7673-7c0c-a792-bbd8fbbaf673","2025-09-02_06h34.45.444",NA,NA,319.171,319.171,319.171,319.521,NA,NA,NA,NA,NA,NA,NA,TRUE,2,0.9996,316.1722,319.1709,0,75,75,69,1,60,40,NA,NA,NA,NA,NA,1,76,"binary"
"8C9FE60E2714498B80B48606915608E2",1,"01990aa2-d7d2-7332-a269-39bac79299f0","01990a83-7673-7c0c-a792-bbd8fbbaf673","2025-09-02_06h34.45.444",NA,NA,322.5208,322.5209,322.5209,322.8709,NA,NA,NA,NA,NA,NA,NA,TRUE,2,0.5839,319.5218,322.5208,0,76,76,90,1,150,31,NA,NA,NA,NA,NA,1,77,"binary"
"8C9FE60E2714498B80B48606915608E2",1,"01990aa2-d7d2-7332-a269-39bac79299f0","01990a83-7673-7c0c-a792-bbd8fbbaf673","2025-09-02_06h34.45.444",NA,NA,325.8712,325.8712,325.8712,326.2208,NA,NA,NA,NA,NA,NA,NA,TRUE,2,0.8562,322.8717,325.8711,0,77,77,5,1,7,35,NA,NA,NA,NA,NA,1,78,"binary"
"8C9FE60E2714498B80B48606915608E2",1,"01990aa2-d7d2-7332-a269-39bac79299f0","01990a83-7673-7c0c-a792-bbd8fbbaf673","2025-09-02_06h34.45.444",NA,NA,329.2209,329.2209,329.2209,329.5709,NA,NA,NA,NA,NA,NA,NA,TRUE,2,0.8638,326.2218,329.2209,0,78,78,22,1,14,35,NA,NA,NA,NA,NA,1,79,"binary"
"8C9FE60E2714498B80B48606915608E2",1,"01990aa2-d7d2-7332-a269-39bac79299f0","01990a83-7673-7c0c-a792-bbd8fbbaf673","2025-09-02_06h34.45.444",NA,NA,332.5713,332.5713,332.5713,332.9211,NA,NA,NA,NA,NA,NA,NA,TRUE,1,0.5845,329.572,332.5712,0,79,79,96,1,180,27,NA,NA,NA,NA,NA,1,80,"binary"
"8C9FE60E2714498B80B48606915608E2",1,"01990aa2-d7d2-7332-a269-39bac79299f0","01990a83-7673-7c0c-a792-bbd8fbbaf673","2025-09-02_06h34.45.444",NA,NA,335.9213,336.1711,336.1712,336.2708,NA,NA,NA,NA,NA,NA,NA,FALSE,NA,NA,332.9222,335.9211,0,80,80,18,1,14,25,NA,NA,NA,NA,NA,1,81,"binary"
"8C9FE60E2714498B80B48606915608E2",1,"01990aa2-d7d2-7332-a269-39bac79299f0","01990a83-7673-7c0c-a792-bbd8fbbaf673","2025-09-02_06h34.45.444",NA,NA,339.2712,339.5208,339.5208,339.6212,NA,NA,NA,NA,NA,NA,NA,FALSE,NA,NA,336.272,339.2711,0,81,81,100,1,180,46,NA,NA,NA,NA,NA,1,82,"binary"
"8C9FE60E2714498B80B48606915608E2",1,"01990aa2-d7d2-7332-a269-39bac79299f0","01990a83-7673-7c0c-a792-bbd8fbbaf673","2025-09-02_06h34.45.444",NA,NA,342.621,342.8709,342.871,342.9708,NA,NA,NA,NA,NA,NA,NA,FALSE,NA,NA,339.6224,342.6209,0,82,82,34,1,25,35,NA,NA,NA,NA,NA,1,83,"binary"
"8C9FE60E2714498B80B48606915608E2",1,"01990aa2-d7d2-7332-a269-39bac79299f0","01990a83-7673-7c0c-a792-bbd8fbbaf673","2025-09-02_06h34.45.444",NA,NA,345.9719,346.2209,346.2209,346.3207,NA,NA,NA,NA,NA,NA,NA,FALSE,NA,NA,342.9719,345.9717,0,83,83,38,1,28,32,NA,NA,NA,NA,NA,1,84,"binary"
"8C9FE60E2714498B80B48606915608E2",1,"01990aa2-d7d2-7332-a269-39bac79299f0","01990a83-7673-7c0c-a792-bbd8fbbaf673","2025-09-02_06h34.45.444",NA,NA,349.3211,349.3211,349.3211,349.6708,NA,NA,NA,NA,NA,NA,NA,TRUE,2,1.5538,346.3217,349.321,0,84,84,3,1,7,30,NA,NA,NA,NA,NA,1,85,"binary"
"8C9FE60E2714498B80B48606915608E2",1,"01990aa2-d7d2-7332-a269-39bac79299f0","01990a83-7673-7c0c-a792-bbd8fbbaf673","2025-09-02_06h34.45.444",NA,NA,352.6711,352.6711,352.6711,353.0208,NA,NA,NA,NA,NA,NA,NA,TRUE,2,1.0715,349.6716,352.6711,0,85,85,50,1,40,35,NA,NA,NA,NA,NA,1,86,"binary"
"8C9FE60E2714498B80B48606915608E2",1,"01990aa2-d7d2-7332-a269-39bac79299f0","01990a83-7673-7c0c-a792-bbd8fbbaf673","2025-09-02_06h34.45.444",NA,NA,356.0209,356.0209,356.0209,356.3709,NA,NA,NA,NA,NA,NA,NA,TRUE,2,0.8348,353.0219,356.0207,0,86,86,94,1,150,47,NA,NA,NA,NA,NA,1,87,"binary"
"8C9FE60E2714498B80B48606915608E2",1,"01990aa2-d7d2-7332-a269-39bac79299f0","01990a83-7673-7c0c-a792-bbd8fbbaf673","2025-09-02_06h34.45.444",NA,NA,359.371,359.371,359.371,359.7224,NA,NA,NA,NA,NA,NA,NA,TRUE,1,0.6043,356.372,359.3708,0,87,87,12,1,12,25,NA,NA,NA,NA,NA,1,88,"binary"
"8C9FE60E2714498B80B48606915608E2",1,"01990aa2-d7d2-7332-a269-39bac79299f0","01990a83-7673-7c0c-a792-bbd8fbbaf673","2025-09-02_06h34.45.444",NA,NA,362.7208,362.7208,362.7208,363.0707,NA,NA,NA,NA,NA,NA,NA,TRUE,2,1.1672,359.7237,362.7207,0,88,88,99,1,180,39,NA,NA,NA,NA,NA,1,89,"binary"
"8C9FE60E2714498B80B48606915608E2",1,"01990aa2-d7d2-7332-a269-39bac79299f0","01990a83-7673-7c0c-a792-bbd8fbbaf673","2025-09-02_06h34.45.444",NA,NA,366.0717,366.3211,366.3211,366.4208,NA,NA,NA,NA,NA,NA,NA,FALSE,NA,NA,363.0716,366.0716,0,89,89,20,1,14,28,NA,NA,NA,NA,NA,1,90,"binary"
"8C9FE60E2714498B80B48606915608E2",1,"01990aa2-d7d2-7332-a269-39bac79299f0","01990a83-7673-7c0c-a792-bbd8fbbaf673","2025-09-02_06h34.45.444",NA,NA,369.421,369.421,369.421,369.7709,NA,NA,NA,NA,NA,NA,NA,TRUE,2,2.5296,366.4221,369.4209,0,90,90,35,1,25,46,NA,NA,NA,NA,NA,1,91,"binary"
"8C9FE60E2714498B80B48606915608E2",1,"01990aa2-d7d2-7332-a269-39bac79299f0","01990a83-7673-7c0c-a792-bbd8fbbaf673","2025-09-02_06h34.45.444",NA,NA,372.771,372.771,372.771,373.1208,NA,NA,NA,NA,NA,NA,NA,TRUE,2,2.6978,369.7718,372.7709,0,91,91,52,1,40,47,NA,NA,NA,NA,NA,1,92,"binary"
"8C9FE60E2714498B80B48606915608E2",1,"01990aa2-d7d2-7332-a269-39bac79299f0","01990a83-7673-7c0c-a792-bbd8fbbaf673","2025-09-02_06h34.45.444",NA,NA,376.1211,376.1211,376.1211,376.4709,NA,NA,NA,NA,NA,NA,NA,TRUE,1,2.3848,373.1217,376.121,0,92,92,84,1,100,26,NA,NA,NA,NA,NA,1,93,"binary"
"8C9FE60E2714498B80B48606915608E2",1,"01990aa2-d7d2-7332-a269-39bac79299f0","01990a83-7673-7c0c-a792-bbd8fbbaf673","2025-09-02_06h34.45.444",NA,NA,379.471,379.471,379.4711,379.8209,NA,NA,NA,NA,NA,NA,NA,TRUE,1,0.6629,376.4721,379.471,0,93,93,42,1,30,26,NA,NA,NA,NA,NA,1,94,"binary"
"8C9FE60E2714498B80B48606915608E2",1,"01990aa2-d7d2-7332-a269-39bac79299f0","01990a83-7673-7c0c-a792-bbd8fbbaf673","2025-09-02_06h34.45.444",NA,NA,382.8209,382.821,382.821,383.1709,NA,NA,NA,NA,NA,NA,NA,TRUE,2,0.5208,379.8218,382.8208,0,94,94,93,1,150,40,NA,NA,NA,NA,NA,1,95,"binary"
"8C9FE60E2714498B80B48606915608E2",1,"01990aa2-d7d2-7332-a269-39bac79299f0","01990a83-7673-7c0c-a792-bbd8fbbaf673","2025-09-02_06h34.45.444",NA,NA,386.1721,386.1721,386.1721,386.5209,NA,NA,NA,NA,NA,NA,NA,TRUE,1,0.7243,383.1719,386.172,0,95,95,60,1,50,27,NA,NA,NA,NA,NA,1,96,"binary"
"8C9FE60E2714498B80B48606915608E2",1,"01990aa2-d7d2-7332-a269-39bac79299f0","01990a83-7673-7c0c-a792-bbd8fbbaf673","2025-09-02_06h34.45.444",NA,NA,389.5211,389.5211,389.5211,389.8715,NA,NA,NA,NA,NA,NA,NA,TRUE,2,0.596,386.5223,389.521,0,96,96,39,1,28,35,NA,NA,NA,NA,NA,1,97,"binary"
"8C9FE60E2714498B80B48606915608E2",1,"01990aa2-d7d2-7332-a269-39bac79299f0","01990a83-7673-7c0c-a792-bbd8fbbaf673","2025-09-02_06h34.45.444",NA,NA,392.871,392.871,392.871,393.2209,NA,NA,NA,NA,NA,NA,NA,TRUE,2,0.6872,389.8723,392.871,0,97,97,16,1,12,33,NA,NA,NA,NA,NA,1,98,"binary"
"8C9FE60E2714498B80B48606915608E2",1,"01990aa2-d7d2-7332-a269-39bac79299f0","01990a83-7673-7c0c-a792-bbd8fbbaf673","2025-09-02_06h34.45.444",NA,NA,396.2208,396.2209,396.2209,396.571,NA,NA,NA,NA,NA,NA,NA,TRUE,2,0.6895,393.2218,396.2207,0,98,98,63,1,50,40,NA,NA,NA,NA,NA,1,99,"binary"
"8C9FE60E2714498B80B48606915608E2",1,"01990aa2-d7d2-7332-a269-39bac79299f0","01990a83-7673-7c0c-a792-bbd8fbbaf673","2025-09-02_06h34.45.444",NA,NA,399.571,399.571,399.571,399.921,NA,NA,NA,NA,NA,NA,NA,TRUE,2,1.3969,396.572,399.5709,0,99,99,49,1,40,33,NA,NA,NA,NA,NA,1,100,"binary"
"8C9FE60E2714498B80B48606915608E2",1,"01990aa2-d7d2-7332-a269-39bac79299f0","01990a83-7673-7c0c-a792-bbd8fbbaf673","2025-09-02_06h34.45.444",NA,NA,402.9209,402.921,402.921,403.2709,NA,NA,NA,NA,NA,NA,NA,TRUE,2,0.5735,399.9225,402.9209,0,100,100,95,1,150,54,NA,NA,NA,NA,NA,1,101,"binary"
"8C9FE60E2714498B80B48606915608E2",1,"01990aa2-d7d2-7332-a269-39bac79299f0","01990a83-7673-7c0c-a792-bbd8fbbaf673","2025-09-02_06h34.45.444",NA,NA,406.2708,406.2708,406.2708,406.621,NA,NA,NA,NA,NA,NA,NA,TRUE,1,0.7744,403.2725,406.2707,0,101,101,37,1,28,28,NA,NA,NA,NA,NA,1,102,"binary"
"8C9FE60E2714498B80B48606915608E2",1,"01990aa2-d7d2-7332-a269-39bac79299f0","01990a83-7673-7c0c-a792-bbd8fbbaf673","2025-09-02_06h34.45.444",NA,NA,409.6211,409.6212,409.6212,409.9711,NA,NA,NA,NA,NA,NA,NA,TRUE,1,1.1816,406.6217,409.6211,0,102,102,44,1,30,29,NA,NA,NA,NA,NA,1,103,"binary"
"8C9FE60E2714498B80B48606915608E2",1,"01990aa2-d7d2-7332-a269-39bac79299f0","01990a83-7673-7c0c-a792-bbd8fbbaf673","2025-09-02_06h34.45.444",NA,NA,412.9709,412.9709,412.9709,413.3209,NA,NA,NA,NA,NA,NA,NA,TRUE,2,0.5664,409.9723,412.9708,0,103,103,4,1,7,32,NA,NA,NA,NA,NA,1,104,"binary"
"8C9FE60E2714498B80B48606915608E2",1,"01990aa2-d7d2-7332-a269-39bac79299f0","01990a83-7673-7c0c-a792-bbd8fbbaf673","2025-09-02_06h34.45.444",NA,NA,416.3209,416.321,416.321,416.6708,NA,NA,NA,NA,NA,NA,NA,TRUE,1,1.3474,413.3222,416.3209,0,104,104,11,1,10,32,NA,NA,NA,NA,NA,1,105,"binary"
"8C9FE60E2714498B80B48606915608E2",1,"01990aa2-d7d2-7332-a269-39bac79299f0","01990a83-7673-7c0c-a792-bbd8fbbaf673","2025-09-02_06h34.45.444",NA,NA,419.6707,419.6707,419.6707,420.0209,NA,NA,NA,NA,NA,NA,NA,TRUE,2,0.619,416.6716,419.6707,0,105,105,58,1,45,40,NA,NA,NA,NA,NA,1,106,"binary"
"8C9FE60E2714498B80B48606915608E2",1,"01990aa2-d7d2-7332-a269-39bac79299f0","01990a83-7673-7c0c-a792-bbd8fbbaf673","2025-09-02_06h34.45.444",NA,NA,423.0218,423.0218,423.0218,423.3708,NA,NA,NA,NA,NA,NA,NA,TRUE,1,1.3148,420.0222,423.0217,0,106,106,105,1,200,39,NA,NA,NA,NA,NA,1,107,"binary"
"8C9FE60E2714498B80B48606915608E2",1,"01990aa2-d7d2-7332-a269-39bac79299f0","01990a83-7673-7c0c-a792-bbd8fbbaf673","2025-09-02_06h34.45.444",NA,NA,426.3713,426.3713,426.3713,426.7209,NA,NA,NA,NA,NA,NA,NA,TRUE,1,1.1687,423.3718,426.3712,0,107,107,26,1,21,29,NA,NA,NA,NA,NA,1,108,"binary"
"8C9FE60E2714498B80B48606915608E2",1,"01990aa2-d7d2-7332-a269-39bac79299f0","01990a83-7673-7c0c-a792-bbd8fbbaf673","2025-09-02_06h34.45.444",NA,NA,434.3708,434.3708,434.3708,434.7207,NA,NA,NA,NA,NA,NA,NA,TRUE,2,2.266,431.3777,434.3707,NA,NA,NA,NA,NA,150,47,0,0,0,94,1,2,1,"binary"
"8C9FE60E2714498B80B48606915608E2",1,"01990aa2-d7d2-7332-a269-39bac79299f0","01990a83-7673-7c0c-a792-bbd8fbbaf673","2025-09-02_06h34.45.444",NA,NA,437.721,437.721,437.721,438.0709,NA,NA,NA,NA,NA,NA,NA,TRUE,2,0.9726,434.7217,437.7208,NA,NA,NA,NA,NA,90,46,0,1,1,76,1,2,2,"binary"
"8C9FE60E2714498B80B48606915608E2",1,"01990aa2-d7d2-7332-a269-39bac79299f0","01990a83-7673-7c0c-a792-bbd8fbbaf673","2025-09-02_06h34.45.444",NA,NA,441.071,441.0711,441.0711,441.4208,NA,NA,NA,NA,NA,NA,NA,TRUE,2,0.6171,438.0719,441.071,NA,NA,NA,NA,NA,90,54,0,2,2,77,1,2,3,"binary"
"8C9FE60E2714498B80B48606915608E2",1,"01990aa2-d7d2-7332-a269-39bac79299f0","01990a83-7673-7c0c-a792-bbd8fbbaf673","2025-09-02_06h34.45.444",NA,NA,444.4211,444.4211,444.4211,444.7708,NA,NA,NA,NA,NA,NA,NA,TRUE,2,0.8909,441.4217,444.4209,NA,NA,NA,NA,NA,180,46,0,3,3,100,1,2,4,"binary"
"8C9FE60E2714498B80B48606915608E2",1,"01990aa2-d7d2-7332-a269-39bac79299f0","01990a83-7673-7c0c-a792-bbd8fbbaf673","2025-09-02_06h34.45.444",NA,NA,447.7707,447.7707,447.7707,448.1213,NA,NA,NA,NA,NA,NA,NA,TRUE,2,0.7016,444.7715,447.7706,NA,NA,NA,NA,NA,95,35,0,4,4,80,1,2,5,"binary"
"8C9FE60E2714498B80B48606915608E2",1,"01990aa2-d7d2-7332-a269-39bac79299f0","01990a83-7673-7c0c-a792-bbd8fbbaf673","2025-09-02_06h34.45.444",NA,NA,451.1208,451.1208,451.1208,451.4707,NA,NA,NA,NA,NA,NA,NA,TRUE,2,0.5158,448.1221,451.1207,NA,NA,NA,NA,NA,40,54,0,5,5,53,1,2,6,"binary"
"8C9FE60E2714498B80B48606915608E2",1,"01990aa2-d7d2-7332-a269-39bac79299f0","01990a83-7673-7c0c-a792-bbd8fbbaf673","2025-09-02_06h34.45.444",NA,NA,454.4709,454.4709,454.4709,454.8208,NA,NA,NA,NA,NA,NA,NA,TRUE,1,0.7555,451.4718,454.4708,NA,NA,NA,NA,NA,25,29,0,6,6,31,1,2,7,"binary"
"8C9FE60E2714498B80B48606915608E2",1,"01990aa2-d7d2-7332-a269-39bac79299f0","01990a83-7673-7c0c-a792-bbd8fbbaf673","2025-09-02_06h34.45.444",NA,NA,457.8216,457.8216,457.8216,458.1707,NA,NA,NA,NA,NA,NA,NA,TRUE,1,0.9971,454.8217,457.8216,NA,NA,NA,NA,NA,7,25,0,7,7,0,1,2,8,"binary"
"8C9FE60E2714498B80B48606915608E2",1,"01990aa2-d7d2-7332-a269-39bac79299f0","01990a83-7673-7c0c-a792-bbd8fbbaf673","2025-09-02_06h34.45.444",NA,NA,461.1706,461.1706,461.1706,461.5207,NA,NA,NA,NA,NA,NA,NA,TRUE,2,0.6002,458.1716,461.1704,NA,NA,NA,NA,NA,45,46,0,8,8,59,1,2,9,"binary"
"8C9FE60E2714498B80B48606915608E2",1,"01990aa2-d7d2-7332-a269-39bac79299f0","01990a83-7673-7c0c-a792-bbd8fbbaf673","2025-09-02_06h34.45.444",NA,NA,464.5208,464.5209,464.5209,464.8708,NA,NA,NA,NA,NA,NA,NA,TRUE,2,0.6182,461.5214,464.5207,NA,NA,NA,NA,NA,150,54,0,9,9,95,1,2,10,"binary"
"8C9FE60E2714498B80B48606915608E2",1,"01990aa2-d7d2-7332-a269-39bac79299f0","01990a83-7673-7c0c-a792-bbd8fbbaf673","2025-09-02_06h34.45.444",NA,NA,467.8713,467.8713,467.8713,468.221,NA,NA,NA,NA,NA,NA,NA,TRUE,2,1.1473,464.8717,467.8712,NA,NA,NA,NA,NA,10,30,0,10,10,10,1,2,11,"binary"
"8C9FE60E2714498B80B48606915608E2",1,"01990aa2-d7d2-7332-a269-39bac79299f0","01990a83-7673-7c0c-a792-bbd8fbbaf673","2025-09-02_06h34.45.444",NA,NA,471.2209,471.2209,471.2209,471.5706,NA,NA,NA,NA,NA,NA,NA,TRUE,2,0.6888,468.2219,471.2208,NA,NA,NA,NA,NA,50,54,0,11,11,65,1,2,12,"binary"
"8C9FE60E2714498B80B48606915608E2",1,"01990aa2-d7d2-7332-a269-39bac79299f0","01990a83-7673-7c0c-a792-bbd8fbbaf673","2025-09-02_06h34.45.444",NA,NA,474.5708,474.5709,474.5709,474.9207,NA,NA,NA,NA,NA,NA,NA,TRUE,1,0.9084,471.5723,474.5707,NA,NA,NA,NA,NA,100,26,0,12,12,84,1,2,13,"binary"
"8C9FE60E2714498B80B48606915608E2",1,"01990aa2-d7d2-7332-a269-39bac79299f0","01990a83-7673-7c0c-a792-bbd8fbbaf673","2025-09-02_06h34.45.444",NA,NA,477.9208,477.9208,477.9208,478.2706,NA,NA,NA,NA,NA,NA,NA,TRUE,2,0.8709,474.9217,477.9207,NA,NA,NA,NA,NA,30,30,0,13,13,45,1,2,14,"binary"
"8C9FE60E2714498B80B48606915608E2",1,"01990aa2-d7d2-7332-a269-39bac79299f0","01990a83-7673-7c0c-a792-bbd8fbbaf673","2025-09-02_06h34.45.444",NA,NA,481.2711,481.2711,481.2711,481.6209,NA,NA,NA,NA,NA,NA,NA,TRUE,2,0.7398,478.2718,481.2709,NA,NA,NA,NA,NA,150,40,0,14,14,93,1,2,15,"binary"
"8C9FE60E2714498B80B48606915608E2",1,"01990aa2-d7d2-7332-a269-39bac79299f0","01990a83-7673-7c0c-a792-bbd8fbbaf673","2025-09-02_06h34.45.444",NA,NA,484.6208,484.6208,484.6208,484.9705,NA,NA,NA,NA,NA,NA,NA,TRUE,2,0.6859,481.6218,484.6207,NA,NA,NA,NA,NA,100,46,0,15,15,88,1,2,16,"binary"
"8C9FE60E2714498B80B48606915608E2",1,"01990aa2-d7d2-7332-a269-39bac79299f0","01990a83-7673-7c0c-a792-bbd8fbbaf673","2025-09-02_06h34.45.444",NA,NA,487.9705,487.9705,487.9705,488.3211,NA,NA,NA,NA,NA,NA,NA,TRUE,2,1.4301,484.9722,487.9705,NA,NA,NA,NA,NA,12,33,0,16,16,16,1,2,17,"binary"
"8C9FE60E2714498B80B48606915608E2",1,"01990aa2-d7d2-7332-a269-39bac79299f0","01990a83-7673-7c0c-a792-bbd8fbbaf673","2025-09-02_06h34.45.444",NA,NA,491.3208,491.3208,491.3208,491.6707,NA,NA,NA,NA,NA,NA,NA,TRUE,2,1.0472,488.3222,491.3208,NA,NA,NA,NA,NA,50,35,0,17,17,62,1,2,18,"binary"
"8C9FE60E2714498B80B48606915608E2",1,"01990aa2-d7d2-7332-a269-39bac79299f0","01990a83-7673-7c0c-a792-bbd8fbbaf673","2025-09-02_06h34.45.444",NA,NA,494.671,494.6711,494.6711,495.0206,NA,NA,NA,NA,NA,NA,NA,TRUE,2,0.4873,491.6717,494.671,NA,NA,NA,NA,NA,25,46,0,18,18,35,1,2,19,"binary"
"8C9FE60E2714498B80B48606915608E2",1,"01990aa2-d7d2-7332-a269-39bac79299f0","01990a83-7673-7c0c-a792-bbd8fbbaf673","2025-09-02_06h34.45.444",NA,NA,498.0208,498.0208,498.0208,498.3708,NA,NA,NA,NA,NA,NA,NA,TRUE,2,0.6147,495.0214,498.0207,NA,NA,NA,NA,NA,100,38,0,19,19,86,1,2,20,"binary"
"8C9FE60E2714498B80B48606915608E2",1,"01990aa2-d7d2-7332-a269-39bac79299f0","01990a83-7673-7c0c-a792-bbd8fbbaf673","2025-09-02_06h34.45.444",NA,NA,501.3706,501.3706,501.3706,501.7207,NA,NA,NA,NA,NA,NA,NA,TRUE,2,1.2977,498.3718,501.3705,NA,NA,NA,NA,NA,25,35,0,20,20,34,1,2,21,"binary"
"8C9FE60E2714498B80B48606915608E2",1,"01990aa2-d7d2-7332-a269-39bac79299f0","01990a83-7673-7c0c-a792-bbd8fbbaf673","2025-09-02_06h34.45.444",NA,NA,504.7209,504.7209,504.7209,505.0708,NA,NA,NA,NA,NA,NA,NA,TRUE,2,0.4743,501.7216,504.7208,NA,NA,NA,NA,NA,95,47,0,21,21,82,1,2,22,"binary"
"8C9FE60E2714498B80B48606915608E2",1,"01990aa2-d7d2-7332-a269-39bac79299f0","01990a83-7673-7c0c-a792-bbd8fbbaf673","2025-09-02_06h34.45.444",NA,NA,508.0708,508.0708,508.0708,508.4204,NA,NA,NA,NA,NA,NA,NA,TRUE,2,0.7135,505.0719,508.0707,NA,NA,NA,NA,NA,60,40,0,22,22,69,1,2,23,"binary"
"8C9FE60E2714498B80B48606915608E2",1,"01990aa2-d7d2-7332-a269-39bac79299f0","01990a83-7673-7c0c-a792-bbd8fbbaf673","2025-09-02_06h34.45.444",NA,NA,511.4207,511.4207,511.4207,511.7707,NA,NA,NA,NA,NA,NA,NA,TRUE,1,0.7978,508.4214,511.4206,NA,NA,NA,NA,NA,21,29,0,23,23,26,1,2,24,"binary"
"8C9FE60E2714498B80B48606915608E2",1,"01990aa2-d7d2-7332-a269-39bac79299f0","01990a83-7673-7c0c-a792-bbd8fbbaf673","2025-09-02_06h34.45.444",NA,NA,514.7707,514.7707,514.7707,515.1207,NA,NA,NA,NA,NA,NA,NA,TRUE,2,0.7057,511.7717,514.7705,NA,NA,NA,NA,NA,40,47,0,24,24,52,1,2,25,"binary"
"8C9FE60E2714498B80B48606915608E2",1,"01990aa2-d7d2-7332-a269-39bac79299f0","01990a83-7673-7c0c-a792-bbd8fbbaf673","2025-09-02_06h34.45.444",NA,NA,518.1206,518.1206,518.1206,518.4706,NA,NA,NA,NA,NA,NA,NA,TRUE,1,0.7311,515.1217,518.1205,NA,NA,NA,NA,NA,10,25,0,25,25,6,1,2,26,"binary"
"8C9FE60E2714498B80B48606915608E2",1,"01990aa2-d7d2-7332-a269-39bac79299f0","01990a83-7673-7c0c-a792-bbd8fbbaf673","2025-09-02_06h34.45.444",NA,NA,521.4707,521.4708,521.4708,521.8206,NA,NA,NA,NA,NA,NA,NA,TRUE,2,0.616,518.4719,521.4707,NA,NA,NA,NA,NA,25,33,0,26,26,33,1,2,27,"binary"
"8C9FE60E2714498B80B48606915608E2",1,"01990aa2-d7d2-7332-a269-39bac79299f0","01990a83-7673-7c0c-a792-bbd8fbbaf673","2025-09-02_06h34.45.444",NA,NA,524.8206,524.8206,524.8206,525.1706,NA,NA,NA,NA,NA,NA,NA,TRUE,1,1.1639,521.8216,524.8206,NA,NA,NA,NA,NA,10,27,0,27,27,8,1,2,28,"binary"
"8C9FE60E2714498B80B48606915608E2",1,"01990aa2-d7d2-7332-a269-39bac79299f0","01990a83-7673-7c0c-a792-bbd8fbbaf673","2025-09-02_06h34.45.444",NA,NA,528.1707,528.1707,528.1707,528.5207,NA,NA,NA,NA,NA,NA,NA,TRUE,2,1.0982,525.1713,528.1706,NA,NA,NA,NA,NA,40,35,0,28,28,50,1,2,29,"binary"
"8C9FE60E2714498B80B48606915608E2",1,"01990aa2-d7d2-7332-a269-39bac79299f0","01990a83-7673-7c0c-a792-bbd8fbbaf673","2025-09-02_06h34.45.444",NA,NA,531.5205,531.5205,531.5205,531.8706,NA,NA,NA,NA,NA,NA,NA,TRUE,2,2.0976,528.5217,531.5205,NA,NA,NA,NA,NA,30,32,0,29,29,46,1,2,30,"binary"
"8C9FE60E2714498B80B48606915608E2",1,"01990aa2-d7d2-7332-a269-39bac79299f0","01990a83-7673-7c0c-a792-bbd8fbbaf673","2025-09-02_06h34.45.444",NA,NA,534.8707,535.1208,535.1208,535.2211,NA,NA,NA,NA,NA,NA,NA,FALSE,NA,NA,531.8716,534.8705,NA,NA,NA,NA,NA,45,26,0,30,30,54,1,2,31,"binary"
"8C9FE60E2714498B80B48606915608E2",1,"01990aa2-d7d2-7332-a269-39bac79299f0","01990a83-7673-7c0c-a792-bbd8fbbaf673","2025-09-02_06h34.45.444",NA,NA,538.2209,538.2209,538.2209,538.5706,NA,NA,NA,NA,NA,NA,NA,TRUE,2,0.6152,535.2225,538.2207,NA,NA,NA,NA,NA,95,54,0,31,31,83,1,2,32,"binary"
"8C9FE60E2714498B80B48606915608E2",1,"01990aa2-d7d2-7332-a269-39bac79299f0","01990a83-7673-7c0c-a792-bbd8fbbaf673","2025-09-02_06h34.45.444",NA,NA,541.5706,541.5706,541.5706,541.9206,NA,NA,NA,NA,NA,NA,NA,TRUE,2,0.5507,538.5716,541.5705,NA,NA,NA,NA,NA,21,32,0,32,32,28,1,2,33,"binary"
"8C9FE60E2714498B80B48606915608E2",1,"01990aa2-d7d2-7332-a269-39bac79299f0","01990a83-7673-7c0c-a792-bbd8fbbaf673","2025-09-02_06h34.45.444",NA,NA,544.9206,544.9206,544.9206,545.2706,NA,NA,NA,NA,NA,NA,NA,TRUE,2,0.7069,541.9236,544.9204,NA,NA,NA,NA,NA,30,38,0,33,33,47,1,2,34,"binary"
"8C9FE60E2714498B80B48606915608E2",1,"01990aa2-d7d2-7332-a269-39bac79299f0","01990a83-7673-7c0c-a792-bbd8fbbaf673","2025-09-02_06h34.45.444",NA,NA,548.2708,548.2708,548.2708,548.6206,NA,NA,NA,NA,NA,NA,NA,TRUE,2,0.8491,545.2717,548.2706,NA,NA,NA,NA,NA,150,35,0,34,34,92,1,2,35,"binary"
"8C9FE60E2714498B80B48606915608E2",1,"01990aa2-d7d2-7332-a269-39bac79299f0","01990a83-7673-7c0c-a792-bbd8fbbaf673","2025-09-02_06h34.45.444",NA,NA,551.6207,551.6207,551.6207,551.9707,NA,NA,NA,NA,NA,NA,NA,TRUE,2,0.607,548.6214,551.6205,NA,NA,NA,NA,NA,40,33,0,35,35,49,1,2,36,"binary"
"8C9FE60E2714498B80B48606915608E2",1,"01990aa2-d7d2-7332-a269-39bac79299f0","01990a83-7673-7c0c-a792-bbd8fbbaf673","2025-09-02_06h34.45.444",NA,NA,554.9706,554.9706,554.9706,555.3205,NA,NA,NA,NA,NA,NA,NA,TRUE,2,0.8299,551.9721,554.9705,NA,NA,NA,NA,NA,14,28,0,36,36,20,1,2,37,"binary"
"8C9FE60E2714498B80B48606915608E2",1,"01990aa2-d7d2-7332-a269-39bac79299f0","01990a83-7673-7c0c-a792-bbd8fbbaf673","2025-09-02_06h34.45.444",NA,NA,558.3211,558.3211,558.3211,558.6705,NA,NA,NA,NA,NA,NA,NA,TRUE,2,0.5807,555.3215,558.321,NA,NA,NA,NA,NA,180,39,0,37,37,99,1,2,38,"binary"
"8C9FE60E2714498B80B48606915608E2",1,"01990aa2-d7d2-7332-a269-39bac79299f0","01990a83-7673-7c0c-a792-bbd8fbbaf673","2025-09-02_06h34.45.444",NA,NA,561.6707,561.6707,561.6707,562.0206,NA,NA,NA,NA,NA,NA,NA,TRUE,1,0.6733,558.6713,561.6706,NA,NA,NA,NA,NA,12,28,0,38,38,14,1,2,39,"binary"
"8C9FE60E2714498B80B48606915608E2",1,"01990aa2-d7d2-7332-a269-39bac79299f0","01990a83-7673-7c0c-a792-bbd8fbbaf673","2025-09-02_06h34.45.444",NA,NA,565.0209,565.0209,565.0209,565.3711,NA,NA,NA,NA,NA,NA,NA,TRUE,1,0.8697,562.0214,565.0208,NA,NA,NA,NA,NA,28,28,0,39,39,37,1,2,40,"binary"
"8C9FE60E2714498B80B48606915608E2",1,"01990aa2-d7d2-7332-a269-39bac79299f0","01990a83-7673-7c0c-a792-bbd8fbbaf673","2025-09-02_06h34.45.444",NA,NA,568.3709,568.371,568.371,568.7206,NA,NA,NA,NA,NA,NA,NA,TRUE,1,1.1904,565.3726,568.3709,NA,NA,NA,NA,NA,150,31,0,40,40,90,1,2,41,"binary"
"8C9FE60E2714498B80B48606915608E2",1,"01990aa2-d7d2-7332-a269-39bac79299f0","01990a83-7673-7c0c-a792-bbd8fbbaf673","2025-09-02_06h34.45.444",NA,NA,571.7205,571.7205,571.7205,572.0704,NA,NA,NA,NA,NA,NA,NA,TRUE,2,0.6835,568.7215,571.7205,NA,NA,NA,NA,NA,12,35,0,41,41,17,1,2,42,"binary"
"8C9FE60E2714498B80B48606915608E2",1,"01990aa2-d7d2-7332-a269-39bac79299f0","01990a83-7673-7c0c-a792-bbd8fbbaf673","2025-09-02_06h34.45.444",NA,NA,575.0712,575.0712,575.0712,575.4206,NA,NA,NA,NA,NA,NA,NA,TRUE,2,0.4981,572.0714,575.071,NA,NA,NA,NA,NA,28,46,0,42,42,41,1,2,43,"binary"
"8C9FE60E2714498B80B48606915608E2",1,"01990aa2-d7d2-7332-a269-39bac79299f0","01990a83-7673-7c0c-a792-bbd8fbbaf673","2025-09-02_06h34.45.444",NA,NA,578.4204,578.4205,578.4205,578.7704,NA,NA,NA,NA,NA,NA,NA,TRUE,1,0.6412,575.4223,578.4204,NA,NA,NA,NA,NA,14,25,0,43,43,18,1,2,44,"binary"
"8C9FE60E2714498B80B48606915608E2",1,"01990aa2-d7d2-7332-a269-39bac79299f0","01990a83-7673-7c0c-a792-bbd8fbbaf673","2025-09-02_06h34.45.444",NA,NA,581.7707,581.7708,581.7708,582.1204,NA,NA,NA,NA,NA,NA,NA,TRUE,1,0.8012,578.7713,581.7706,NA,NA,NA,NA,NA,180,27,0,44,44,96,1,2,45,"binary"
"8C9FE60E2714498B80B48606915608E2",1,"01990aa2-d7d2-7332-a269-39bac79299f0","01990a83-7673-7c0c-a792-bbd8fbbaf673","2025-09-02_06h34.45.444",NA,NA,585.1205,585.1205,585.1205,585.4706,NA,NA,NA,NA,NA,NA,NA,TRUE,2,0.6315,582.1214,585.1204,NA,NA,NA,NA,NA,200,47,0,45,45,106,1,2,46,"binary"
"8C9FE60E2714498B80B48606915608E2",1,"01990aa2-d7d2-7332-a269-39bac79299f0","01990a83-7673-7c0c-a792-bbd8fbbaf673","2025-09-02_06h34.45.444",NA,NA,588.4706,588.4706,588.4706,588.8204,NA,NA,NA,NA,NA,NA,NA,TRUE,2,0.9128,585.4724,588.4705,NA,NA,NA,NA,NA,50,30,0,46,46,61,1,2,47,"binary"
"8C9FE60E2714498B80B48606915608E2",1,"01990aa2-d7d2-7332-a269-39bac79299f0","01990a83-7673-7c0c-a792-bbd8fbbaf673","2025-09-02_06h34.45.444",NA,NA,591.8221,591.8221,591.8221,592.1704,NA,NA,NA,NA,NA,NA,NA,TRUE,1,0.5914,588.8212,591.822,NA,NA,NA,NA,NA,12,31,0,47,47,15,1,2,48,"binary"
"8C9FE60E2714498B80B48606915608E2",1,"01990aa2-d7d2-7332-a269-39bac79299f0","01990a83-7673-7c0c-a792-bbd8fbbaf673","2025-09-02_06h34.45.444",NA,NA,595.1705,595.1705,595.1705,595.5206,NA,NA,NA,NA,NA,NA,NA,TRUE,2,0.5003,592.1713,595.1704,NA,NA,NA,NA,NA,180,31,0,48,48,97,1,2,49,"binary"
"8C9FE60E2714498B80B48606915608E2",1,"01990aa2-d7d2-7332-a269-39bac79299f0","01990a83-7673-7c0c-a792-bbd8fbbaf673","2025-09-02_06h34.45.444",NA,NA,598.5209,598.5209,598.5209,598.8706,NA,NA,NA,NA,NA,NA,NA,TRUE,2,0.6172,595.5214,598.5208,NA,NA,NA,NA,NA,95,40,0,49,49,81,1,2,50,"binary"
"8C9FE60E2714498B80B48606915608E2",1,"01990aa2-d7d2-7332-a269-39bac79299f0","01990a83-7673-7c0c-a792-bbd8fbbaf673","2025-09-02_06h34.45.444",NA,NA,601.8705,601.8705,601.8705,602.2208,NA,NA,NA,NA,NA,NA,NA,TRUE,2,0.7978,598.8716,601.8704,NA,NA,NA,NA,NA,45,40,0,50,50,58,1,2,51,"binary"
"8C9FE60E2714498B80B48606915608E2",1,"01990aa2-d7d2-7332-a269-39bac79299f0","01990a83-7673-7c0c-a792-bbd8fbbaf673","2025-09-02_06h34.45.444",NA,NA,605.2208,605.2208,605.2208,605.5706,NA,NA,NA,NA,NA,NA,NA,TRUE,2,0.5164,602.2217,605.2206,NA,NA,NA,NA,NA,180,54,0,51,51,101,1,2,52,"binary"
"8C9FE60E2714498B80B48606915608E2",1,"01990aa2-d7d2-7332-a269-39bac79299f0","01990a83-7673-7c0c-a792-bbd8fbbaf673","2025-09-02_06h34.45.444",NA,NA,608.5705,608.5705,608.5705,608.9204,NA,NA,NA,NA,NA,NA,NA,TRUE,1,0.759,605.5717,608.5704,NA,NA,NA,NA,NA,12,26,0,52,52,13,1,2,53,"binary"
"8C9FE60E2714498B80B48606915608E2",1,"01990aa2-d7d2-7332-a269-39bac79299f0","01990a83-7673-7c0c-a792-bbd8fbbaf673","2025-09-02_06h34.45.444",NA,NA,611.9207,611.9208,611.9208,612.2707,NA,NA,NA,NA,NA,NA,NA,TRUE,2,0.7034,608.9212,611.9207,NA,NA,NA,NA,NA,10,32,0,53,53,11,1,2,54,"binary"
"8C9FE60E2714498B80B48606915608E2",1,"01990aa2-d7d2-7332-a269-39bac79299f0","01990a83-7673-7c0c-a792-bbd8fbbaf673","2025-09-02_06h34.45.444",NA,NA,615.2706,615.2706,615.2706,615.6206,NA,NA,NA,NA,NA,NA,NA,TRUE,2,0.5665,612.2716,615.2705,NA,NA,NA,NA,NA,60,54,0,54,54,71,1,2,55,"binary"
"8C9FE60E2714498B80B48606915608E2",1,"01990aa2-d7d2-7332-a269-39bac79299f0","01990a83-7673-7c0c-a792-bbd8fbbaf673","2025-09-02_06h34.45.444",NA,NA,618.6208,618.6208,618.6208,618.9709,NA,NA,NA,NA,NA,NA,NA,TRUE,2,1.0968,615.6216,618.6206,NA,NA,NA,NA,NA,28,39,0,55,55,40,1,2,56,"binary"
"8C9FE60E2714498B80B48606915608E2",1,"01990aa2-d7d2-7332-a269-39bac79299f0","01990a83-7673-7c0c-a792-bbd8fbbaf673","2025-09-02_06h34.45.444",NA,NA,621.9704,621.9704,621.9705,622.3216,NA,NA,NA,NA,NA,NA,NA,TRUE,2,1.1545,618.9722,621.9704,NA,NA,NA,NA,NA,25,31,0,56,56,32,1,2,57,"binary"
"8C9FE60E2714498B80B48606915608E2",1,"01990aa2-d7d2-7332-a269-39bac79299f0","01990a83-7673-7c0c-a792-bbd8fbbaf673","2025-09-02_06h34.45.444",NA,NA,625.3206,625.3207,625.3207,625.6706,NA,NA,NA,NA,NA,NA,NA,TRUE,1,0.5826,622.323,625.3205,NA,NA,NA,NA,NA,7,28,0,57,57,2,1,2,58,"binary"
"8C9FE60E2714498B80B48606915608E2",1,"01990aa2-d7d2-7332-a269-39bac79299f0","01990a83-7673-7c0c-a792-bbd8fbbaf673","2025-09-02_06h34.45.444",NA,NA,628.6708,628.6708,628.6708,629.0205,NA,NA,NA,NA,NA,NA,NA,TRUE,2,0.7166,625.6721,628.6707,NA,NA,NA,NA,NA,60,35,0,58,58,68,1,2,59,"binary"
"8C9FE60E2714498B80B48606915608E2",1,"01990aa2-d7d2-7332-a269-39bac79299f0","01990a83-7673-7c0c-a792-bbd8fbbaf673","2025-09-02_06h34.45.444",NA,NA,632.0204,632.0204,632.0204,632.371,NA,NA,NA,NA,NA,NA,NA,TRUE,1,0.6007,629.0214,632.0203,NA,NA,NA,NA,NA,28,32,0,59,59,38,1,2,60,"binary"
"8C9FE60E2714498B80B48606915608E2",1,"01990aa2-d7d2-7332-a269-39bac79299f0","01990a83-7673-7c0c-a792-bbd8fbbaf673","2025-09-02_06h34.45.444",NA,NA,635.3708,635.3708,635.3708,635.7205,NA,NA,NA,NA,NA,NA,NA,TRUE,1,1.518,632.372,635.3706,NA,NA,NA,NA,NA,100,39,0,60,60,87,1,2,61,"binary"
"8C9FE60E2714498B80B48606915608E2",1,"01990aa2-d7d2-7332-a269-39bac79299f0","01990a83-7673-7c0c-a792-bbd8fbbaf673","2025-09-02_06h34.45.444",NA,NA,638.7206,638.7206,638.7206,639.0703,NA,NA,NA,NA,NA,NA,NA,TRUE,2,0.6868,635.7217,638.7205,NA,NA,NA,NA,NA,200,39,0,61,61,105,1,2,62,"binary"
"8C9FE60E2714498B80B48606915608E2",1,"01990aa2-d7d2-7332-a269-39bac79299f0","01990a83-7673-7c0c-a792-bbd8fbbaf673","2025-09-02_06h34.45.444",NA,NA,642.0706,642.0707,642.0707,642.4205,NA,NA,NA,NA,NA,NA,NA,TRUE,2,0.7811,639.0714,642.0705,NA,NA,NA,NA,NA,21,38,0,62,62,29,1,2,63,"binary"
"8C9FE60E2714498B80B48606915608E2",1,"01990aa2-d7d2-7332-a269-39bac79299f0","01990a83-7673-7c0c-a792-bbd8fbbaf673","2025-09-02_06h34.45.444",NA,NA,645.4214,645.4214,645.4214,645.7704,NA,NA,NA,NA,NA,NA,NA,TRUE,1,0.8065,642.4223,645.4213,NA,NA,NA,NA,NA,10,26,0,63,63,7,1,2,64,"binary"
"8C9FE60E2714498B80B48606915608E2",1,"01990aa2-d7d2-7332-a269-39bac79299f0","01990a83-7673-7c0c-a792-bbd8fbbaf673","2025-09-02_06h34.45.444",NA,NA,648.7705,648.7705,648.7705,649.1206,NA,NA,NA,NA,NA,NA,NA,TRUE,1,0.7133,645.7713,648.7704,NA,NA,NA,NA,NA,28,26,0,64,64,36,1,2,65,"binary"
"8C9FE60E2714498B80B48606915608E2",1,"01990aa2-d7d2-7332-a269-39bac79299f0","01990a83-7673-7c0c-a792-bbd8fbbaf673","2025-09-02_06h34.45.444",NA,NA,652.1205,652.1205,652.1205,652.4703,NA,NA,NA,NA,NA,NA,NA,TRUE,1,1.0164,649.1214,652.1205,NA,NA,NA,NA,NA,90,30,0,65,65,73,1,2,66,"binary"
"8C9FE60E2714498B80B48606915608E2",1,"01990aa2-d7d2-7332-a269-39bac79299f0","01990a83-7673-7c0c-a792-bbd8fbbaf673","2025-09-02_06h34.45.444",NA,NA,655.4706,655.4707,655.4707,655.8204,NA,NA,NA,NA,NA,NA,NA,TRUE,2,0.9829,652.4716,655.4705,NA,NA,NA,NA,NA,7,30,0,66,66,3,1,2,67,"binary"
"8C9FE60E2714498B80B48606915608E2",1,"01990aa2-d7d2-7332-a269-39bac79299f0","01990a83-7673-7c0c-a792-bbd8fbbaf673","2025-09-02_06h34.45.444",NA,NA,658.8207,658.8207,658.8207,659.1705,NA,NA,NA,NA,NA,NA,NA,TRUE,1,0.6484,655.8213,658.8206,NA,NA,NA,NA,NA,150,33,0,67,67,91,1,2,68,"binary"
"8C9FE60E2714498B80B48606915608E2",1,"01990aa2-d7d2-7332-a269-39bac79299f0","01990a83-7673-7c0c-a792-bbd8fbbaf673","2025-09-02_06h34.45.444",NA,NA,662.1709,662.1709,662.1709,662.5205,NA,NA,NA,NA,NA,NA,NA,TRUE,1,0.7136,659.1712,662.1708,NA,NA,NA,NA,NA,60,33,0,68,68,67,1,2,69,"binary"
"8C9FE60E2714498B80B48606915608E2",1,"01990aa2-d7d2-7332-a269-39bac79299f0","01990a83-7673-7c0c-a792-bbd8fbbaf673","2025-09-02_06h34.45.444",NA,NA,665.5207,665.5207,665.5207,665.8704,NA,NA,NA,NA,NA,NA,NA,TRUE,2,0.5474,662.5213,665.5205,NA,NA,NA,NA,NA,100,54,0,69,69,89,1,2,70,"binary"
"8C9FE60E2714498B80B48606915608E2",1,"01990aa2-d7d2-7332-a269-39bac79299f0","01990a83-7673-7c0c-a792-bbd8fbbaf673","2025-09-02_06h34.45.444",NA,NA,668.8705,668.8705,668.8705,669.2205,NA,NA,NA,NA,NA,NA,NA,TRUE,1,1.047,665.8715,668.8704,NA,NA,NA,NA,NA,200,26,0,70,70,102,1,2,71,"binary"
"8C9FE60E2714498B80B48606915608E2",1,"01990aa2-d7d2-7332-a269-39bac79299f0","01990a83-7673-7c0c-a792-bbd8fbbaf673","2025-09-02_06h34.45.444",NA,NA,672.2205,672.4703,672.4704,672.5713,NA,NA,NA,NA,NA,NA,NA,FALSE,NA,NA,669.2215,672.2205,NA,NA,NA,NA,NA,12,25,0,71,71,12,1,2,72,"binary"
"8C9FE60E2714498B80B48606915608E2",1,"01990aa2-d7d2-7332-a269-39bac79299f0","01990a83-7673-7c0c-a792-bbd8fbbaf673","2025-09-02_06h34.45.444",NA,NA,675.5705,675.5705,675.5705,675.9206,NA,NA,NA,NA,NA,NA,NA,TRUE,2,0.8334,672.5721,675.5704,NA,NA,NA,NA,NA,50,40,0,72,72,63,1,2,73,"binary"
"8C9FE60E2714498B80B48606915608E2",1,"01990aa2-d7d2-7332-a269-39bac79299f0","01990a83-7673-7c0c-a792-bbd8fbbaf673","2025-09-02_06h34.45.444",NA,NA,678.9204,678.9204,678.9204,679.2707,NA,NA,NA,NA,NA,NA,NA,TRUE,1,0.7386,675.9216,678.9203,NA,NA,NA,NA,NA,100,31,0,73,73,85,1,2,74,"binary"
"8C9FE60E2714498B80B48606915608E2",1,"01990aa2-d7d2-7332-a269-39bac79299f0","01990a83-7673-7c0c-a792-bbd8fbbaf673","2025-09-02_06h34.45.444",NA,NA,682.2705,682.2705,682.2705,682.6203,NA,NA,NA,NA,NA,NA,NA,TRUE,1,0.9653,679.2718,682.2704,NA,NA,NA,NA,NA,28,35,0,74,74,39,1,2,75,"binary"
"8C9FE60E2714498B80B48606915608E2",1,"01990aa2-d7d2-7332-a269-39bac79299f0","01990a83-7673-7c0c-a792-bbd8fbbaf673","2025-09-02_06h34.45.444",NA,NA,685.6204,685.6205,685.6205,685.9703,NA,NA,NA,NA,NA,NA,NA,TRUE,2,0.5335,682.6213,685.6203,NA,NA,NA,NA,NA,95,33,0,75,75,79,1,2,76,"binary"
"8C9FE60E2714498B80B48606915608E2",1,"01990aa2-d7d2-7332-a269-39bac79299f0","01990a83-7673-7c0c-a792-bbd8fbbaf673","2025-09-02_06h34.45.444",NA,NA,688.9706,688.9706,688.9707,689.3202,NA,NA,NA,NA,NA,NA,NA,TRUE,2,0.5216,685.9714,688.9705,NA,NA,NA,NA,NA,14,39,0,76,76,23,1,2,77,"binary"
"8C9FE60E2714498B80B48606915608E2",1,"01990aa2-d7d2-7332-a269-39bac79299f0","01990a83-7673-7c0c-a792-bbd8fbbaf673","2025-09-02_06h34.45.444",NA,NA,692.3205,692.3205,692.3205,692.6703,NA,NA,NA,NA,NA,NA,NA,TRUE,1,0.8027,689.3212,692.3204,NA,NA,NA,NA,NA,14,26,0,77,77,19,1,2,78,"binary"
"8C9FE60E2714498B80B48606915608E2",1,"01990aa2-d7d2-7332-a269-39bac79299f0","01990a83-7673-7c0c-a792-bbd8fbbaf673","2025-09-02_06h34.45.444",NA,NA,695.6703,695.6704,695.6704,696.0204,NA,NA,NA,NA,NA,NA,NA,TRUE,1,0.6691,692.6713,695.6703,NA,NA,NA,NA,NA,45,31,0,78,78,56,1,2,79,"binary"
"8C9FE60E2714498B80B48606915608E2",1,"01990aa2-d7d2-7332-a269-39bac79299f0","01990a83-7673-7c0c-a792-bbd8fbbaf673","2025-09-02_06h34.45.444",NA,NA,699.0206,699.0206,699.0206,699.3704,NA,NA,NA,NA,NA,NA,NA,TRUE,1,1.0012,696.0213,699.0205,NA,NA,NA,NA,NA,25,27,0,79,79,30,1,2,80,"binary"
"8C9FE60E2714498B80B48606915608E2",1,"01990aa2-d7d2-7332-a269-39bac79299f0","01990a83-7673-7c0c-a792-bbd8fbbaf673","2025-09-02_06h34.45.444",NA,NA,702.3704,702.3704,702.3704,702.7202,NA,NA,NA,NA,NA,NA,NA,TRUE,1,0.7651,699.3713,702.3703,NA,NA,NA,NA,NA,60,29,0,80,80,66,1,2,81,"binary"
"8C9FE60E2714498B80B48606915608E2",1,"01990aa2-d7d2-7332-a269-39bac79299f0","01990a83-7673-7c0c-a792-bbd8fbbaf673","2025-09-02_06h34.45.444",NA,NA,705.7203,705.7203,705.7203,706.0705,NA,NA,NA,NA,NA,NA,NA,TRUE,1,0.6014,702.7213,705.7202,NA,NA,NA,NA,NA,7,35,0,81,81,5,1,2,82,"binary"
"8C9FE60E2714498B80B48606915608E2",1,"01990aa2-d7d2-7332-a269-39bac79299f0","01990a83-7673-7c0c-a792-bbd8fbbaf673","2025-09-02_06h34.45.444",NA,NA,709.0704,709.0704,709.0704,709.4206,NA,NA,NA,NA,NA,NA,NA,TRUE,2,1.4616,706.0718,709.0703,NA,NA,NA,NA,NA,50,46,0,82,82,64,1,2,83,"binary"
"8C9FE60E2714498B80B48606915608E2",1,"01990aa2-d7d2-7332-a269-39bac79299f0","01990a83-7673-7c0c-a792-bbd8fbbaf673","2025-09-02_06h34.45.444",NA,NA,712.4204,712.4204,712.4204,712.7707,NA,NA,NA,NA,NA,NA,NA,TRUE,1,0.8011,709.4215,712.4204,NA,NA,NA,NA,NA,30,27,0,83,83,43,1,2,84,"binary"
"8C9FE60E2714498B80B48606915608E2",1,"01990aa2-d7d2-7332-a269-39bac79299f0","01990a83-7673-7c0c-a792-bbd8fbbaf673","2025-09-02_06h34.45.444",NA,NA,715.7711,715.7711,715.7711,716.1203,NA,NA,NA,NA,NA,NA,NA,TRUE,2,0.6503,712.7719,715.7709,NA,NA,NA,NA,NA,40,40,0,84,84,51,1,2,85,"binary"
"8C9FE60E2714498B80B48606915608E2",1,"01990aa2-d7d2-7332-a269-39bac79299f0","01990a83-7673-7c0c-a792-bbd8fbbaf673","2025-09-02_06h34.45.444",NA,NA,719.1206,719.1206,719.1206,719.4707,NA,NA,NA,NA,NA,NA,NA,TRUE,1,0.5971,716.1216,719.1205,NA,NA,NA,NA,NA,7,26,0,85,85,1,1,2,86,"binary"
"8C9FE60E2714498B80B48606915608E2",1,"01990aa2-d7d2-7332-a269-39bac79299f0","01990a83-7673-7c0c-a792-bbd8fbbaf673","2025-09-02_06h34.45.444",NA,NA,722.4704,722.4704,722.4704,722.8209,NA,NA,NA,NA,NA,NA,NA,TRUE,1,0.783,719.4718,722.4703,NA,NA,NA,NA,NA,21,26,0,86,86,24,1,2,87,"binary"
"8C9FE60E2714498B80B48606915608E2",1,"01990aa2-d7d2-7332-a269-39bac79299f0","01990a83-7673-7c0c-a792-bbd8fbbaf673","2025-09-02_06h34.45.444",NA,NA,725.8205,725.8205,725.8205,726.1705,NA,NA,NA,NA,NA,NA,NA,TRUE,1,1.0046,722.8218,725.8204,NA,NA,NA,NA,NA,90,33,0,87,87,74,1,2,88,"binary"
"8C9FE60E2714498B80B48606915608E2",1,"01990aa2-d7d2-7332-a269-39bac79299f0","01990a83-7673-7c0c-a792-bbd8fbbaf673","2025-09-02_06h34.45.444",NA,NA,729.1704,729.1704,729.1704,729.5203,NA,NA,NA,NA,NA,NA,NA,TRUE,1,1.1807,726.1715,729.1704,NA,NA,NA,NA,NA,200,54,0,88,88,107,1,2,89,"binary"
"8C9FE60E2714498B80B48606915608E2",1,"01990aa2-d7d2-7332-a269-39bac79299f0","01990a83-7673-7c0c-a792-bbd8fbbaf673","2025-09-02_06h34.45.444",NA,NA,732.5204,732.5204,732.5204,732.8703,NA,NA,NA,NA,NA,NA,NA,TRUE,1,0.9474,729.5215,732.5203,NA,NA,NA,NA,NA,30,29,0,89,89,44,1,2,90,"binary"
"8C9FE60E2714498B80B48606915608E2",1,"01990aa2-d7d2-7332-a269-39bac79299f0","01990a83-7673-7c0c-a792-bbd8fbbaf673","2025-09-02_06h34.45.444",NA,NA,735.8706,735.8706,735.8706,736.2204,NA,NA,NA,NA,NA,NA,NA,TRUE,1,0.5806,732.8711,735.8705,NA,NA,NA,NA,NA,50,27,0,90,90,60,1,2,91,"binary"
"8C9FE60E2714498B80B48606915608E2",1,"01990aa2-d7d2-7332-a269-39bac79299f0","01990a83-7673-7c0c-a792-bbd8fbbaf673","2025-09-02_06h34.45.444",NA,NA,739.2204,739.2204,739.2204,739.5703,NA,NA,NA,NA,NA,NA,NA,TRUE,1,0.8133,736.2216,739.2203,NA,NA,NA,NA,NA,45,29,0,91,91,55,1,2,92,"binary"
"8C9FE60E2714498B80B48606915608E2",1,"01990aa2-d7d2-7332-a269-39bac79299f0","01990a83-7673-7c0c-a792-bbd8fbbaf673","2025-09-02_06h34.45.444",NA,NA,742.5702,742.5702,742.5702,742.9207,NA,NA,NA,NA,NA,NA,NA,TRUE,1,0.6963,739.5715,742.5702,NA,NA,NA,NA,NA,200,28,0,92,92,103,1,2,93,"binary"
"8C9FE60E2714498B80B48606915608E2",1,"01990aa2-d7d2-7332-a269-39bac79299f0","01990a83-7673-7c0c-a792-bbd8fbbaf673","2025-09-02_06h34.45.444",NA,NA,745.9203,745.9203,745.9203,746.2704,NA,NA,NA,NA,NA,NA,NA,TRUE,1,0.4961,742.9223,745.9201,NA,NA,NA,NA,NA,60,47,0,93,93,70,1,2,94,"binary"
"8C9FE60E2714498B80B48606915608E2",1,"01990aa2-d7d2-7332-a269-39bac79299f0","01990a83-7673-7c0c-a792-bbd8fbbaf673","2025-09-02_06h34.45.444",NA,NA,749.2703,749.2703,749.2703,749.6204,NA,NA,NA,NA,NA,NA,NA,TRUE,2,0.6839,746.2712,749.2702,NA,NA,NA,NA,NA,45,35,0,94,94,57,1,2,95,"binary"
"8C9FE60E2714498B80B48606915608E2",1,"01990aa2-d7d2-7332-a269-39bac79299f0","01990a83-7673-7c0c-a792-bbd8fbbaf673","2025-09-02_06h34.45.444",NA,NA,752.6204,752.6204,752.6204,752.9703,NA,NA,NA,NA,NA,NA,NA,TRUE,1,0.7165,749.6215,752.6203,NA,NA,NA,NA,NA,7,32,0,95,95,4,1,2,96,"binary"
"8C9FE60E2714498B80B48606915608E2",1,"01990aa2-d7d2-7332-a269-39bac79299f0","01990a83-7673-7c0c-a792-bbd8fbbaf673","2025-09-02_06h34.45.444",NA,NA,755.9703,755.9703,755.9703,756.3202,NA,NA,NA,NA,NA,NA,NA,TRUE,2,0.4181,752.9713,755.9703,NA,NA,NA,NA,NA,95,31,0,96,96,78,1,2,97,"binary"
"8C9FE60E2714498B80B48606915608E2",1,"01990aa2-d7d2-7332-a269-39bac79299f0","01990a83-7673-7c0c-a792-bbd8fbbaf673","2025-09-02_06h34.45.444",NA,NA,759.3204,759.3204,759.3204,759.6702,NA,NA,NA,NA,NA,NA,NA,TRUE,1,0.4747,756.3211,759.3202,NA,NA,NA,NA,NA,30,26,0,97,97,42,1,2,98,"binary"
"8C9FE60E2714498B80B48606915608E2",1,"01990aa2-d7d2-7332-a269-39bac79299f0","01990a83-7673-7c0c-a792-bbd8fbbaf673","2025-09-02_06h34.45.444",NA,NA,762.6708,762.6708,762.6709,763.0201,NA,NA,NA,NA,NA,NA,NA,TRUE,2,0.6511,759.6712,762.6707,NA,NA,NA,NA,NA,21,30,0,98,98,27,1,2,99,"binary"
"8C9FE60E2714498B80B48606915608E2",1,"01990aa2-d7d2-7332-a269-39bac79299f0","01990a83-7673-7c0c-a792-bbd8fbbaf673","2025-09-02_06h34.45.444",NA,NA,766.0204,766.0205,766.0205,766.3701,NA,NA,NA,NA,NA,NA,NA,TRUE,2,0.6655,763.0211,766.0204,NA,NA,NA,NA,NA,90,40,0,99,99,75,1,2,100,"binary"
"8C9FE60E2714498B80B48606915608E2",1,"01990aa2-d7d2-7332-a269-39bac79299f0","01990a83-7673-7c0c-a792-bbd8fbbaf673","2025-09-02_06h34.45.444",NA,NA,769.3703,769.3703,769.3704,769.7204,NA,NA,NA,NA,NA,NA,NA,TRUE,2,0.6503,766.371,769.3703,NA,NA,NA,NA,NA,14,35,0,100,100,22,1,2,101,"binary"
"8C9FE60E2714498B80B48606915608E2",1,"01990aa2-d7d2-7332-a269-39bac79299f0","01990a83-7673-7c0c-a792-bbd8fbbaf673","2025-09-02_06h34.45.444",NA,NA,772.7204,772.7204,772.7204,773.0703,NA,NA,NA,NA,NA,NA,NA,TRUE,2,0.7389,769.7213,772.7203,NA,NA,NA,NA,NA,14,32,0,101,101,21,1,2,102,"binary"
"8C9FE60E2714498B80B48606915608E2",1,"01990aa2-d7d2-7332-a269-39bac79299f0","01990a83-7673-7c0c-a792-bbd8fbbaf673","2025-09-02_06h34.45.444",NA,NA,776.0701,776.0701,776.0701,776.4203,NA,NA,NA,NA,NA,NA,NA,TRUE,2,0.5318,773.0712,776.0701,NA,NA,NA,NA,NA,180,35,0,102,102,98,1,2,103,"binary"
"8C9FE60E2714498B80B48606915608E2",1,"01990aa2-d7d2-7332-a269-39bac79299f0","01990a83-7673-7c0c-a792-bbd8fbbaf673","2025-09-02_06h34.45.444",NA,NA,779.4202,779.4203,779.4203,779.7702,NA,NA,NA,NA,NA,NA,NA,TRUE,1,1.0678,776.4213,779.4202,NA,NA,NA,NA,NA,21,27,0,103,103,25,1,2,104,"binary"
"8C9FE60E2714498B80B48606915608E2",1,"01990aa2-d7d2-7332-a269-39bac79299f0","01990a83-7673-7c0c-a792-bbd8fbbaf673","2025-09-02_06h34.45.444",NA,NA,782.7707,782.7707,782.7707,783.1203,NA,NA,NA,NA,NA,NA,NA,TRUE,2,0.9177,779.7711,782.7706,NA,NA,NA,NA,NA,10,29,0,104,104,9,1,2,105,"binary"
"8C9FE60E2714498B80B48606915608E2",1,"01990aa2-d7d2-7332-a269-39bac79299f0","01990a83-7673-7c0c-a792-bbd8fbbaf673","2025-09-02_06h34.45.444",NA,NA,786.1205,786.1205,786.1205,786.4702,NA,NA,NA,NA,NA,NA,NA,TRUE,1,0.7027,783.1212,786.1204,NA,NA,NA,NA,NA,40,27,0,105,105,48,1,2,106,"binary"
"8C9FE60E2714498B80B48606915608E2",1,"01990aa2-d7d2-7332-a269-39bac79299f0","01990a83-7673-7c0c-a792-bbd8fbbaf673","2025-09-02_06h34.45.444",NA,NA,789.4702,789.4702,789.4702,789.8202,NA,NA,NA,NA,NA,NA,NA,TRUE,2,0.7635,786.4712,789.4701,NA,NA,NA,NA,NA,200,35,0,106,106,104,1,2,107,"binary"
"8C9FE60E2714498B80B48606915608E2",1,"01990aa2-d7d2-7332-a269-39bac79299f0","01990a83-7673-7c0c-a792-bbd8fbbaf673","2025-09-02_06h34.45.444",NA,NA,792.8204,792.8204,792.8204,793.1705,NA,NA,NA,NA,NA,NA,NA,TRUE,1,0.4801,789.8219,792.8204,NA,NA,NA,NA,NA,90,26,0,107,107,72,1,2,108,"binary"
