"participant","session","assignmentId","projectId","date","practiceTrial.started","practiceTrial.stopped","tooLate.started","tooLate.stopped","blank.started","blank.stopped","trials_pract.thisRepN","trials_pract.thisTrialN","trials_pract.thisN","trials_pract.thisIndex","trials_pract.ran","delay_pract","amount_pract","responseMade","key","rt","trial.started","trial.stopped","trials.thisRepN","trials.thisTrialN","trials.thisN","trials.thisIndex","trials.ran","delay","amount","trials_2.thisRepN","trials_2.thisTrialN","trials_2.thisN","trials_2.thisIndex","trials_2.ran","block","trial","taskType"
"8CBB43D492D14E8C89B8CEB4451F67D9",1,"01990a98-dd8d-7c15-baea-d1471ca47527","01990a83-7673-7c0c-a792-bbd8fbbaf673","2025-09-02_06h23.48.750",28.8536,31.8434,31.8438,31.8645,31.8645,32.1933,0,0,0,1,1,100,50,TRUE,2,2.7326,NA,NA,NA,NA,NA,NA,NA,NA,NA,NA,NA,NA,NA,NA,0,1,"binary"
"8CBB43D492D14E8C89B8CEB4451F67D9",1,"01990a98-dd8d-7c15-baea-d1471ca47527","01990a83-7673-7c0c-a792-bbd8fbbaf673","2025-09-02_06h23.48.750",32.1944,35.1932,35.1933,35.1933,35.1933,35.5431,0,1,1,3,1,3,27,TRUE,1,1.435,NA,NA,NA,NA,NA,NA,NA,NA,NA,NA,NA,NA,NA,NA,0,2,"binary"
"8CBB43D492D14E8C89B8CEB4451F67D9",1,"01990a98-dd8d-7c15-baea-d1471ca47527","01990a83-7673-7c0c-a792-bbd8fbbaf673","2025-09-02_06h23.48.750",35.5443,38.5431,38.5433,38.5433,38.5433,38.8931,0,2,2,2,1,14,45,TRUE,2,1.5409,NA,NA,NA,NA,NA,NA,NA,NA,NA,NA,NA,NA,NA,NA,0,3,"binary"
"8CBB43D492D14E8C89B8CEB4451F67D9",1,"01990a98-dd8d-7c15-baea-d1471ca47527","01990a83-7673-7c0c-a792-bbd8fbbaf673","2025-09-02_06h23.48.750",38.8941,41.893,41.8931,41.8932,41.8932,42.2431,0,3,3,4,1,30,40,TRUE,2,1.2944,NA,NA,NA,NA,NA,NA,NA,NA,NA,NA,NA,NA,NA,NA,0,4,"binary"
"8CBB43D492D14E8C89B8CEB4451F67D9",1,"01990a98-dd8d-7c15-baea-d1471ca47527","01990a83-7673-7c0c-a792-bbd8fbbaf673","2025-09-02_06h23.48.750",42.244,45.2427,45.2429,45.2429,45.2429,45.593,0,4,4,0,1,7,30,TRUE,1,1.7325,NA,NA,NA,NA,NA,NA,NA,NA,NA,NA,NA,NA,NA,NA,0,5,"binary"
"8CBB43D492D14E8C89B8CEB4451F67D9",1,"01990a98-dd8d-7c15-baea-d1471ca47527","01990a83-7673-7c0c-a792-bbd8fbbaf673","2025-09-02_06h23.48.750",NA,NA,69.5931,69.5932,69.5932,69.9428,NA,NA,NA,NA,NA,NA,NA,TRUE,1,2.0855,66.6034,69.5929,0,0,0,105,1,200,39,NA,NA,NA,NA,NA,1,1,"binary"
"8CBB43D492D14E8C89B8CEB4451F67D9",1,"01990a98-dd8d-7c15-baea-d1471ca47527","01990a83-7673-7c0c-a792-bbd8fbbaf673","2025-09-02_06h23.48.750",NA,NA,72.9428,72.9428,72.9428,73.2925,NA,NA,NA,NA,NA,NA,NA,TRUE,1,2.4131,69.9437,72.9427,0,1,1,107,1,200,54,NA,NA,NA,NA,NA,1,2,"binary"
"8CBB43D492D14E8C89B8CEB4451F67D9",1,"01990a98-dd8d-7c15-baea-d1471ca47527","01990a83-7673-7c0c-a792-bbd8fbbaf673","2025-09-02_06h23.48.750",NA,NA,76.2926,76.2926,76.2926,76.6426,NA,NA,NA,NA,NA,NA,NA,TRUE,2,1.758,73.2934,76.2924,0,2,2,53,1,40,54,NA,NA,NA,NA,NA,1,3,"binary"
"8CBB43D492D14E8C89B8CEB4451F67D9",1,"01990a98-dd8d-7c15-baea-d1471ca47527","01990a83-7673-7c0c-a792-bbd8fbbaf673","2025-09-02_06h23.48.750",NA,NA,79.6425,79.6425,79.6426,79.9927,NA,NA,NA,NA,NA,NA,NA,TRUE,1,1.4549,76.6434,79.6424,0,3,3,57,1,45,35,NA,NA,NA,NA,NA,1,4,"binary"
"8CBB43D492D14E8C89B8CEB4451F67D9",1,"01990a98-dd8d-7c15-baea-d1471ca47527","01990a83-7673-7c0c-a792-bbd8fbbaf673","2025-09-02_06h23.48.750",NA,NA,82.9927,82.9927,82.9927,83.3424,NA,NA,NA,NA,NA,NA,NA,TRUE,2,2.009,79.9937,82.9926,0,4,4,35,1,25,46,NA,NA,NA,NA,NA,1,5,"binary"
"8CBB43D492D14E8C89B8CEB4451F67D9",1,"01990a98-dd8d-7c15-baea-d1471ca47527","01990a83-7673-7c0c-a792-bbd8fbbaf673","2025-09-02_06h23.48.750",NA,NA,86.3426,86.3426,86.3427,86.6925,NA,NA,NA,NA,NA,NA,NA,TRUE,1,1.9312,83.3432,86.3426,0,5,5,56,1,45,31,NA,NA,NA,NA,NA,1,6,"binary"
"8CBB43D492D14E8C89B8CEB4451F67D9",1,"01990a98-dd8d-7c15-baea-d1471ca47527","01990a83-7673-7c0c-a792-bbd8fbbaf673","2025-09-02_06h23.48.750",NA,NA,89.6925,89.6925,89.6925,90.0426,NA,NA,NA,NA,NA,NA,NA,TRUE,1,2.493,86.6934,89.6924,0,6,6,10,1,10,30,NA,NA,NA,NA,NA,1,7,"binary"
"8CBB43D492D14E8C89B8CEB4451F67D9",1,"01990a98-dd8d-7c15-baea-d1471ca47527","01990a83-7673-7c0c-a792-bbd8fbbaf673","2025-09-02_06h23.48.750",NA,NA,93.0423,93.0423,93.0423,93.3925,NA,NA,NA,NA,NA,NA,NA,TRUE,1,1.4467,90.0435,93.0421,0,7,7,84,1,100,26,NA,NA,NA,NA,NA,1,8,"binary"
"8CBB43D492D14E8C89B8CEB4451F67D9",1,"01990a98-dd8d-7c15-baea-d1471ca47527","01990a83-7673-7c0c-a792-bbd8fbbaf673","2025-09-02_06h23.48.750",NA,NA,96.3926,96.3926,96.3926,96.7425,NA,NA,NA,NA,NA,NA,NA,TRUE,1,1.1684,93.3933,96.3924,0,8,8,54,1,45,26,NA,NA,NA,NA,NA,1,9,"binary"
"8CBB43D492D14E8C89B8CEB4451F67D9",1,"01990a98-dd8d-7c15-baea-d1471ca47527","01990a83-7673-7c0c-a792-bbd8fbbaf673","2025-09-02_06h23.48.750",NA,NA,99.7423,99.7423,99.7423,100.0924,NA,NA,NA,NA,NA,NA,NA,TRUE,1,1.4133,96.7436,99.7422,0,9,9,36,1,28,26,NA,NA,NA,NA,NA,1,10,"binary"
"8CBB43D492D14E8C89B8CEB4451F67D9",1,"01990a98-dd8d-7c15-baea-d1471ca47527","01990a83-7673-7c0c-a792-bbd8fbbaf673","2025-09-02_06h23.48.750",NA,NA,103.0925,103.0925,103.0925,103.4422,NA,NA,NA,NA,NA,NA,NA,TRUE,1,1.5248,100.0931,103.0924,0,10,10,49,1,40,33,NA,NA,NA,NA,NA,1,11,"binary"
"8CBB43D492D14E8C89B8CEB4451F67D9",1,"01990a98-dd8d-7c15-baea-d1471ca47527","01990a83-7673-7c0c-a792-bbd8fbbaf673","2025-09-02_06h23.48.750",NA,NA,106.4422,106.4422,106.4422,106.7921,NA,NA,NA,NA,NA,NA,NA,TRUE,1,1.2307,103.4431,106.4421,0,11,11,90,1,150,31,NA,NA,NA,NA,NA,1,12,"binary"
"8CBB43D492D14E8C89B8CEB4451F67D9",1,"01990a98-dd8d-7c15-baea-d1471ca47527","01990a83-7673-7c0c-a792-bbd8fbbaf673","2025-09-02_06h23.48.750",NA,NA,109.7923,109.7924,109.7924,110.1422,NA,NA,NA,NA,NA,NA,NA,TRUE,1,1.8648,106.793,109.7923,0,12,12,3,1,7,30,NA,NA,NA,NA,NA,1,13,"binary"
"8CBB43D492D14E8C89B8CEB4451F67D9",1,"01990a98-dd8d-7c15-baea-d1471ca47527","01990a83-7673-7c0c-a792-bbd8fbbaf673","2025-09-02_06h23.48.750",NA,NA,113.1423,113.1423,113.1423,113.4922,NA,NA,NA,NA,NA,NA,NA,TRUE,1,1.1308,110.1431,113.1423,0,13,13,7,1,10,26,NA,NA,NA,NA,NA,1,14,"binary"
"8CBB43D492D14E8C89B8CEB4451F67D9",1,"01990a98-dd8d-7c15-baea-d1471ca47527","01990a83-7673-7c0c-a792-bbd8fbbaf673","2025-09-02_06h23.48.750",NA,NA,116.492,116.4921,116.4921,116.8422,NA,NA,NA,NA,NA,NA,NA,TRUE,2,1.5645,113.4929,116.492,0,14,14,51,1,40,40,NA,NA,NA,NA,NA,1,15,"binary"
"8CBB43D492D14E8C89B8CEB4451F67D9",1,"01990a98-dd8d-7c15-baea-d1471ca47527","01990a83-7673-7c0c-a792-bbd8fbbaf673","2025-09-02_06h23.48.750",NA,NA,119.842,119.8421,119.8421,120.1922,NA,NA,NA,NA,NA,NA,NA,TRUE,2,1.9184,116.843,119.842,0,15,15,63,1,50,40,NA,NA,NA,NA,NA,1,16,"binary"
"8CBB43D492D14E8C89B8CEB4451F67D9",1,"01990a98-dd8d-7c15-baea-d1471ca47527","01990a83-7673-7c0c-a792-bbd8fbbaf673","2025-09-02_06h23.48.750",NA,NA,123.1923,123.1923,123.1923,123.5422,NA,NA,NA,NA,NA,NA,NA,TRUE,1,1.2087,120.1929,123.1923,0,16,16,79,1,95,33,NA,NA,NA,NA,NA,1,17,"binary"
"8CBB43D492D14E8C89B8CEB4451F67D9",1,"01990a98-dd8d-7c15-baea-d1471ca47527","01990a83-7673-7c0c-a792-bbd8fbbaf673","2025-09-02_06h23.48.750",NA,NA,126.5422,126.5422,126.5422,126.8919,NA,NA,NA,NA,NA,NA,NA,TRUE,1,1.0502,123.543,126.5421,0,17,17,78,1,95,31,NA,NA,NA,NA,NA,1,18,"binary"
"8CBB43D492D14E8C89B8CEB4451F67D9",1,"01990a98-dd8d-7c15-baea-d1471ca47527","01990a83-7673-7c0c-a792-bbd8fbbaf673","2025-09-02_06h23.48.750",NA,NA,129.892,129.892,129.892,130.2416,NA,NA,NA,NA,NA,NA,NA,TRUE,1,0.8469,126.8929,129.8919,0,18,18,9,1,10,29,NA,NA,NA,NA,NA,1,19,"binary"
"8CBB43D492D14E8C89B8CEB4451F67D9",1,"01990a98-dd8d-7c15-baea-d1471ca47527","01990a83-7673-7c0c-a792-bbd8fbbaf673","2025-09-02_06h23.48.750",NA,NA,133.2422,133.2422,133.2422,133.5918,NA,NA,NA,NA,NA,NA,NA,TRUE,1,1.0657,130.2424,133.2421,0,19,19,15,1,12,31,NA,NA,NA,NA,NA,1,20,"binary"
"8CBB43D492D14E8C89B8CEB4451F67D9",1,"01990a98-dd8d-7c15-baea-d1471ca47527","01990a83-7673-7c0c-a792-bbd8fbbaf673","2025-09-02_06h23.48.750",NA,NA,136.5921,136.5921,136.5921,136.9419,NA,NA,NA,NA,NA,NA,NA,TRUE,1,0.7864,133.5926,136.592,0,20,20,32,1,25,31,NA,NA,NA,NA,NA,1,21,"binary"
"8CBB43D492D14E8C89B8CEB4451F67D9",1,"01990a98-dd8d-7c15-baea-d1471ca47527","01990a83-7673-7c0c-a792-bbd8fbbaf673","2025-09-02_06h23.48.750",NA,NA,139.942,139.942,139.942,140.292,NA,NA,NA,NA,NA,NA,NA,TRUE,1,1.6257,136.9428,139.942,0,21,21,88,1,100,46,NA,NA,NA,NA,NA,1,22,"binary"
"8CBB43D492D14E8C89B8CEB4451F67D9",1,"01990a98-dd8d-7c15-baea-d1471ca47527","01990a83-7673-7c0c-a792-bbd8fbbaf673","2025-09-02_06h23.48.750",NA,NA,143.2917,143.2918,143.2918,143.6419,NA,NA,NA,NA,NA,NA,NA,TRUE,1,1.0915,140.2928,143.2917,0,22,22,30,1,25,27,NA,NA,NA,NA,NA,1,23,"binary"
"8CBB43D492D14E8C89B8CEB4451F67D9",1,"01990a98-dd8d-7c15-baea-d1471ca47527","01990a83-7673-7c0c-a792-bbd8fbbaf673","2025-09-02_06h23.48.750",NA,NA,146.6417,146.6418,146.6418,146.9917,NA,NA,NA,NA,NA,NA,NA,TRUE,1,1.1598,143.6427,146.6417,0,23,23,94,1,150,47,NA,NA,NA,NA,NA,1,24,"binary"
"8CBB43D492D14E8C89B8CEB4451F67D9",1,"01990a98-dd8d-7c15-baea-d1471ca47527","01990a83-7673-7c0c-a792-bbd8fbbaf673","2025-09-02_06h23.48.750",NA,NA,149.9915,149.9916,149.9916,150.3416,NA,NA,NA,NA,NA,NA,NA,TRUE,1,1.6103,146.9926,149.9914,0,24,24,4,1,7,32,NA,NA,NA,NA,NA,1,25,"binary"
"8CBB43D492D14E8C89B8CEB4451F67D9",1,"01990a98-dd8d-7c15-baea-d1471ca47527","01990a83-7673-7c0c-a792-bbd8fbbaf673","2025-09-02_06h23.48.750",NA,NA,153.3419,153.3419,153.3419,153.6918,NA,NA,NA,NA,NA,NA,NA,TRUE,1,1.4758,150.3425,153.3418,0,25,25,75,1,90,40,NA,NA,NA,NA,NA,1,26,"binary"
"8CBB43D492D14E8C89B8CEB4451F67D9",1,"01990a98-dd8d-7c15-baea-d1471ca47527","01990a83-7673-7c0c-a792-bbd8fbbaf673","2025-09-02_06h23.48.750",NA,NA,156.6919,156.6919,156.6919,157.0417,NA,NA,NA,NA,NA,NA,NA,TRUE,1,1.1834,153.6926,156.6918,0,26,26,22,1,14,35,NA,NA,NA,NA,NA,1,27,"binary"
"8CBB43D492D14E8C89B8CEB4451F67D9",1,"01990a98-dd8d-7c15-baea-d1471ca47527","01990a83-7673-7c0c-a792-bbd8fbbaf673","2025-09-02_06h23.48.750",NA,NA,160.0419,160.0419,160.0419,160.3916,NA,NA,NA,NA,NA,NA,NA,TRUE,1,0.896,157.0426,160.0418,0,27,27,96,1,180,27,NA,NA,NA,NA,NA,1,28,"binary"
"8CBB43D492D14E8C89B8CEB4451F67D9",1,"01990a98-dd8d-7c15-baea-d1471ca47527","01990a83-7673-7c0c-a792-bbd8fbbaf673","2025-09-02_06h23.48.750",NA,NA,163.3918,163.3918,163.3918,163.7415,NA,NA,NA,NA,NA,NA,NA,TRUE,1,1.1765,160.3925,163.3916,0,28,28,33,1,25,33,NA,NA,NA,NA,NA,1,29,"binary"
"8CBB43D492D14E8C89B8CEB4451F67D9",1,"01990a98-dd8d-7c15-baea-d1471ca47527","01990a83-7673-7c0c-a792-bbd8fbbaf673","2025-09-02_06h23.48.750",NA,NA,166.7416,166.7416,166.7416,167.0916,NA,NA,NA,NA,NA,NA,NA,TRUE,1,1.2354,163.7423,166.7416,0,29,29,106,1,200,47,NA,NA,NA,NA,NA,1,30,"binary"
"8CBB43D492D14E8C89B8CEB4451F67D9",1,"01990a98-dd8d-7c15-baea-d1471ca47527","01990a83-7673-7c0c-a792-bbd8fbbaf673","2025-09-02_06h23.48.750",NA,NA,170.0914,170.0914,170.0914,170.4416,NA,NA,NA,NA,NA,NA,NA,TRUE,1,0.9835,167.0924,170.0912,0,30,30,64,1,50,46,NA,NA,NA,NA,NA,1,31,"binary"
"8CBB43D492D14E8C89B8CEB4451F67D9",1,"01990a98-dd8d-7c15-baea-d1471ca47527","01990a83-7673-7c0c-a792-bbd8fbbaf673","2025-09-02_06h23.48.750",NA,NA,173.4416,173.4416,173.4416,173.7915,NA,NA,NA,NA,NA,NA,NA,TRUE,1,1.9457,170.4424,173.4415,0,31,31,89,1,100,54,NA,NA,NA,NA,NA,1,32,"binary"
"8CBB43D492D14E8C89B8CEB4451F67D9",1,"01990a98-dd8d-7c15-baea-d1471ca47527","01990a83-7673-7c0c-a792-bbd8fbbaf673","2025-09-02_06h23.48.750",NA,NA,176.7916,176.7916,176.7916,177.1416,NA,NA,NA,NA,NA,NA,NA,TRUE,1,1.5459,173.7923,176.7915,0,32,32,28,1,21,32,NA,NA,NA,NA,NA,1,33,"binary"
"8CBB43D492D14E8C89B8CEB4451F67D9",1,"01990a98-dd8d-7c15-baea-d1471ca47527","01990a83-7673-7c0c-a792-bbd8fbbaf673","2025-09-02_06h23.48.750",NA,NA,180.1416,180.1416,180.1416,180.4916,NA,NA,NA,NA,NA,NA,NA,TRUE,1,2.0737,177.1424,180.1415,0,33,33,44,1,30,29,NA,NA,NA,NA,NA,1,34,"binary"
"8CBB43D492D14E8C89B8CEB4451F67D9",1,"01990a98-dd8d-7c15-baea-d1471ca47527","01990a83-7673-7c0c-a792-bbd8fbbaf673","2025-09-02_06h23.48.750",NA,NA,183.4914,183.4914,183.4914,183.8413,NA,NA,NA,NA,NA,NA,NA,TRUE,1,1.6292,180.4923,183.4913,0,34,34,23,1,14,39,NA,NA,NA,NA,NA,1,35,"binary"
"8CBB43D492D14E8C89B8CEB4451F67D9",1,"01990a98-dd8d-7c15-baea-d1471ca47527","01990a83-7673-7c0c-a792-bbd8fbbaf673","2025-09-02_06h23.48.750",NA,NA,186.8412,186.8412,186.8412,187.1914,NA,NA,NA,NA,NA,NA,NA,TRUE,1,1.25,183.8422,186.8411,0,35,35,80,1,95,35,NA,NA,NA,NA,NA,1,36,"binary"
"8CBB43D492D14E8C89B8CEB4451F67D9",1,"01990a98-dd8d-7c15-baea-d1471ca47527","01990a83-7673-7c0c-a792-bbd8fbbaf673","2025-09-02_06h23.48.750",NA,NA,190.1915,190.1915,190.1915,190.5413,NA,NA,NA,NA,NA,NA,NA,TRUE,1,1.6333,187.1921,190.1913,0,36,36,69,1,60,40,NA,NA,NA,NA,NA,1,37,"binary"
"8CBB43D492D14E8C89B8CEB4451F67D9",1,"01990a98-dd8d-7c15-baea-d1471ca47527","01990a83-7673-7c0c-a792-bbd8fbbaf673","2025-09-02_06h23.48.750",NA,NA,193.5412,193.5413,193.5413,193.8911,NA,NA,NA,NA,NA,NA,NA,TRUE,1,1.8271,190.5421,193.5411,0,37,37,60,1,50,27,NA,NA,NA,NA,NA,1,38,"binary"
"8CBB43D492D14E8C89B8CEB4451F67D9",1,"01990a98-dd8d-7c15-baea-d1471ca47527","01990a83-7673-7c0c-a792-bbd8fbbaf673","2025-09-02_06h23.48.750",NA,NA,196.8913,196.8914,196.8914,197.2413,NA,NA,NA,NA,NA,NA,NA,TRUE,1,1.077,193.892,196.8913,0,38,38,82,1,95,47,NA,NA,NA,NA,NA,1,39,"binary"
"8CBB43D492D14E8C89B8CEB4451F67D9",1,"01990a98-dd8d-7c15-baea-d1471ca47527","01990a83-7673-7c0c-a792-bbd8fbbaf673","2025-09-02_06h23.48.750",NA,NA,200.2412,200.2412,200.2412,200.591,NA,NA,NA,NA,NA,NA,NA,TRUE,1,1.0788,197.2421,200.2411,0,39,39,102,1,200,26,NA,NA,NA,NA,NA,1,40,"binary"
"8CBB43D492D14E8C89B8CEB4451F67D9",1,"01990a98-dd8d-7c15-baea-d1471ca47527","01990a83-7673-7c0c-a792-bbd8fbbaf673","2025-09-02_06h23.48.750",NA,NA,203.5911,203.5912,203.5912,203.9412,NA,NA,NA,NA,NA,NA,NA,TRUE,1,1.3446,200.592,203.5911,0,40,40,62,1,50,35,NA,NA,NA,NA,NA,1,41,"binary"
"8CBB43D492D14E8C89B8CEB4451F67D9",1,"01990a98-dd8d-7c15-baea-d1471ca47527","01990a83-7673-7c0c-a792-bbd8fbbaf673","2025-09-02_06h23.48.750",NA,NA,206.9412,207.1912,207.1912,207.2908,NA,NA,NA,NA,NA,NA,NA,FALSE,NA,NA,203.942,206.941,0,41,41,5,1,7,35,NA,NA,NA,NA,NA,1,42,"binary"
"8CBB43D492D14E8C89B8CEB4451F67D9",1,"01990a98-dd8d-7c15-baea-d1471ca47527","01990a83-7673-7c0c-a792-bbd8fbbaf673","2025-09-02_06h23.48.750",NA,NA,210.291,210.291,210.291,210.6408,NA,NA,NA,NA,NA,NA,NA,TRUE,1,1.9668,207.2916,210.2909,0,42,42,70,1,60,47,NA,NA,NA,NA,NA,1,43,"binary"
"8CBB43D492D14E8C89B8CEB4451F67D9",1,"01990a98-dd8d-7c15-baea-d1471ca47527","01990a83-7673-7c0c-a792-bbd8fbbaf673","2025-09-02_06h23.48.750",NA,NA,213.6408,213.6409,213.6409,213.9911,NA,NA,NA,NA,NA,NA,NA,TRUE,1,1.4002,210.6415,213.6407,0,43,43,6,1,10,25,NA,NA,NA,NA,NA,1,44,"binary"
"8CBB43D492D14E8C89B8CEB4451F67D9",1,"01990a98-dd8d-7c15-baea-d1471ca47527","01990a83-7673-7c0c-a792-bbd8fbbaf673","2025-09-02_06h23.48.750",NA,NA,216.9907,216.9908,216.9908,217.341,NA,NA,NA,NA,NA,NA,NA,TRUE,1,1.1843,213.9921,216.9907,0,44,44,76,1,90,46,NA,NA,NA,NA,NA,1,45,"binary"
"8CBB43D492D14E8C89B8CEB4451F67D9",1,"01990a98-dd8d-7c15-baea-d1471ca47527","01990a83-7673-7c0c-a792-bbd8fbbaf673","2025-09-02_06h23.48.750",NA,NA,220.3409,220.3409,220.3409,220.691,NA,NA,NA,NA,NA,NA,NA,TRUE,1,1.2261,217.3418,220.3409,0,45,45,13,1,12,26,NA,NA,NA,NA,NA,1,46,"binary"
"8CBB43D492D14E8C89B8CEB4451F67D9",1,"01990a98-dd8d-7c15-baea-d1471ca47527","01990a83-7673-7c0c-a792-bbd8fbbaf673","2025-09-02_06h23.48.750",NA,NA,223.6912,223.6912,223.6912,224.041,NA,NA,NA,NA,NA,NA,NA,TRUE,1,0.9964,220.6918,223.6911,0,46,46,14,1,12,28,NA,NA,NA,NA,NA,1,47,"binary"
"8CBB43D492D14E8C89B8CEB4451F67D9",1,"01990a98-dd8d-7c15-baea-d1471ca47527","01990a83-7673-7c0c-a792-bbd8fbbaf673","2025-09-02_06h23.48.750",NA,NA,227.041,227.0411,227.0411,227.3907,NA,NA,NA,NA,NA,NA,NA,TRUE,1,1.3423,224.0417,227.041,0,47,47,12,1,12,25,NA,NA,NA,NA,NA,1,48,"binary"
"8CBB43D492D14E8C89B8CEB4451F67D9",1,"01990a98-dd8d-7c15-baea-d1471ca47527","01990a83-7673-7c0c-a792-bbd8fbbaf673","2025-09-02_06h23.48.750",NA,NA,230.3908,230.3908,230.3908,230.7408,NA,NA,NA,NA,NA,NA,NA,TRUE,1,1.1038,227.3915,230.3907,0,48,48,16,1,12,33,NA,NA,NA,NA,NA,1,49,"binary"
"8CBB43D492D14E8C89B8CEB4451F67D9",1,"01990a98-dd8d-7c15-baea-d1471ca47527","01990a83-7673-7c0c-a792-bbd8fbbaf673","2025-09-02_06h23.48.750",NA,NA,233.7409,233.7409,233.7409,234.0907,NA,NA,NA,NA,NA,NA,NA,TRUE,1,1.0901,230.7417,233.7408,0,49,49,101,1,180,54,NA,NA,NA,NA,NA,1,50,"binary"
"8CBB43D492D14E8C89B8CEB4451F67D9",1,"01990a98-dd8d-7c15-baea-d1471ca47527","01990a83-7673-7c0c-a792-bbd8fbbaf673","2025-09-02_06h23.48.750",NA,NA,237.0907,237.0907,237.0908,237.4406,NA,NA,NA,NA,NA,NA,NA,TRUE,1,1.0516,234.0916,237.0906,0,50,50,46,1,30,32,NA,NA,NA,NA,NA,1,51,"binary"
"8CBB43D492D14E8C89B8CEB4451F67D9",1,"01990a98-dd8d-7c15-baea-d1471ca47527","01990a83-7673-7c0c-a792-bbd8fbbaf673","2025-09-02_06h23.48.750",NA,NA,240.4408,240.4409,240.4409,240.7906,NA,NA,NA,NA,NA,NA,NA,TRUE,1,1.0526,237.4416,240.4407,0,51,51,100,1,180,46,NA,NA,NA,NA,NA,1,52,"binary"
"8CBB43D492D14E8C89B8CEB4451F67D9",1,"01990a98-dd8d-7c15-baea-d1471ca47527","01990a83-7673-7c0c-a792-bbd8fbbaf673","2025-09-02_06h23.48.750",NA,NA,243.7909,243.7909,243.7909,244.1408,NA,NA,NA,NA,NA,NA,NA,TRUE,1,1.1841,240.7914,243.7907,0,52,52,81,1,95,40,NA,NA,NA,NA,NA,1,53,"binary"
"8CBB43D492D14E8C89B8CEB4451F67D9",1,"01990a98-dd8d-7c15-baea-d1471ca47527","01990a83-7673-7c0c-a792-bbd8fbbaf673","2025-09-02_06h23.48.750",NA,NA,247.1407,247.1408,247.1408,247.4907,NA,NA,NA,NA,NA,NA,NA,TRUE,1,0.9854,244.1416,247.1407,0,53,53,34,1,25,35,NA,NA,NA,NA,NA,1,54,"binary"
"8CBB43D492D14E8C89B8CEB4451F67D9",1,"01990a98-dd8d-7c15-baea-d1471ca47527","01990a83-7673-7c0c-a792-bbd8fbbaf673","2025-09-02_06h23.48.750",NA,NA,250.4904,250.4904,250.4904,250.8406,NA,NA,NA,NA,NA,NA,NA,TRUE,1,1.3233,247.4915,250.4903,0,54,54,0,1,7,25,NA,NA,NA,NA,NA,1,55,"binary"
"8CBB43D492D14E8C89B8CEB4451F67D9",1,"01990a98-dd8d-7c15-baea-d1471ca47527","01990a83-7673-7c0c-a792-bbd8fbbaf673","2025-09-02_06h23.48.750",NA,NA,253.8405,253.8406,253.8406,254.1906,NA,NA,NA,NA,NA,NA,NA,TRUE,1,1.0294,250.8414,253.8405,0,55,55,91,1,150,33,NA,NA,NA,NA,NA,1,56,"binary"
"8CBB43D492D14E8C89B8CEB4451F67D9",1,"01990a98-dd8d-7c15-baea-d1471ca47527","01990a83-7673-7c0c-a792-bbd8fbbaf673","2025-09-02_06h23.48.750",NA,NA,257.1904,257.1904,257.1904,257.5405,NA,NA,NA,NA,NA,NA,NA,TRUE,1,0.7753,254.1915,257.1902,0,56,56,93,1,150,40,NA,NA,NA,NA,NA,1,57,"binary"
"8CBB43D492D14E8C89B8CEB4451F67D9",1,"01990a98-dd8d-7c15-baea-d1471ca47527","01990a83-7673-7c0c-a792-bbd8fbbaf673","2025-09-02_06h23.48.750",NA,NA,260.5406,260.5406,260.5406,260.8902,NA,NA,NA,NA,NA,NA,NA,TRUE,1,1.057,257.5413,260.5405,0,57,57,103,1,200,28,NA,NA,NA,NA,NA,1,58,"binary"
"8CBB43D492D14E8C89B8CEB4451F67D9",1,"01990a98-dd8d-7c15-baea-d1471ca47527","01990a83-7673-7c0c-a792-bbd8fbbaf673","2025-09-02_06h23.48.750",NA,NA,263.8902,263.8902,263.8903,264.2402,NA,NA,NA,NA,NA,NA,NA,TRUE,1,0.8349,260.8913,263.8902,0,58,58,87,1,100,39,NA,NA,NA,NA,NA,1,59,"binary"
"8CBB43D492D14E8C89B8CEB4451F67D9",1,"01990a98-dd8d-7c15-baea-d1471ca47527","01990a83-7673-7c0c-a792-bbd8fbbaf673","2025-09-02_06h23.48.750",NA,NA,267.2405,267.2406,267.2406,267.5903,NA,NA,NA,NA,NA,NA,NA,TRUE,1,0.8455,264.2411,267.2405,0,59,59,43,1,30,27,NA,NA,NA,NA,NA,1,60,"binary"
"8CBB43D492D14E8C89B8CEB4451F67D9",1,"01990a98-dd8d-7c15-baea-d1471ca47527","01990a83-7673-7c0c-a792-bbd8fbbaf673","2025-09-02_06h23.48.750",NA,NA,270.5907,270.5907,270.5907,270.9404,NA,NA,NA,NA,NA,NA,NA,TRUE,1,0.8381,267.5913,270.5906,0,60,60,41,1,28,46,NA,NA,NA,NA,NA,1,61,"binary"
"8CBB43D492D14E8C89B8CEB4451F67D9",1,"01990a98-dd8d-7c15-baea-d1471ca47527","01990a83-7673-7c0c-a792-bbd8fbbaf673","2025-09-02_06h23.48.750",NA,NA,273.9403,273.9403,273.9403,274.2904,NA,NA,NA,NA,NA,NA,NA,TRUE,2,1.8247,270.9412,273.9402,0,61,61,65,1,50,54,NA,NA,NA,NA,NA,1,62,"binary"
"8CBB43D492D14E8C89B8CEB4451F67D9",1,"01990a98-dd8d-7c15-baea-d1471ca47527","01990a83-7673-7c0c-a792-bbd8fbbaf673","2025-09-02_06h23.48.750",NA,NA,277.2902,277.2902,277.2902,277.6402,NA,NA,NA,NA,NA,NA,NA,TRUE,1,1.2834,274.2912,277.2901,0,62,62,18,1,14,25,NA,NA,NA,NA,NA,1,63,"binary"
"8CBB43D492D14E8C89B8CEB4451F67D9",1,"01990a98-dd8d-7c15-baea-d1471ca47527","01990a83-7673-7c0c-a792-bbd8fbbaf673","2025-09-02_06h23.48.750",NA,NA,280.64,280.6401,280.6401,280.9901,NA,NA,NA,NA,NA,NA,NA,TRUE,1,1.0608,277.6409,280.64,0,63,63,50,1,40,35,NA,NA,NA,NA,NA,1,64,"binary"
"8CBB43D492D14E8C89B8CEB4451F67D9",1,"01990a98-dd8d-7c15-baea-d1471ca47527","01990a83-7673-7c0c-a792-bbd8fbbaf673","2025-09-02_06h23.48.750",NA,NA,283.9903,283.9903,283.9903,284.3403,NA,NA,NA,NA,NA,NA,NA,TRUE,1,0.8946,280.9909,283.9902,0,64,64,24,1,21,26,NA,NA,NA,NA,NA,1,65,"binary"
"8CBB43D492D14E8C89B8CEB4451F67D9",1,"01990a98-dd8d-7c15-baea-d1471ca47527","01990a83-7673-7c0c-a792-bbd8fbbaf673","2025-09-02_06h23.48.750",NA,NA,287.3403,287.3403,287.3403,287.6903,NA,NA,NA,NA,NA,NA,NA,TRUE,1,1.1924,284.3411,287.3401,0,65,65,68,1,60,35,NA,NA,NA,NA,NA,1,66,"binary"
"8CBB43D492D14E8C89B8CEB4451F67D9",1,"01990a98-dd8d-7c15-baea-d1471ca47527","01990a83-7673-7c0c-a792-bbd8fbbaf673","2025-09-02_06h23.48.750",NA,NA,290.6901,290.6901,290.6901,291.0402,NA,NA,NA,NA,NA,NA,NA,TRUE,1,0.9003,287.691,290.69,0,66,66,92,1,150,35,NA,NA,NA,NA,NA,1,67,"binary"
"8CBB43D492D14E8C89B8CEB4451F67D9",1,"01990a98-dd8d-7c15-baea-d1471ca47527","01990a83-7673-7c0c-a792-bbd8fbbaf673","2025-09-02_06h23.48.750",NA,NA,294.0402,294.0402,294.0402,294.3901,NA,NA,NA,NA,NA,NA,NA,TRUE,1,0.9167,291.041,294.0402,0,67,67,48,1,40,27,NA,NA,NA,NA,NA,1,68,"binary"
"8CBB43D492D14E8C89B8CEB4451F67D9",1,"01990a98-dd8d-7c15-baea-d1471ca47527","01990a83-7673-7c0c-a792-bbd8fbbaf673","2025-09-02_06h23.48.750",NA,NA,297.3902,297.3902,297.3902,297.7401,NA,NA,NA,NA,NA,NA,NA,TRUE,1,1.0001,294.391,297.3902,0,68,68,47,1,30,38,NA,NA,NA,NA,NA,1,69,"binary"
"8CBB43D492D14E8C89B8CEB4451F67D9",1,"01990a98-dd8d-7c15-baea-d1471ca47527","01990a83-7673-7c0c-a792-bbd8fbbaf673","2025-09-02_06h23.48.750",NA,NA,300.7401,300.7402,300.7402,301.0898,NA,NA,NA,NA,NA,NA,NA,TRUE,1,0.8667,297.7409,300.7401,0,69,69,74,1,90,33,NA,NA,NA,NA,NA,1,70,"binary"
"8CBB43D492D14E8C89B8CEB4451F67D9",1,"01990a98-dd8d-7c15-baea-d1471ca47527","01990a83-7673-7c0c-a792-bbd8fbbaf673","2025-09-02_06h23.48.750",NA,NA,304.0899,304.0899,304.0899,304.4401,NA,NA,NA,NA,NA,NA,NA,TRUE,1,0.8579,301.0906,304.0898,0,70,70,104,1,200,35,NA,NA,NA,NA,NA,1,71,"binary"
"8CBB43D492D14E8C89B8CEB4451F67D9",1,"01990a98-dd8d-7c15-baea-d1471ca47527","01990a83-7673-7c0c-a792-bbd8fbbaf673","2025-09-02_06h23.48.750",NA,NA,307.4403,307.4403,307.4403,307.7897,NA,NA,NA,NA,NA,NA,NA,TRUE,1,1.2282,304.4409,307.4401,0,71,71,1,1,7,26,NA,NA,NA,NA,NA,1,72,"binary"
"8CBB43D492D14E8C89B8CEB4451F67D9",1,"01990a98-dd8d-7c15-baea-d1471ca47527","01990a83-7673-7c0c-a792-bbd8fbbaf673","2025-09-02_06h23.48.750",NA,NA,310.7898,310.7898,310.7898,311.1399,NA,NA,NA,NA,NA,NA,NA,TRUE,2,1.7399,307.7907,310.7896,0,72,72,58,1,45,40,NA,NA,NA,NA,NA,1,73,"binary"
"8CBB43D492D14E8C89B8CEB4451F67D9",1,"01990a98-dd8d-7c15-baea-d1471ca47527","01990a83-7673-7c0c-a792-bbd8fbbaf673","2025-09-02_06h23.48.750",NA,NA,314.1401,314.1401,314.1401,314.4896,NA,NA,NA,NA,NA,NA,NA,TRUE,1,1.328,311.1408,314.1401,0,73,73,40,1,28,39,NA,NA,NA,NA,NA,1,74,"binary"
"8CBB43D492D14E8C89B8CEB4451F67D9",1,"01990a98-dd8d-7c15-baea-d1471ca47527","01990a83-7673-7c0c-a792-bbd8fbbaf673","2025-09-02_06h23.48.750",NA,NA,317.49,317.49,317.49,317.8395,NA,NA,NA,NA,NA,NA,NA,TRUE,1,1.3375,314.4905,317.4899,0,74,74,55,1,45,29,NA,NA,NA,NA,NA,1,75,"binary"
"8CBB43D492D14E8C89B8CEB4451F67D9",1,"01990a98-dd8d-7c15-baea-d1471ca47527","01990a83-7673-7c0c-a792-bbd8fbbaf673","2025-09-02_06h23.48.750",NA,NA,320.84,320.84,320.84,321.1897,NA,NA,NA,NA,NA,NA,NA,TRUE,1,1.0913,317.8404,320.8399,0,75,75,11,1,10,32,NA,NA,NA,NA,NA,1,76,"binary"
"8CBB43D492D14E8C89B8CEB4451F67D9",1,"01990a98-dd8d-7c15-baea-d1471ca47527","01990a83-7673-7c0c-a792-bbd8fbbaf673","2025-09-02_06h23.48.750",NA,NA,324.19,324.19,324.19,324.5399,NA,NA,NA,NA,NA,NA,NA,TRUE,2,1.3668,321.1905,324.1899,0,76,76,71,1,60,54,NA,NA,NA,NA,NA,1,77,"binary"
"8CBB43D492D14E8C89B8CEB4451F67D9",1,"01990a98-dd8d-7c15-baea-d1471ca47527","01990a83-7673-7c0c-a792-bbd8fbbaf673","2025-09-02_06h23.48.750",NA,NA,327.54,327.54,327.54,327.8898,NA,NA,NA,NA,NA,NA,NA,TRUE,1,0.9825,324.5408,327.5399,0,77,77,73,1,90,30,NA,NA,NA,NA,NA,1,78,"binary"
"8CBB43D492D14E8C89B8CEB4451F67D9",1,"01990a98-dd8d-7c15-baea-d1471ca47527","01990a83-7673-7c0c-a792-bbd8fbbaf673","2025-09-02_06h23.48.750",NA,NA,330.8898,330.8898,330.8899,331.2395,NA,NA,NA,NA,NA,NA,NA,TRUE,1,0.9616,327.8905,330.8897,0,78,78,38,1,28,32,NA,NA,NA,NA,NA,1,79,"binary"
"8CBB43D492D14E8C89B8CEB4451F67D9",1,"01990a98-dd8d-7c15-baea-d1471ca47527","01990a83-7673-7c0c-a792-bbd8fbbaf673","2025-09-02_06h23.48.750",NA,NA,334.2399,334.2399,334.2399,334.5896,NA,NA,NA,NA,NA,NA,NA,TRUE,2,1.2506,331.2403,334.2398,0,79,79,52,1,40,47,NA,NA,NA,NA,NA,1,80,"binary"
"8CBB43D492D14E8C89B8CEB4451F67D9",1,"01990a98-dd8d-7c15-baea-d1471ca47527","01990a83-7673-7c0c-a792-bbd8fbbaf673","2025-09-02_06h23.48.750",NA,NA,337.5896,337.5896,337.5896,337.9398,NA,NA,NA,NA,NA,NA,NA,TRUE,1,0.9667,334.5904,337.5894,0,80,80,95,1,150,54,NA,NA,NA,NA,NA,1,81,"binary"
"8CBB43D492D14E8C89B8CEB4451F67D9",1,"01990a98-dd8d-7c15-baea-d1471ca47527","01990a83-7673-7c0c-a792-bbd8fbbaf673","2025-09-02_06h23.48.750",NA,NA,340.9396,340.9396,340.9396,341.2896,NA,NA,NA,NA,NA,NA,NA,TRUE,1,0.8635,337.9406,340.9394,0,81,81,26,1,21,29,NA,NA,NA,NA,NA,1,82,"binary"
"8CBB43D492D14E8C89B8CEB4451F67D9",1,"01990a98-dd8d-7c15-baea-d1471ca47527","01990a83-7673-7c0c-a792-bbd8fbbaf673","2025-09-02_06h23.48.750",NA,NA,344.2898,344.2899,344.2899,344.6395,NA,NA,NA,NA,NA,NA,NA,TRUE,1,0.968,341.2903,344.2898,0,82,82,39,1,28,35,NA,NA,NA,NA,NA,1,83,"binary"
"8CBB43D492D14E8C89B8CEB4451F67D9",1,"01990a98-dd8d-7c15-baea-d1471ca47527","01990a83-7673-7c0c-a792-bbd8fbbaf673","2025-09-02_06h23.48.750",NA,NA,347.6394,347.6394,347.6394,347.9894,NA,NA,NA,NA,NA,NA,NA,TRUE,2,1.2093,344.6404,347.6393,0,83,83,77,1,90,54,NA,NA,NA,NA,NA,1,84,"binary"
"8CBB43D492D14E8C89B8CEB4451F67D9",1,"01990a98-dd8d-7c15-baea-d1471ca47527","01990a83-7673-7c0c-a792-bbd8fbbaf673","2025-09-02_06h23.48.750",NA,NA,350.9896,350.9896,350.9896,351.3393,NA,NA,NA,NA,NA,NA,NA,TRUE,1,1.1667,347.9903,350.9896,0,84,84,66,1,60,29,NA,NA,NA,NA,NA,1,85,"binary"
"8CBB43D492D14E8C89B8CEB4451F67D9",1,"01990a98-dd8d-7c15-baea-d1471ca47527","01990a83-7673-7c0c-a792-bbd8fbbaf673","2025-09-02_06h23.48.750",NA,NA,354.3398,354.3398,354.3398,354.6895,NA,NA,NA,NA,NA,NA,NA,TRUE,1,0.7184,351.34,354.3397,0,85,85,21,1,14,32,NA,NA,NA,NA,NA,1,86,"binary"
"8CBB43D492D14E8C89B8CEB4451F67D9",1,"01990a98-dd8d-7c15-baea-d1471ca47527","01990a83-7673-7c0c-a792-bbd8fbbaf673","2025-09-02_06h23.48.750",NA,NA,357.6895,357.6895,357.6895,358.0393,NA,NA,NA,NA,NA,NA,NA,TRUE,1,1.0335,354.6904,357.6895,0,86,86,25,1,21,27,NA,NA,NA,NA,NA,1,87,"binary"
"8CBB43D492D14E8C89B8CEB4451F67D9",1,"01990a98-dd8d-7c15-baea-d1471ca47527","01990a83-7673-7c0c-a792-bbd8fbbaf673","2025-09-02_06h23.48.750",NA,NA,361.0396,361.0396,361.0396,361.3891,NA,NA,NA,NA,NA,NA,NA,TRUE,2,1.7617,358.04,361.0395,0,87,87,59,1,45,46,NA,NA,NA,NA,NA,1,88,"binary"
"8CBB43D492D14E8C89B8CEB4451F67D9",1,"01990a98-dd8d-7c15-baea-d1471ca47527","01990a83-7673-7c0c-a792-bbd8fbbaf673","2025-09-02_06h23.48.750",NA,NA,364.389,364.3891,364.3891,364.7392,NA,NA,NA,NA,NA,NA,NA,TRUE,1,0.7566,361.3899,364.389,0,88,88,31,1,25,29,NA,NA,NA,NA,NA,1,89,"binary"
"8CBB43D492D14E8C89B8CEB4451F67D9",1,"01990a98-dd8d-7c15-baea-d1471ca47527","01990a83-7673-7c0c-a792-bbd8fbbaf673","2025-09-02_06h23.48.750",NA,NA,367.7396,367.7396,367.7396,368.0892,NA,NA,NA,NA,NA,NA,NA,TRUE,1,0.8334,364.74,367.7395,0,89,89,97,1,180,31,NA,NA,NA,NA,NA,1,90,"binary"
"8CBB43D492D14E8C89B8CEB4451F67D9",1,"01990a98-dd8d-7c15-baea-d1471ca47527","01990a83-7673-7c0c-a792-bbd8fbbaf673","2025-09-02_06h23.48.750",NA,NA,371.0895,371.0895,371.0895,371.439,NA,NA,NA,NA,NA,NA,NA,TRUE,1,1.1041,368.0901,371.0893,0,90,90,42,1,30,26,NA,NA,NA,NA,NA,1,91,"binary"
"8CBB43D492D14E8C89B8CEB4451F67D9",1,"01990a98-dd8d-7c15-baea-d1471ca47527","01990a83-7673-7c0c-a792-bbd8fbbaf673","2025-09-02_06h23.48.750",NA,NA,374.4394,374.4394,374.4394,374.7892,NA,NA,NA,NA,NA,NA,NA,TRUE,1,0.938,371.4397,374.4394,0,91,91,17,1,12,35,NA,NA,NA,NA,NA,1,92,"binary"
"8CBB43D492D14E8C89B8CEB4451F67D9",1,"01990a98-dd8d-7c15-baea-d1471ca47527","01990a83-7673-7c0c-a792-bbd8fbbaf673","2025-09-02_06h23.48.750",NA,NA,377.789,377.789,377.789,378.1392,NA,NA,NA,NA,NA,NA,NA,TRUE,1,0.8189,374.7901,377.7889,0,92,92,86,1,100,38,NA,NA,NA,NA,NA,1,93,"binary"
"8CBB43D492D14E8C89B8CEB4451F67D9",1,"01990a98-dd8d-7c15-baea-d1471ca47527","01990a83-7673-7c0c-a792-bbd8fbbaf673","2025-09-02_06h23.48.750",NA,NA,381.1391,381.1391,381.1391,381.4892,NA,NA,NA,NA,NA,NA,NA,TRUE,1,0.6783,378.14,381.1389,0,93,93,61,1,50,30,NA,NA,NA,NA,NA,1,94,"binary"
"8CBB43D492D14E8C89B8CEB4451F67D9",1,"01990a98-dd8d-7c15-baea-d1471ca47527","01990a83-7673-7c0c-a792-bbd8fbbaf673","2025-09-02_06h23.48.750",NA,NA,384.4892,384.4892,384.4892,384.8391,NA,NA,NA,NA,NA,NA,NA,TRUE,1,0.7923,381.4901,384.4891,0,94,94,2,1,7,28,NA,NA,NA,NA,NA,1,95,"binary"
"8CBB43D492D14E8C89B8CEB4451F67D9",1,"01990a98-dd8d-7c15-baea-d1471ca47527","01990a83-7673-7c0c-a792-bbd8fbbaf673","2025-09-02_06h23.48.750",NA,NA,387.8389,387.839,387.839,388.1887,NA,NA,NA,NA,NA,NA,NA,TRUE,1,0.8177,384.84,387.8389,0,95,95,29,1,21,38,NA,NA,NA,NA,NA,1,96,"binary"
"8CBB43D492D14E8C89B8CEB4451F67D9",1,"01990a98-dd8d-7c15-baea-d1471ca47527","01990a83-7673-7c0c-a792-bbd8fbbaf673","2025-09-02_06h23.48.750",NA,NA,391.189,391.189,391.189,391.539,NA,NA,NA,NA,NA,NA,NA,TRUE,1,1.3002,388.1896,391.1889,0,96,96,45,1,30,30,NA,NA,NA,NA,NA,1,97,"binary"
"8CBB43D492D14E8C89B8CEB4451F67D9",1,"01990a98-dd8d-7c15-baea-d1471ca47527","01990a83-7673-7c0c-a792-bbd8fbbaf673","2025-09-02_06h23.48.750",NA,NA,394.5389,394.539,394.539,394.8892,NA,NA,NA,NA,NA,NA,NA,TRUE,1,0.7573,391.5399,394.5389,0,97,97,19,1,14,26,NA,NA,NA,NA,NA,1,98,"binary"
"8CBB43D492D14E8C89B8CEB4451F67D9",1,"01990a98-dd8d-7c15-baea-d1471ca47527","01990a83-7673-7c0c-a792-bbd8fbbaf673","2025-09-02_06h23.48.750",NA,NA,397.889,397.889,397.889,398.2391,NA,NA,NA,NA,NA,NA,NA,TRUE,1,0.959,394.8899,397.8889,0,98,98,37,1,28,28,NA,NA,NA,NA,NA,1,99,"binary"
"8CBB43D492D14E8C89B8CEB4451F67D9",1,"01990a98-dd8d-7c15-baea-d1471ca47527","01990a83-7673-7c0c-a792-bbd8fbbaf673","2025-09-02_06h23.48.750",NA,NA,401.239,401.2391,401.2391,401.5887,NA,NA,NA,NA,NA,NA,NA,TRUE,2,1.6896,398.2398,401.2389,0,99,99,83,1,95,54,NA,NA,NA,NA,NA,1,100,"binary"
"8CBB43D492D14E8C89B8CEB4451F67D9",1,"01990a98-dd8d-7c15-baea-d1471ca47527","01990a83-7673-7c0c-a792-bbd8fbbaf673","2025-09-02_06h23.48.750",NA,NA,404.589,404.589,404.589,404.9389,NA,NA,NA,NA,NA,NA,NA,TRUE,1,0.7712,401.5896,404.5889,0,100,100,99,1,180,39,NA,NA,NA,NA,NA,1,101,"binary"
"8CBB43D492D14E8C89B8CEB4451F67D9",1,"01990a98-dd8d-7c15-baea-d1471ca47527","01990a83-7673-7c0c-a792-bbd8fbbaf673","2025-09-02_06h23.48.750",NA,NA,407.9389,407.9389,407.9389,408.2888,NA,NA,NA,NA,NA,NA,NA,TRUE,1,1.2776,404.9397,407.9388,0,101,101,67,1,60,33,NA,NA,NA,NA,NA,1,102,"binary"
"8CBB43D492D14E8C89B8CEB4451F67D9",1,"01990a98-dd8d-7c15-baea-d1471ca47527","01990a83-7673-7c0c-a792-bbd8fbbaf673","2025-09-02_06h23.48.750",NA,NA,411.2887,411.2887,411.2887,411.6387,NA,NA,NA,NA,NA,NA,NA,TRUE,1,1.0001,408.2897,411.2887,0,102,102,72,1,90,26,NA,NA,NA,NA,NA,1,103,"binary"
"8CBB43D492D14E8C89B8CEB4451F67D9",1,"01990a98-dd8d-7c15-baea-d1471ca47527","01990a83-7673-7c0c-a792-bbd8fbbaf673","2025-09-02_06h23.48.750",NA,NA,414.639,414.639,414.639,414.9888,NA,NA,NA,NA,NA,NA,NA,TRUE,1,0.7932,411.6396,414.6389,0,103,103,27,1,21,30,NA,NA,NA,NA,NA,1,104,"binary"
"8CBB43D492D14E8C89B8CEB4451F67D9",1,"01990a98-dd8d-7c15-baea-d1471ca47527","01990a83-7673-7c0c-a792-bbd8fbbaf673","2025-09-02_06h23.48.750",NA,NA,417.9886,417.9886,417.9886,418.3387,NA,NA,NA,NA,NA,NA,NA,TRUE,1,0.9539,414.9896,417.9885,0,104,104,8,1,10,27,NA,NA,NA,NA,NA,1,105,"binary"
"8CBB43D492D14E8C89B8CEB4451F67D9",1,"01990a98-dd8d-7c15-baea-d1471ca47527","01990a83-7673-7c0c-a792-bbd8fbbaf673","2025-09-02_06h23.48.750",NA,NA,421.3387,421.3387,421.3387,421.6885,NA,NA,NA,NA,NA,NA,NA,TRUE,1,0.8053,418.3397,421.3386,0,105,105,20,1,14,28,NA,NA,NA,NA,NA,1,106,"binary"
"8CBB43D492D14E8C89B8CEB4451F67D9",1,"01990a98-dd8d-7c15-baea-d1471ca47527","01990a83-7673-7c0c-a792-bbd8fbbaf673","2025-09-02_06h23.48.750",NA,NA,424.6894,424.6894,424.6894,425.0386,NA,NA,NA,NA,NA,NA,NA,TRUE,1,0.8166,421.6893,424.6893,0,106,106,98,1,180,35,NA,NA,NA,NA,NA,1,107,"binary"
"8CBB43D492D14E8C89B8CEB4451F67D9",1,"01990a98-dd8d-7c15-baea-d1471ca47527","01990a83-7673-7c0c-a792-bbd8fbbaf673","2025-09-02_06h23.48.750",NA,NA,428.0388,428.0388,428.0388,428.3886,NA,NA,NA,NA,NA,NA,NA,TRUE,1,0.6501,425.0394,428.0386,0,107,107,85,1,100,31,NA,NA,NA,NA,NA,1,108,"binary"
"8CBB43D492D14E8C89B8CEB4451F67D9",1,"01990a98-dd8d-7c15-baea-d1471ca47527","01990a83-7673-7c0c-a792-bbd8fbbaf673","2025-09-02_06h23.48.750",NA,NA,433.8886,433.8887,433.8887,434.2384,NA,NA,NA,NA,NA,NA,NA,TRUE,1,1.6629,430.8945,433.8885,NA,NA,NA,NA,NA,21,30,0,0,0,27,1,2,1,"binary"
"8CBB43D492D14E8C89B8CEB4451F67D9",1,"01990a98-dd8d-7c15-baea-d1471ca47527","01990a83-7673-7c0c-a792-bbd8fbbaf673","2025-09-02_06h23.48.750",NA,NA,437.2386,437.2386,437.2386,437.5885,NA,NA,NA,NA,NA,NA,NA,TRUE,1,1.2707,434.2393,437.2384,NA,NA,NA,NA,NA,100,31,0,1,1,85,1,2,2,"binary"
"8CBB43D492D14E8C89B8CEB4451F67D9",1,"01990a98-dd8d-7c15-baea-d1471ca47527","01990a83-7673-7c0c-a792-bbd8fbbaf673","2025-09-02_06h23.48.750",NA,NA,440.5886,440.5886,440.5886,440.9385,NA,NA,NA,NA,NA,NA,NA,TRUE,1,0.784,437.5893,440.5885,NA,NA,NA,NA,NA,10,27,0,2,2,8,1,2,3,"binary"
"8CBB43D492D14E8C89B8CEB4451F67D9",1,"01990a98-dd8d-7c15-baea-d1471ca47527","01990a83-7673-7c0c-a792-bbd8fbbaf673","2025-09-02_06h23.48.750",NA,NA,443.9383,443.9384,443.9384,444.2882,NA,NA,NA,NA,NA,NA,NA,TRUE,1,0.8973,440.9393,443.9383,NA,NA,NA,NA,NA,28,28,0,3,3,37,1,2,4,"binary"
"8CBB43D492D14E8C89B8CEB4451F67D9",1,"01990a98-dd8d-7c15-baea-d1471ca47527","01990a83-7673-7c0c-a792-bbd8fbbaf673","2025-09-02_06h23.48.750",NA,NA,447.2885,447.2885,447.2885,447.6382,NA,NA,NA,NA,NA,NA,NA,TRUE,2,1.1718,444.2891,447.2884,NA,NA,NA,NA,NA,60,47,0,4,4,70,1,2,5,"binary"
"8CBB43D492D14E8C89B8CEB4451F67D9",1,"01990a98-dd8d-7c15-baea-d1471ca47527","01990a83-7673-7c0c-a792-bbd8fbbaf673","2025-09-02_06h23.48.750",NA,NA,450.6384,450.6384,450.6384,450.9883,NA,NA,NA,NA,NA,NA,NA,TRUE,1,0.9253,447.6391,450.6384,NA,NA,NA,NA,NA,50,27,0,5,5,60,1,2,6,"binary"
"8CBB43D492D14E8C89B8CEB4451F67D9",1,"01990a98-dd8d-7c15-baea-d1471ca47527","01990a83-7673-7c0c-a792-bbd8fbbaf673","2025-09-02_06h23.48.750",NA,NA,453.9885,453.9885,453.9885,454.3383,NA,NA,NA,NA,NA,NA,NA,TRUE,1,0.9306,450.9892,453.9884,NA,NA,NA,NA,NA,40,27,0,6,6,48,1,2,7,"binary"
"8CBB43D492D14E8C89B8CEB4451F67D9",1,"01990a98-dd8d-7c15-baea-d1471ca47527","01990a83-7673-7c0c-a792-bbd8fbbaf673","2025-09-02_06h23.48.750",NA,NA,457.3384,457.3384,457.3384,457.6881,NA,NA,NA,NA,NA,NA,NA,TRUE,1,0.8175,454.3391,457.3383,NA,NA,NA,NA,NA,21,26,0,7,7,24,1,2,8,"binary"
"8CBB43D492D14E8C89B8CEB4451F67D9",1,"01990a98-dd8d-7c15-baea-d1471ca47527","01990a83-7673-7c0c-a792-bbd8fbbaf673","2025-09-02_06h23.48.750",NA,NA,460.6882,460.6882,460.6882,461.0381,NA,NA,NA,NA,NA,NA,NA,TRUE,1,1.0305,457.6889,460.6881,NA,NA,NA,NA,NA,100,46,0,8,8,88,1,2,9,"binary"
"8CBB43D492D14E8C89B8CEB4451F67D9",1,"01990a98-dd8d-7c15-baea-d1471ca47527","01990a83-7673-7c0c-a792-bbd8fbbaf673","2025-09-02_06h23.48.750",NA,NA,464.0382,464.0382,464.0383,464.388,NA,NA,NA,NA,NA,NA,NA,TRUE,1,0.8055,461.0388,464.0382,NA,NA,NA,NA,NA,14,35,0,9,9,22,1,2,10,"binary"
"8CBB43D492D14E8C89B8CEB4451F67D9",1,"01990a98-dd8d-7c15-baea-d1471ca47527","01990a83-7673-7c0c-a792-bbd8fbbaf673","2025-09-02_06h23.48.750",NA,NA,467.3883,467.3883,467.3883,467.7378,NA,NA,NA,NA,NA,NA,NA,TRUE,1,0.8077,464.3888,467.3882,NA,NA,NA,NA,NA,45,26,0,10,10,54,1,2,11,"binary"
"8CBB43D492D14E8C89B8CEB4451F67D9",1,"01990a98-dd8d-7c15-baea-d1471ca47527","01990a83-7673-7c0c-a792-bbd8fbbaf673","2025-09-02_06h23.48.750",NA,NA,470.7383,470.7383,470.7383,471.0882,NA,NA,NA,NA,NA,NA,NA,TRUE,1,0.7396,467.7386,470.7382,NA,NA,NA,NA,NA,100,26,0,11,11,84,1,2,12,"binary"
"8CBB43D492D14E8C89B8CEB4451F67D9",1,"01990a98-dd8d-7c15-baea-d1471ca47527","01990a83-7673-7c0c-a792-bbd8fbbaf673","2025-09-02_06h23.48.750",NA,NA,474.0882,474.0882,474.0882,474.4381,NA,NA,NA,NA,NA,NA,NA,TRUE,1,0.7545,471.0889,474.0881,NA,NA,NA,NA,NA,200,39,0,12,12,105,1,2,13,"binary"
"8CBB43D492D14E8C89B8CEB4451F67D9",1,"01990a98-dd8d-7c15-baea-d1471ca47527","01990a83-7673-7c0c-a792-bbd8fbbaf673","2025-09-02_06h23.48.750",NA,NA,477.4382,477.4382,477.4382,477.7881,NA,NA,NA,NA,NA,NA,NA,TRUE,2,1.069,474.4389,477.4381,NA,NA,NA,NA,NA,40,47,0,13,13,52,1,2,14,"binary"
"8CBB43D492D14E8C89B8CEB4451F67D9",1,"01990a98-dd8d-7c15-baea-d1471ca47527","01990a83-7673-7c0c-a792-bbd8fbbaf673","2025-09-02_06h23.48.750",NA,NA,480.7881,480.7881,480.7881,481.1381,NA,NA,NA,NA,NA,NA,NA,TRUE,2,1.3185,477.7888,480.7881,NA,NA,NA,NA,NA,60,40,0,14,14,69,1,2,15,"binary"
"8CBB43D492D14E8C89B8CEB4451F67D9",1,"01990a98-dd8d-7c15-baea-d1471ca47527","01990a83-7673-7c0c-a792-bbd8fbbaf673","2025-09-02_06h23.48.750",NA,NA,484.1379,484.1379,484.1379,484.4879,NA,NA,NA,NA,NA,NA,NA,TRUE,1,0.8085,481.1388,484.1378,NA,NA,NA,NA,NA,7,28,0,15,15,2,1,2,16,"binary"
"8CBB43D492D14E8C89B8CEB4451F67D9",1,"01990a98-dd8d-7c15-baea-d1471ca47527","01990a83-7673-7c0c-a792-bbd8fbbaf673","2025-09-02_06h23.48.750",NA,NA,487.4881,487.4881,487.4881,487.8377,NA,NA,NA,NA,NA,NA,NA,TRUE,1,0.9798,484.4887,487.488,NA,NA,NA,NA,NA,150,40,0,16,16,93,1,2,17,"binary"
"8CBB43D492D14E8C89B8CEB4451F67D9",1,"01990a98-dd8d-7c15-baea-d1471ca47527","01990a83-7673-7c0c-a792-bbd8fbbaf673","2025-09-02_06h23.48.750",NA,NA,490.8378,490.8378,490.8379,491.1876,NA,NA,NA,NA,NA,NA,NA,TRUE,1,0.727,487.8385,490.8377,NA,NA,NA,NA,NA,30,27,0,17,17,43,1,2,18,"binary"
"8CBB43D492D14E8C89B8CEB4451F67D9",1,"01990a98-dd8d-7c15-baea-d1471ca47527","01990a83-7673-7c0c-a792-bbd8fbbaf673","2025-09-02_06h23.48.750",NA,NA,494.1876,494.1876,494.1876,494.5376,NA,NA,NA,NA,NA,NA,NA,TRUE,1,0.785,491.1885,494.1875,NA,NA,NA,NA,NA,100,39,0,18,18,87,1,2,19,"binary"
"8CBB43D492D14E8C89B8CEB4451F67D9",1,"01990a98-dd8d-7c15-baea-d1471ca47527","01990a83-7673-7c0c-a792-bbd8fbbaf673","2025-09-02_06h23.48.750",NA,NA,497.5376,497.5376,497.5376,497.8878,NA,NA,NA,NA,NA,NA,NA,TRUE,2,1.3168,494.5385,497.5376,NA,NA,NA,NA,NA,45,46,0,19,19,59,1,2,20,"binary"
"8CBB43D492D14E8C89B8CEB4451F67D9",1,"01990a98-dd8d-7c15-baea-d1471ca47527","01990a83-7673-7c0c-a792-bbd8fbbaf673","2025-09-02_06h23.48.750",NA,NA,500.8876,500.8876,500.8876,501.2375,NA,NA,NA,NA,NA,NA,NA,TRUE,1,0.773,497.8886,500.8875,NA,NA,NA,NA,NA,200,28,0,20,20,103,1,2,21,"binary"
"8CBB43D492D14E8C89B8CEB4451F67D9",1,"01990a98-dd8d-7c15-baea-d1471ca47527","01990a83-7673-7c0c-a792-bbd8fbbaf673","2025-09-02_06h23.48.750",NA,NA,504.2376,504.2376,504.2376,504.5877,NA,NA,NA,NA,NA,NA,NA,TRUE,1,0.9186,501.2384,504.2375,NA,NA,NA,NA,NA,200,26,0,21,21,102,1,2,22,"binary"
"8CBB43D492D14E8C89B8CEB4451F67D9",1,"01990a98-dd8d-7c15-baea-d1471ca47527","01990a83-7673-7c0c-a792-bbd8fbbaf673","2025-09-02_06h23.48.750",NA,NA,507.5874,507.5874,507.5874,507.9373,NA,NA,NA,NA,NA,NA,NA,TRUE,1,1.1835,504.5886,507.5873,NA,NA,NA,NA,NA,12,25,0,22,22,12,1,2,23,"binary"
"8CBB43D492D14E8C89B8CEB4451F67D9",1,"01990a98-dd8d-7c15-baea-d1471ca47527","01990a83-7673-7c0c-a792-bbd8fbbaf673","2025-09-02_06h23.48.750",NA,NA,510.9374,510.9374,510.9374,511.2876,NA,NA,NA,NA,NA,NA,NA,TRUE,1,0.8669,507.9382,510.9373,NA,NA,NA,NA,NA,180,35,0,23,23,98,1,2,24,"binary"
"8CBB43D492D14E8C89B8CEB4451F67D9",1,"01990a98-dd8d-7c15-baea-d1471ca47527","01990a83-7673-7c0c-a792-bbd8fbbaf673","2025-09-02_06h23.48.750",NA,NA,514.2874,514.2874,514.2874,514.6373,NA,NA,NA,NA,NA,NA,NA,TRUE,1,1.1804,511.2883,514.2873,NA,NA,NA,NA,NA,200,54,0,24,24,107,1,2,25,"binary"
"8CBB43D492D14E8C89B8CEB4451F67D9",1,"01990a98-dd8d-7c15-baea-d1471ca47527","01990a83-7673-7c0c-a792-bbd8fbbaf673","2025-09-02_06h23.48.750",NA,NA,517.6374,517.6374,517.6374,517.9872,NA,NA,NA,NA,NA,NA,NA,TRUE,1,1.3343,514.6381,517.6372,NA,NA,NA,NA,NA,14,25,0,25,25,18,1,2,26,"binary"
"8CBB43D492D14E8C89B8CEB4451F67D9",1,"01990a98-dd8d-7c15-baea-d1471ca47527","01990a83-7673-7c0c-a792-bbd8fbbaf673","2025-09-02_06h23.48.750",NA,NA,520.9873,520.9873,520.9873,521.3374,NA,NA,NA,NA,NA,NA,NA,TRUE,1,1.2873,517.9881,520.9873,NA,NA,NA,NA,NA,28,35,0,26,26,39,1,2,27,"binary"
"8CBB43D492D14E8C89B8CEB4451F67D9",1,"01990a98-dd8d-7c15-baea-d1471ca47527","01990a83-7673-7c0c-a792-bbd8fbbaf673","2025-09-02_06h23.48.750",NA,NA,524.3373,524.3373,524.3374,524.6872,NA,NA,NA,NA,NA,NA,NA,TRUE,1,1.258,521.3382,524.3372,NA,NA,NA,NA,NA,28,32,0,27,27,38,1,2,28,"binary"
"8CBB43D492D14E8C89B8CEB4451F67D9",1,"01990a98-dd8d-7c15-baea-d1471ca47527","01990a83-7673-7c0c-a792-bbd8fbbaf673","2025-09-02_06h23.48.750",NA,NA,527.6872,527.6872,527.6872,528.0371,NA,NA,NA,NA,NA,NA,NA,TRUE,2,0.9667,524.6881,527.6871,NA,NA,NA,NA,NA,90,40,0,28,28,75,1,2,29,"binary"
"8CBB43D492D14E8C89B8CEB4451F67D9",1,"01990a98-dd8d-7c15-baea-d1471ca47527","01990a83-7673-7c0c-a792-bbd8fbbaf673","2025-09-02_06h23.48.750",NA,NA,531.0376,531.0376,531.0376,531.3871,NA,NA,NA,NA,NA,NA,NA,TRUE,1,0.6303,528.038,531.0375,NA,NA,NA,NA,NA,10,32,0,29,29,11,1,2,30,"binary"
"8CBB43D492D14E8C89B8CEB4451F67D9",1,"01990a98-dd8d-7c15-baea-d1471ca47527","01990a83-7673-7c0c-a792-bbd8fbbaf673","2025-09-02_06h23.48.750",NA,NA,534.3871,534.3871,534.3871,534.737,NA,NA,NA,NA,NA,NA,NA,TRUE,1,0.9601,531.3879,534.387,NA,NA,NA,NA,NA,10,26,0,30,30,7,1,2,31,"binary"
"8CBB43D492D14E8C89B8CEB4451F67D9",1,"01990a98-dd8d-7c15-baea-d1471ca47527","01990a83-7673-7c0c-a792-bbd8fbbaf673","2025-09-02_06h23.48.750",NA,NA,537.7371,537.7371,537.7371,538.087,NA,NA,NA,NA,NA,NA,NA,TRUE,1,1.1058,534.7379,537.737,NA,NA,NA,NA,NA,30,30,0,31,31,45,1,2,32,"binary"
"8CBB43D492D14E8C89B8CEB4451F67D9",1,"01990a98-dd8d-7c15-baea-d1471ca47527","01990a83-7673-7c0c-a792-bbd8fbbaf673","2025-09-02_06h23.48.750",NA,NA,541.0873,541.0873,541.0873,541.4373,NA,NA,NA,NA,NA,NA,NA,TRUE,1,1.2036,538.0877,541.0872,NA,NA,NA,NA,NA,60,35,0,32,32,68,1,2,33,"binary"
"8CBB43D492D14E8C89B8CEB4451F67D9",1,"01990a98-dd8d-7c15-baea-d1471ca47527","01990a83-7673-7c0c-a792-bbd8fbbaf673","2025-09-02_06h23.48.750",NA,NA,544.4373,544.4373,544.4374,544.7873,NA,NA,NA,NA,NA,NA,NA,TRUE,1,1.1257,541.4382,544.4373,NA,NA,NA,NA,NA,40,35,0,33,33,50,1,2,34,"binary"
"8CBB43D492D14E8C89B8CEB4451F67D9",1,"01990a98-dd8d-7c15-baea-d1471ca47527","01990a83-7673-7c0c-a792-bbd8fbbaf673","2025-09-02_06h23.48.750",NA,NA,547.7873,547.7873,547.7873,548.1372,NA,NA,NA,NA,NA,NA,NA,TRUE,1,1.0334,544.788,547.7873,NA,NA,NA,NA,NA,40,54,0,34,34,53,1,2,35,"binary"
"8CBB43D492D14E8C89B8CEB4451F67D9",1,"01990a98-dd8d-7c15-baea-d1471ca47527","01990a83-7673-7c0c-a792-bbd8fbbaf673","2025-09-02_06h23.48.750",NA,NA,551.1371,551.1371,551.1371,551.4872,NA,NA,NA,NA,NA,NA,NA,TRUE,1,1.0502,548.138,551.1371,NA,NA,NA,NA,NA,60,29,0,35,35,66,1,2,36,"binary"
"8CBB43D492D14E8C89B8CEB4451F67D9",1,"01990a98-dd8d-7c15-baea-d1471ca47527","01990a83-7673-7c0c-a792-bbd8fbbaf673","2025-09-02_06h23.48.750",NA,NA,554.4872,554.4872,554.4873,554.8372,NA,NA,NA,NA,NA,NA,NA,TRUE,1,1.2199,551.4879,554.4872,NA,NA,NA,NA,NA,180,54,0,36,36,101,1,2,37,"binary"
"8CBB43D492D14E8C89B8CEB4451F67D9",1,"01990a98-dd8d-7c15-baea-d1471ca47527","01990a83-7673-7c0c-a792-bbd8fbbaf673","2025-09-02_06h23.48.750",NA,NA,557.8373,557.8373,557.8373,558.1869,NA,NA,NA,NA,NA,NA,NA,TRUE,1,0.8372,554.838,557.8371,NA,NA,NA,NA,NA,28,26,0,37,37,36,1,2,38,"binary"
"8CBB43D492D14E8C89B8CEB4451F67D9",1,"01990a98-dd8d-7c15-baea-d1471ca47527","01990a83-7673-7c0c-a792-bbd8fbbaf673","2025-09-02_06h23.48.750",NA,NA,561.1873,561.1873,561.1873,561.5367,NA,NA,NA,NA,NA,NA,NA,TRUE,1,0.9272,558.1879,561.1872,NA,NA,NA,NA,NA,200,47,0,38,38,106,1,2,39,"binary"
"8CBB43D492D14E8C89B8CEB4451F67D9",1,"01990a98-dd8d-7c15-baea-d1471ca47527","01990a83-7673-7c0c-a792-bbd8fbbaf673","2025-09-02_06h23.48.750",NA,NA,564.537,564.537,564.537,564.887,NA,NA,NA,NA,NA,NA,NA,TRUE,1,0.961,561.5375,564.537,NA,NA,NA,NA,NA,45,29,0,39,39,55,1,2,40,"binary"
"8CBB43D492D14E8C89B8CEB4451F67D9",1,"01990a98-dd8d-7c15-baea-d1471ca47527","01990a83-7673-7c0c-a792-bbd8fbbaf673","2025-09-02_06h23.48.750",NA,NA,567.8872,567.8872,567.8872,568.2369,NA,NA,NA,NA,NA,NA,NA,TRUE,1,0.9074,564.888,567.887,NA,NA,NA,NA,NA,150,33,0,40,40,91,1,2,41,"binary"
"8CBB43D492D14E8C89B8CEB4451F67D9",1,"01990a98-dd8d-7c15-baea-d1471ca47527","01990a83-7673-7c0c-a792-bbd8fbbaf673","2025-09-02_06h23.48.750",NA,NA,571.237,571.2371,571.2371,571.5871,NA,NA,NA,NA,NA,NA,NA,TRUE,1,1.2529,568.2376,571.237,NA,NA,NA,NA,NA,45,31,0,41,41,56,1,2,42,"binary"
"8CBB43D492D14E8C89B8CEB4451F67D9",1,"01990a98-dd8d-7c15-baea-d1471ca47527","01990a83-7673-7c0c-a792-bbd8fbbaf673","2025-09-02_06h23.48.750",NA,NA,574.5871,574.5871,574.5871,574.937,NA,NA,NA,NA,NA,NA,NA,TRUE,1,0.7591,571.5879,574.587,NA,NA,NA,NA,NA,7,26,0,42,42,1,1,2,43,"binary"
"8CBB43D492D14E8C89B8CEB4451F67D9",1,"01990a98-dd8d-7c15-baea-d1471ca47527","01990a83-7673-7c0c-a792-bbd8fbbaf673","2025-09-02_06h23.48.750",NA,NA,577.9371,577.9371,577.9371,578.2869,NA,NA,NA,NA,NA,NA,NA,TRUE,1,0.8409,574.9377,577.937,NA,NA,NA,NA,NA,10,29,0,43,43,9,1,2,44,"binary"
"8CBB43D492D14E8C89B8CEB4451F67D9",1,"01990a98-dd8d-7c15-baea-d1471ca47527","01990a83-7673-7c0c-a792-bbd8fbbaf673","2025-09-02_06h23.48.750",NA,NA,581.2871,581.2871,581.2871,581.6369,NA,NA,NA,NA,NA,NA,NA,TRUE,2,1.067,578.2878,581.287,NA,NA,NA,NA,NA,45,40,0,44,44,58,1,2,45,"binary"
"8CBB43D492D14E8C89B8CEB4451F67D9",1,"01990a98-dd8d-7c15-baea-d1471ca47527","01990a83-7673-7c0c-a792-bbd8fbbaf673","2025-09-02_06h23.48.750",NA,NA,584.6367,584.6367,584.6367,584.9868,NA,NA,NA,NA,NA,NA,NA,TRUE,1,0.7334,581.6377,584.6366,NA,NA,NA,NA,NA,30,29,0,45,45,44,1,2,46,"binary"
"8CBB43D492D14E8C89B8CEB4451F67D9",1,"01990a98-dd8d-7c15-baea-d1471ca47527","01990a83-7673-7c0c-a792-bbd8fbbaf673","2025-09-02_06h23.48.750",NA,NA,587.987,587.987,587.987,588.3365,NA,NA,NA,NA,NA,NA,NA,TRUE,1,0.7585,584.9876,587.9868,NA,NA,NA,NA,NA,14,26,0,46,46,19,1,2,47,"binary"
"8CBB43D492D14E8C89B8CEB4451F67D9",1,"01990a98-dd8d-7c15-baea-d1471ca47527","01990a83-7673-7c0c-a792-bbd8fbbaf673","2025-09-02_06h23.48.750",NA,NA,591.3369,591.3369,591.3369,591.6868,NA,NA,NA,NA,NA,NA,NA,TRUE,1,0.8394,588.3374,591.3368,NA,NA,NA,NA,NA,180,39,0,47,47,99,1,2,48,"binary"
"8CBB43D492D14E8C89B8CEB4451F67D9",1,"01990a98-dd8d-7c15-baea-d1471ca47527","01990a83-7673-7c0c-a792-bbd8fbbaf673","2025-09-02_06h23.48.750",NA,NA,594.6867,594.6868,594.6868,595.0367,NA,NA,NA,NA,NA,NA,NA,TRUE,1,1.0183,591.6875,594.6867,NA,NA,NA,NA,NA,150,54,0,48,48,95,1,2,49,"binary"
"8CBB43D492D14E8C89B8CEB4451F67D9",1,"01990a98-dd8d-7c15-baea-d1471ca47527","01990a83-7673-7c0c-a792-bbd8fbbaf673","2025-09-02_06h23.48.750",NA,NA,598.0368,598.0368,598.0368,598.3867,NA,NA,NA,NA,NA,NA,NA,TRUE,1,1.2681,595.0375,598.0368,NA,NA,NA,NA,NA,7,35,0,49,49,5,1,2,50,"binary"
"8CBB43D492D14E8C89B8CEB4451F67D9",1,"01990a98-dd8d-7c15-baea-d1471ca47527","01990a83-7673-7c0c-a792-bbd8fbbaf673","2025-09-02_06h23.48.750",NA,NA,601.3866,601.3867,601.3867,601.7365,NA,NA,NA,NA,NA,NA,NA,TRUE,1,1.3341,598.3874,601.3866,NA,NA,NA,NA,NA,7,32,0,50,50,4,1,2,51,"binary"
"8CBB43D492D14E8C89B8CEB4451F67D9",1,"01990a98-dd8d-7c15-baea-d1471ca47527","01990a83-7673-7c0c-a792-bbd8fbbaf673","2025-09-02_06h23.48.750",NA,NA,604.7365,604.7365,604.7365,605.0866,NA,NA,NA,NA,NA,NA,NA,TRUE,1,0.808,601.7372,604.7364,NA,NA,NA,NA,NA,200,35,0,51,51,104,1,2,52,"binary"
"8CBB43D492D14E8C89B8CEB4451F67D9",1,"01990a98-dd8d-7c15-baea-d1471ca47527","01990a83-7673-7c0c-a792-bbd8fbbaf673","2025-09-02_06h23.48.750",NA,NA,608.0866,608.0866,608.0866,608.4367,NA,NA,NA,NA,NA,NA,NA,TRUE,1,0.8745,605.0873,608.0865,NA,NA,NA,NA,NA,25,31,0,52,52,32,1,2,53,"binary"
"8CBB43D492D14E8C89B8CEB4451F67D9",1,"01990a98-dd8d-7c15-baea-d1471ca47527","01990a83-7673-7c0c-a792-bbd8fbbaf673","2025-09-02_06h23.48.750",NA,NA,611.4366,611.4366,611.4366,611.7865,NA,NA,NA,NA,NA,NA,NA,TRUE,1,0.8678,608.4375,611.4365,NA,NA,NA,NA,NA,21,27,0,53,53,25,1,2,54,"binary"
"8CBB43D492D14E8C89B8CEB4451F67D9",1,"01990a98-dd8d-7c15-baea-d1471ca47527","01990a83-7673-7c0c-a792-bbd8fbbaf673","2025-09-02_06h23.48.750",NA,NA,614.7864,614.7865,614.7865,615.1365,NA,NA,NA,NA,NA,NA,NA,TRUE,1,0.9737,611.7873,614.7864,NA,NA,NA,NA,NA,14,28,0,54,54,20,1,2,55,"binary"
"8CBB43D492D14E8C89B8CEB4451F67D9",1,"01990a98-dd8d-7c15-baea-d1471ca47527","01990a83-7673-7c0c-a792-bbd8fbbaf673","2025-09-02_06h23.48.750",NA,NA,618.1366,618.1366,618.1366,618.4864,NA,NA,NA,NA,NA,NA,NA,TRUE,1,0.6876,615.1373,618.1364,NA,NA,NA,NA,NA,7,30,0,55,55,3,1,2,56,"binary"
"8CBB43D492D14E8C89B8CEB4451F67D9",1,"01990a98-dd8d-7c15-baea-d1471ca47527","01990a83-7673-7c0c-a792-bbd8fbbaf673","2025-09-02_06h23.48.750",NA,NA,621.4865,621.4865,621.4865,621.8361,NA,NA,NA,NA,NA,NA,NA,TRUE,1,0.7166,618.4872,621.4864,NA,NA,NA,NA,NA,50,35,0,56,56,62,1,2,57,"binary"
"8CBB43D492D14E8C89B8CEB4451F67D9",1,"01990a98-dd8d-7c15-baea-d1471ca47527","01990a83-7673-7c0c-a792-bbd8fbbaf673","2025-09-02_06h23.48.750",NA,NA,624.8366,624.8366,624.8366,625.1863,NA,NA,NA,NA,NA,NA,NA,TRUE,1,0.7666,621.837,624.8364,NA,NA,NA,NA,NA,21,32,0,57,57,28,1,2,58,"binary"
"8CBB43D492D14E8C89B8CEB4451F67D9",1,"01990a98-dd8d-7c15-baea-d1471ca47527","01990a83-7673-7c0c-a792-bbd8fbbaf673","2025-09-02_06h23.48.750",NA,NA,628.1862,628.1862,628.1862,628.5363,NA,NA,NA,NA,NA,NA,NA,TRUE,1,0.9003,625.187,628.186,NA,NA,NA,NA,NA,30,38,0,58,58,47,1,2,59,"binary"
"8CBB43D492D14E8C89B8CEB4451F67D9",1,"01990a98-dd8d-7c15-baea-d1471ca47527","01990a83-7673-7c0c-a792-bbd8fbbaf673","2025-09-02_06h23.48.750",NA,NA,631.5362,631.5362,631.5362,631.8862,NA,NA,NA,NA,NA,NA,NA,TRUE,2,0.9674,628.5371,631.536,NA,NA,NA,NA,NA,90,54,0,59,59,77,1,2,60,"binary"
"8CBB43D492D14E8C89B8CEB4451F67D9",1,"01990a98-dd8d-7c15-baea-d1471ca47527","01990a83-7673-7c0c-a792-bbd8fbbaf673","2025-09-02_06h23.48.750",NA,NA,634.8865,634.8865,634.8865,635.2364,NA,NA,NA,NA,NA,NA,NA,TRUE,1,0.8732,631.8871,634.8863,NA,NA,NA,NA,NA,14,32,0,60,60,21,1,2,61,"binary"
"8CBB43D492D14E8C89B8CEB4451F67D9",1,"01990a98-dd8d-7c15-baea-d1471ca47527","01990a83-7673-7c0c-a792-bbd8fbbaf673","2025-09-02_06h23.48.750",NA,NA,638.2363,638.2364,638.2364,638.5862,NA,NA,NA,NA,NA,NA,NA,TRUE,2,1.1501,635.2371,638.2362,NA,NA,NA,NA,NA,25,46,0,61,61,35,1,2,62,"binary"
"8CBB43D492D14E8C89B8CEB4451F67D9",1,"01990a98-dd8d-7c15-baea-d1471ca47527","01990a83-7673-7c0c-a792-bbd8fbbaf673","2025-09-02_06h23.48.750",NA,NA,641.5863,641.5863,641.5863,641.9361,NA,NA,NA,NA,NA,NA,NA,TRUE,1,2.2211,638.5871,641.5862,NA,NA,NA,NA,NA,10,30,0,62,62,10,1,2,63,"binary"
"8CBB43D492D14E8C89B8CEB4451F67D9",1,"01990a98-dd8d-7c15-baea-d1471ca47527","01990a83-7673-7c0c-a792-bbd8fbbaf673","2025-09-02_06h23.48.750",NA,NA,644.9362,644.9362,644.9362,645.2861,NA,NA,NA,NA,NA,NA,NA,TRUE,1,0.8493,641.937,644.9361,NA,NA,NA,NA,NA,25,35,0,63,63,34,1,2,64,"binary"
"8CBB43D492D14E8C89B8CEB4451F67D9",1,"01990a98-dd8d-7c15-baea-d1471ca47527","01990a83-7673-7c0c-a792-bbd8fbbaf673","2025-09-02_06h23.48.750",NA,NA,648.2861,648.2861,648.2861,648.636,NA,NA,NA,NA,NA,NA,NA,TRUE,2,1.2836,645.287,648.286,NA,NA,NA,NA,NA,50,40,0,64,64,63,1,2,65,"binary"
"8CBB43D492D14E8C89B8CEB4451F67D9",1,"01990a98-dd8d-7c15-baea-d1471ca47527","01990a83-7673-7c0c-a792-bbd8fbbaf673","2025-09-02_06h23.48.750",NA,NA,651.6362,651.6362,651.6362,651.9861,NA,NA,NA,NA,NA,NA,NA,TRUE,1,0.7231,648.6368,651.6361,NA,NA,NA,NA,NA,25,27,0,65,65,30,1,2,66,"binary"
"8CBB43D492D14E8C89B8CEB4451F67D9",1,"01990a98-dd8d-7c15-baea-d1471ca47527","01990a83-7673-7c0c-a792-bbd8fbbaf673","2025-09-02_06h23.48.750",NA,NA,654.9861,654.9861,654.9861,655.336,NA,NA,NA,NA,NA,NA,NA,TRUE,2,0.957,651.987,654.986,NA,NA,NA,NA,NA,95,54,0,66,66,83,1,2,67,"binary"
"8CBB43D492D14E8C89B8CEB4451F67D9",1,"01990a98-dd8d-7c15-baea-d1471ca47527","01990a83-7673-7c0c-a792-bbd8fbbaf673","2025-09-02_06h23.48.750",NA,NA,658.3358,658.3359,658.3359,658.6857,NA,NA,NA,NA,NA,NA,NA,TRUE,1,0.7106,655.3367,658.3358,NA,NA,NA,NA,NA,12,31,0,67,67,15,1,2,68,"binary"
"8CBB43D492D14E8C89B8CEB4451F67D9",1,"01990a98-dd8d-7c15-baea-d1471ca47527","01990a83-7673-7c0c-a792-bbd8fbbaf673","2025-09-02_06h23.48.750",NA,NA,661.6857,661.6858,661.6858,662.036,NA,NA,NA,NA,NA,NA,NA,TRUE,1,0.6884,658.6867,661.6856,NA,NA,NA,NA,NA,95,31,0,68,68,78,1,2,69,"binary"
"8CBB43D492D14E8C89B8CEB4451F67D9",1,"01990a98-dd8d-7c15-baea-d1471ca47527","01990a83-7673-7c0c-a792-bbd8fbbaf673","2025-09-02_06h23.48.750",NA,NA,665.036,665.036,665.036,665.3859,NA,NA,NA,NA,NA,NA,NA,TRUE,1,0.7459,662.0368,665.0358,NA,NA,NA,NA,NA,180,31,0,69,69,97,1,2,70,"binary"
"8CBB43D492D14E8C89B8CEB4451F67D9",1,"01990a98-dd8d-7c15-baea-d1471ca47527","01990a83-7673-7c0c-a792-bbd8fbbaf673","2025-09-02_06h23.48.750",NA,NA,668.3858,668.3858,668.3858,668.7357,NA,NA,NA,NA,NA,NA,NA,TRUE,1,0.7336,665.3867,668.3856,NA,NA,NA,NA,NA,95,33,0,70,70,79,1,2,71,"binary"
"8CBB43D492D14E8C89B8CEB4451F67D9",1,"01990a98-dd8d-7c15-baea-d1471ca47527","01990a83-7673-7c0c-a792-bbd8fbbaf673","2025-09-02_06h23.48.750",NA,NA,671.7358,671.7358,671.7358,672.0858,NA,NA,NA,NA,NA,NA,NA,TRUE,1,1.1179,668.7365,671.7357,NA,NA,NA,NA,NA,45,35,0,71,71,57,1,2,72,"binary"
"8CBB43D492D14E8C89B8CEB4451F67D9",1,"01990a98-dd8d-7c15-baea-d1471ca47527","01990a83-7673-7c0c-a792-bbd8fbbaf673","2025-09-02_06h23.48.750",NA,NA,675.0859,675.0859,675.0859,675.4356,NA,NA,NA,NA,NA,NA,NA,TRUE,1,0.6805,672.0866,675.0858,NA,NA,NA,NA,NA,180,27,0,72,72,96,1,2,73,"binary"
"8CBB43D492D14E8C89B8CEB4451F67D9",1,"01990a98-dd8d-7c15-baea-d1471ca47527","01990a83-7673-7c0c-a792-bbd8fbbaf673","2025-09-02_06h23.48.750",NA,NA,678.4358,678.4359,678.4359,678.7857,NA,NA,NA,NA,NA,NA,NA,TRUE,1,0.6411,675.4365,678.4358,NA,NA,NA,NA,NA,7,25,0,73,73,0,1,2,74,"binary"
"8CBB43D492D14E8C89B8CEB4451F67D9",1,"01990a98-dd8d-7c15-baea-d1471ca47527","01990a83-7673-7c0c-a792-bbd8fbbaf673","2025-09-02_06h23.48.750",NA,NA,681.7853,681.7854,681.7854,682.1353,NA,NA,NA,NA,NA,NA,NA,TRUE,2,0.972,678.7865,681.7853,NA,NA,NA,NA,NA,60,54,0,74,74,71,1,2,75,"binary"
"8CBB43D492D14E8C89B8CEB4451F67D9",1,"01990a98-dd8d-7c15-baea-d1471ca47527","01990a83-7673-7c0c-a792-bbd8fbbaf673","2025-09-02_06h23.48.750",NA,NA,685.1355,685.1355,685.1355,685.4857,NA,NA,NA,NA,NA,NA,NA,TRUE,2,1.0003,682.1362,685.1354,NA,NA,NA,NA,NA,90,46,0,75,75,76,1,2,76,"binary"
"8CBB43D492D14E8C89B8CEB4451F67D9",1,"01990a98-dd8d-7c15-baea-d1471ca47527","01990a83-7673-7c0c-a792-bbd8fbbaf673","2025-09-02_06h23.48.750",NA,NA,688.4857,688.4857,688.4857,688.8356,NA,NA,NA,NA,NA,NA,NA,TRUE,2,0.9121,685.4865,688.4857,NA,NA,NA,NA,NA,40,40,0,76,76,51,1,2,77,"binary"
"8CBB43D492D14E8C89B8CEB4451F67D9",1,"01990a98-dd8d-7c15-baea-d1471ca47527","01990a83-7673-7c0c-a792-bbd8fbbaf673","2025-09-02_06h23.48.750",NA,NA,691.8354,691.8355,691.8355,692.1852,NA,NA,NA,NA,NA,NA,NA,TRUE,2,1.2825,688.8364,691.8353,NA,NA,NA,NA,NA,100,54,0,77,77,89,1,2,78,"binary"
"8CBB43D492D14E8C89B8CEB4451F67D9",1,"01990a98-dd8d-7c15-baea-d1471ca47527","01990a83-7673-7c0c-a792-bbd8fbbaf673","2025-09-02_06h23.48.750",NA,NA,695.1854,695.1854,695.1854,695.5357,NA,NA,NA,NA,NA,NA,NA,TRUE,1,0.7499,692.186,695.1853,NA,NA,NA,NA,NA,95,35,0,78,78,80,1,2,79,"binary"
"8CBB43D492D14E8C89B8CEB4451F67D9",1,"01990a98-dd8d-7c15-baea-d1471ca47527","01990a83-7673-7c0c-a792-bbd8fbbaf673","2025-09-02_06h23.48.750",NA,NA,698.5356,698.5356,698.5356,698.8855,NA,NA,NA,NA,NA,NA,NA,TRUE,2,0.6773,695.5365,698.5356,NA,NA,NA,NA,NA,95,40,0,79,79,81,1,2,80,"binary"
"8CBB43D492D14E8C89B8CEB4451F67D9",1,"01990a98-dd8d-7c15-baea-d1471ca47527","01990a83-7673-7c0c-a792-bbd8fbbaf673","2025-09-02_06h23.48.750",NA,NA,701.8856,701.8856,701.8856,702.2352,NA,NA,NA,NA,NA,NA,NA,TRUE,1,0.8337,698.8862,701.8855,NA,NA,NA,NA,NA,150,35,0,80,80,92,1,2,81,"binary"
"8CBB43D492D14E8C89B8CEB4451F67D9",1,"01990a98-dd8d-7c15-baea-d1471ca47527","01990a83-7673-7c0c-a792-bbd8fbbaf673","2025-09-02_06h23.48.750",NA,NA,705.2355,705.2355,705.2355,705.5854,NA,NA,NA,NA,NA,NA,NA,TRUE,2,0.8414,702.2361,705.2354,NA,NA,NA,NA,NA,28,46,0,81,81,41,1,2,82,"binary"
"8CBB43D492D14E8C89B8CEB4451F67D9",1,"01990a98-dd8d-7c15-baea-d1471ca47527","01990a83-7673-7c0c-a792-bbd8fbbaf673","2025-09-02_06h23.48.750",NA,NA,708.5856,708.5856,708.5856,708.9351,NA,NA,NA,NA,NA,NA,NA,TRUE,1,0.771,705.5862,708.5855,NA,NA,NA,NA,NA,30,32,0,82,82,46,1,2,83,"binary"
"8CBB43D492D14E8C89B8CEB4451F67D9",1,"01990a98-dd8d-7c15-baea-d1471ca47527","01990a83-7673-7c0c-a792-bbd8fbbaf673","2025-09-02_06h23.48.750",NA,NA,711.9355,711.9355,711.9355,712.2851,NA,NA,NA,NA,NA,NA,NA,TRUE,1,0.8202,708.936,711.9353,NA,NA,NA,NA,NA,25,33,0,83,83,33,1,2,84,"binary"
"8CBB43D492D14E8C89B8CEB4451F67D9",1,"01990a98-dd8d-7c15-baea-d1471ca47527","01990a83-7673-7c0c-a792-bbd8fbbaf673","2025-09-02_06h23.48.750",NA,NA,715.2854,715.2854,715.2854,715.6353,NA,NA,NA,NA,NA,NA,NA,TRUE,1,1.063,712.286,715.2854,NA,NA,NA,NA,NA,21,29,0,84,84,26,1,2,85,"binary"
"8CBB43D492D14E8C89B8CEB4451F67D9",1,"01990a98-dd8d-7c15-baea-d1471ca47527","01990a83-7673-7c0c-a792-bbd8fbbaf673","2025-09-02_06h23.48.750",NA,NA,718.6352,718.6353,718.6353,718.9853,NA,NA,NA,NA,NA,NA,NA,TRUE,1,0.8574,715.6361,718.6352,NA,NA,NA,NA,NA,12,26,0,85,85,13,1,2,86,"binary"
"8CBB43D492D14E8C89B8CEB4451F67D9",1,"01990a98-dd8d-7c15-baea-d1471ca47527","01990a83-7673-7c0c-a792-bbd8fbbaf673","2025-09-02_06h23.48.750",NA,NA,721.9852,721.9853,721.9853,722.3351,NA,NA,NA,NA,NA,NA,NA,TRUE,1,1.003,718.986,721.9852,NA,NA,NA,NA,NA,180,46,0,86,86,100,1,2,87,"binary"
"8CBB43D492D14E8C89B8CEB4451F67D9",1,"01990a98-dd8d-7c15-baea-d1471ca47527","01990a83-7673-7c0c-a792-bbd8fbbaf673","2025-09-02_06h23.48.750",NA,NA,725.3349,725.3349,725.3349,725.6851,NA,NA,NA,NA,NA,NA,NA,TRUE,1,0.7247,722.336,725.3349,NA,NA,NA,NA,NA,30,26,0,87,87,42,1,2,88,"binary"
"8CBB43D492D14E8C89B8CEB4451F67D9",1,"01990a98-dd8d-7c15-baea-d1471ca47527","01990a83-7673-7c0c-a792-bbd8fbbaf673","2025-09-02_06h23.48.750",NA,NA,728.6851,728.6851,728.6851,729.0351,NA,NA,NA,NA,NA,NA,NA,TRUE,1,0.65,725.6862,728.6849,NA,NA,NA,NA,NA,10,25,0,88,88,6,1,2,89,"binary"
"8CBB43D492D14E8C89B8CEB4451F67D9",1,"01990a98-dd8d-7c15-baea-d1471ca47527","01990a83-7673-7c0c-a792-bbd8fbbaf673","2025-09-02_06h23.48.750",NA,NA,732.0351,732.0351,732.0351,732.385,NA,NA,NA,NA,NA,NA,NA,TRUE,2,1.0488,729.0359,732.0351,NA,NA,NA,NA,NA,50,46,0,89,89,64,1,2,90,"binary"
"8CBB43D492D14E8C89B8CEB4451F67D9",1,"01990a98-dd8d-7c15-baea-d1471ca47527","01990a83-7673-7c0c-a792-bbd8fbbaf673","2025-09-02_06h23.48.750",NA,NA,735.3849,735.3849,735.3849,735.7351,NA,NA,NA,NA,NA,NA,NA,TRUE,1,0.9469,732.3858,735.3849,NA,NA,NA,NA,NA,60,33,0,90,90,67,1,2,91,"binary"
"8CBB43D492D14E8C89B8CEB4451F67D9",1,"01990a98-dd8d-7c15-baea-d1471ca47527","01990a83-7673-7c0c-a792-bbd8fbbaf673","2025-09-02_06h23.48.750",NA,NA,738.7351,738.7351,738.7351,739.085,NA,NA,NA,NA,NA,NA,NA,TRUE,1,0.8369,735.7358,738.7351,NA,NA,NA,NA,NA,150,31,0,91,91,90,1,2,92,"binary"
"8CBB43D492D14E8C89B8CEB4451F67D9",1,"01990a98-dd8d-7c15-baea-d1471ca47527","01990a83-7673-7c0c-a792-bbd8fbbaf673","2025-09-02_06h23.48.750",NA,NA,742.0851,742.0851,742.0851,742.435,NA,NA,NA,NA,NA,NA,NA,TRUE,1,0.8333,739.0859,742.085,NA,NA,NA,NA,NA,100,38,0,92,92,86,1,2,93,"binary"
"8CBB43D492D14E8C89B8CEB4451F67D9",1,"01990a98-dd8d-7c15-baea-d1471ca47527","01990a83-7673-7c0c-a792-bbd8fbbaf673","2025-09-02_06h23.48.750",NA,NA,745.4351,745.4352,745.4352,745.7849,NA,NA,NA,NA,NA,NA,NA,TRUE,1,0.8333,742.4358,745.435,NA,NA,NA,NA,NA,14,39,0,93,93,23,1,2,94,"binary"
"8CBB43D492D14E8C89B8CEB4451F67D9",1,"01990a98-dd8d-7c15-baea-d1471ca47527","01990a83-7673-7c0c-a792-bbd8fbbaf673","2025-09-02_06h23.48.750",NA,NA,748.785,748.785,748.785,749.1347,NA,NA,NA,NA,NA,NA,NA,TRUE,1,0.7058,745.7856,748.7849,NA,NA,NA,NA,NA,12,33,0,94,94,16,1,2,95,"binary"
"8CBB43D492D14E8C89B8CEB4451F67D9",1,"01990a98-dd8d-7c15-baea-d1471ca47527","01990a83-7673-7c0c-a792-bbd8fbbaf673","2025-09-02_06h23.48.750",NA,NA,752.1349,752.1349,752.1349,752.4846,NA,NA,NA,NA,NA,NA,NA,TRUE,1,0.6916,749.1356,752.1349,NA,NA,NA,NA,NA,12,35,0,95,95,17,1,2,96,"binary"
"8CBB43D492D14E8C89B8CEB4451F67D9",1,"01990a98-dd8d-7c15-baea-d1471ca47527","01990a83-7673-7c0c-a792-bbd8fbbaf673","2025-09-02_06h23.48.750",NA,NA,755.485,755.485,755.485,755.8348,NA,NA,NA,NA,NA,NA,NA,TRUE,1,0.6302,752.4854,755.4849,NA,NA,NA,NA,NA,28,39,0,96,96,40,1,2,97,"binary"
"8CBB43D492D14E8C89B8CEB4451F67D9",1,"01990a98-dd8d-7c15-baea-d1471ca47527","01990a83-7673-7c0c-a792-bbd8fbbaf673","2025-09-02_06h23.48.750",NA,NA,758.8347,758.8347,758.8347,759.1848,NA,NA,NA,NA,NA,NA,NA,TRUE,1,0.7758,755.8357,758.8346,NA,NA,NA,NA,NA,40,33,0,97,97,49,1,2,98,"binary"
"8CBB43D492D14E8C89B8CEB4451F67D9",1,"01990a98-dd8d-7c15-baea-d1471ca47527","01990a83-7673-7c0c-a792-bbd8fbbaf673","2025-09-02_06h23.48.750",NA,NA,762.1848,762.1848,762.1849,762.5346,NA,NA,NA,NA,NA,NA,NA,TRUE,1,0.9942,759.1856,762.1848,NA,NA,NA,NA,NA,90,26,0,98,98,72,1,2,99,"binary"
"8CBB43D492D14E8C89B8CEB4451F67D9",1,"01990a98-dd8d-7c15-baea-d1471ca47527","01990a83-7673-7c0c-a792-bbd8fbbaf673","2025-09-02_06h23.48.750",NA,NA,765.5348,765.5349,765.5349,765.8846,NA,NA,NA,NA,NA,NA,NA,TRUE,1,1.3504,762.5354,765.5348,NA,NA,NA,NA,NA,150,47,0,99,99,94,1,2,100,"binary"
"8CBB43D492D14E8C89B8CEB4451F67D9",1,"01990a98-dd8d-7c15-baea-d1471ca47527","01990a83-7673-7c0c-a792-bbd8fbbaf673","2025-09-02_06h23.48.750",NA,NA,768.8848,768.8848,768.8848,769.2347,NA,NA,NA,NA,NA,NA,NA,TRUE,2,1.1576,765.8854,768.8847,NA,NA,NA,NA,NA,95,47,0,100,100,82,1,2,101,"binary"
"8CBB43D492D14E8C89B8CEB4451F67D9",1,"01990a98-dd8d-7c15-baea-d1471ca47527","01990a83-7673-7c0c-a792-bbd8fbbaf673","2025-09-02_06h23.48.750",NA,NA,772.2347,772.2347,772.2347,772.5846,NA,NA,NA,NA,NA,NA,NA,TRUE,2,0.9505,769.2356,772.2346,NA,NA,NA,NA,NA,50,54,0,101,101,65,1,2,102,"binary"
"8CBB43D492D14E8C89B8CEB4451F67D9",1,"01990a98-dd8d-7c15-baea-d1471ca47527","01990a83-7673-7c0c-a792-bbd8fbbaf673","2025-09-02_06h23.48.750",NA,NA,775.5845,775.5845,775.5845,775.9346,NA,NA,NA,NA,NA,NA,NA,TRUE,1,0.7298,772.5854,775.5844,NA,NA,NA,NA,NA,21,38,0,102,102,29,1,2,103,"binary"
"8CBB43D492D14E8C89B8CEB4451F67D9",1,"01990a98-dd8d-7c15-baea-d1471ca47527","01990a83-7673-7c0c-a792-bbd8fbbaf673","2025-09-02_06h23.48.750",NA,NA,778.9346,778.9347,778.9347,779.2846,NA,NA,NA,NA,NA,NA,NA,TRUE,1,0.7793,775.9354,778.9346,NA,NA,NA,NA,NA,25,29,0,103,103,31,1,2,104,"binary"
"8CBB43D492D14E8C89B8CEB4451F67D9",1,"01990a98-dd8d-7c15-baea-d1471ca47527","01990a83-7673-7c0c-a792-bbd8fbbaf673","2025-09-02_06h23.48.750",NA,NA,782.2847,782.2847,782.2848,782.6345,NA,NA,NA,NA,NA,NA,NA,TRUE,1,0.6455,779.2853,782.2847,NA,NA,NA,NA,NA,12,28,0,104,104,14,1,2,105,"binary"
"8CBB43D492D14E8C89B8CEB4451F67D9",1,"01990a98-dd8d-7c15-baea-d1471ca47527","01990a83-7673-7c0c-a792-bbd8fbbaf673","2025-09-02_06h23.48.750",NA,NA,785.6346,785.6346,785.6346,785.9845,NA,NA,NA,NA,NA,NA,NA,TRUE,1,0.6875,782.6353,785.6345,NA,NA,NA,NA,NA,50,30,0,105,105,61,1,2,106,"binary"
"8CBB43D492D14E8C89B8CEB4451F67D9",1,"01990a98-dd8d-7c15-baea-d1471ca47527","01990a83-7673-7c0c-a792-bbd8fbbaf673","2025-09-02_06h23.48.750",NA,NA,788.9845,788.9845,788.9845,789.3344,NA,NA,NA,NA,NA,NA,NA,TRUE,1,0.7453,785.9853,788.9844,NA,NA,NA,NA,NA,90,33,0,106,106,74,1,2,107,"binary"
"8CBB43D492D14E8C89B8CEB4451F67D9",1,"01990a98-dd8d-7c15-baea-d1471ca47527","01990a83-7673-7c0c-a792-bbd8fbbaf673","2025-09-02_06h23.48.750",NA,NA,792.3344,792.3344,792.3344,792.6841,NA,NA,NA,NA,NA,NA,NA,TRUE,1,1.0499,789.3352,792.3344,NA,NA,NA,NA,NA,90,30,0,107,107,73,1,2,108,"binary"
