"participant","session","assignmentId","projectId","date","practiceTrial.started","practiceTrial.stopped","tooLate.started","tooLate.stopped","blank.started","blank.stopped","trials_pract.thisRepN","trials_pract.thisTrialN","trials_pract.thisN","trials_pract.thisIndex","trials_pract.ran","delay_pract","amount_pract","responseMade","key","rt","trial.started","trial.stopped","trials.thisRepN","trials.thisTrialN","trials.thisN","trials.thisIndex","trials.ran","delay","amount","trials_2.thisRepN","trials_2.thisTrialN","trials_2.thisN","trials_2.thisIndex","trials_2.ran","block","trial","taskType"
"9CD9B3EA2DEF409E80ADEEDC53C4839A",1,"01990a9d-7588-7fef-9a02-777c74da3e46","01990a83-7673-7c0c-a792-bbd8fbbaf673","2025-09-02_09h33.06.805",467.254,470.0876,470.0884,470.0886,470.0887,470.5089,0,0,0,2,1,14,45,TRUE,1,1.3265,NA,NA,NA,NA,NA,NA,NA,NA,NA,NA,NA,NA,NA,NA,0,1,"binary"
"9CD9B3EA2DEF409E80ADEEDC53C4839A",1,"01990a9d-7588-7fef-9a02-777c74da3e46","01990a83-7673-7c0c-a792-bbd8fbbaf673","2025-09-02_09h33.06.805",470.5136,473.6176,473.6178,473.6204,473.6204,474.0597,0,1,1,1,1,100,50,TRUE,1,1.5413,NA,NA,NA,NA,NA,NA,NA,NA,NA,NA,NA,NA,NA,NA,0,2,"binary"
"9CD9B3EA2DEF409E80ADEEDC53C4839A",1,"01990a9d-7588-7fef-9a02-777c74da3e46","01990a83-7673-7c0c-a792-bbd8fbbaf673","2025-09-02_09h33.06.805",474.0629,477.0168,477.017,477.017,477.017,477.2206,0,2,2,0,1,7,30,TRUE,1,2.7346,NA,NA,NA,NA,NA,NA,NA,NA,NA,NA,NA,NA,NA,NA,0,3,"binary"
"9CD9B3EA2DEF409E80ADEEDC53C4839A",1,"01990a9d-7588-7fef-9a02-777c74da3e46","01990a83-7673-7c0c-a792-bbd8fbbaf673","2025-09-02_09h33.06.805",477.2222,480.3319,480.3321,480.5411,480.5412,480.5413,0,3,3,3,1,3,27,FALSE,NA,NA,NA,NA,NA,NA,NA,NA,NA,NA,NA,NA,NA,NA,NA,NA,0,4,"binary"
"9CD9B3EA2DEF409E80ADEEDC53C4839A",1,"01990a9d-7588-7fef-9a02-777c74da3e46","01990a83-7673-7c0c-a792-bbd8fbbaf673","2025-09-02_09h33.06.805",480.5425,483.5807,483.5809,483.5809,483.5809,483.9969,0,4,4,4,1,30,40,TRUE,1,0.2291,NA,NA,NA,NA,NA,NA,NA,NA,NA,NA,NA,NA,NA,NA,0,5,"binary"
"9CD9B3EA2DEF409E80ADEEDC53C4839A",1,"01990a9d-7588-7fef-9a02-777c74da3e46","01990a83-7673-7c0c-a792-bbd8fbbaf673","2025-09-02_09h33.06.805",NA,NA,572.7627,572.7629,572.763,572.9583,NA,NA,NA,NA,NA,NA,NA,FALSE,NA,NA,569.7143,572.7624,0,0,0,61,1,50,30,NA,NA,NA,NA,NA,1,1,"binary"
"9CD9B3EA2DEF409E80ADEEDC53C4839A",1,"01990a9d-7588-7fef-9a02-777c74da3e46","01990a83-7673-7c0c-a792-bbd8fbbaf673","2025-09-02_09h33.06.805",NA,NA,576.1349,576.1349,576.1349,576.3341,NA,NA,NA,NA,NA,NA,NA,TRUE,1,2.5421,572.9593,576.1347,0,1,1,28,1,21,32,NA,NA,NA,NA,NA,1,2,"binary"
"9CD9B3EA2DEF409E80ADEEDC53C4839A",1,"01990a9d-7588-7fef-9a02-777c74da3e46","01990a83-7673-7c0c-a792-bbd8fbbaf673","2025-09-02_09h33.06.805",NA,NA,579.0957,579.0957,579.0957,579.7354,NA,NA,NA,NA,NA,NA,NA,TRUE,1,1.0716,576.3353,579.0954,0,2,2,84,1,100,26,NA,NA,NA,NA,NA,1,3,"binary"
"9CD9B3EA2DEF409E80ADEEDC53C4839A",1,"01990a9d-7588-7fef-9a02-777c74da3e46","01990a83-7673-7c0c-a792-bbd8fbbaf673","2025-09-02_09h33.06.805",NA,NA,582.5609,582.5609,582.5609,582.9601,NA,NA,NA,NA,NA,NA,NA,TRUE,1,0.8595,579.7364,582.5607,0,3,3,54,1,45,26,NA,NA,NA,NA,NA,1,4,"binary"
"9CD9B3EA2DEF409E80ADEEDC53C4839A",1,"01990a9d-7588-7fef-9a02-777c74da3e46","01990a83-7673-7c0c-a792-bbd8fbbaf673","2025-09-02_09h33.06.805",NA,NA,586.137,586.1371,586.1371,586.3329,NA,NA,NA,NA,NA,NA,NA,TRUE,1,0.634,582.9615,586.1368,0,4,4,41,1,28,46,NA,NA,NA,NA,NA,1,5,"binary"
"9CD9B3EA2DEF409E80ADEEDC53C4839A",1,"01990a9d-7588-7fef-9a02-777c74da3e46","01990a83-7673-7c0c-a792-bbd8fbbaf673","2025-09-02_09h33.06.805",NA,NA,589.3393,589.3393,589.3393,589.7639,NA,NA,NA,NA,NA,NA,NA,TRUE,1,0.6656,586.334,589.3391,0,5,5,60,1,50,27,NA,NA,NA,NA,NA,1,6,"binary"
"9CD9B3EA2DEF409E80ADEEDC53C4839A",1,"01990a9d-7588-7fef-9a02-777c74da3e46","01990a83-7673-7c0c-a792-bbd8fbbaf673","2025-09-02_09h33.06.805",NA,NA,592.5631,592.5631,592.5631,593.0099,NA,NA,NA,NA,NA,NA,NA,TRUE,1,1.0769,589.7649,592.5629,0,6,6,56,1,45,31,NA,NA,NA,NA,NA,1,7,"binary"
"9CD9B3EA2DEF409E80ADEEDC53C4839A",1,"01990a9d-7588-7fef-9a02-777c74da3e46","01990a83-7673-7c0c-a792-bbd8fbbaf673","2025-09-02_09h33.06.805",NA,NA,595.8188,595.8189,595.8189,596.4517,NA,NA,NA,NA,NA,NA,NA,TRUE,1,1.0836,593.011,595.8187,0,7,7,101,1,180,54,NA,NA,NA,NA,NA,1,8,"binary"
"9CD9B3EA2DEF409E80ADEEDC53C4839A",1,"01990a9d-7588-7fef-9a02-777c74da3e46","01990a83-7673-7c0c-a792-bbd8fbbaf673","2025-09-02_09h33.06.805",NA,NA,599.4006,599.4006,599.4006,599.8167,NA,NA,NA,NA,NA,NA,NA,TRUE,1,1.9046,596.453,599.4003,0,8,8,36,1,28,26,NA,NA,NA,NA,NA,1,9,"binary"
"9CD9B3EA2DEF409E80ADEEDC53C4839A",1,"01990a9d-7588-7fef-9a02-777c74da3e46","01990a83-7673-7c0c-a792-bbd8fbbaf673","2025-09-02_09h33.06.805",NA,NA,602.7829,602.7829,602.7829,603.1939,NA,NA,NA,NA,NA,NA,NA,TRUE,1,1.4495,599.8176,602.7827,0,9,9,68,1,60,35,NA,NA,NA,NA,NA,1,10,"binary"
"9CD9B3EA2DEF409E80ADEEDC53C4839A",1,"01990a9d-7588-7fef-9a02-777c74da3e46","01990a83-7673-7c0c-a792-bbd8fbbaf673","2025-09-02_09h33.06.805",NA,NA,606.2614,606.2614,606.2614,606.4683,NA,NA,NA,NA,NA,NA,NA,TRUE,1,1.3318,603.1952,606.2612,0,10,10,59,1,45,46,NA,NA,NA,NA,NA,1,11,"binary"
"9CD9B3EA2DEF409E80ADEEDC53C4839A",1,"01990a9d-7588-7fef-9a02-777c74da3e46","01990a83-7673-7c0c-a792-bbd8fbbaf673","2025-09-02_09h33.06.805",NA,NA,609.2784,609.2784,609.2784,609.8925,NA,NA,NA,NA,NA,NA,NA,TRUE,1,1.1161,606.4694,609.2783,0,11,11,80,1,95,35,NA,NA,NA,NA,NA,1,12,"binary"
"9CD9B3EA2DEF409E80ADEEDC53C4839A",1,"01990a9d-7588-7fef-9a02-777c74da3e46","01990a83-7673-7c0c-a792-bbd8fbbaf673","2025-09-02_09h33.06.805",NA,NA,612.7702,612.7702,612.7702,613.1904,NA,NA,NA,NA,NA,NA,NA,TRUE,1,1.1107,609.8937,612.77,0,12,12,23,1,14,39,NA,NA,NA,NA,NA,1,13,"binary"
"9CD9B3EA2DEF409E80ADEEDC53C4839A",1,"01990a9d-7588-7fef-9a02-777c74da3e46","01990a83-7673-7c0c-a792-bbd8fbbaf673","2025-09-02_09h33.06.805",NA,NA,615.8975,615.8977,615.8977,616.5872,NA,NA,NA,NA,NA,NA,NA,TRUE,1,1.1431,613.2192,615.8973,0,13,13,1,1,7,26,NA,NA,NA,NA,NA,1,14,"binary"
"9CD9B3EA2DEF409E80ADEEDC53C4839A",1,"01990a9d-7588-7fef-9a02-777c74da3e46","01990a83-7673-7c0c-a792-bbd8fbbaf673","2025-09-02_09h33.06.805",NA,NA,619.5874,619.5874,619.5874,619.9952,NA,NA,NA,NA,NA,NA,NA,TRUE,1,1.3207,616.5883,619.5872,0,14,14,32,1,25,31,NA,NA,NA,NA,NA,1,15,"binary"
"9CD9B3EA2DEF409E80ADEEDC53C4839A",1,"01990a9d-7588-7fef-9a02-777c74da3e46","01990a83-7673-7c0c-a792-bbd8fbbaf673","2025-09-02_09h33.06.805",NA,NA,622.7867,622.7867,622.7867,623.1835,NA,NA,NA,NA,NA,NA,NA,TRUE,1,1.0802,619.9963,622.7865,0,15,15,44,1,30,29,NA,NA,NA,NA,NA,1,16,"binary"
"9CD9B3EA2DEF409E80ADEEDC53C4839A",1,"01990a9d-7588-7fef-9a02-777c74da3e46","01990a83-7673-7c0c-a792-bbd8fbbaf673","2025-09-02_09h33.06.805",NA,NA,625.9963,625.9963,625.9963,626.6436,NA,NA,NA,NA,NA,NA,NA,TRUE,1,1.5276,623.1845,625.9959,0,16,16,0,1,7,25,NA,NA,NA,NA,NA,1,17,"binary"
"9CD9B3EA2DEF409E80ADEEDC53C4839A",1,"01990a9d-7588-7fef-9a02-777c74da3e46","01990a83-7673-7c0c-a792-bbd8fbbaf673","2025-09-02_09h33.06.805",NA,NA,629.5388,629.5388,629.5388,629.9474,NA,NA,NA,NA,NA,NA,NA,TRUE,1,1.389,626.6447,629.5386,0,17,17,103,1,200,28,NA,NA,NA,NA,NA,1,18,"binary"
"9CD9B3EA2DEF409E80ADEEDC53C4839A",1,"01990a9d-7588-7fef-9a02-777c74da3e46","01990a83-7673-7c0c-a792-bbd8fbbaf673","2025-09-02_09h33.06.805",NA,NA,632.9434,632.9435,632.9435,633.3443,NA,NA,NA,NA,NA,NA,NA,TRUE,1,1.0895,629.9485,632.9433,0,18,18,34,1,25,35,NA,NA,NA,NA,NA,1,19,"binary"
"9CD9B3EA2DEF409E80ADEEDC53C4839A",1,"01990a9d-7588-7fef-9a02-777c74da3e46","01990a83-7673-7c0c-a792-bbd8fbbaf673","2025-09-02_09h33.06.805",NA,NA,636.3459,636.346,636.346,636.7582,NA,NA,NA,NA,NA,NA,NA,TRUE,1,1.2815,633.3456,636.3458,0,19,19,21,1,14,32,NA,NA,NA,NA,NA,1,20,"binary"
"9CD9B3EA2DEF409E80ADEEDC53C4839A",1,"01990a9d-7588-7fef-9a02-777c74da3e46","01990a83-7673-7c0c-a792-bbd8fbbaf673","2025-09-02_09h33.06.805",NA,NA,639.7444,639.7444,639.7444,639.9472,NA,NA,NA,NA,NA,NA,NA,TRUE,1,1.514,636.7592,639.7441,0,20,20,67,1,60,33,NA,NA,NA,NA,NA,1,21,"binary"
"9CD9B3EA2DEF409E80ADEEDC53C4839A",1,"01990a9d-7588-7fef-9a02-777c74da3e46","01990a83-7673-7c0c-a792-bbd8fbbaf673","2025-09-02_09h33.06.805",NA,NA,642.9994,642.9994,642.9995,643.405,NA,NA,NA,NA,NA,NA,NA,TRUE,1,1.3447,639.9521,642.9992,0,21,21,29,1,21,38,NA,NA,NA,NA,NA,1,22,"binary"
"9CD9B3EA2DEF409E80ADEEDC53C4839A",1,"01990a9d-7588-7fef-9a02-777c74da3e46","01990a83-7673-7c0c-a792-bbd8fbbaf673","2025-09-02_09h33.06.805",NA,NA,646.4501,646.4501,646.4501,646.6557,NA,NA,NA,NA,NA,NA,NA,TRUE,1,1.5559,643.406,646.4499,0,22,22,46,1,30,32,NA,NA,NA,NA,NA,1,23,"binary"
"9CD9B3EA2DEF409E80ADEEDC53C4839A",1,"01990a9d-7588-7fef-9a02-777c74da3e46","01990a83-7673-7c0c-a792-bbd8fbbaf673","2025-09-02_09h33.06.805",NA,NA,649.6612,649.6612,649.6612,650.083,NA,NA,NA,NA,NA,NA,NA,TRUE,1,1.3077,646.6569,649.661,0,23,23,43,1,30,27,NA,NA,NA,NA,NA,1,24,"binary"
"9CD9B3EA2DEF409E80ADEEDC53C4839A",1,"01990a9d-7588-7fef-9a02-777c74da3e46","01990a83-7673-7c0c-a792-bbd8fbbaf673","2025-09-02_09h33.06.805",NA,NA,652.866,652.866,652.866,653.325,NA,NA,NA,NA,NA,NA,NA,TRUE,1,1.9358,650.0841,652.8659,0,24,24,70,1,60,47,NA,NA,NA,NA,NA,1,25,"binary"
"9CD9B3EA2DEF409E80ADEEDC53C4839A",1,"01990a9d-7588-7fef-9a02-777c74da3e46","01990a83-7673-7c0c-a792-bbd8fbbaf673","2025-09-02_09h33.06.805",NA,NA,656.2393,656.2393,656.2393,656.6704,NA,NA,NA,NA,NA,NA,NA,TRUE,1,1.1092,653.3264,656.2391,0,25,25,74,1,90,33,NA,NA,NA,NA,NA,1,26,"binary"
"9CD9B3EA2DEF409E80ADEEDC53C4839A",1,"01990a9d-7588-7fef-9a02-777c74da3e46","01990a83-7673-7c0c-a792-bbd8fbbaf673","2025-09-02_09h33.06.805",NA,NA,659.6579,659.6579,659.6579,660.0846,NA,NA,NA,NA,NA,NA,NA,TRUE,1,0.871,656.6714,659.6577,0,26,26,15,1,12,31,NA,NA,NA,NA,NA,1,27,"binary"
"9CD9B3EA2DEF409E80ADEEDC53C4839A",1,"01990a9d-7588-7fef-9a02-777c74da3e46","01990a83-7673-7c0c-a792-bbd8fbbaf673","2025-09-02_09h33.06.805",NA,NA,662.9458,662.9458,662.9458,663.3807,NA,NA,NA,NA,NA,NA,NA,TRUE,1,1.117,660.0857,662.9456,0,27,27,102,1,200,26,NA,NA,NA,NA,NA,1,28,"binary"
"9CD9B3EA2DEF409E80ADEEDC53C4839A",1,"01990a9d-7588-7fef-9a02-777c74da3e46","01990a83-7673-7c0c-a792-bbd8fbbaf673","2025-09-02_09h33.06.805",NA,NA,666.4872,666.4872,666.4872,666.7015,NA,NA,NA,NA,NA,NA,NA,TRUE,2,0.9132,663.3818,666.4871,0,28,28,14,1,12,28,NA,NA,NA,NA,NA,1,29,"binary"
"9CD9B3EA2DEF409E80ADEEDC53C4839A",1,"01990a9d-7588-7fef-9a02-777c74da3e46","01990a83-7673-7c0c-a792-bbd8fbbaf673","2025-09-02_09h33.06.805",NA,NA,669.7662,669.7662,669.7662,670.2187,NA,NA,NA,NA,NA,NA,NA,TRUE,2,1.1098,666.7025,669.766,0,29,29,31,1,25,29,NA,NA,NA,NA,NA,1,30,"binary"
"9CD9B3EA2DEF409E80ADEEDC53C4839A",1,"01990a9d-7588-7fef-9a02-777c74da3e46","01990a83-7673-7c0c-a792-bbd8fbbaf673","2025-09-02_09h33.06.805",NA,NA,672.9941,672.9941,672.9941,673.639,NA,NA,NA,NA,NA,NA,NA,TRUE,1,0.877,670.2206,672.9939,0,30,30,95,1,150,54,NA,NA,NA,NA,NA,1,31,"binary"
"9CD9B3EA2DEF409E80ADEEDC53C4839A",1,"01990a9d-7588-7fef-9a02-777c74da3e46","01990a83-7673-7c0c-a792-bbd8fbbaf673","2025-09-02_09h33.06.805",NA,NA,676.2905,676.2905,676.2905,676.91,NA,NA,NA,NA,NA,NA,NA,TRUE,1,1.5562,673.6401,676.2904,0,31,31,13,1,12,26,NA,NA,NA,NA,NA,1,32,"binary"
"9CD9B3EA2DEF409E80ADEEDC53C4839A",1,"01990a9d-7588-7fef-9a02-777c74da3e46","01990a83-7673-7c0c-a792-bbd8fbbaf673","2025-09-02_09h33.06.805",NA,NA,679.8076,680.0226,680.0226,680.2236,NA,NA,NA,NA,NA,NA,NA,FALSE,NA,NA,676.9112,679.8074,0,32,32,106,1,200,47,NA,NA,NA,NA,NA,1,33,"binary"
"9CD9B3EA2DEF409E80ADEEDC53C4839A",1,"01990a9d-7588-7fef-9a02-777c74da3e46","01990a83-7673-7c0c-a792-bbd8fbbaf673","2025-09-02_09h33.06.805",NA,NA,682.952,683.3788,683.3788,683.5936,NA,NA,NA,NA,NA,NA,NA,FALSE,NA,NA,680.2249,682.9518,0,33,33,105,1,200,39,NA,NA,NA,NA,NA,1,34,"binary"
"9CD9B3EA2DEF409E80ADEEDC53C4839A",1,"01990a9d-7588-7fef-9a02-777c74da3e46","01990a83-7673-7c0c-a792-bbd8fbbaf673","2025-09-02_09h33.06.805",NA,NA,686.3663,686.3663,686.3664,686.799,NA,NA,NA,NA,NA,NA,NA,TRUE,1,0.2453,683.5955,686.3661,0,34,34,2,1,7,28,NA,NA,NA,NA,NA,1,35,"binary"
"9CD9B3EA2DEF409E80ADEEDC53C4839A",1,"01990a9d-7588-7fef-9a02-777c74da3e46","01990a83-7673-7c0c-a792-bbd8fbbaf673","2025-09-02_09h33.06.805",NA,NA,689.8294,689.8294,689.8294,690.24,NA,NA,NA,NA,NA,NA,NA,TRUE,1,0.8761,686.8002,689.8292,0,35,35,10,1,10,30,NA,NA,NA,NA,NA,1,36,"binary"
"9CD9B3EA2DEF409E80ADEEDC53C4839A",1,"01990a9d-7588-7fef-9a02-777c74da3e46","01990a83-7673-7c0c-a792-bbd8fbbaf673","2025-09-02_09h33.06.805",NA,NA,693.0713,693.0713,693.0713,693.6808,NA,NA,NA,NA,NA,NA,NA,TRUE,1,0.891,690.2409,693.0712,0,36,36,55,1,45,29,NA,NA,NA,NA,NA,1,37,"binary"
"9CD9B3EA2DEF409E80ADEEDC53C4839A",1,"01990a9d-7588-7fef-9a02-777c74da3e46","01990a83-7673-7c0c-a792-bbd8fbbaf673","2025-09-02_09h33.06.805",NA,NA,696.6154,696.6154,696.6154,697.0362,NA,NA,NA,NA,NA,NA,NA,TRUE,1,1.1259,693.6818,696.6151,0,37,37,17,1,12,35,NA,NA,NA,NA,NA,1,38,"binary"
"9CD9B3EA2DEF409E80ADEEDC53C4839A",1,"01990a9d-7588-7fef-9a02-777c74da3e46","01990a83-7673-7c0c-a792-bbd8fbbaf673","2025-09-02_09h33.06.805",NA,NA,700.0237,700.0237,700.0238,700.2222,NA,NA,NA,NA,NA,NA,NA,TRUE,1,1.0848,697.0374,700.0234,0,38,38,85,1,100,31,NA,NA,NA,NA,NA,1,39,"binary"
"9CD9B3EA2DEF409E80ADEEDC53C4839A",1,"01990a9d-7588-7fef-9a02-777c74da3e46","01990a83-7673-7c0c-a792-bbd8fbbaf673","2025-09-02_09h33.06.805",NA,NA,703.2411,703.2411,703.2412,703.6514,NA,NA,NA,NA,NA,NA,NA,TRUE,1,0.8943,700.2232,703.2409,0,39,39,81,1,95,40,NA,NA,NA,NA,NA,1,40,"binary"
"9CD9B3EA2DEF409E80ADEEDC53C4839A",1,"01990a9d-7588-7fef-9a02-777c74da3e46","01990a83-7673-7c0c-a792-bbd8fbbaf673","2025-09-02_09h33.06.805",NA,NA,706.4435,706.4435,706.4435,707.0687,NA,NA,NA,NA,NA,NA,NA,TRUE,1,0.8757,703.6526,706.4433,0,40,40,42,1,30,26,NA,NA,NA,NA,NA,1,41,"binary"
"9CD9B3EA2DEF409E80ADEEDC53C4839A",1,"01990a9d-7588-7fef-9a02-777c74da3e46","01990a83-7673-7c0c-a792-bbd8fbbaf673","2025-09-02_09h33.06.805",NA,NA,710.088,710.088,710.0881,710.3063,NA,NA,NA,NA,NA,NA,NA,TRUE,1,1.1224,707.0696,710.0879,0,41,41,89,1,100,54,NA,NA,NA,NA,NA,1,42,"binary"
"9CD9B3EA2DEF409E80ADEEDC53C4839A",1,"01990a9d-7588-7fef-9a02-777c74da3e46","01990a83-7673-7c0c-a792-bbd8fbbaf673","2025-09-02_09h33.06.805",NA,NA,713.3877,713.3878,713.3878,713.8017,NA,NA,NA,NA,NA,NA,NA,TRUE,1,1.1187,710.3075,713.3876,0,42,42,91,1,150,33,NA,NA,NA,NA,NA,1,43,"binary"
"9CD9B3EA2DEF409E80ADEEDC53C4839A",1,"01990a9d-7588-7fef-9a02-777c74da3e46","01990a83-7673-7c0c-a792-bbd8fbbaf673","2025-09-02_09h33.06.805",NA,NA,716.6922,716.6922,716.6922,717.1175,NA,NA,NA,NA,NA,NA,NA,TRUE,1,1.1132,713.803,716.692,0,43,43,64,1,50,46,NA,NA,NA,NA,NA,1,44,"binary"
"9CD9B3EA2DEF409E80ADEEDC53C4839A",1,"01990a9d-7588-7fef-9a02-777c74da3e46","01990a83-7673-7c0c-a792-bbd8fbbaf673","2025-09-02_09h33.06.805",NA,NA,719.9691,719.9691,719.9691,720.3883,NA,NA,NA,NA,NA,NA,NA,TRUE,1,1.5716,717.1185,719.9683,0,44,44,45,1,30,30,NA,NA,NA,NA,NA,1,45,"binary"
"9CD9B3EA2DEF409E80ADEEDC53C4839A",1,"01990a9d-7588-7fef-9a02-777c74da3e46","01990a83-7673-7c0c-a792-bbd8fbbaf673","2025-09-02_09h33.06.805",NA,NA,723.4606,723.4607,723.4607,723.8779,NA,NA,NA,NA,NA,NA,NA,TRUE,1,1.1025,720.3893,723.4604,0,45,45,25,1,21,27,NA,NA,NA,NA,NA,1,46,"binary"
"9CD9B3EA2DEF409E80ADEEDC53C4839A",1,"01990a9d-7588-7fef-9a02-777c74da3e46","01990a83-7673-7c0c-a792-bbd8fbbaf673","2025-09-02_09h33.06.805",NA,NA,726.6849,726.6849,726.6849,727.0868,NA,NA,NA,NA,NA,NA,NA,TRUE,1,1.0859,723.8789,726.6847,0,46,46,51,1,40,40,NA,NA,NA,NA,NA,1,47,"binary"
"9CD9B3EA2DEF409E80ADEEDC53C4839A",1,"01990a9d-7588-7fef-9a02-777c74da3e46","01990a83-7673-7c0c-a792-bbd8fbbaf673","2025-09-02_09h33.06.805",NA,NA,730.0764,730.0764,730.0764,730.4894,NA,NA,NA,NA,NA,NA,NA,TRUE,1,0.8633,727.088,730.0762,0,47,47,57,1,45,35,NA,NA,NA,NA,NA,1,48,"binary"
"9CD9B3EA2DEF409E80ADEEDC53C4839A",1,"01990a9d-7588-7fef-9a02-777c74da3e46","01990a83-7673-7c0c-a792-bbd8fbbaf673","2025-09-02_09h33.06.805",NA,NA,733.4908,733.4908,733.4908,733.9286,NA,NA,NA,NA,NA,NA,NA,TRUE,1,1.1125,730.4907,733.4905,0,48,48,99,1,180,39,NA,NA,NA,NA,NA,1,49,"binary"
"9CD9B3EA2DEF409E80ADEEDC53C4839A",1,"01990a9d-7588-7fef-9a02-777c74da3e46","01990a83-7673-7c0c-a792-bbd8fbbaf673","2025-09-02_09h33.06.805",NA,NA,736.7735,736.7736,736.7736,737.1708,NA,NA,NA,NA,NA,NA,NA,TRUE,1,1.1322,733.9298,736.773,0,49,49,48,1,40,27,NA,NA,NA,NA,NA,1,50,"binary"
"9CD9B3EA2DEF409E80ADEEDC53C4839A",1,"01990a9d-7588-7fef-9a02-777c74da3e46","01990a83-7673-7c0c-a792-bbd8fbbaf673","2025-09-02_09h33.06.805",NA,NA,739.9678,739.9678,739.9678,740.5827,NA,NA,NA,NA,NA,NA,NA,TRUE,1,1.3063,737.1718,739.9673,0,50,50,35,1,25,46,NA,NA,NA,NA,NA,1,51,"binary"
"9CD9B3EA2DEF409E80ADEEDC53C4839A",1,"01990a9d-7588-7fef-9a02-777c74da3e46","01990a83-7673-7c0c-a792-bbd8fbbaf673","2025-09-02_09h33.06.805",NA,NA,743.4884,743.4884,743.4884,743.9307,NA,NA,NA,NA,NA,NA,NA,TRUE,1,1.3586,740.5837,743.4882,0,51,51,104,1,200,35,NA,NA,NA,NA,NA,1,52,"binary"
"9CD9B3EA2DEF409E80ADEEDC53C4839A",1,"01990a9d-7588-7fef-9a02-777c74da3e46","01990a83-7673-7c0c-a792-bbd8fbbaf673","2025-09-02_09h33.06.805",NA,NA,746.9184,746.9184,746.9184,747.1188,NA,NA,NA,NA,NA,NA,NA,TRUE,1,1.0818,743.9318,746.9182,0,52,52,86,1,100,38,NA,NA,NA,NA,NA,1,53,"binary"
"9CD9B3EA2DEF409E80ADEEDC53C4839A",1,"01990a9d-7588-7fef-9a02-777c74da3e46","01990a83-7673-7c0c-a792-bbd8fbbaf673","2025-09-02_09h33.06.805",NA,NA,750.1018,750.1018,750.1018,750.5008,NA,NA,NA,NA,NA,NA,NA,TRUE,1,0.8814,747.1199,750.1015,0,53,53,26,1,21,29,NA,NA,NA,NA,NA,1,54,"binary"
"9CD9B3EA2DEF409E80ADEEDC53C4839A",1,"01990a9d-7588-7fef-9a02-777c74da3e46","01990a83-7673-7c0c-a792-bbd8fbbaf673","2025-09-02_09h33.06.805",NA,NA,753.5259,753.5259,753.5259,753.9328,NA,NA,NA,NA,NA,NA,NA,TRUE,1,0.8603,750.5017,753.5256,0,54,54,39,1,28,35,NA,NA,NA,NA,NA,1,55,"binary"
"9CD9B3EA2DEF409E80ADEEDC53C4839A",1,"01990a9d-7588-7fef-9a02-777c74da3e46","01990a83-7673-7c0c-a792-bbd8fbbaf673","2025-09-02_09h33.06.805",NA,NA,756.9935,756.9935,756.9935,757.22,NA,NA,NA,NA,NA,NA,NA,TRUE,1,0.8623,753.9338,756.9931,0,55,55,82,1,95,47,NA,NA,NA,NA,NA,1,56,"binary"
"9CD9B3EA2DEF409E80ADEEDC53C4839A",1,"01990a9d-7588-7fef-9a02-777c74da3e46","01990a83-7673-7c0c-a792-bbd8fbbaf673","2025-09-02_09h33.06.805",NA,NA,760.2876,760.2876,760.2876,760.5004,NA,NA,NA,NA,NA,NA,NA,TRUE,1,0.8716,757.221,760.2874,0,56,56,49,1,40,33,NA,NA,NA,NA,NA,1,57,"binary"
"9CD9B3EA2DEF409E80ADEEDC53C4839A",1,"01990a9d-7588-7fef-9a02-777c74da3e46","01990a83-7673-7c0c-a792-bbd8fbbaf673","2025-09-02_09h33.06.805",NA,NA,763.4892,763.4892,763.4894,763.9058,NA,NA,NA,NA,NA,NA,NA,TRUE,1,0.6806,760.5029,763.489,0,57,57,93,1,150,40,NA,NA,NA,NA,NA,1,58,"binary"
"9CD9B3EA2DEF409E80ADEEDC53C4839A",1,"01990a9d-7588-7fef-9a02-777c74da3e46","01990a83-7673-7c0c-a792-bbd8fbbaf673","2025-09-02_09h33.06.805",NA,NA,766.9281,766.9282,766.9282,767.3578,NA,NA,NA,NA,NA,NA,NA,TRUE,1,0.6804,763.9074,766.9279,0,58,58,38,1,28,32,NA,NA,NA,NA,NA,1,59,"binary"
"9CD9B3EA2DEF409E80ADEEDC53C4839A",1,"01990a9d-7588-7fef-9a02-777c74da3e46","01990a83-7673-7c0c-a792-bbd8fbbaf673","2025-09-02_09h33.06.805",NA,NA,770.1102,770.1103,770.1103,770.7434,NA,NA,NA,NA,NA,NA,NA,TRUE,1,1.1132,767.3588,770.1101,0,59,59,53,1,40,54,NA,NA,NA,NA,NA,1,60,"binary"
"9CD9B3EA2DEF409E80ADEEDC53C4839A",1,"01990a9d-7588-7fef-9a02-777c74da3e46","01990a83-7673-7c0c-a792-bbd8fbbaf673","2025-09-02_09h33.06.805",NA,NA,773.704,773.704,773.704,774.1363,NA,NA,NA,NA,NA,NA,NA,FALSE,NA,NA,770.7445,773.7039,0,60,60,6,1,10,25,NA,NA,NA,NA,NA,1,61,"binary"
"9CD9B3EA2DEF409E80ADEEDC53C4839A",1,"01990a9d-7588-7fef-9a02-777c74da3e46","01990a83-7673-7c0c-a792-bbd8fbbaf673","2025-09-02_09h33.06.805",NA,NA,776.939,776.939,776.939,777.3486,NA,NA,NA,NA,NA,NA,NA,TRUE,1,0.0057,774.1396,776.9388,0,61,61,40,1,28,39,NA,NA,NA,NA,NA,1,62,"binary"
"9CD9B3EA2DEF409E80ADEEDC53C4839A",1,"01990a9d-7588-7fef-9a02-777c74da3e46","01990a83-7673-7c0c-a792-bbd8fbbaf673","2025-09-02_09h33.06.805",NA,NA,780.4082,780.4083,780.4083,780.6388,NA,NA,NA,NA,NA,NA,NA,TRUE,2,2.3945,777.3496,780.405,0,62,62,11,1,10,32,NA,NA,NA,NA,NA,1,63,"binary"
"9CD9B3EA2DEF409E80ADEEDC53C4839A",1,"01990a9d-7588-7fef-9a02-777c74da3e46","01990a83-7673-7c0c-a792-bbd8fbbaf673","2025-09-02_09h33.06.805",NA,NA,783.4714,783.4714,783.4714,784.11,NA,NA,NA,NA,NA,NA,NA,TRUE,2,1.3435,780.64,783.4712,0,63,63,5,1,7,35,NA,NA,NA,NA,NA,1,64,"binary"
"9CD9B3EA2DEF409E80ADEEDC53C4839A",1,"01990a9d-7588-7fef-9a02-777c74da3e46","01990a83-7673-7c0c-a792-bbd8fbbaf673","2025-09-02_09h33.06.805",NA,NA,787.1486,787.1487,787.1487,787.3477,NA,NA,NA,NA,NA,NA,NA,TRUE,1,1.5441,784.111,787.1484,0,64,64,16,1,12,33,NA,NA,NA,NA,NA,1,65,"binary"
"9CD9B3EA2DEF409E80ADEEDC53C4839A",1,"01990a9d-7588-7fef-9a02-777c74da3e46","01990a83-7673-7c0c-a792-bbd8fbbaf673","2025-09-02_09h33.06.805",NA,NA,790.5234,790.5234,790.5234,790.7314,NA,NA,NA,NA,NA,NA,NA,TRUE,1,1.2919,787.3488,790.5232,0,65,65,58,1,45,40,NA,NA,NA,NA,NA,1,66,"binary"
"9CD9B3EA2DEF409E80ADEEDC53C4839A",1,"01990a9d-7588-7fef-9a02-777c74da3e46","01990a83-7673-7c0c-a792-bbd8fbbaf673","2025-09-02_09h33.06.805",NA,NA,793.7717,793.7717,793.7717,794.1782,NA,NA,NA,NA,NA,NA,NA,TRUE,1,1.262,790.7324,793.7715,0,66,66,62,1,50,35,NA,NA,NA,NA,NA,1,67,"binary"
"9CD9B3EA2DEF409E80ADEEDC53C4839A",1,"01990a9d-7588-7fef-9a02-777c74da3e46","01990a83-7673-7c0c-a792-bbd8fbbaf673","2025-09-02_09h33.06.805",NA,NA,797.2779,797.278,797.278,797.4866,NA,NA,NA,NA,NA,NA,NA,TRUE,1,1.3702,794.1793,797.2778,0,67,67,75,1,90,40,NA,NA,NA,NA,NA,1,68,"binary"
"9CD9B3EA2DEF409E80ADEEDC53C4839A",1,"01990a9d-7588-7fef-9a02-777c74da3e46","01990a83-7673-7c0c-a792-bbd8fbbaf673","2025-09-02_09h33.06.805",NA,NA,800.3282,800.3282,800.3282,800.7293,NA,NA,NA,NA,NA,NA,NA,TRUE,1,1.3227,797.4881,800.328,0,68,68,33,1,25,33,NA,NA,NA,NA,NA,1,69,"binary"
"9CD9B3EA2DEF409E80ADEEDC53C4839A",1,"01990a9d-7588-7fef-9a02-777c74da3e46","01990a83-7673-7c0c-a792-bbd8fbbaf673","2025-09-02_09h33.06.805",NA,NA,803.5403,803.5403,803.5403,804.174,NA,NA,NA,NA,NA,NA,NA,TRUE,2,1.0917,800.7303,803.5401,0,69,69,4,1,7,32,NA,NA,NA,NA,NA,1,70,"binary"
"9CD9B3EA2DEF409E80ADEEDC53C4839A",1,"01990a9d-7588-7fef-9a02-777c74da3e46","01990a83-7673-7c0c-a792-bbd8fbbaf673","2025-09-02_09h33.06.805",NA,NA,806.9788,806.9788,806.9788,807.5824,NA,NA,NA,NA,NA,NA,NA,TRUE,1,1.1283,804.1751,806.9786,0,70,70,66,1,60,29,NA,NA,NA,NA,NA,1,71,"binary"
"9CD9B3EA2DEF409E80ADEEDC53C4839A",1,"01990a9d-7588-7fef-9a02-777c74da3e46","01990a83-7673-7c0c-a792-bbd8fbbaf673","2025-09-02_09h33.06.805",NA,NA,810.415,810.4151,810.4151,810.8372,NA,NA,NA,NA,NA,NA,NA,TRUE,1,1.9604,807.5834,810.4149,0,71,71,8,1,10,27,NA,NA,NA,NA,NA,1,72,"binary"
"9CD9B3EA2DEF409E80ADEEDC53C4839A",1,"01990a9d-7588-7fef-9a02-777c74da3e46","01990a83-7673-7c0c-a792-bbd8fbbaf673","2025-09-02_09h33.06.805",NA,NA,813.8496,813.8496,813.8496,814.2528,NA,NA,NA,NA,NA,NA,NA,TRUE,1,1.5147,810.8383,813.8494,0,72,72,27,1,21,30,NA,NA,NA,NA,NA,1,73,"binary"
"9CD9B3EA2DEF409E80ADEEDC53C4839A",1,"01990a9d-7588-7fef-9a02-777c74da3e46","01990a83-7673-7c0c-a792-bbd8fbbaf673","2025-09-02_09h33.06.805",NA,NA,816.9669,816.9669,816.967,817.6072,NA,NA,NA,NA,NA,NA,NA,TRUE,1,1.3769,814.2542,816.9666,0,73,73,88,1,100,46,NA,NA,NA,NA,NA,1,74,"binary"
"9CD9B3EA2DEF409E80ADEEDC53C4839A",1,"01990a9d-7588-7fef-9a02-777c74da3e46","01990a83-7673-7c0c-a792-bbd8fbbaf673","2025-09-02_09h33.06.805",NA,NA,820.5828,820.5828,820.5828,821.0059,NA,NA,NA,NA,NA,NA,NA,TRUE,1,2.1423,817.6123,820.5825,0,74,74,50,1,40,35,NA,NA,NA,NA,NA,1,75,"binary"
"9CD9B3EA2DEF409E80ADEEDC53C4839A",1,"01990a9d-7588-7fef-9a02-777c74da3e46","01990a83-7673-7c0c-a792-bbd8fbbaf673","2025-09-02_09h33.06.805",NA,NA,823.807,823.8071,823.8071,824.2058,NA,NA,NA,NA,NA,NA,NA,TRUE,1,2.1543,821.0069,823.8068,0,75,75,19,1,14,26,NA,NA,NA,NA,NA,1,76,"binary"
"9CD9B3EA2DEF409E80ADEEDC53C4839A",1,"01990a9d-7588-7fef-9a02-777c74da3e46","01990a83-7673-7c0c-a792-bbd8fbbaf673","2025-09-02_09h33.06.805",NA,NA,827.192,827.192,827.1921,827.5959,NA,NA,NA,NA,NA,NA,NA,TRUE,1,1.3164,824.2068,827.1918,0,76,76,90,1,150,31,NA,NA,NA,NA,NA,1,77,"binary"
"9CD9B3EA2DEF409E80ADEEDC53C4839A",1,"01990a9d-7588-7fef-9a02-777c74da3e46","01990a83-7673-7c0c-a792-bbd8fbbaf673","2025-09-02_09h33.06.805",NA,NA,830.3435,830.3435,830.3435,830.957,NA,NA,NA,NA,NA,NA,NA,TRUE,1,1.5058,827.5969,830.3432,0,77,77,97,1,180,31,NA,NA,NA,NA,NA,1,78,"binary"
"9CD9B3EA2DEF409E80ADEEDC53C4839A",1,"01990a9d-7588-7fef-9a02-777c74da3e46","01990a83-7673-7c0c-a792-bbd8fbbaf673","2025-09-02_09h33.06.805",NA,NA,833.7601,833.7601,833.7601,834.3841,NA,NA,NA,NA,NA,NA,NA,TRUE,1,1.0907,830.958,833.7598,0,78,78,83,1,95,54,NA,NA,NA,NA,NA,1,79,"binary"
"9CD9B3EA2DEF409E80ADEEDC53C4839A",1,"01990a9d-7588-7fef-9a02-777c74da3e46","01990a83-7673-7c0c-a792-bbd8fbbaf673","2025-09-02_09h33.06.805",NA,NA,837.2027,837.2027,837.2027,837.6091,NA,NA,NA,NA,NA,NA,NA,TRUE,1,0.8703,834.3851,837.2025,0,79,79,107,1,200,54,NA,NA,NA,NA,NA,1,80,"binary"
"9CD9B3EA2DEF409E80ADEEDC53C4839A",1,"01990a9d-7588-7fef-9a02-777c74da3e46","01990a83-7673-7c0c-a792-bbd8fbbaf673","2025-09-02_09h33.06.805",NA,NA,840.5167,840.5167,840.5167,841.1375,NA,NA,NA,NA,NA,NA,NA,TRUE,1,0.6917,837.6103,840.5166,0,80,80,96,1,180,27,NA,NA,NA,NA,NA,1,81,"binary"
"9CD9B3EA2DEF409E80ADEEDC53C4839A",1,"01990a9d-7588-7fef-9a02-777c74da3e46","01990a83-7673-7c0c-a792-bbd8fbbaf673","2025-09-02_09h33.06.805",NA,NA,844.0848,844.0848,844.0848,844.2995,NA,NA,NA,NA,NA,NA,NA,TRUE,1,0.9827,841.1388,844.0846,0,81,81,100,1,180,46,NA,NA,NA,NA,NA,1,82,"binary"
"9CD9B3EA2DEF409E80ADEEDC53C4839A",1,"01990a9d-7588-7fef-9a02-777c74da3e46","01990a83-7673-7c0c-a792-bbd8fbbaf673","2025-09-02_09h33.06.805",NA,NA,847.2377,847.2377,847.2378,847.6407,NA,NA,NA,NA,NA,NA,NA,TRUE,1,0.8472,844.3006,847.2376,0,82,82,30,1,25,27,NA,NA,NA,NA,NA,1,83,"binary"
"9CD9B3EA2DEF409E80ADEEDC53C4839A",1,"01990a9d-7588-7fef-9a02-777c74da3e46","01990a83-7673-7c0c-a792-bbd8fbbaf673","2025-09-02_09h33.06.805",NA,NA,850.6422,850.6423,850.6423,851.0388,NA,NA,NA,NA,NA,NA,NA,TRUE,1,0.8597,847.6633,850.642,0,83,83,18,1,14,25,NA,NA,NA,NA,NA,1,84,"binary"
"9CD9B3EA2DEF409E80ADEEDC53C4839A",1,"01990a9d-7588-7fef-9a02-777c74da3e46","01990a83-7673-7c0c-a792-bbd8fbbaf673","2025-09-02_09h33.06.805",NA,NA,853.8822,853.8823,853.8823,854.4836,NA,NA,NA,NA,NA,NA,NA,TRUE,1,1.1226,851.0399,853.882,0,84,84,73,1,90,30,NA,NA,NA,NA,NA,1,85,"binary"
"9CD9B3EA2DEF409E80ADEEDC53C4839A",1,"01990a9d-7588-7fef-9a02-777c74da3e46","01990a83-7673-7c0c-a792-bbd8fbbaf673","2025-09-02_09h33.06.805",NA,NA,857.3411,857.7546,857.7546,857.7546,NA,NA,NA,NA,NA,NA,NA,FALSE,NA,NA,854.4847,857.3409,0,85,85,79,1,95,33,NA,NA,NA,NA,NA,1,86,"binary"
"9CD9B3EA2DEF409E80ADEEDC53C4839A",1,"01990a9d-7588-7fef-9a02-777c74da3e46","01990a83-7673-7c0c-a792-bbd8fbbaf673","2025-09-02_09h33.06.805",NA,NA,860.5116,860.5116,860.5116,861.0223,NA,NA,NA,NA,NA,NA,NA,TRUE,1,1.0959,857.7555,860.5113,0,86,86,7,1,10,26,NA,NA,NA,NA,NA,1,87,"binary"
"9CD9B3EA2DEF409E80ADEEDC53C4839A",1,"01990a9d-7588-7fef-9a02-777c74da3e46","01990a83-7673-7c0c-a792-bbd8fbbaf673","2025-09-02_09h33.06.805",NA,NA,863.7943,863.7943,863.7943,864.444,NA,NA,NA,NA,NA,NA,NA,TRUE,1,0.6546,861.0234,863.7941,0,87,87,71,1,60,54,NA,NA,NA,NA,NA,1,88,"binary"
"9CD9B3EA2DEF409E80ADEEDC53C4839A",1,"01990a9d-7588-7fef-9a02-777c74da3e46","01990a83-7673-7c0c-a792-bbd8fbbaf673","2025-09-02_09h33.06.805",NA,NA,867.4924,867.4924,867.4924,867.7043,NA,NA,NA,NA,NA,NA,NA,TRUE,1,0.9082,864.445,867.4922,0,88,88,12,1,12,25,NA,NA,NA,NA,NA,1,89,"binary"
"9CD9B3EA2DEF409E80ADEEDC53C4839A",1,"01990a9d-7588-7fef-9a02-777c74da3e46","01990a83-7673-7c0c-a792-bbd8fbbaf673","2025-09-02_09h33.06.805",NA,NA,870.7445,870.7446,870.7446,871.1659,NA,NA,NA,NA,NA,NA,NA,TRUE,1,0.69,867.7053,870.7443,0,89,89,47,1,30,38,NA,NA,NA,NA,NA,1,90,"binary"
"9CD9B3EA2DEF409E80ADEEDC53C4839A",1,"01990a9d-7588-7fef-9a02-777c74da3e46","01990a83-7673-7c0c-a792-bbd8fbbaf673","2025-09-02_09h33.06.805",NA,NA,874.1527,874.1527,874.1527,874.5711,NA,NA,NA,NA,NA,NA,NA,TRUE,1,0.8521,871.1671,874.1525,0,90,90,52,1,40,47,NA,NA,NA,NA,NA,1,91,"binary"
"9CD9B3EA2DEF409E80ADEEDC53C4839A",1,"01990a9d-7588-7fef-9a02-777c74da3e46","01990a83-7673-7c0c-a792-bbd8fbbaf673","2025-09-02_09h33.06.805",NA,NA,877.2416,877.2416,877.2416,877.8459,NA,NA,NA,NA,NA,NA,NA,TRUE,1,0.9163,874.572,877.2414,0,91,91,78,1,95,31,NA,NA,NA,NA,NA,1,92,"binary"
"9CD9B3EA2DEF409E80ADEEDC53C4839A",1,"01990a9d-7588-7fef-9a02-777c74da3e46","01990a83-7673-7c0c-a792-bbd8fbbaf673","2025-09-02_09h33.06.805",NA,NA,880.8155,880.8157,880.8157,881.2434,NA,NA,NA,NA,NA,NA,NA,TRUE,1,1.5208,877.8468,880.8153,0,92,92,77,1,90,54,NA,NA,NA,NA,NA,1,93,"binary"
"9CD9B3EA2DEF409E80ADEEDC53C4839A",1,"01990a9d-7588-7fef-9a02-777c74da3e46","01990a83-7673-7c0c-a792-bbd8fbbaf673","2025-09-02_09h33.06.805",NA,NA,884.2142,884.2145,884.2145,884.6175,NA,NA,NA,NA,NA,NA,NA,TRUE,1,0.8707,881.2444,884.214,0,93,93,65,1,50,54,NA,NA,NA,NA,NA,1,94,"binary"
"9CD9B3EA2DEF409E80ADEEDC53C4839A",1,"01990a9d-7588-7fef-9a02-777c74da3e46","01990a83-7673-7c0c-a792-bbd8fbbaf673","2025-09-02_09h33.06.805",NA,NA,887.4872,887.4872,887.4872,887.9281,NA,NA,NA,NA,NA,NA,NA,TRUE,1,2.6616,884.6185,887.487,0,94,94,22,1,14,35,NA,NA,NA,NA,NA,1,95,"binary"
"9CD9B3EA2DEF409E80ADEEDC53C4839A",1,"01990a9d-7588-7fef-9a02-777c74da3e46","01990a83-7673-7c0c-a792-bbd8fbbaf673","2025-09-02_09h33.06.805",NA,NA,890.9521,890.9521,890.9521,891.1521,NA,NA,NA,NA,NA,NA,NA,TRUE,1,1.3518,887.9293,890.9518,0,95,95,94,1,150,47,NA,NA,NA,NA,NA,1,96,"binary"
"9CD9B3EA2DEF409E80ADEEDC53C4839A",1,"01990a9d-7588-7fef-9a02-777c74da3e46","01990a83-7673-7c0c-a792-bbd8fbbaf673","2025-09-02_09h33.06.805",NA,NA,894.3375,894.3375,894.3376,894.5418,NA,NA,NA,NA,NA,NA,NA,TRUE,1,0.9052,891.1543,894.3373,0,96,96,87,1,100,39,NA,NA,NA,NA,NA,1,97,"binary"
"9CD9B3EA2DEF409E80ADEEDC53C4839A",1,"01990a9d-7588-7fef-9a02-777c74da3e46","01990a83-7673-7c0c-a792-bbd8fbbaf673","2025-09-02_09h33.06.805",NA,NA,897.5628,897.5628,897.5628,897.9855,NA,NA,NA,NA,NA,NA,NA,TRUE,1,2.726,894.5428,897.5625,0,97,97,3,1,7,30,NA,NA,NA,NA,NA,1,98,"binary"
"9CD9B3EA2DEF409E80ADEEDC53C4839A",1,"01990a9d-7588-7fef-9a02-777c74da3e46","01990a83-7673-7c0c-a792-bbd8fbbaf673","2025-09-02_09h33.06.805",NA,NA,901.0185,901.0186,901.0186,901.2275,NA,NA,NA,NA,NA,NA,NA,TRUE,1,0.6531,897.9864,901.0184,0,98,98,20,1,14,28,NA,NA,NA,NA,NA,1,99,"binary"
"9CD9B3EA2DEF409E80ADEEDC53C4839A",1,"01990a9d-7588-7fef-9a02-777c74da3e46","01990a83-7673-7c0c-a792-bbd8fbbaf673","2025-09-02_09h33.06.805",NA,NA,904.3066,904.3066,904.3066,904.7595,NA,NA,NA,NA,NA,NA,NA,TRUE,1,2.4346,901.2286,904.3064,0,99,99,24,1,21,26,NA,NA,NA,NA,NA,1,100,"binary"
"9CD9B3EA2DEF409E80ADEEDC53C4839A",1,"01990a9d-7588-7fef-9a02-777c74da3e46","01990a83-7673-7c0c-a792-bbd8fbbaf673","2025-09-02_09h33.06.805",NA,NA,907.4822,907.4823,907.4823,907.9052,NA,NA,NA,NA,NA,NA,NA,TRUE,1,0.9227,904.7608,907.4821,0,100,100,63,1,50,40,NA,NA,NA,NA,NA,1,101,"binary"
"9CD9B3EA2DEF409E80ADEEDC53C4839A",1,"01990a9d-7588-7fef-9a02-777c74da3e46","01990a83-7673-7c0c-a792-bbd8fbbaf673","2025-09-02_09h33.06.805",NA,NA,910.9891,910.9891,910.9891,911.4057,NA,NA,NA,NA,NA,NA,NA,TRUE,1,2.4775,907.9063,910.9889,0,101,101,72,1,90,26,NA,NA,NA,NA,NA,1,102,"binary"
"9CD9B3EA2DEF409E80ADEEDC53C4839A",1,"01990a9d-7588-7fef-9a02-777c74da3e46","01990a83-7673-7c0c-a792-bbd8fbbaf673","2025-09-02_09h33.06.805",NA,NA,914.2936,914.2936,914.2937,914.7063,NA,NA,NA,NA,NA,NA,NA,TRUE,1,1.1175,911.4067,914.2934,0,102,102,92,1,150,35,NA,NA,NA,NA,NA,1,103,"binary"
"9CD9B3EA2DEF409E80ADEEDC53C4839A",1,"01990a9d-7588-7fef-9a02-777c74da3e46","01990a83-7673-7c0c-a792-bbd8fbbaf673","2025-09-02_09h33.06.805",NA,NA,917.7745,917.7746,917.7746,918.2006,NA,NA,NA,NA,NA,NA,NA,TRUE,1,1.5732,914.7075,917.7743,0,103,103,98,1,180,35,NA,NA,NA,NA,NA,1,104,"binary"
"9CD9B3EA2DEF409E80ADEEDC53C4839A",1,"01990a9d-7588-7fef-9a02-777c74da3e46","01990a83-7673-7c0c-a792-bbd8fbbaf673","2025-09-02_09h33.06.805",NA,NA,921.1232,921.1232,921.1232,921.5482,NA,NA,NA,NA,NA,NA,NA,TRUE,1,2.4818,918.2072,921.1231,0,104,104,9,1,10,29,NA,NA,NA,NA,NA,1,105,"binary"
"9CD9B3EA2DEF409E80ADEEDC53C4839A",1,"01990a9d-7588-7fef-9a02-777c74da3e46","01990a83-7673-7c0c-a792-bbd8fbbaf673","2025-09-02_09h33.06.805",NA,NA,924.2139,924.2139,924.2139,924.8292,NA,NA,NA,NA,NA,NA,NA,TRUE,1,2.0075,921.5494,924.2137,0,105,105,76,1,90,46,NA,NA,NA,NA,NA,1,106,"binary"
"9CD9B3EA2DEF409E80ADEEDC53C4839A",1,"01990a9d-7588-7fef-9a02-777c74da3e46","01990a83-7673-7c0c-a792-bbd8fbbaf673","2025-09-02_09h33.06.805",NA,NA,927.6864,927.6865,927.6865,928.0966,NA,NA,NA,NA,NA,NA,NA,TRUE,1,0.4747,924.8302,927.6862,0,106,106,69,1,60,40,NA,NA,NA,NA,NA,1,107,"binary"
"9CD9B3EA2DEF409E80ADEEDC53C4839A",1,"01990a9d-7588-7fef-9a02-777c74da3e46","01990a83-7673-7c0c-a792-bbd8fbbaf673","2025-09-02_09h33.06.805",NA,NA,930.9952,930.9952,930.9952,931.4033,NA,NA,NA,NA,NA,NA,NA,TRUE,1,0.911,928.0977,930.995,0,107,107,37,1,28,28,NA,NA,NA,NA,NA,1,108,"binary"
"9CD9B3EA2DEF409E80ADEEDC53C4839A",1,"01990a9d-7588-7fef-9a02-777c74da3e46","01990a83-7673-7c0c-a792-bbd8fbbaf673","2025-09-02_09h33.06.805",NA,NA,2169.9308,2169.9308,2169.9308,2170.1325,NA,NA,NA,NA,NA,NA,NA,TRUE,1,1.7897,2166.84,2169.9306,NA,NA,NA,NA,NA,90,30,0,0,0,73,1,2,1,"binary"
"9CD9B3EA2DEF409E80ADEEDC53C4839A",1,"01990a9d-7588-7fef-9a02-777c74da3e46","01990a83-7673-7c0c-a792-bbd8fbbaf673","2025-09-02_09h33.06.805",NA,NA,2173.2016,2173.2016,2173.2016,2173.6443,NA,NA,NA,NA,NA,NA,NA,TRUE,1,0.6699,2170.1338,2173.2014,NA,NA,NA,NA,NA,180,35,0,1,1,98,1,2,2,"binary"
"9CD9B3EA2DEF409E80ADEEDC53C4839A",1,"01990a9d-7588-7fef-9a02-777c74da3e46","01990a83-7673-7c0c-a792-bbd8fbbaf673","2025-09-02_09h33.06.805",NA,NA,2176.3971,2176.3971,2176.3971,2176.7968,NA,NA,NA,NA,NA,NA,NA,TRUE,1,1.29,2173.6452,2176.3969,NA,NA,NA,NA,NA,12,31,0,2,2,15,1,2,3,"binary"
"9CD9B3EA2DEF409E80ADEEDC53C4839A",1,"01990a9d-7588-7fef-9a02-777c74da3e46","01990a83-7673-7c0c-a792-bbd8fbbaf673","2025-09-02_09h33.06.805",NA,NA,2179.6932,2179.6932,2179.6932,2180.1138,NA,NA,NA,NA,NA,NA,NA,TRUE,1,1.0923,2176.7978,2179.693,NA,NA,NA,NA,NA,30,27,0,3,3,43,1,2,4,"binary"
"9CD9B3EA2DEF409E80ADEEDC53C4839A",1,"01990a9d-7588-7fef-9a02-777c74da3e46","01990a83-7673-7c0c-a792-bbd8fbbaf673","2025-09-02_09h33.06.805",NA,NA,2183.1603,2183.1604,2183.1604,2183.595,NA,NA,NA,NA,NA,NA,NA,TRUE,1,0.8894,2180.1146,2183.1601,NA,NA,NA,NA,NA,30,38,0,4,4,47,1,2,5,"binary"
"9CD9B3EA2DEF409E80ADEEDC53C4839A",1,"01990a9d-7588-7fef-9a02-777c74da3e46","01990a83-7673-7c0c-a792-bbd8fbbaf673","2025-09-02_09h33.06.805",NA,NA,2186.4988,2186.4988,2186.4988,2186.9479,NA,NA,NA,NA,NA,NA,NA,TRUE,1,0.2504,2183.5962,2186.4986,NA,NA,NA,NA,NA,180,31,0,5,5,97,1,2,6,"binary"
"9CD9B3EA2DEF409E80ADEEDC53C4839A",1,"01990a9d-7588-7fef-9a02-777c74da3e46","01990a83-7673-7c0c-a792-bbd8fbbaf673","2025-09-02_09h33.06.805",NA,NA,2189.7664,2189.7664,2189.7664,2190.1783,NA,NA,NA,NA,NA,NA,NA,TRUE,1,1.2613,2186.9492,2189.7662,NA,NA,NA,NA,NA,150,47,0,6,6,94,1,2,7,"binary"
"9CD9B3EA2DEF409E80ADEEDC53C4839A",1,"01990a9d-7588-7fef-9a02-777c74da3e46","01990a83-7673-7c0c-a792-bbd8fbbaf673","2025-09-02_09h33.06.805",NA,NA,2193.2285,2193.2285,2193.2285,2193.6598,NA,NA,NA,NA,NA,NA,NA,TRUE,1,0.8734,2190.1794,2193.2282,NA,NA,NA,NA,NA,60,54,0,7,7,71,1,2,8,"binary"
"9CD9B3EA2DEF409E80ADEEDC53C4839A",1,"01990a9d-7588-7fef-9a02-777c74da3e46","01990a83-7673-7c0c-a792-bbd8fbbaf673","2025-09-02_09h33.06.805",NA,NA,2196.5257,2196.5257,2196.5258,2196.9516,NA,NA,NA,NA,NA,NA,NA,TRUE,1,1.813,2193.6609,2196.5256,NA,NA,NA,NA,NA,25,46,0,8,8,35,1,2,9,"binary"
"9CD9B3EA2DEF409E80ADEEDC53C4839A",1,"01990a9d-7588-7fef-9a02-777c74da3e46","01990a83-7673-7c0c-a792-bbd8fbbaf673","2025-09-02_09h33.06.805",NA,NA,2199.7681,2199.7682,2199.7682,2200.3912,NA,NA,NA,NA,NA,NA,NA,TRUE,1,2.3903,2196.9527,2199.7679,NA,NA,NA,NA,NA,30,29,0,9,9,44,1,2,10,"binary"
"9CD9B3EA2DEF409E80ADEEDC53C4839A",1,"01990a9d-7588-7fef-9a02-777c74da3e46","01990a83-7673-7c0c-a792-bbd8fbbaf673","2025-09-02_09h33.06.805",NA,NA,2203.2433,2203.2433,2203.2433,2203.6675,NA,NA,NA,NA,NA,NA,NA,TRUE,1,1.7906,2200.3921,2203.2432,NA,NA,NA,NA,NA,40,40,0,10,10,51,1,2,11,"binary"
"9CD9B3EA2DEF409E80ADEEDC53C4839A",1,"01990a9d-7588-7fef-9a02-777c74da3e46","01990a83-7673-7c0c-a792-bbd8fbbaf673","2025-09-02_09h33.06.805",NA,NA,2206.7363,2206.7364,2206.7364,2206.9444,NA,NA,NA,NA,NA,NA,NA,TRUE,1,1.1085,2203.6686,2206.7362,NA,NA,NA,NA,NA,180,39,0,11,11,99,1,2,12,"binary"
"9CD9B3EA2DEF409E80ADEEDC53C4839A",1,"01990a9d-7588-7fef-9a02-777c74da3e46","01990a83-7673-7c0c-a792-bbd8fbbaf673","2025-09-02_09h33.06.805",NA,NA,2209.8502,2209.8502,2209.8502,2210.4647,NA,NA,NA,NA,NA,NA,NA,TRUE,1,1.3914,2206.9453,2209.85,NA,NA,NA,NA,NA,14,39,0,12,12,23,1,2,13,"binary"
"9CD9B3EA2DEF409E80ADEEDC53C4839A",1,"01990a9d-7588-7fef-9a02-777c74da3e46","01990a83-7673-7c0c-a792-bbd8fbbaf673","2025-09-02_09h33.06.805",NA,NA,2213.3488,2213.3489,2213.3489,2213.7738,NA,NA,NA,NA,NA,NA,NA,TRUE,1,1.996,2210.4657,2213.3487,NA,NA,NA,NA,NA,150,54,0,13,13,95,1,2,14,"binary"
"9CD9B3EA2DEF409E80ADEEDC53C4839A",1,"01990a9d-7588-7fef-9a02-777c74da3e46","01990a83-7673-7c0c-a792-bbd8fbbaf673","2025-09-02_09h33.06.805",NA,NA,2216.5453,2216.5453,2216.5453,2217.0386,NA,NA,NA,NA,NA,NA,NA,TRUE,1,0.9296,2213.7749,2216.5451,NA,NA,NA,NA,NA,25,33,0,14,14,33,1,2,15,"binary"
"9CD9B3EA2DEF409E80ADEEDC53C4839A",1,"01990a9d-7588-7fef-9a02-777c74da3e46","01990a83-7673-7c0c-a792-bbd8fbbaf673","2025-09-02_09h33.06.805",NA,NA,2219.9166,2219.9167,2219.9167,2220.3322,NA,NA,NA,NA,NA,NA,NA,TRUE,1,0.4608,2217.0469,2219.9164,NA,NA,NA,NA,NA,60,33,0,15,15,67,1,2,16,"binary"
"9CD9B3EA2DEF409E80ADEEDC53C4839A",1,"01990a9d-7588-7fef-9a02-777c74da3e46","01990a83-7673-7c0c-a792-bbd8fbbaf673","2025-09-02_09h33.06.805",NA,NA,2223.3938,2223.3938,2223.3938,2223.8061,NA,NA,NA,NA,NA,NA,NA,TRUE,1,0.6684,2220.3352,2223.3936,NA,NA,NA,NA,NA,50,54,0,16,16,65,1,2,17,"binary"
"9CD9B3EA2DEF409E80ADEEDC53C4839A",1,"01990a9d-7588-7fef-9a02-777c74da3e46","01990a83-7673-7c0c-a792-bbd8fbbaf673","2025-09-02_09h33.06.805",NA,NA,2226.6101,2226.6101,2226.6101,2227.2292,NA,NA,NA,NA,NA,NA,NA,TRUE,1,1.7527,2223.8071,2226.61,NA,NA,NA,NA,NA,14,26,0,17,17,19,1,2,18,"binary"
"9CD9B3EA2DEF409E80ADEEDC53C4839A",1,"01990a9d-7588-7fef-9a02-777c74da3e46","01990a83-7673-7c0c-a792-bbd8fbbaf673","2025-09-02_09h33.06.805",NA,NA,2229.986,2229.986,2229.986,2230.3847,NA,NA,NA,NA,NA,NA,NA,TRUE,1,1.298,2227.2303,2229.9858,NA,NA,NA,NA,NA,28,32,0,18,18,38,1,2,19,"binary"
"9CD9B3EA2DEF409E80ADEEDC53C4839A",1,"01990a9d-7588-7fef-9a02-777c74da3e46","01990a83-7673-7c0c-a792-bbd8fbbaf673","2025-09-02_09h33.06.805",NA,NA,2233.619,2233.619,2233.619,2233.8327,NA,NA,NA,NA,NA,NA,NA,TRUE,1,0.8734,2230.3858,2233.6188,NA,NA,NA,NA,NA,14,28,0,19,19,20,1,2,20,"binary"
"9CD9B3EA2DEF409E80ADEEDC53C4839A",1,"01990a9d-7588-7fef-9a02-777c74da3e46","01990a83-7673-7c0c-a792-bbd8fbbaf673","2025-09-02_09h33.06.805",NA,NA,2236.8916,2236.8916,2236.8916,2237.0942,NA,NA,NA,NA,NA,NA,NA,TRUE,1,0.9161,2233.8337,2236.8913,NA,NA,NA,NA,NA,14,35,0,20,20,22,1,2,21,"binary"
"9CD9B3EA2DEF409E80ADEEDC53C4839A",1,"01990a9d-7588-7fef-9a02-777c74da3e46","01990a83-7673-7c0c-a792-bbd8fbbaf673","2025-09-02_09h33.06.805",NA,NA,2240.1307,2240.1307,2240.1307,2240.5426,NA,NA,NA,NA,NA,NA,NA,TRUE,1,0.8792,2237.0952,2240.1305,NA,NA,NA,NA,NA,12,25,0,21,21,12,1,2,22,"binary"
"9CD9B3EA2DEF409E80ADEEDC53C4839A",1,"01990a9d-7588-7fef-9a02-777c74da3e46","01990a83-7673-7c0c-a792-bbd8fbbaf673","2025-09-02_09h33.06.805",NA,NA,2243.5996,2243.5996,2243.5996,2243.8041,NA,NA,NA,NA,NA,NA,NA,TRUE,1,1.0773,2240.5435,2243.5994,NA,NA,NA,NA,NA,60,40,0,22,22,69,1,2,23,"binary"
"9CD9B3EA2DEF409E80ADEEDC53C4839A",1,"01990a9d-7588-7fef-9a02-777c74da3e46","01990a83-7673-7c0c-a792-bbd8fbbaf673","2025-09-02_09h33.06.805",NA,NA,2246.831,2246.831,2246.831,2247.2446,NA,NA,NA,NA,NA,NA,NA,TRUE,1,1.0796,2243.8051,2246.8308,NA,NA,NA,NA,NA,25,35,0,23,23,34,1,2,24,"binary"
"9CD9B3EA2DEF409E80ADEEDC53C4839A",1,"01990a9d-7588-7fef-9a02-777c74da3e46","01990a83-7673-7c0c-a792-bbd8fbbaf673","2025-09-02_09h33.06.805",NA,NA,2250.0162,2250.0162,2250.0162,2250.655,NA,NA,NA,NA,NA,NA,NA,TRUE,1,1.2991,2247.246,2250.0159,NA,NA,NA,NA,NA,100,54,0,24,24,89,1,2,25,"binary"
"9CD9B3EA2DEF409E80ADEEDC53C4839A",1,"01990a9d-7588-7fef-9a02-777c74da3e46","01990a83-7673-7c0c-a792-bbd8fbbaf673","2025-09-02_09h33.06.805",NA,NA,2253.4858,2253.4858,2253.4859,2253.9026,NA,NA,NA,NA,NA,NA,NA,TRUE,1,1.5487,2250.6561,2253.4856,NA,NA,NA,NA,NA,7,26,0,25,25,1,1,2,26,"binary"
"9CD9B3EA2DEF409E80ADEEDC53C4839A",1,"01990a9d-7588-7fef-9a02-777c74da3e46","01990a83-7673-7c0c-a792-bbd8fbbaf673","2025-09-02_09h33.06.805",NA,NA,2256.7845,2256.7845,2256.7845,2257.1973,NA,NA,NA,NA,NA,NA,NA,TRUE,1,1.3621,2253.904,2256.7843,NA,NA,NA,NA,NA,28,35,0,26,26,39,1,2,27,"binary"
"9CD9B3EA2DEF409E80ADEEDC53C4839A",1,"01990a9d-7588-7fef-9a02-777c74da3e46","01990a83-7673-7c0c-a792-bbd8fbbaf673","2025-09-02_09h33.06.805",NA,NA,2260.053,2260.053,2260.053,2260.6796,NA,NA,NA,NA,NA,NA,NA,TRUE,1,1.3006,2257.1985,2260.0527,NA,NA,NA,NA,NA,21,27,0,27,27,25,1,2,28,"binary"
"9CD9B3EA2DEF409E80ADEEDC53C4839A",1,"01990a9d-7588-7fef-9a02-777c74da3e46","01990a83-7673-7c0c-a792-bbd8fbbaf673","2025-09-02_09h33.06.805",NA,NA,2263.4755,2263.4755,2263.4755,2263.8938,NA,NA,NA,NA,NA,NA,NA,TRUE,1,1.2957,2260.6805,2263.4753,NA,NA,NA,NA,NA,14,25,0,28,28,18,1,2,29,"binary"
"9CD9B3EA2DEF409E80ADEEDC53C4839A",1,"01990a9d-7588-7fef-9a02-777c74da3e46","01990a83-7673-7c0c-a792-bbd8fbbaf673","2025-09-02_09h33.06.805",NA,NA,2266.8593,2266.8593,2266.8593,2267.2877,NA,NA,NA,NA,NA,NA,NA,TRUE,1,0.973,2263.8948,2266.859,NA,NA,NA,NA,NA,100,31,0,29,29,85,1,2,30,"binary"
"9CD9B3EA2DEF409E80ADEEDC53C4839A",1,"01990a9d-7588-7fef-9a02-777c74da3e46","01990a83-7673-7c0c-a792-bbd8fbbaf673","2025-09-02_09h33.06.805",NA,NA,2270.1253,2270.1253,2270.1253,2270.7435,NA,NA,NA,NA,NA,NA,NA,TRUE,1,0.8698,2267.2887,2270.1251,NA,NA,NA,NA,NA,40,54,0,30,30,53,1,2,31,"binary"
"9CD9B3EA2DEF409E80ADEEDC53C4839A",1,"01990a9d-7588-7fef-9a02-777c74da3e46","01990a83-7673-7c0c-a792-bbd8fbbaf673","2025-09-02_09h33.06.805",NA,NA,2273.4134,2273.4134,2273.4134,2274.0846,NA,NA,NA,NA,NA,NA,NA,TRUE,1,1.9768,2270.7445,2273.4131,NA,NA,NA,NA,NA,12,28,0,31,31,14,1,2,32,"binary"
"9CD9B3EA2DEF409E80ADEEDC53C4839A",1,"01990a9d-7588-7fef-9a02-777c74da3e46","01990a83-7673-7c0c-a792-bbd8fbbaf673","2025-09-02_09h33.06.805",NA,NA,2277.1854,2277.1855,2277.1855,2277.4011,NA,NA,NA,NA,NA,NA,NA,TRUE,1,1.3896,2274.0859,2277.1853,NA,NA,NA,NA,NA,200,47,0,32,32,106,1,2,33,"binary"
"9CD9B3EA2DEF409E80ADEEDC53C4839A",1,"01990a9d-7588-7fef-9a02-777c74da3e46","01990a83-7673-7c0c-a792-bbd8fbbaf673","2025-09-02_09h33.06.805",NA,NA,2280.3432,2280.3432,2280.3432,2280.7722,NA,NA,NA,NA,NA,NA,NA,TRUE,1,1.3321,2277.403,2280.343,NA,NA,NA,NA,NA,200,35,0,33,33,104,1,2,34,"binary"
"9CD9B3EA2DEF409E80ADEEDC53C4839A",1,"01990a9d-7588-7fef-9a02-777c74da3e46","01990a83-7673-7c0c-a792-bbd8fbbaf673","2025-09-02_09h33.06.805",NA,NA,2283.6059,2283.6059,2283.6059,2284.0379,NA,NA,NA,NA,NA,NA,NA,TRUE,1,1.3161,2280.7732,2283.6056,NA,NA,NA,NA,NA,10,25,0,34,34,6,1,2,35,"binary"
"9CD9B3EA2DEF409E80ADEEDC53C4839A",1,"01990a9d-7588-7fef-9a02-777c74da3e46","01990a83-7673-7c0c-a792-bbd8fbbaf673","2025-09-02_09h33.06.805",NA,NA,2287.127,2287.127,2287.127,2287.5406,NA,NA,NA,NA,NA,NA,NA,TRUE,1,0.7023,2284.04,2287.1268,NA,NA,NA,NA,NA,45,46,0,35,35,59,1,2,36,"binary"
"9CD9B3EA2DEF409E80ADEEDC53C4839A",1,"01990a9d-7588-7fef-9a02-777c74da3e46","01990a83-7673-7c0c-a792-bbd8fbbaf673","2025-09-02_09h33.06.805",NA,NA,2290.5089,2290.509,2290.509,2290.7139,NA,NA,NA,NA,NA,NA,NA,TRUE,1,1.4896,2287.5417,2290.5087,NA,NA,NA,NA,NA,100,26,0,36,36,84,1,2,37,"binary"
"9CD9B3EA2DEF409E80ADEEDC53C4839A",1,"01990a9d-7588-7fef-9a02-777c74da3e46","01990a83-7673-7c0c-a792-bbd8fbbaf673","2025-09-02_09h33.06.805",NA,NA,2293.8692,2293.8692,2293.8692,2294.0676,NA,NA,NA,NA,NA,NA,NA,TRUE,2,1.6758,2290.7151,2293.869,NA,NA,NA,NA,NA,7,35,0,37,37,5,1,2,38,"binary"
"9CD9B3EA2DEF409E80ADEEDC53C4839A",1,"01990a9d-7588-7fef-9a02-777c74da3e46","01990a83-7673-7c0c-a792-bbd8fbbaf673","2025-09-02_09h33.06.805",NA,NA,2297.0549,2297.055,2297.055,2297.4621,NA,NA,NA,NA,NA,NA,NA,TRUE,1,1.0816,2294.0688,2297.0548,NA,NA,NA,NA,NA,200,26,0,38,38,102,1,2,39,"binary"
"9CD9B3EA2DEF409E80ADEEDC53C4839A",1,"01990a9d-7588-7fef-9a02-777c74da3e46","01990a83-7673-7c0c-a792-bbd8fbbaf673","2025-09-02_09h33.06.805",NA,NA,2300.6021,2300.6021,2300.6021,2300.7967,NA,NA,NA,NA,NA,NA,NA,TRUE,1,1.0726,2297.4631,2300.6019,NA,NA,NA,NA,NA,30,32,0,39,39,46,1,2,40,"binary"
"9CD9B3EA2DEF409E80ADEEDC53C4839A",1,"01990a9d-7588-7fef-9a02-777c74da3e46","01990a83-7673-7c0c-a792-bbd8fbbaf673","2025-09-02_09h33.06.805",NA,NA,2303.7204,2303.7204,2303.7204,2304.1275,NA,NA,NA,NA,NA,NA,NA,TRUE,1,0.0047,2300.7977,2303.7201,NA,NA,NA,NA,NA,40,47,0,40,40,52,1,2,41,"binary"
"9CD9B3EA2DEF409E80ADEEDC53C4839A",1,"01990a9d-7588-7fef-9a02-777c74da3e46","01990a83-7673-7c0c-a792-bbd8fbbaf673","2025-09-02_09h33.06.805",NA,NA,2307.2724,2307.2724,2307.2724,2307.6864,NA,NA,NA,NA,NA,NA,NA,TRUE,1,0.8524,2304.1285,2307.2723,NA,NA,NA,NA,NA,95,47,0,41,41,82,1,2,42,"binary"
"9CD9B3EA2DEF409E80ADEEDC53C4839A",1,"01990a9d-7588-7fef-9a02-777c74da3e46","01990a83-7673-7c0c-a792-bbd8fbbaf673","2025-09-02_09h33.06.805",NA,NA,2310.6229,2310.623,2310.623,2311.0216,NA,NA,NA,NA,NA,NA,NA,TRUE,1,0.8728,2307.6875,2310.6228,NA,NA,NA,NA,NA,90,40,0,42,42,75,1,2,43,"binary"
"9CD9B3EA2DEF409E80ADEEDC53C4839A",1,"01990a9d-7588-7fef-9a02-777c74da3e46","01990a83-7673-7c0c-a792-bbd8fbbaf673","2025-09-02_09h33.06.805",NA,NA,2313.5674,2313.5674,2313.5675,2314.1588,NA,NA,NA,NA,NA,NA,NA,TRUE,1,1.0756,2311.0226,2313.5672,NA,NA,NA,NA,NA,10,32,0,43,43,11,1,2,44,"binary"
"9CD9B3EA2DEF409E80ADEEDC53C4839A",1,"01990a9d-7588-7fef-9a02-777c74da3e46","01990a83-7673-7c0c-a792-bbd8fbbaf673","2025-09-02_09h33.06.805",NA,NA,2317.1589,2317.159,2317.159,2317.5719,NA,NA,NA,NA,NA,NA,NA,TRUE,1,1.0733,2314.1598,2317.1587,NA,NA,NA,NA,NA,180,27,0,44,44,96,1,2,45,"binary"
"9CD9B3EA2DEF409E80ADEEDC53C4839A",1,"01990a9d-7588-7fef-9a02-777c74da3e46","01990a83-7673-7c0c-a792-bbd8fbbaf673","2025-09-02_09h33.06.805",NA,NA,2320.6348,2320.6349,2320.6349,2320.8379,NA,NA,NA,NA,NA,NA,NA,TRUE,1,1.3956,2317.573,2320.6346,NA,NA,NA,NA,NA,90,46,0,45,45,76,1,2,46,"binary"
"9CD9B3EA2DEF409E80ADEEDC53C4839A",1,"01990a9d-7588-7fef-9a02-777c74da3e46","01990a83-7673-7c0c-a792-bbd8fbbaf673","2025-09-02_09h33.06.805",NA,NA,2324.0136,2324.0136,2324.0136,2324.2186,NA,NA,NA,NA,NA,NA,NA,TRUE,1,1.0912,2320.8388,2324.0133,NA,NA,NA,NA,NA,40,27,0,46,46,48,1,2,47,"binary"
"9CD9B3EA2DEF409E80ADEEDC53C4839A",1,"01990a9d-7588-7fef-9a02-777c74da3e46","01990a83-7673-7c0c-a792-bbd8fbbaf673","2025-09-02_09h33.06.805",NA,NA,2327.2159,2327.2159,2327.2159,2327.6085,NA,NA,NA,NA,NA,NA,NA,TRUE,1,0.8831,2324.2197,2327.2157,NA,NA,NA,NA,NA,100,39,0,47,47,87,1,2,48,"binary"
"9CD9B3EA2DEF409E80ADEEDC53C4839A",1,"01990a9d-7588-7fef-9a02-777c74da3e46","01990a83-7673-7c0c-a792-bbd8fbbaf673","2025-09-02_09h33.06.805",NA,NA,2330.556,2330.5561,2330.5561,2331.1433,NA,NA,NA,NA,NA,NA,NA,TRUE,1,0.2183,2327.6094,2330.5559,NA,NA,NA,NA,NA,10,30,0,48,48,10,1,2,49,"binary"
"9CD9B3EA2DEF409E80ADEEDC53C4839A",1,"01990a9d-7588-7fef-9a02-777c74da3e46","01990a83-7673-7c0c-a792-bbd8fbbaf673","2025-09-02_09h33.06.805",NA,NA,2333.6965,2333.6965,2333.6965,2334.4909,NA,NA,NA,NA,NA,NA,NA,TRUE,1,1.0723,2331.1443,2333.6964,NA,NA,NA,NA,NA,90,26,0,49,49,72,1,2,50,"binary"
"9CD9B3EA2DEF409E80ADEEDC53C4839A",1,"01990a9d-7588-7fef-9a02-777c74da3e46","01990a83-7673-7c0c-a792-bbd8fbbaf673","2025-09-02_09h33.06.805",NA,NA,2337.4463,2337.4463,2337.4463,2337.6475,NA,NA,NA,NA,NA,NA,NA,TRUE,1,1.2613,2334.4919,2337.4461,NA,NA,NA,NA,NA,30,26,0,50,50,42,1,2,51,"binary"
"9CD9B3EA2DEF409E80ADEEDC53C4839A",1,"01990a9d-7588-7fef-9a02-777c74da3e46","01990a83-7673-7c0c-a792-bbd8fbbaf673","2025-09-02_09h33.06.805",NA,NA,2340.4792,2340.4792,2340.4792,2341.0785,NA,NA,NA,NA,NA,NA,NA,TRUE,1,1.3736,2337.6486,2340.479,NA,NA,NA,NA,NA,12,26,0,51,51,13,1,2,52,"binary"
"9CD9B3EA2DEF409E80ADEEDC53C4839A",1,"01990a9d-7588-7fef-9a02-777c74da3e46","01990a83-7673-7c0c-a792-bbd8fbbaf673","2025-09-02_09h33.06.805",NA,NA,2344.0478,2344.0478,2344.0478,2344.4432,NA,NA,NA,NA,NA,NA,NA,TRUE,1,1.2806,2341.0797,2344.0476,NA,NA,NA,NA,NA,30,30,0,52,52,45,1,2,53,"binary"
"9CD9B3EA2DEF409E80ADEEDC53C4839A",1,"01990a9d-7588-7fef-9a02-777c74da3e46","01990a83-7673-7c0c-a792-bbd8fbbaf673","2025-09-02_09h33.06.805",NA,NA,2347.4188,2347.4195,2347.4195,2347.8159,NA,NA,NA,NA,NA,NA,NA,TRUE,2,1.5325,2344.4442,2347.4185,NA,NA,NA,NA,NA,12,35,0,53,53,17,1,2,54,"binary"
"9CD9B3EA2DEF409E80ADEEDC53C4839A",1,"01990a9d-7588-7fef-9a02-777c74da3e46","01990a83-7673-7c0c-a792-bbd8fbbaf673","2025-09-02_09h33.06.805",NA,NA,2350.5645,2350.5645,2350.5645,2351.1582,NA,NA,NA,NA,NA,NA,NA,TRUE,2,1.712,2347.817,2350.5643,NA,NA,NA,NA,NA,12,33,0,54,54,16,1,2,55,"binary"
"9CD9B3EA2DEF409E80ADEEDC53C4839A",1,"01990a9d-7588-7fef-9a02-777c74da3e46","01990a83-7673-7c0c-a792-bbd8fbbaf673","2025-09-02_09h33.06.805",NA,NA,2353.8868,2353.8868,2353.8868,2354.4768,NA,NA,NA,NA,NA,NA,NA,TRUE,1,1.2423,2351.1596,2353.8865,NA,NA,NA,NA,NA,150,35,0,55,55,92,1,2,56,"binary"
"9CD9B3EA2DEF409E80ADEEDC53C4839A",1,"01990a9d-7588-7fef-9a02-777c74da3e46","01990a83-7673-7c0c-a792-bbd8fbbaf673","2025-09-02_09h33.06.805",NA,NA,2357.4466,2357.4467,2357.4467,2357.8497,NA,NA,NA,NA,NA,NA,NA,TRUE,1,1.4956,2354.5032,2357.4464,NA,NA,NA,NA,NA,7,25,0,56,56,0,1,2,57,"binary"
"9CD9B3EA2DEF409E80ADEEDC53C4839A",1,"01990a9d-7588-7fef-9a02-777c74da3e46","01990a83-7673-7c0c-a792-bbd8fbbaf673","2025-09-02_09h33.06.805",NA,NA,2360.6808,2360.6808,2360.6808,2361.0953,NA,NA,NA,NA,NA,NA,NA,TRUE,1,1.7115,2357.8511,2360.6805,NA,NA,NA,NA,NA,14,32,0,57,57,21,1,2,58,"binary"
"9CD9B3EA2DEF409E80ADEEDC53C4839A",1,"01990a9d-7588-7fef-9a02-777c74da3e46","01990a83-7673-7c0c-a792-bbd8fbbaf673","2025-09-02_09h33.06.805",NA,NA,2364.0665,2364.0665,2364.0665,2364.4902,NA,NA,NA,NA,NA,NA,NA,TRUE,1,2.1212,2361.0963,2364.0663,NA,NA,NA,NA,NA,25,27,0,58,58,30,1,2,59,"binary"
"9CD9B3EA2DEF409E80ADEEDC53C4839A",1,"01990a9d-7588-7fef-9a02-777c74da3e46","01990a83-7673-7c0c-a792-bbd8fbbaf673","2025-09-02_09h33.06.805",NA,NA,2367.4931,2367.4931,2367.4931,2367.9167,NA,NA,NA,NA,NA,NA,NA,TRUE,1,1.3003,2364.4913,2367.4929,NA,NA,NA,NA,NA,200,39,0,59,59,105,1,2,60,"binary"
"9CD9B3EA2DEF409E80ADEEDC53C4839A",1,"01990a9d-7588-7fef-9a02-777c74da3e46","01990a83-7673-7c0c-a792-bbd8fbbaf673","2025-09-02_09h33.06.805",NA,NA,2370.8624,2370.8625,2370.8625,2371.2742,NA,NA,NA,NA,NA,NA,NA,TRUE,1,1.4765,2367.9178,2370.8622,NA,NA,NA,NA,NA,60,35,0,60,60,68,1,2,61,"binary"
"9CD9B3EA2DEF409E80ADEEDC53C4839A",1,"01990a9d-7588-7fef-9a02-777c74da3e46","01990a83-7673-7c0c-a792-bbd8fbbaf673","2025-09-02_09h33.06.805",NA,NA,2374.1198,2374.1198,2374.1198,2374.5517,NA,NA,NA,NA,NA,NA,NA,TRUE,1,1.1788,2371.2758,2374.1195,NA,NA,NA,NA,NA,150,40,0,61,61,93,1,2,62,"binary"
"9CD9B3EA2DEF409E80ADEEDC53C4839A",1,"01990a9d-7588-7fef-9a02-777c74da3e46","01990a83-7673-7c0c-a792-bbd8fbbaf673","2025-09-02_09h33.06.805",NA,NA,2377.6446,2377.6447,2377.6447,2377.8462,NA,NA,NA,NA,NA,NA,NA,TRUE,1,1.2906,2374.5526,2377.6444,NA,NA,NA,NA,NA,95,54,0,62,62,83,1,2,63,"binary"
"9CD9B3EA2DEF409E80ADEEDC53C4839A",1,"01990a9d-7588-7fef-9a02-777c74da3e46","01990a83-7673-7c0c-a792-bbd8fbbaf673","2025-09-02_09h33.06.805",NA,NA,2380.8364,2380.8364,2380.8364,2381.2771,NA,NA,NA,NA,NA,NA,NA,TRUE,1,0.6652,2377.8473,2380.8362,NA,NA,NA,NA,NA,180,54,0,63,63,101,1,2,64,"binary"
"9CD9B3EA2DEF409E80ADEEDC53C4839A",1,"01990a9d-7588-7fef-9a02-777c74da3e46","01990a83-7673-7c0c-a792-bbd8fbbaf673","2025-09-02_09h33.06.805",NA,NA,2384.2243,2384.2244,2384.2244,2384.623,NA,NA,NA,NA,NA,NA,NA,TRUE,1,0.8592,2381.2782,2384.2241,NA,NA,NA,NA,NA,21,38,0,64,64,29,1,2,65,"binary"
"9CD9B3EA2DEF409E80ADEEDC53C4839A",1,"01990a9d-7588-7fef-9a02-777c74da3e46","01990a83-7673-7c0c-a792-bbd8fbbaf673","2025-09-02_09h33.06.805",NA,NA,2387.596,2387.596,2387.596,2388.0003,NA,NA,NA,NA,NA,NA,NA,TRUE,1,0.8759,2384.6241,2387.5959,NA,NA,NA,NA,NA,28,28,0,65,65,37,1,2,66,"binary"
"9CD9B3EA2DEF409E80ADEEDC53C4839A",1,"01990a9d-7588-7fef-9a02-777c74da3e46","01990a83-7673-7c0c-a792-bbd8fbbaf673","2025-09-02_09h33.06.805",NA,NA,2390.8293,2390.8293,2390.8293,2391.2309,NA,NA,NA,NA,NA,NA,NA,TRUE,1,1.13,2388.0015,2390.8291,NA,NA,NA,NA,NA,100,38,0,66,66,86,1,2,67,"binary"
"9CD9B3EA2DEF409E80ADEEDC53C4839A",1,"01990a9d-7588-7fef-9a02-777c74da3e46","01990a83-7673-7c0c-a792-bbd8fbbaf673","2025-09-02_09h33.06.805",NA,NA,2394.2514,2394.2514,2394.2514,2394.6665,NA,NA,NA,NA,NA,NA,NA,TRUE,2,1.3132,2391.2319,2394.2512,NA,NA,NA,NA,NA,7,30,0,67,67,3,1,2,68,"binary"
"9CD9B3EA2DEF409E80ADEEDC53C4839A",1,"01990a9d-7588-7fef-9a02-777c74da3e46","01990a83-7673-7c0c-a792-bbd8fbbaf673","2025-09-02_09h33.06.805",NA,NA,2397.5269,2397.5269,2397.5269,2398.1244,NA,NA,NA,NA,NA,NA,NA,TRUE,1,1.2503,2394.6675,2397.5267,NA,NA,NA,NA,NA,60,29,0,68,68,66,1,2,69,"binary"
"9CD9B3EA2DEF409E80ADEEDC53C4839A",1,"01990a9d-7588-7fef-9a02-777c74da3e46","01990a83-7673-7c0c-a792-bbd8fbbaf673","2025-09-02_09h33.06.805",NA,NA,2400.6674,2400.6674,2400.6674,2401.2742,NA,NA,NA,NA,NA,NA,NA,TRUE,1,1.0432,2398.1253,2400.6673,NA,NA,NA,NA,NA,45,26,0,69,69,54,1,2,70,"binary"
"9CD9B3EA2DEF409E80ADEEDC53C4839A",1,"01990a9d-7588-7fef-9a02-777c74da3e46","01990a83-7673-7c0c-a792-bbd8fbbaf673","2025-09-02_09h33.06.805",NA,NA,2404.3411,2404.3411,2404.3411,2404.7566,NA,NA,NA,NA,NA,NA,NA,TRUE,1,0.8952,2401.2752,2404.341,NA,NA,NA,NA,NA,45,31,0,70,70,56,1,2,71,"binary"
"9CD9B3EA2DEF409E80ADEEDC53C4839A",1,"01990a9d-7588-7fef-9a02-777c74da3e46","01990a83-7673-7c0c-a792-bbd8fbbaf673","2025-09-02_09h33.06.805",NA,NA,2407.5099,2407.5099,2407.5099,2408.1145,NA,NA,NA,NA,NA,NA,NA,TRUE,1,1.0571,2404.7577,2407.5097,NA,NA,NA,NA,NA,95,33,0,71,71,79,1,2,72,"binary"
"9CD9B3EA2DEF409E80ADEEDC53C4839A",1,"01990a9d-7588-7fef-9a02-777c74da3e46","01990a83-7673-7c0c-a792-bbd8fbbaf673","2025-09-02_09h33.06.805",NA,NA,2411.058,2411.0581,2411.0581,2411.4698,NA,NA,NA,NA,NA,NA,NA,TRUE,1,1.3079,2408.1155,2411.0578,NA,NA,NA,NA,NA,21,26,0,72,72,24,1,2,73,"binary"
"9CD9B3EA2DEF409E80ADEEDC53C4839A",1,"01990a9d-7588-7fef-9a02-777c74da3e46","01990a83-7673-7c0c-a792-bbd8fbbaf673","2025-09-02_09h33.06.805",NA,NA,2414.2643,2414.2643,2414.2643,2414.6703,NA,NA,NA,NA,NA,NA,NA,TRUE,1,1.0702,2411.4709,2414.2641,NA,NA,NA,NA,NA,50,35,0,73,73,62,1,2,74,"binary"
"9CD9B3EA2DEF409E80ADEEDC53C4839A",1,"01990a9d-7588-7fef-9a02-777c74da3e46","01990a83-7673-7c0c-a792-bbd8fbbaf673","2025-09-02_09h33.06.805",NA,NA,2417.5094,2417.5094,2417.5094,2418.1666,NA,NA,NA,NA,NA,NA,NA,TRUE,1,1.1182,2414.6714,2417.5091,NA,NA,NA,NA,NA,150,33,0,74,74,91,1,2,75,"binary"
"9CD9B3EA2DEF409E80ADEEDC53C4839A",1,"01990a9d-7588-7fef-9a02-777c74da3e46","01990a83-7673-7c0c-a792-bbd8fbbaf673","2025-09-02_09h33.06.805",NA,NA,2421.0151,2421.0151,2421.0151,2421.4328,NA,NA,NA,NA,NA,NA,NA,TRUE,1,1.0943,2418.1678,2421.0149,NA,NA,NA,NA,NA,200,54,0,75,75,107,1,2,76,"binary"
"9CD9B3EA2DEF409E80ADEEDC53C4839A",1,"01990a9d-7588-7fef-9a02-777c74da3e46","01990a83-7673-7c0c-a792-bbd8fbbaf673","2025-09-02_09h33.06.805",NA,NA,2424.266,2424.266,2424.266,2424.9603,NA,NA,NA,NA,NA,NA,NA,TRUE,1,2.1254,2421.4339,2424.2656,NA,NA,NA,NA,NA,45,40,0,76,76,58,1,2,77,"binary"
"9CD9B3EA2DEF409E80ADEEDC53C4839A",1,"01990a9d-7588-7fef-9a02-777c74da3e46","01990a83-7673-7c0c-a792-bbd8fbbaf673","2025-09-02_09h33.06.805",NA,NA,2427.6175,2427.6176,2427.6176,2428.0347,NA,NA,NA,NA,NA,NA,NA,TRUE,1,1.5714,2424.9619,2427.6174,NA,NA,NA,NA,NA,21,29,0,77,77,26,1,2,78,"binary"
"9CD9B3EA2DEF409E80ADEEDC53C4839A",1,"01990a9d-7588-7fef-9a02-777c74da3e46","01990a83-7673-7c0c-a792-bbd8fbbaf673","2025-09-02_09h33.06.805",NA,NA,2431.0672,2431.0672,2431.0672,2431.4846,NA,NA,NA,NA,NA,NA,NA,TRUE,1,1.2901,2428.0358,2431.067,NA,NA,NA,NA,NA,10,26,0,78,78,7,1,2,79,"binary"
"9CD9B3EA2DEF409E80ADEEDC53C4839A",1,"01990a9d-7588-7fef-9a02-777c74da3e46","01990a83-7673-7c0c-a792-bbd8fbbaf673","2025-09-02_09h33.06.805",NA,NA,2434.5012,2434.5012,2434.5012,2434.9529,NA,NA,NA,NA,NA,NA,NA,TRUE,1,1.5128,2431.4856,2434.501,NA,NA,NA,NA,NA,21,30,0,79,79,27,1,2,80,"binary"
"9CD9B3EA2DEF409E80ADEEDC53C4839A",1,"01990a9d-7588-7fef-9a02-777c74da3e46","01990a83-7673-7c0c-a792-bbd8fbbaf673","2025-09-02_09h33.06.805",NA,NA,2437.6642,2437.6642,2437.6643,2438.3021,NA,NA,NA,NA,NA,NA,NA,TRUE,1,1.1629,2434.9542,2437.6641,NA,NA,NA,NA,NA,180,46,0,80,80,100,1,2,81,"binary"
"9CD9B3EA2DEF409E80ADEEDC53C4839A",1,"01990a9d-7588-7fef-9a02-777c74da3e46","01990a83-7673-7c0c-a792-bbd8fbbaf673","2025-09-02_09h33.06.805",NA,NA,2441.105,2441.105,2441.105,2441.5322,NA,NA,NA,NA,NA,NA,NA,TRUE,1,0.8869,2438.3032,2441.1048,NA,NA,NA,NA,NA,60,47,0,81,81,70,1,2,82,"binary"
"9CD9B3EA2DEF409E80ADEEDC53C4839A",1,"01990a9d-7588-7fef-9a02-777c74da3e46","01990a83-7673-7c0c-a792-bbd8fbbaf673","2025-09-02_09h33.06.805",NA,NA,2444.5877,2444.5877,2444.5877,2444.793,NA,NA,NA,NA,NA,NA,NA,TRUE,1,1.1216,2441.5334,2444.5875,NA,NA,NA,NA,NA,50,27,0,82,82,60,1,2,83,"binary"
"9CD9B3EA2DEF409E80ADEEDC53C4839A",1,"01990a9d-7588-7fef-9a02-777c74da3e46","01990a83-7673-7c0c-a792-bbd8fbbaf673","2025-09-02_09h33.06.805",NA,NA,2447.844,2447.844,2447.844,2448.2496,NA,NA,NA,NA,NA,NA,NA,TRUE,1,0.932,2444.7964,2447.8438,NA,NA,NA,NA,NA,95,31,0,83,83,78,1,2,84,"binary"
"9CD9B3EA2DEF409E80ADEEDC53C4839A",1,"01990a9d-7588-7fef-9a02-777c74da3e46","01990a83-7673-7c0c-a792-bbd8fbbaf673","2025-09-02_09h33.06.805",NA,NA,2451.2342,2451.2342,2451.2342,2451.683,NA,NA,NA,NA,NA,NA,NA,TRUE,1,1.0688,2448.2506,2451.2339,NA,NA,NA,NA,NA,150,31,0,84,84,90,1,2,85,"binary"
"9CD9B3EA2DEF409E80ADEEDC53C4839A",1,"01990a9d-7588-7fef-9a02-777c74da3e46","01990a83-7673-7c0c-a792-bbd8fbbaf673","2025-09-02_09h33.06.805",NA,NA,2454.5036,2454.5037,2454.5037,2454.9605,NA,NA,NA,NA,NA,NA,NA,TRUE,1,1.0858,2451.6842,2454.5035,NA,NA,NA,NA,NA,95,35,0,85,85,80,1,2,86,"binary"
"9CD9B3EA2DEF409E80ADEEDC53C4839A",1,"01990a9d-7588-7fef-9a02-777c74da3e46","01990a83-7673-7c0c-a792-bbd8fbbaf673","2025-09-02_09h33.06.805",NA,NA,2458.0528,2458.0528,2458.0528,2458.2615,NA,NA,NA,NA,NA,NA,NA,TRUE,1,0.9029,2454.9619,2458.0526,NA,NA,NA,NA,NA,25,29,0,86,86,31,1,2,87,"binary"
"9CD9B3EA2DEF409E80ADEEDC53C4839A",1,"01990a9d-7588-7fef-9a02-777c74da3e46","01990a83-7673-7c0c-a792-bbd8fbbaf673","2025-09-02_09h33.06.805",NA,NA,2461.3663,2461.3664,2461.3664,2461.7742,NA,NA,NA,NA,NA,NA,NA,TRUE,1,0.9107,2458.2625,2461.3661,NA,NA,NA,NA,NA,90,33,0,87,87,74,1,2,88,"binary"
"9CD9B3EA2DEF409E80ADEEDC53C4839A",1,"01990a9d-7588-7fef-9a02-777c74da3e46","01990a83-7673-7c0c-a792-bbd8fbbaf673","2025-09-02_09h33.06.805",NA,NA,2464.6309,2464.6309,2464.6309,2465.0563,NA,NA,NA,NA,NA,NA,NA,TRUE,1,0.8824,2461.7752,2464.6306,NA,NA,NA,NA,NA,28,39,0,88,88,40,1,2,89,"binary"
"9CD9B3EA2DEF409E80ADEEDC53C4839A",1,"01990a9d-7588-7fef-9a02-777c74da3e46","01990a83-7673-7c0c-a792-bbd8fbbaf673","2025-09-02_09h33.06.805",NA,NA,2467.7762,2467.7762,2467.7762,2468.4124,NA,NA,NA,NA,NA,NA,NA,TRUE,1,1.309,2465.0573,2467.7761,NA,NA,NA,NA,NA,21,32,0,89,89,28,1,2,90,"binary"
"9CD9B3EA2DEF409E80ADEEDC53C4839A",1,"01990a9d-7588-7fef-9a02-777c74da3e46","01990a83-7673-7c0c-a792-bbd8fbbaf673","2025-09-02_09h33.06.805",NA,NA,2471.3372,2471.3373,2471.3373,2471.771,NA,NA,NA,NA,NA,NA,NA,TRUE,1,0.8946,2468.4136,2471.337,NA,NA,NA,NA,NA,40,35,0,90,90,50,1,2,91,"binary"
"9CD9B3EA2DEF409E80ADEEDC53C4839A",1,"01990a9d-7588-7fef-9a02-777c74da3e46","01990a83-7673-7c0c-a792-bbd8fbbaf673","2025-09-02_09h33.06.805",NA,NA,2474.4234,2474.4235,2474.4235,2475.085,NA,NA,NA,NA,NA,NA,NA,TRUE,1,0.9068,2471.7719,2474.4232,NA,NA,NA,NA,NA,28,46,0,91,91,41,1,2,92,"binary"
"9CD9B3EA2DEF409E80ADEEDC53C4839A",1,"01990a9d-7588-7fef-9a02-777c74da3e46","01990a83-7673-7c0c-a792-bbd8fbbaf673","2025-09-02_09h33.06.805",NA,NA,2477.7769,2477.7769,2477.7769,2478.4042,NA,NA,NA,NA,NA,NA,NA,TRUE,1,1.3624,2475.086,2477.7768,NA,NA,NA,NA,NA,50,46,0,92,92,64,1,2,93,"binary"
"9CD9B3EA2DEF409E80ADEEDC53C4839A",1,"01990a9d-7588-7fef-9a02-777c74da3e46","01990a83-7673-7c0c-a792-bbd8fbbaf673","2025-09-02_09h33.06.805",NA,NA,2481.3966,2481.3966,2481.3966,2481.8114,NA,NA,NA,NA,NA,NA,NA,TRUE,1,1.084,2478.4056,2481.3964,NA,NA,NA,NA,NA,28,26,0,93,93,36,1,2,94,"binary"
"9CD9B3EA2DEF409E80ADEEDC53C4839A",1,"01990a9d-7588-7fef-9a02-777c74da3e46","01990a83-7673-7c0c-a792-bbd8fbbaf673","2025-09-02_09h33.06.805",NA,NA,2484.6239,2484.6239,2484.6239,2485.0408,NA,NA,NA,NA,NA,NA,NA,TRUE,1,1.0878,2481.8125,2484.6237,NA,NA,NA,NA,NA,200,28,0,94,94,103,1,2,95,"binary"
"9CD9B3EA2DEF409E80ADEEDC53C4839A",1,"01990a9d-7588-7fef-9a02-777c74da3e46","01990a83-7673-7c0c-a792-bbd8fbbaf673","2025-09-02_09h33.06.805",NA,NA,2488.1502,2488.1503,2488.1503,2488.3582,NA,NA,NA,NA,NA,NA,NA,TRUE,1,0.6701,2485.0418,2488.15,NA,NA,NA,NA,NA,50,30,0,95,95,61,1,2,96,"binary"
"9CD9B3EA2DEF409E80ADEEDC53C4839A",1,"01990a9d-7588-7fef-9a02-777c74da3e46","01990a83-7673-7c0c-a792-bbd8fbbaf673","2025-09-02_09h33.06.805",NA,NA,2491.4006,2491.4006,2491.4006,2491.8379,NA,NA,NA,NA,NA,NA,NA,TRUE,1,1.9554,2488.3592,2491.4004,NA,NA,NA,NA,NA,10,27,0,96,96,8,1,2,97,"binary"
"9CD9B3EA2DEF409E80ADEEDC53C4839A",1,"01990a9d-7588-7fef-9a02-777c74da3e46","01990a83-7673-7c0c-a792-bbd8fbbaf673","2025-09-02_09h33.06.805",NA,NA,2494.627,2494.627,2494.627,2495.0406,NA,NA,NA,NA,NA,NA,NA,TRUE,1,1.2785,2491.8389,2494.6269,NA,NA,NA,NA,NA,100,46,0,97,97,88,1,2,98,"binary"
"9CD9B3EA2DEF409E80ADEEDC53C4839A",1,"01990a9d-7588-7fef-9a02-777c74da3e46","01990a83-7673-7c0c-a792-bbd8fbbaf673","2025-09-02_09h33.06.805",NA,NA,2498.0298,2498.0299,2498.0299,2498.4519,NA,NA,NA,NA,NA,NA,NA,TRUE,1,0.7857,2495.0419,2498.0296,NA,NA,NA,NA,NA,50,40,0,98,98,63,1,2,99,"binary"
"9CD9B3EA2DEF409E80ADEEDC53C4839A",1,"01990a9d-7588-7fef-9a02-777c74da3e46","01990a83-7673-7c0c-a792-bbd8fbbaf673","2025-09-02_09h33.06.805",NA,NA,2501.2216,2501.2217,2501.2217,2501.8496,NA,NA,NA,NA,NA,NA,NA,TRUE,1,0.2247,2498.4531,2501.2215,NA,NA,NA,NA,NA,7,28,0,99,99,2,1,2,100,"binary"
"9CD9B3EA2DEF409E80ADEEDC53C4839A",1,"01990a9d-7588-7fef-9a02-777c74da3e46","01990a83-7673-7c0c-a792-bbd8fbbaf673","2025-09-02_09h33.06.805",NA,NA,2504.635,2504.635,2504.635,2505.2457,NA,NA,NA,NA,NA,NA,NA,TRUE,1,1.2968,2501.8507,2504.6347,NA,NA,NA,NA,NA,25,31,0,100,100,32,1,2,101,"binary"
"9CD9B3EA2DEF409E80ADEEDC53C4839A",1,"01990a9d-7588-7fef-9a02-777c74da3e46","01990a83-7673-7c0c-a792-bbd8fbbaf673","2025-09-02_09h33.06.805",NA,NA,2508.0882,2508.0882,2508.0882,2508.4917,NA,NA,NA,NA,NA,NA,NA,TRUE,1,1.315,2505.2466,2508.088,NA,NA,NA,NA,NA,45,29,0,101,101,55,1,2,102,"binary"
"9CD9B3EA2DEF409E80ADEEDC53C4839A",1,"01990a9d-7588-7fef-9a02-777c74da3e46","01990a83-7673-7c0c-a792-bbd8fbbaf673","2025-09-02_09h33.06.805",NA,NA,2511.4599,2511.4599,2511.4599,2511.8621,NA,NA,NA,NA,NA,NA,NA,TRUE,1,0.8628,2508.4927,2511.4597,NA,NA,NA,NA,NA,90,54,0,102,102,77,1,2,103,"binary"
"9CD9B3EA2DEF409E80ADEEDC53C4839A",1,"01990a9d-7588-7fef-9a02-777c74da3e46","01990a83-7673-7c0c-a792-bbd8fbbaf673","2025-09-02_09h33.06.805",NA,NA,2514.8584,2514.8584,2514.8584,2515.276,NA,NA,NA,NA,NA,NA,NA,TRUE,1,0.8743,2511.8631,2514.8582,NA,NA,NA,NA,NA,10,29,0,103,103,9,1,2,104,"binary"
"9CD9B3EA2DEF409E80ADEEDC53C4839A",1,"01990a9d-7588-7fef-9a02-777c74da3e46","01990a83-7673-7c0c-a792-bbd8fbbaf673","2025-09-02_09h33.06.805",NA,NA,2518.1171,2518.5242,2518.5243,2518.5288,NA,NA,NA,NA,NA,NA,NA,FALSE,NA,NA,2515.2771,2518.1168,NA,NA,NA,NA,NA,45,35,0,104,104,57,1,2,105,"binary"
"9CD9B3EA2DEF409E80ADEEDC53C4839A",1,"01990a9d-7588-7fef-9a02-777c74da3e46","01990a83-7673-7c0c-a792-bbd8fbbaf673","2025-09-02_09h33.06.805",NA,NA,2521.5464,2521.5464,2521.5464,2521.9902,NA,NA,NA,NA,NA,NA,NA,TRUE,1,1.3298,2518.53,2521.5462,NA,NA,NA,NA,NA,7,32,0,105,105,4,1,2,106,"binary"
"9CD9B3EA2DEF409E80ADEEDC53C4839A",1,"01990a9d-7588-7fef-9a02-777c74da3e46","01990a83-7673-7c0c-a792-bbd8fbbaf673","2025-09-02_09h33.06.805",NA,NA,2524.8693,2524.8693,2524.8693,2525.2761,NA,NA,NA,NA,NA,NA,NA,TRUE,1,1.3203,2521.9912,2524.8692,NA,NA,NA,NA,NA,95,40,0,106,106,81,1,2,107,"binary"
"9CD9B3EA2DEF409E80ADEEDC53C4839A",1,"01990a9d-7588-7fef-9a02-777c74da3e46","01990a83-7673-7c0c-a792-bbd8fbbaf673","2025-09-02_09h33.06.805",NA,NA,2528.1039,2528.1039,2528.1039,2528.5182,NA,NA,NA,NA,NA,NA,NA,TRUE,1,1.3183,2525.2775,2528.1037,NA,NA,NA,NA,NA,40,33,0,107,107,49,1,2,108,"binary"
