"participant","session","assignmentId","projectId","date","practiceTrial.started","practiceTrial.stopped","tooLate.started","tooLate.stopped","blank.started","blank.stopped","trials_pract.thisRepN","trials_pract.thisTrialN","trials_pract.thisN","trials_pract.thisIndex","trials_pract.ran","delay_pract","amount_pract","responseMade","key","rt","trial.started","trial.stopped","trials.thisRepN","trials.thisTrialN","trials.thisN","trials.thisIndex","trials.ran","delay","amount","trials_2.thisRepN","trials_2.thisTrialN","trials_2.thisN","trials_2.thisIndex","trials_2.ran","block","trial","taskType"
"A0337664A0C54108AD87471FDEEF9189",1,"01990a97-a8e5-7ac5-86cf-c8945307b7c4","01990a83-7673-7c0c-a792-bbd8fbbaf673","2025-09-02_09h22.48.781",22.0774,25.0581,25.0588,25.0655,25.0656,25.4073,0,0,0,0,1,7,30,TRUE,1,2.0095,NA,NA,NA,NA,NA,NA,NA,NA,NA,NA,NA,NA,NA,NA,0,1,"binary"
"A0337664A0C54108AD87471FDEEF9189",1,"01990a97-a8e5-7ac5-86cf-c8945307b7c4","01990a83-7673-7c0c-a792-bbd8fbbaf673","2025-09-02_09h22.48.781",25.4103,28.408,28.4082,28.4083,28.4083,28.758,0,1,1,2,1,14,45,TRUE,1,2.2227,NA,NA,NA,NA,NA,NA,NA,NA,NA,NA,NA,NA,NA,NA,0,2,"binary"
"A0337664A0C54108AD87471FDEEF9189",1,"01990a97-a8e5-7ac5-86cf-c8945307b7c4","01990a83-7673-7c0c-a792-bbd8fbbaf673","2025-09-02_09h22.48.781",28.7604,31.758,31.7583,31.7584,31.7584,32.1079,0,2,2,1,1,100,50,TRUE,1,1.0775,NA,NA,NA,NA,NA,NA,NA,NA,NA,NA,NA,NA,NA,NA,0,3,"binary"
"A0337664A0C54108AD87471FDEEF9189",1,"01990a97-a8e5-7ac5-86cf-c8945307b7c4","01990a83-7673-7c0c-a792-bbd8fbbaf673","2025-09-02_09h22.48.781",32.111,35.1081,35.1083,35.1083,35.1083,35.4575,0,3,3,4,1,30,40,TRUE,1,1.2896,NA,NA,NA,NA,NA,NA,NA,NA,NA,NA,NA,NA,NA,NA,0,4,"binary"
"A0337664A0C54108AD87471FDEEF9189",1,"01990a97-a8e5-7ac5-86cf-c8945307b7c4","01990a83-7673-7c0c-a792-bbd8fbbaf673","2025-09-02_09h22.48.781",35.4599,38.4581,38.4582,38.4583,38.4583,38.808,0,4,4,3,1,3,27,TRUE,2,1.6475,NA,NA,NA,NA,NA,NA,NA,NA,NA,NA,NA,NA,NA,NA,0,5,"binary"
"A0337664A0C54108AD87471FDEEF9189",1,"01990a97-a8e5-7ac5-86cf-c8945307b7c4","01990a83-7673-7c0c-a792-bbd8fbbaf673","2025-09-02_09h22.48.781",NA,NA,60.9759,60.9763,60.9764,61.3253,NA,NA,NA,NA,NA,NA,NA,TRUE,1,1.7864,57.999,60.9754,0,0,0,73,1,90,30,NA,NA,NA,NA,NA,1,1,"binary"
"A0337664A0C54108AD87471FDEEF9189",1,"01990a97-a8e5-7ac5-86cf-c8945307b7c4","01990a83-7673-7c0c-a792-bbd8fbbaf673","2025-09-02_09h22.48.781",NA,NA,64.3253,64.3253,64.3253,64.675,NA,NA,NA,NA,NA,NA,NA,TRUE,1,1.4229,61.3276,64.3251,0,1,1,67,1,60,33,NA,NA,NA,NA,NA,1,2,"binary"
"A0337664A0C54108AD87471FDEEF9189",1,"01990a97-a8e5-7ac5-86cf-c8945307b7c4","01990a83-7673-7c0c-a792-bbd8fbbaf673","2025-09-02_09h22.48.781",NA,NA,67.6753,67.6754,67.6754,68.0251,NA,NA,NA,NA,NA,NA,NA,TRUE,1,1.0557,64.6772,67.6751,0,2,2,38,1,28,32,NA,NA,NA,NA,NA,1,3,"binary"
"A0337664A0C54108AD87471FDEEF9189",1,"01990a97-a8e5-7ac5-86cf-c8945307b7c4","01990a83-7673-7c0c-a792-bbd8fbbaf673","2025-09-02_09h22.48.781",NA,NA,71.0253,71.0254,71.0254,71.375,NA,NA,NA,NA,NA,NA,NA,TRUE,1,0.9399,68.027,71.0252,0,3,3,95,1,150,54,NA,NA,NA,NA,NA,1,4,"binary"
"A0337664A0C54108AD87471FDEEF9189",1,"01990a97-a8e5-7ac5-86cf-c8945307b7c4","01990a83-7673-7c0c-a792-bbd8fbbaf673","2025-09-02_09h22.48.781",NA,NA,74.3754,74.3755,74.3755,74.7248,NA,NA,NA,NA,NA,NA,NA,TRUE,1,0.8753,71.3765,74.3753,0,4,4,91,1,150,33,NA,NA,NA,NA,NA,1,5,"binary"
"A0337664A0C54108AD87471FDEEF9189",1,"01990a97-a8e5-7ac5-86cf-c8945307b7c4","01990a83-7673-7c0c-a792-bbd8fbbaf673","2025-09-02_09h22.48.781",NA,NA,77.7253,77.7253,77.7254,78.0752,NA,NA,NA,NA,NA,NA,NA,TRUE,1,1.3472,74.7256,77.7251,0,5,5,16,1,12,33,NA,NA,NA,NA,NA,1,6,"binary"
"A0337664A0C54108AD87471FDEEF9189",1,"01990a97-a8e5-7ac5-86cf-c8945307b7c4","01990a83-7673-7c0c-a792-bbd8fbbaf673","2025-09-02_09h22.48.781",NA,NA,81.0756,81.0758,81.0758,81.4253,NA,NA,NA,NA,NA,NA,NA,TRUE,1,0.9249,78.0767,81.0755,0,6,6,78,1,95,31,NA,NA,NA,NA,NA,1,7,"binary"
"A0337664A0C54108AD87471FDEEF9189",1,"01990a97-a8e5-7ac5-86cf-c8945307b7c4","01990a83-7673-7c0c-a792-bbd8fbbaf673","2025-09-02_09h22.48.781",NA,NA,84.4255,84.4257,84.4257,84.7753,NA,NA,NA,NA,NA,NA,NA,TRUE,1,1.5654,81.4276,84.4254,0,7,7,12,1,12,25,NA,NA,NA,NA,NA,1,8,"binary"
"A0337664A0C54108AD87471FDEEF9189",1,"01990a97-a8e5-7ac5-86cf-c8945307b7c4","01990a83-7673-7c0c-a792-bbd8fbbaf673","2025-09-02_09h22.48.781",NA,NA,87.7756,87.7757,87.7757,88.1252,NA,NA,NA,NA,NA,NA,NA,TRUE,1,1.1059,84.7774,87.7753,0,8,8,98,1,180,35,NA,NA,NA,NA,NA,1,9,"binary"
"A0337664A0C54108AD87471FDEEF9189",1,"01990a97-a8e5-7ac5-86cf-c8945307b7c4","01990a83-7673-7c0c-a792-bbd8fbbaf673","2025-09-02_09h22.48.781",NA,NA,91.1257,91.1258,91.1259,91.4754,NA,NA,NA,NA,NA,NA,NA,TRUE,1,1.1725,88.1271,91.1255,0,9,9,82,1,95,47,NA,NA,NA,NA,NA,1,10,"binary"
"A0337664A0C54108AD87471FDEEF9189",1,"01990a97-a8e5-7ac5-86cf-c8945307b7c4","01990a83-7673-7c0c-a792-bbd8fbbaf673","2025-09-02_09h22.48.781",NA,NA,94.4756,94.4757,94.4757,94.8251,NA,NA,NA,NA,NA,NA,NA,TRUE,1,0.9743,91.4772,94.4754,0,10,10,66,1,60,29,NA,NA,NA,NA,NA,1,11,"binary"
"A0337664A0C54108AD87471FDEEF9189",1,"01990a97-a8e5-7ac5-86cf-c8945307b7c4","01990a83-7673-7c0c-a792-bbd8fbbaf673","2025-09-02_09h22.48.781",NA,NA,97.8256,97.8258,97.8258,98.1755,NA,NA,NA,NA,NA,NA,NA,TRUE,1,0.8731,94.8272,97.8254,0,11,11,72,1,90,26,NA,NA,NA,NA,NA,1,12,"binary"
"A0337664A0C54108AD87471FDEEF9189",1,"01990a97-a8e5-7ac5-86cf-c8945307b7c4","01990a83-7673-7c0c-a792-bbd8fbbaf673","2025-09-02_09h22.48.781",NA,NA,101.1757,101.1758,101.1758,101.5255,NA,NA,NA,NA,NA,NA,NA,TRUE,1,0.9077,98.1777,101.1755,0,12,12,104,1,200,35,NA,NA,NA,NA,NA,1,13,"binary"
"A0337664A0C54108AD87471FDEEF9189",1,"01990a97-a8e5-7ac5-86cf-c8945307b7c4","01990a83-7673-7c0c-a792-bbd8fbbaf673","2025-09-02_09h22.48.781",NA,NA,104.5256,104.5256,104.5256,104.8755,NA,NA,NA,NA,NA,NA,NA,TRUE,1,0.74,101.5279,104.5255,0,13,13,2,1,7,28,NA,NA,NA,NA,NA,1,14,"binary"
"A0337664A0C54108AD87471FDEEF9189",1,"01990a97-a8e5-7ac5-86cf-c8945307b7c4","01990a83-7673-7c0c-a792-bbd8fbbaf673","2025-09-02_09h22.48.781",NA,NA,107.8759,107.876,107.876,108.2256,NA,NA,NA,NA,NA,NA,NA,TRUE,1,0.7375,104.8781,107.8757,0,14,14,43,1,30,27,NA,NA,NA,NA,NA,1,15,"binary"
"A0337664A0C54108AD87471FDEEF9189",1,"01990a97-a8e5-7ac5-86cf-c8945307b7c4","01990a83-7673-7c0c-a792-bbd8fbbaf673","2025-09-02_09h22.48.781",NA,NA,111.2259,111.226,111.226,111.5754,NA,NA,NA,NA,NA,NA,NA,TRUE,1,0.875,108.2275,111.2257,0,15,15,106,1,200,47,NA,NA,NA,NA,NA,1,16,"binary"
"A0337664A0C54108AD87471FDEEF9189",1,"01990a97-a8e5-7ac5-86cf-c8945307b7c4","01990a83-7673-7c0c-a792-bbd8fbbaf673","2025-09-02_09h22.48.781",NA,NA,114.5761,114.5762,114.5762,114.9258,NA,NA,NA,NA,NA,NA,NA,TRUE,1,0.8342,111.577,114.5759,0,16,16,29,1,21,38,NA,NA,NA,NA,NA,1,17,"binary"
"A0337664A0C54108AD87471FDEEF9189",1,"01990a97-a8e5-7ac5-86cf-c8945307b7c4","01990a83-7673-7c0c-a792-bbd8fbbaf673","2025-09-02_09h22.48.781",NA,NA,117.926,117.9261,117.9262,118.2757,NA,NA,NA,NA,NA,NA,NA,TRUE,1,0.7515,114.9278,117.9259,0,17,17,68,1,60,35,NA,NA,NA,NA,NA,1,18,"binary"
"A0337664A0C54108AD87471FDEEF9189",1,"01990a97-a8e5-7ac5-86cf-c8945307b7c4","01990a83-7673-7c0c-a792-bbd8fbbaf673","2025-09-02_09h22.48.781",NA,NA,121.276,121.276,121.276,121.6258,NA,NA,NA,NA,NA,NA,NA,TRUE,1,0.5737,118.2776,121.2758,0,18,18,75,1,90,40,NA,NA,NA,NA,NA,1,19,"binary"
"A0337664A0C54108AD87471FDEEF9189",1,"01990a97-a8e5-7ac5-86cf-c8945307b7c4","01990a83-7673-7c0c-a792-bbd8fbbaf673","2025-09-02_09h22.48.781",NA,NA,124.6261,124.6261,124.6262,124.9759,NA,NA,NA,NA,NA,NA,NA,TRUE,1,0.6513,121.6279,124.626,0,19,19,84,1,100,26,NA,NA,NA,NA,NA,1,20,"binary"
"A0337664A0C54108AD87471FDEEF9189",1,"01990a97-a8e5-7ac5-86cf-c8945307b7c4","01990a83-7673-7c0c-a792-bbd8fbbaf673","2025-09-02_09h22.48.781",NA,NA,127.9759,127.976,127.976,128.3259,NA,NA,NA,NA,NA,NA,NA,TRUE,1,0.655,124.9779,127.9758,0,20,20,80,1,95,35,NA,NA,NA,NA,NA,1,21,"binary"
"A0337664A0C54108AD87471FDEEF9189",1,"01990a97-a8e5-7ac5-86cf-c8945307b7c4","01990a83-7673-7c0c-a792-bbd8fbbaf673","2025-09-02_09h22.48.781",NA,NA,131.3262,131.3262,131.3262,131.6759,NA,NA,NA,NA,NA,NA,NA,TRUE,1,0.6499,128.3282,131.326,0,21,21,69,1,60,40,NA,NA,NA,NA,NA,1,22,"binary"
"A0337664A0C54108AD87471FDEEF9189",1,"01990a97-a8e5-7ac5-86cf-c8945307b7c4","01990a83-7673-7c0c-a792-bbd8fbbaf673","2025-09-02_09h22.48.781",NA,NA,134.6762,134.6762,134.6762,135.0259,NA,NA,NA,NA,NA,NA,NA,TRUE,1,0.6733,131.6778,134.676,0,22,22,10,1,10,30,NA,NA,NA,NA,NA,1,23,"binary"
"A0337664A0C54108AD87471FDEEF9189",1,"01990a97-a8e5-7ac5-86cf-c8945307b7c4","01990a83-7673-7c0c-a792-bbd8fbbaf673","2025-09-02_09h22.48.781",NA,NA,138.0262,138.0263,138.0263,138.376,NA,NA,NA,NA,NA,NA,NA,TRUE,1,0.6732,135.0282,138.026,0,23,23,77,1,90,54,NA,NA,NA,NA,NA,1,24,"binary"
"A0337664A0C54108AD87471FDEEF9189",1,"01990a97-a8e5-7ac5-86cf-c8945307b7c4","01990a83-7673-7c0c-a792-bbd8fbbaf673","2025-09-02_09h22.48.781",NA,NA,141.3763,141.3763,141.3763,141.7255,NA,NA,NA,NA,NA,NA,NA,TRUE,1,0.6166,138.3782,141.3761,0,24,24,17,1,12,35,NA,NA,NA,NA,NA,1,25,"binary"
"A0337664A0C54108AD87471FDEEF9189",1,"01990a97-a8e5-7ac5-86cf-c8945307b7c4","01990a83-7673-7c0c-a792-bbd8fbbaf673","2025-09-02_09h22.48.781",NA,NA,144.7263,144.7263,144.7264,145.0761,NA,NA,NA,NA,NA,NA,NA,TRUE,1,0.5533,141.7277,144.7261,0,25,25,13,1,12,26,NA,NA,NA,NA,NA,1,26,"binary"
"A0337664A0C54108AD87471FDEEF9189",1,"01990a97-a8e5-7ac5-86cf-c8945307b7c4","01990a83-7673-7c0c-a792-bbd8fbbaf673","2025-09-02_09h22.48.781",NA,NA,148.0763,148.0763,148.0763,148.4262,NA,NA,NA,NA,NA,NA,NA,TRUE,1,0.8102,145.0782,148.0762,0,26,26,51,1,40,40,NA,NA,NA,NA,NA,1,27,"binary"
"A0337664A0C54108AD87471FDEEF9189",1,"01990a97-a8e5-7ac5-86cf-c8945307b7c4","01990a83-7673-7c0c-a792-bbd8fbbaf673","2025-09-02_09h22.48.781",NA,NA,151.4266,151.4267,151.4267,151.7762,NA,NA,NA,NA,NA,NA,NA,TRUE,1,0.6168,148.4281,151.4264,0,27,27,47,1,30,38,NA,NA,NA,NA,NA,1,28,"binary"
"A0337664A0C54108AD87471FDEEF9189",1,"01990a97-a8e5-7ac5-86cf-c8945307b7c4","01990a83-7673-7c0c-a792-bbd8fbbaf673","2025-09-02_09h22.48.781",NA,NA,154.7765,154.7765,154.7766,155.1262,NA,NA,NA,NA,NA,NA,NA,TRUE,1,0.773,151.7786,154.7763,0,28,28,48,1,40,27,NA,NA,NA,NA,NA,1,29,"binary"
"A0337664A0C54108AD87471FDEEF9189",1,"01990a97-a8e5-7ac5-86cf-c8945307b7c4","01990a83-7673-7c0c-a792-bbd8fbbaf673","2025-09-02_09h22.48.781",NA,NA,158.1264,158.1265,158.1265,158.4763,NA,NA,NA,NA,NA,NA,NA,TRUE,1,1.959,155.1277,158.1263,0,29,29,100,1,180,46,NA,NA,NA,NA,NA,1,30,"binary"
"A0337664A0C54108AD87471FDEEF9189",1,"01990a97-a8e5-7ac5-86cf-c8945307b7c4","01990a83-7673-7c0c-a792-bbd8fbbaf673","2025-09-02_09h22.48.781",NA,NA,161.4766,161.4766,161.4766,161.8265,NA,NA,NA,NA,NA,NA,NA,TRUE,1,0.7563,158.4784,161.4764,0,30,30,19,1,14,26,NA,NA,NA,NA,NA,1,31,"binary"
"A0337664A0C54108AD87471FDEEF9189",1,"01990a97-a8e5-7ac5-86cf-c8945307b7c4","01990a83-7673-7c0c-a792-bbd8fbbaf673","2025-09-02_09h22.48.781",NA,NA,164.8265,164.8265,164.8265,165.1764,NA,NA,NA,NA,NA,NA,NA,TRUE,1,0.6231,161.8292,164.8263,0,31,31,56,1,45,31,NA,NA,NA,NA,NA,1,32,"binary"
"A0337664A0C54108AD87471FDEEF9189",1,"01990a97-a8e5-7ac5-86cf-c8945307b7c4","01990a83-7673-7c0c-a792-bbd8fbbaf673","2025-09-02_09h22.48.781",NA,NA,168.1751,168.1751,168.1751,168.526,NA,NA,NA,NA,NA,NA,NA,TRUE,1,0.8078,165.1784,168.1751,0,32,32,94,1,150,47,NA,NA,NA,NA,NA,1,33,"binary"
"A0337664A0C54108AD87471FDEEF9189",1,"01990a97-a8e5-7ac5-86cf-c8945307b7c4","01990a83-7673-7c0c-a792-bbd8fbbaf673","2025-09-02_09h22.48.781",NA,NA,171.5259,171.5259,171.5259,171.8762,NA,NA,NA,NA,NA,NA,NA,TRUE,1,0.8797,168.5271,171.5258,0,33,33,99,1,180,39,NA,NA,NA,NA,NA,1,34,"binary"
"A0337664A0C54108AD87471FDEEF9189",1,"01990a97-a8e5-7ac5-86cf-c8945307b7c4","01990a83-7673-7c0c-a792-bbd8fbbaf673","2025-09-02_09h22.48.781",NA,NA,174.8765,174.8766,174.8766,175.2255,NA,NA,NA,NA,NA,NA,NA,TRUE,1,0.8429,171.8776,174.8764,0,34,34,92,1,150,35,NA,NA,NA,NA,NA,1,35,"binary"
"A0337664A0C54108AD87471FDEEF9189",1,"01990a97-a8e5-7ac5-86cf-c8945307b7c4","01990a83-7673-7c0c-a792-bbd8fbbaf673","2025-09-02_09h22.48.781",NA,NA,178.2267,178.2268,178.2268,178.5754,NA,NA,NA,NA,NA,NA,NA,TRUE,1,0.8278,175.2271,178.2266,0,35,35,107,1,200,54,NA,NA,NA,NA,NA,1,36,"binary"
"A0337664A0C54108AD87471FDEEF9189",1,"01990a97-a8e5-7ac5-86cf-c8945307b7c4","01990a83-7673-7c0c-a792-bbd8fbbaf673","2025-09-02_09h22.48.781",NA,NA,181.5764,181.5765,181.5765,181.9266,NA,NA,NA,NA,NA,NA,NA,TRUE,1,0.6287,178.5769,181.5764,0,36,36,11,1,10,32,NA,NA,NA,NA,NA,1,37,"binary"
"A0337664A0C54108AD87471FDEEF9189",1,"01990a97-a8e5-7ac5-86cf-c8945307b7c4","01990a83-7673-7c0c-a792-bbd8fbbaf673","2025-09-02_09h22.48.781",NA,NA,184.9269,184.927,184.927,185.2756,NA,NA,NA,NA,NA,NA,NA,TRUE,1,0.6738,181.9289,184.9268,0,37,37,96,1,180,27,NA,NA,NA,NA,NA,1,38,"binary"
"A0337664A0C54108AD87471FDEEF9189",1,"01990a97-a8e5-7ac5-86cf-c8945307b7c4","01990a83-7673-7c0c-a792-bbd8fbbaf673","2025-09-02_09h22.48.781",NA,NA,188.2771,188.2773,188.2773,188.6267,NA,NA,NA,NA,NA,NA,NA,TRUE,1,0.6125,185.2774,188.2768,0,38,38,36,1,28,26,NA,NA,NA,NA,NA,1,39,"binary"
"A0337664A0C54108AD87471FDEEF9189",1,"01990a97-a8e5-7ac5-86cf-c8945307b7c4","01990a83-7673-7c0c-a792-bbd8fbbaf673","2025-09-02_09h22.48.781",NA,NA,191.6271,191.6271,191.6272,191.9758,NA,NA,NA,NA,NA,NA,NA,TRUE,1,0.5622,188.6303,191.6269,0,39,39,8,1,10,27,NA,NA,NA,NA,NA,1,40,"binary"
"A0337664A0C54108AD87471FDEEF9189",1,"01990a97-a8e5-7ac5-86cf-c8945307b7c4","01990a83-7673-7c0c-a792-bbd8fbbaf673","2025-09-02_09h22.48.781",NA,NA,194.977,194.9771,194.9771,195.3268,NA,NA,NA,NA,NA,NA,NA,TRUE,1,1.009,191.9774,194.9768,0,40,40,97,1,180,31,NA,NA,NA,NA,NA,1,41,"binary"
"A0337664A0C54108AD87471FDEEF9189",1,"01990a97-a8e5-7ac5-86cf-c8945307b7c4","01990a83-7673-7c0c-a792-bbd8fbbaf673","2025-09-02_09h22.48.781",NA,NA,198.3266,198.3266,198.3266,198.6755,NA,NA,NA,NA,NA,NA,NA,TRUE,1,0.801,195.3287,198.3266,0,41,41,54,1,45,26,NA,NA,NA,NA,NA,1,42,"binary"
"A0337664A0C54108AD87471FDEEF9189",1,"01990a97-a8e5-7ac5-86cf-c8945307b7c4","01990a83-7673-7c0c-a792-bbd8fbbaf673","2025-09-02_09h22.48.781",NA,NA,201.6761,201.6762,201.6762,202.027,NA,NA,NA,NA,NA,NA,NA,TRUE,1,0.7765,198.676,201.6761,0,42,42,15,1,12,31,NA,NA,NA,NA,NA,1,43,"binary"
"A0337664A0C54108AD87471FDEEF9189",1,"01990a97-a8e5-7ac5-86cf-c8945307b7c4","01990a83-7673-7c0c-a792-bbd8fbbaf673","2025-09-02_09h22.48.781",NA,NA,205.0271,205.0273,205.0273,205.3769,NA,NA,NA,NA,NA,NA,NA,TRUE,1,0.5231,202.0289,205.0269,0,43,43,32,1,25,31,NA,NA,NA,NA,NA,1,44,"binary"
"A0337664A0C54108AD87471FDEEF9189",1,"01990a97-a8e5-7ac5-86cf-c8945307b7c4","01990a83-7673-7c0c-a792-bbd8fbbaf673","2025-09-02_09h22.48.781",NA,NA,208.3768,208.3768,208.3769,208.726,NA,NA,NA,NA,NA,NA,NA,TRUE,1,0.8577,205.3792,208.3767,0,44,44,0,1,7,25,NA,NA,NA,NA,NA,1,45,"binary"
"A0337664A0C54108AD87471FDEEF9189",1,"01990a97-a8e5-7ac5-86cf-c8945307b7c4","01990a83-7673-7c0c-a792-bbd8fbbaf673","2025-09-02_09h22.48.781",NA,NA,211.7272,211.7273,211.7273,212.077,NA,NA,NA,NA,NA,NA,NA,TRUE,1,0.8732,208.7279,211.727,0,45,45,3,1,7,30,NA,NA,NA,NA,NA,1,46,"binary"
"A0337664A0C54108AD87471FDEEF9189",1,"01990a97-a8e5-7ac5-86cf-c8945307b7c4","01990a83-7673-7c0c-a792-bbd8fbbaf673","2025-09-02_09h22.48.781",NA,NA,215.0769,215.0769,215.0769,215.427,NA,NA,NA,NA,NA,NA,NA,TRUE,1,0.6903,212.0792,215.0767,0,46,46,105,1,200,39,NA,NA,NA,NA,NA,1,47,"binary"
"A0337664A0C54108AD87471FDEEF9189",1,"01990a97-a8e5-7ac5-86cf-c8945307b7c4","01990a83-7673-7c0c-a792-bbd8fbbaf673","2025-09-02_09h22.48.781",NA,NA,218.4274,218.4274,218.4274,218.7768,NA,NA,NA,NA,NA,NA,NA,TRUE,1,0.7412,215.4298,218.4272,0,47,47,62,1,50,35,NA,NA,NA,NA,NA,1,48,"binary"
"A0337664A0C54108AD87471FDEEF9189",1,"01990a97-a8e5-7ac5-86cf-c8945307b7c4","01990a83-7673-7c0c-a792-bbd8fbbaf673","2025-09-02_09h22.48.781",NA,NA,221.7772,221.7773,221.7773,222.1273,NA,NA,NA,NA,NA,NA,NA,TRUE,1,0.8899,218.7789,221.7771,0,48,48,22,1,14,35,NA,NA,NA,NA,NA,1,49,"binary"
"A0337664A0C54108AD87471FDEEF9189",1,"01990a97-a8e5-7ac5-86cf-c8945307b7c4","01990a83-7673-7c0c-a792-bbd8fbbaf673","2025-09-02_09h22.48.781",NA,NA,225.1264,225.1265,225.1265,225.4767,NA,NA,NA,NA,NA,NA,NA,TRUE,1,0.9566,222.1294,225.1263,0,49,49,39,1,28,35,NA,NA,NA,NA,NA,1,50,"binary"
"A0337664A0C54108AD87471FDEEF9189",1,"01990a97-a8e5-7ac5-86cf-c8945307b7c4","01990a83-7673-7c0c-a792-bbd8fbbaf673","2025-09-02_09h22.48.781",NA,NA,228.4774,228.4775,228.4775,228.8273,NA,NA,NA,NA,NA,NA,NA,TRUE,1,1.0895,225.4787,228.4773,0,50,50,28,1,21,32,NA,NA,NA,NA,NA,1,51,"binary"
"A0337664A0C54108AD87471FDEEF9189",1,"01990a97-a8e5-7ac5-86cf-c8945307b7c4","01990a83-7673-7c0c-a792-bbd8fbbaf673","2025-09-02_09h22.48.781",NA,NA,231.8275,231.8275,231.8276,232.1773,NA,NA,NA,NA,NA,NA,NA,TRUE,1,0.7222,228.8292,231.8273,0,51,51,42,1,30,26,NA,NA,NA,NA,NA,1,52,"binary"
"A0337664A0C54108AD87471FDEEF9189",1,"01990a97-a8e5-7ac5-86cf-c8945307b7c4","01990a83-7673-7c0c-a792-bbd8fbbaf673","2025-09-02_09h22.48.781",NA,NA,235.1776,235.1777,235.1777,235.5275,NA,NA,NA,NA,NA,NA,NA,TRUE,1,0.7731,232.1793,235.1774,0,52,52,20,1,14,28,NA,NA,NA,NA,NA,1,53,"binary"
"A0337664A0C54108AD87471FDEEF9189",1,"01990a97-a8e5-7ac5-86cf-c8945307b7c4","01990a83-7673-7c0c-a792-bbd8fbbaf673","2025-09-02_09h22.48.781",NA,NA,238.5275,238.5275,238.5275,238.8774,NA,NA,NA,NA,NA,NA,NA,TRUE,1,1.1406,235.5292,238.5274,0,53,53,41,1,28,46,NA,NA,NA,NA,NA,1,54,"binary"
"A0337664A0C54108AD87471FDEEF9189",1,"01990a97-a8e5-7ac5-86cf-c8945307b7c4","01990a83-7673-7c0c-a792-bbd8fbbaf673","2025-09-02_09h22.48.781",NA,NA,241.8777,241.8777,241.8778,242.2274,NA,NA,NA,NA,NA,NA,NA,TRUE,1,0.5855,238.8794,241.8775,0,54,54,102,1,200,26,NA,NA,NA,NA,NA,1,55,"binary"
"A0337664A0C54108AD87471FDEEF9189",1,"01990a97-a8e5-7ac5-86cf-c8945307b7c4","01990a83-7673-7c0c-a792-bbd8fbbaf673","2025-09-02_09h22.48.781",NA,NA,245.2275,245.2276,245.2276,245.5765,NA,NA,NA,NA,NA,NA,NA,TRUE,1,0.7232,242.2298,245.2274,0,55,55,40,1,28,39,NA,NA,NA,NA,NA,1,56,"binary"
"A0337664A0C54108AD87471FDEEF9189",1,"01990a97-a8e5-7ac5-86cf-c8945307b7c4","01990a83-7673-7c0c-a792-bbd8fbbaf673","2025-09-02_09h22.48.781",NA,NA,248.5776,248.5776,248.5777,248.9275,NA,NA,NA,NA,NA,NA,NA,TRUE,2,1.2241,245.5781,248.5774,0,56,56,53,1,40,54,NA,NA,NA,NA,NA,1,57,"binary"
"A0337664A0C54108AD87471FDEEF9189",1,"01990a97-a8e5-7ac5-86cf-c8945307b7c4","01990a83-7673-7c0c-a792-bbd8fbbaf673","2025-09-02_09h22.48.781",NA,NA,251.9271,251.9272,251.9272,252.2777,NA,NA,NA,NA,NA,NA,NA,TRUE,2,1.0591,248.9293,251.9269,0,57,57,21,1,14,32,NA,NA,NA,NA,NA,1,58,"binary"
"A0337664A0C54108AD87471FDEEF9189",1,"01990a97-a8e5-7ac5-86cf-c8945307b7c4","01990a83-7673-7c0c-a792-bbd8fbbaf673","2025-09-02_09h22.48.781",NA,NA,255.2779,255.278,255.278,255.6276,NA,NA,NA,NA,NA,NA,NA,TRUE,1,1.0569,252.2797,255.2778,0,58,58,49,1,40,33,NA,NA,NA,NA,NA,1,59,"binary"
"A0337664A0C54108AD87471FDEEF9189",1,"01990a97-a8e5-7ac5-86cf-c8945307b7c4","01990a83-7673-7c0c-a792-bbd8fbbaf673","2025-09-02_09h22.48.781",NA,NA,258.6269,258.627,258.627,258.9778,NA,NA,NA,NA,NA,NA,NA,TRUE,2,0.9351,255.6296,258.6267,0,59,59,5,1,7,35,NA,NA,NA,NA,NA,1,60,"binary"
"A0337664A0C54108AD87471FDEEF9189",1,"01990a97-a8e5-7ac5-86cf-c8945307b7c4","01990a83-7673-7c0c-a792-bbd8fbbaf673","2025-09-02_09h22.48.781",NA,NA,261.9771,261.9771,261.9771,262.3277,NA,NA,NA,NA,NA,NA,NA,TRUE,2,1.2878,258.98,261.9769,0,60,60,65,1,50,54,NA,NA,NA,NA,NA,1,61,"binary"
"A0337664A0C54108AD87471FDEEF9189",1,"01990a97-a8e5-7ac5-86cf-c8945307b7c4","01990a83-7673-7c0c-a792-bbd8fbbaf673","2025-09-02_09h22.48.781",NA,NA,265.3276,265.3277,265.3277,265.6779,NA,NA,NA,NA,NA,NA,NA,TRUE,1,0.9521,262.3304,265.3276,0,61,61,18,1,14,25,NA,NA,NA,NA,NA,1,62,"binary"
"A0337664A0C54108AD87471FDEEF9189",1,"01990a97-a8e5-7ac5-86cf-c8945307b7c4","01990a83-7673-7c0c-a792-bbd8fbbaf673","2025-09-02_09h22.48.781",NA,NA,268.6781,268.6781,268.6781,269.0279,NA,NA,NA,NA,NA,NA,NA,TRUE,1,1.8222,265.6804,268.6778,0,62,62,58,1,45,40,NA,NA,NA,NA,NA,1,63,"binary"
"A0337664A0C54108AD87471FDEEF9189",1,"01990a97-a8e5-7ac5-86cf-c8945307b7c4","01990a83-7673-7c0c-a792-bbd8fbbaf673","2025-09-02_09h22.48.781",NA,NA,272.028,272.0281,272.0281,272.3769,NA,NA,NA,NA,NA,NA,NA,TRUE,2,0.806,269.0299,272.0279,0,63,63,4,1,7,32,NA,NA,NA,NA,NA,1,64,"binary"
"A0337664A0C54108AD87471FDEEF9189",1,"01990a97-a8e5-7ac5-86cf-c8945307b7c4","01990a83-7673-7c0c-a792-bbd8fbbaf673","2025-09-02_09h22.48.781",NA,NA,275.3779,275.378,275.378,275.7273,NA,NA,NA,NA,NA,NA,NA,TRUE,1,0.7087,272.3786,275.3779,0,64,64,101,1,180,54,NA,NA,NA,NA,NA,1,65,"binary"
"A0337664A0C54108AD87471FDEEF9189",1,"01990a97-a8e5-7ac5-86cf-c8945307b7c4","01990a83-7673-7c0c-a792-bbd8fbbaf673","2025-09-02_09h22.48.781",NA,NA,278.7282,278.7283,278.7283,279.0771,NA,NA,NA,NA,NA,NA,NA,TRUE,1,0.9909,275.7301,278.728,0,65,65,83,1,95,54,NA,NA,NA,NA,NA,1,66,"binary"
"A0337664A0C54108AD87471FDEEF9189",1,"01990a97-a8e5-7ac5-86cf-c8945307b7c4","01990a83-7673-7c0c-a792-bbd8fbbaf673","2025-09-02_09h22.48.781",NA,NA,282.0783,282.0783,282.0784,282.4281,NA,NA,NA,NA,NA,NA,NA,TRUE,1,0.6912,279.0797,282.0782,0,66,66,25,1,21,27,NA,NA,NA,NA,NA,1,67,"binary"
"A0337664A0C54108AD87471FDEEF9189",1,"01990a97-a8e5-7ac5-86cf-c8945307b7c4","01990a83-7673-7c0c-a792-bbd8fbbaf673","2025-09-02_09h22.48.781",NA,NA,285.4283,285.4283,285.4283,285.7778,NA,NA,NA,NA,NA,NA,NA,TRUE,2,1.2569,282.4303,285.4281,0,67,67,33,1,25,33,NA,NA,NA,NA,NA,1,68,"binary"
"A0337664A0C54108AD87471FDEEF9189",1,"01990a97-a8e5-7ac5-86cf-c8945307b7c4","01990a83-7673-7c0c-a792-bbd8fbbaf673","2025-09-02_09h22.48.781",NA,NA,288.7784,288.7785,288.7785,289.1273,NA,NA,NA,NA,NA,NA,NA,TRUE,1,1.4751,285.7789,288.7783,0,68,68,88,1,100,46,NA,NA,NA,NA,NA,1,69,"binary"
"A0337664A0C54108AD87471FDEEF9189",1,"01990a97-a8e5-7ac5-86cf-c8945307b7c4","01990a83-7673-7c0c-a792-bbd8fbbaf673","2025-09-02_09h22.48.781",NA,NA,292.1278,292.1279,292.1279,292.478,NA,NA,NA,NA,NA,NA,NA,TRUE,1,0.8576,289.1292,292.1277,0,69,69,60,1,50,27,NA,NA,NA,NA,NA,1,70,"binary"
"A0337664A0C54108AD87471FDEEF9189",1,"01990a97-a8e5-7ac5-86cf-c8945307b7c4","01990a83-7673-7c0c-a792-bbd8fbbaf673","2025-09-02_09h22.48.781",NA,NA,295.4784,295.4784,295.4784,295.8281,NA,NA,NA,NA,NA,NA,NA,TRUE,1,0.8344,292.4797,295.4783,0,70,70,7,1,10,26,NA,NA,NA,NA,NA,1,71,"binary"
"A0337664A0C54108AD87471FDEEF9189",1,"01990a97-a8e5-7ac5-86cf-c8945307b7c4","01990a83-7673-7c0c-a792-bbd8fbbaf673","2025-09-02_09h22.48.781",NA,NA,298.8284,298.8286,298.8286,299.1784,NA,NA,NA,NA,NA,NA,NA,TRUE,1,0.708,295.8299,298.8283,0,71,71,26,1,21,29,NA,NA,NA,NA,NA,1,72,"binary"
"A0337664A0C54108AD87471FDEEF9189",1,"01990a97-a8e5-7ac5-86cf-c8945307b7c4","01990a83-7673-7c0c-a792-bbd8fbbaf673","2025-09-02_09h22.48.781",NA,NA,302.1785,302.1785,302.1785,302.5283,NA,NA,NA,NA,NA,NA,NA,TRUE,2,1.2563,299.1803,302.1783,0,72,72,57,1,45,35,NA,NA,NA,NA,NA,1,73,"binary"
"A0337664A0C54108AD87471FDEEF9189",1,"01990a97-a8e5-7ac5-86cf-c8945307b7c4","01990a83-7673-7c0c-a792-bbd8fbbaf673","2025-09-02_09h22.48.781",NA,NA,305.5281,305.5281,305.5282,305.8784,NA,NA,NA,NA,NA,NA,NA,TRUE,1,1.0754,302.5305,305.528,0,73,73,79,1,95,33,NA,NA,NA,NA,NA,1,74,"binary"
"A0337664A0C54108AD87471FDEEF9189",1,"01990a97-a8e5-7ac5-86cf-c8945307b7c4","01990a83-7673-7c0c-a792-bbd8fbbaf673","2025-09-02_09h22.48.781",NA,NA,308.8786,308.8787,308.8787,309.2284,NA,NA,NA,NA,NA,NA,NA,TRUE,2,1.1569,305.8805,308.8784,0,74,74,35,1,25,46,NA,NA,NA,NA,NA,1,75,"binary"
"A0337664A0C54108AD87471FDEEF9189",1,"01990a97-a8e5-7ac5-86cf-c8945307b7c4","01990a83-7673-7c0c-a792-bbd8fbbaf673","2025-09-02_09h22.48.781",NA,NA,312.2287,312.2288,312.2288,312.5783,NA,NA,NA,NA,NA,NA,NA,TRUE,1,0.7086,309.2304,312.2286,0,75,75,44,1,30,29,NA,NA,NA,NA,NA,1,76,"binary"
"A0337664A0C54108AD87471FDEEF9189",1,"01990a97-a8e5-7ac5-86cf-c8945307b7c4","01990a83-7673-7c0c-a792-bbd8fbbaf673","2025-09-02_09h22.48.781",NA,NA,315.5782,315.5783,315.5783,315.9285,NA,NA,NA,NA,NA,NA,NA,TRUE,1,0.7249,312.5802,315.5781,0,76,76,6,1,10,25,NA,NA,NA,NA,NA,1,77,"binary"
"A0337664A0C54108AD87471FDEEF9189",1,"01990a97-a8e5-7ac5-86cf-c8945307b7c4","01990a83-7673-7c0c-a792-bbd8fbbaf673","2025-09-02_09h22.48.781",NA,NA,318.9288,318.9289,318.9289,319.2785,NA,NA,NA,NA,NA,NA,NA,TRUE,1,0.8922,315.9306,318.9287,0,77,77,93,1,150,40,NA,NA,NA,NA,NA,1,78,"binary"
"A0337664A0C54108AD87471FDEEF9189",1,"01990a97-a8e5-7ac5-86cf-c8945307b7c4","01990a83-7673-7c0c-a792-bbd8fbbaf673","2025-09-02_09h22.48.781",NA,NA,322.2783,322.2783,322.2783,322.6282,NA,NA,NA,NA,NA,NA,NA,TRUE,1,1.0691,319.2808,322.2781,0,78,78,86,1,100,38,NA,NA,NA,NA,NA,1,79,"binary"
"A0337664A0C54108AD87471FDEEF9189",1,"01990a97-a8e5-7ac5-86cf-c8945307b7c4","01990a83-7673-7c0c-a792-bbd8fbbaf673","2025-09-02_09h22.48.781",NA,NA,325.6288,325.6289,325.6289,325.978,NA,NA,NA,NA,NA,NA,NA,TRUE,1,1.1098,322.6287,325.6287,0,79,79,81,1,95,40,NA,NA,NA,NA,NA,1,80,"binary"
"A0337664A0C54108AD87471FDEEF9189",1,"01990a97-a8e5-7ac5-86cf-c8945307b7c4","01990a83-7673-7c0c-a792-bbd8fbbaf673","2025-09-02_09h22.48.781",NA,NA,328.979,328.979,328.979,329.3287,NA,NA,NA,NA,NA,NA,NA,TRUE,1,0.5845,325.98,328.9788,0,80,80,14,1,12,28,NA,NA,NA,NA,NA,1,81,"binary"
"A0337664A0C54108AD87471FDEEF9189",1,"01990a97-a8e5-7ac5-86cf-c8945307b7c4","01990a83-7673-7c0c-a792-bbd8fbbaf673","2025-09-02_09h22.48.781",NA,NA,332.329,332.329,332.329,332.6787,NA,NA,NA,NA,NA,NA,NA,TRUE,1,1.1394,329.3309,332.3288,0,81,81,27,1,21,30,NA,NA,NA,NA,NA,1,82,"binary"
"A0337664A0C54108AD87471FDEEF9189",1,"01990a97-a8e5-7ac5-86cf-c8945307b7c4","01990a83-7673-7c0c-a792-bbd8fbbaf673","2025-09-02_09h22.48.781",NA,NA,335.679,335.679,335.6791,336.0285,NA,NA,NA,NA,NA,NA,NA,TRUE,1,0.8082,332.6806,335.6788,0,82,82,90,1,150,31,NA,NA,NA,NA,NA,1,83,"binary"
"A0337664A0C54108AD87471FDEEF9189",1,"01990a97-a8e5-7ac5-86cf-c8945307b7c4","01990a83-7673-7c0c-a792-bbd8fbbaf673","2025-09-02_09h22.48.781",NA,NA,339.0291,339.0291,339.0291,339.3789,NA,NA,NA,NA,NA,NA,NA,TRUE,1,0.6666,336.0307,339.0289,0,83,83,30,1,25,27,NA,NA,NA,NA,NA,1,84,"binary"
"A0337664A0C54108AD87471FDEEF9189",1,"01990a97-a8e5-7ac5-86cf-c8945307b7c4","01990a83-7673-7c0c-a792-bbd8fbbaf673","2025-09-02_09h22.48.781",NA,NA,342.379,342.3791,342.3792,342.7289,NA,NA,NA,NA,NA,NA,NA,TRUE,2,1.0896,339.3808,342.3789,0,84,84,23,1,14,39,NA,NA,NA,NA,NA,1,85,"binary"
"A0337664A0C54108AD87471FDEEF9189",1,"01990a97-a8e5-7ac5-86cf-c8945307b7c4","01990a83-7673-7c0c-a792-bbd8fbbaf673","2025-09-02_09h22.48.781",NA,NA,345.7291,345.7292,345.7292,346.0786,NA,NA,NA,NA,NA,NA,NA,TRUE,1,1.2913,342.7309,345.7289,0,85,85,50,1,40,35,NA,NA,NA,NA,NA,1,86,"binary"
"A0337664A0C54108AD87471FDEEF9189",1,"01990a97-a8e5-7ac5-86cf-c8945307b7c4","01990a83-7673-7c0c-a792-bbd8fbbaf673","2025-09-02_09h22.48.781",NA,NA,349.0791,349.0792,349.0792,349.429,NA,NA,NA,NA,NA,NA,NA,TRUE,1,0.593,346.0803,349.079,0,86,86,55,1,45,29,NA,NA,NA,NA,NA,1,87,"binary"
"A0337664A0C54108AD87471FDEEF9189",1,"01990a97-a8e5-7ac5-86cf-c8945307b7c4","01990a83-7673-7c0c-a792-bbd8fbbaf673","2025-09-02_09h22.48.781",NA,NA,352.4294,352.4294,352.4294,352.7787,NA,NA,NA,NA,NA,NA,NA,TRUE,1,1.5755,349.4312,352.4291,0,87,87,76,1,90,46,NA,NA,NA,NA,NA,1,88,"binary"
"A0337664A0C54108AD87471FDEEF9189",1,"01990a97-a8e5-7ac5-86cf-c8945307b7c4","01990a83-7673-7c0c-a792-bbd8fbbaf673","2025-09-02_09h22.48.781",NA,NA,355.7791,355.7792,355.7792,356.128,NA,NA,NA,NA,NA,NA,NA,TRUE,1,0.6971,352.7791,355.779,0,88,88,61,1,50,30,NA,NA,NA,NA,NA,1,89,"binary"
"A0337664A0C54108AD87471FDEEF9189",1,"01990a97-a8e5-7ac5-86cf-c8945307b7c4","01990a83-7673-7c0c-a792-bbd8fbbaf673","2025-09-02_09h22.48.781",NA,NA,359.1292,359.1293,359.1293,359.4791,NA,NA,NA,NA,NA,NA,NA,TRUE,1,1.0878,356.1294,359.1291,0,89,89,31,1,25,29,NA,NA,NA,NA,NA,1,90,"binary"
"A0337664A0C54108AD87471FDEEF9189",1,"01990a97-a8e5-7ac5-86cf-c8945307b7c4","01990a83-7673-7c0c-a792-bbd8fbbaf673","2025-09-02_09h22.48.781",NA,NA,362.4793,362.4794,362.4794,362.8291,NA,NA,NA,NA,NA,NA,NA,TRUE,2,1.0231,359.4814,362.4791,0,90,90,34,1,25,35,NA,NA,NA,NA,NA,1,91,"binary"
"A0337664A0C54108AD87471FDEEF9189",1,"01990a97-a8e5-7ac5-86cf-c8945307b7c4","01990a83-7673-7c0c-a792-bbd8fbbaf673","2025-09-02_09h22.48.781",NA,NA,365.8295,365.8296,365.8296,366.1783,NA,NA,NA,NA,NA,NA,NA,TRUE,1,0.7269,362.8315,365.8293,0,91,91,85,1,100,31,NA,NA,NA,NA,NA,1,92,"binary"
"A0337664A0C54108AD87471FDEEF9189",1,"01990a97-a8e5-7ac5-86cf-c8945307b7c4","01990a83-7673-7c0c-a792-bbd8fbbaf673","2025-09-02_09h22.48.781",NA,NA,369.1788,369.1788,369.1788,369.5281,NA,NA,NA,NA,NA,NA,NA,TRUE,1,1.2076,366.1801,369.1785,0,92,92,70,1,60,47,NA,NA,NA,NA,NA,1,93,"binary"
"A0337664A0C54108AD87471FDEEF9189",1,"01990a97-a8e5-7ac5-86cf-c8945307b7c4","01990a83-7673-7c0c-a792-bbd8fbbaf673","2025-09-02_09h22.48.781",NA,NA,372.5294,372.5296,372.5296,372.8782,NA,NA,NA,NA,NA,NA,NA,TRUE,1,0.6788,369.5293,372.5293,0,93,93,103,1,200,28,NA,NA,NA,NA,NA,1,94,"binary"
"A0337664A0C54108AD87471FDEEF9189",1,"01990a97-a8e5-7ac5-86cf-c8945307b7c4","01990a83-7673-7c0c-a792-bbd8fbbaf673","2025-09-02_09h22.48.781",NA,NA,375.8786,375.8786,375.8786,376.2293,NA,NA,NA,NA,NA,NA,NA,TRUE,1,1.1679,372.8803,375.8783,0,94,94,64,1,50,46,NA,NA,NA,NA,NA,1,95,"binary"
"A0337664A0C54108AD87471FDEEF9189",1,"01990a97-a8e5-7ac5-86cf-c8945307b7c4","01990a83-7673-7c0c-a792-bbd8fbbaf673","2025-09-02_09h22.48.781",NA,NA,379.2297,379.2297,379.2297,379.5786,NA,NA,NA,NA,NA,NA,NA,TRUE,1,1.0159,376.2315,379.2295,0,95,95,87,1,100,39,NA,NA,NA,NA,NA,1,96,"binary"
"A0337664A0C54108AD87471FDEEF9189",1,"01990a97-a8e5-7ac5-86cf-c8945307b7c4","01990a83-7673-7c0c-a792-bbd8fbbaf673","2025-09-02_09h22.48.781",NA,NA,382.5797,382.5797,382.5798,382.9293,NA,NA,NA,NA,NA,NA,NA,TRUE,1,1.3577,379.5801,382.5795,0,96,96,63,1,50,40,NA,NA,NA,NA,NA,1,97,"binary"
"A0337664A0C54108AD87471FDEEF9189",1,"01990a97-a8e5-7ac5-86cf-c8945307b7c4","01990a83-7673-7c0c-a792-bbd8fbbaf673","2025-09-02_09h22.48.781",NA,NA,385.9297,385.9298,385.9298,386.2796,NA,NA,NA,NA,NA,NA,NA,TRUE,1,0.9081,382.931,385.9295,0,97,97,74,1,90,33,NA,NA,NA,NA,NA,1,98,"binary"
"A0337664A0C54108AD87471FDEEF9189",1,"01990a97-a8e5-7ac5-86cf-c8945307b7c4","01990a83-7673-7c0c-a792-bbd8fbbaf673","2025-09-02_09h22.48.781",NA,NA,389.2797,389.2797,389.2797,389.6296,NA,NA,NA,NA,NA,NA,NA,TRUE,1,0.892,386.2814,389.2796,0,98,98,37,1,28,28,NA,NA,NA,NA,NA,1,99,"binary"
"A0337664A0C54108AD87471FDEEF9189",1,"01990a97-a8e5-7ac5-86cf-c8945307b7c4","01990a83-7673-7c0c-a792-bbd8fbbaf673","2025-09-02_09h22.48.781",NA,NA,392.6131,392.6131,392.6132,392.9796,NA,NA,NA,NA,NA,NA,NA,TRUE,1,1.2116,389.6319,392.6129,0,99,99,59,1,45,46,NA,NA,NA,NA,NA,1,100,"binary"
"A0337664A0C54108AD87471FDEEF9189",1,"01990a97-a8e5-7ac5-86cf-c8945307b7c4","01990a83-7673-7c0c-a792-bbd8fbbaf673","2025-09-02_09h22.48.781",NA,NA,395.9798,395.9798,395.9798,396.3296,NA,NA,NA,NA,NA,NA,NA,TRUE,1,0.7407,392.9816,395.9796,0,100,100,9,1,10,29,NA,NA,NA,NA,NA,1,101,"binary"
"A0337664A0C54108AD87471FDEEF9189",1,"01990a97-a8e5-7ac5-86cf-c8945307b7c4","01990a83-7673-7c0c-a792-bbd8fbbaf673","2025-09-02_09h22.48.781",NA,NA,399.3288,399.3288,399.3289,399.6631,NA,NA,NA,NA,NA,NA,NA,TRUE,1,1.2895,396.332,399.3286,0,101,101,71,1,60,54,NA,NA,NA,NA,NA,1,102,"binary"
"A0337664A0C54108AD87471FDEEF9189",1,"01990a97-a8e5-7ac5-86cf-c8945307b7c4","01990a83-7673-7c0c-a792-bbd8fbbaf673","2025-09-02_09h22.48.781",NA,NA,402.6799,402.6799,402.68,403.0297,NA,NA,NA,NA,NA,NA,NA,TRUE,1,0.7335,399.6655,402.6797,0,102,102,1,1,7,26,NA,NA,NA,NA,NA,1,103,"binary"
"A0337664A0C54108AD87471FDEEF9189",1,"01990a97-a8e5-7ac5-86cf-c8945307b7c4","01990a83-7673-7c0c-a792-bbd8fbbaf673","2025-09-02_09h22.48.781",NA,NA,406.0299,406.0299,406.0299,406.3798,NA,NA,NA,NA,NA,NA,NA,TRUE,1,0.773,403.0317,406.0297,0,103,103,89,1,100,54,NA,NA,NA,NA,NA,1,104,"binary"
"A0337664A0C54108AD87471FDEEF9189",1,"01990a97-a8e5-7ac5-86cf-c8945307b7c4","01990a83-7673-7c0c-a792-bbd8fbbaf673","2025-09-02_09h22.48.781",NA,NA,409.3633,409.3634,409.3634,409.7298,NA,NA,NA,NA,NA,NA,NA,TRUE,1,0.9396,406.3819,409.3632,0,104,104,46,1,30,32,NA,NA,NA,NA,NA,1,105,"binary"
"A0337664A0C54108AD87471FDEEF9189",1,"01990a97-a8e5-7ac5-86cf-c8945307b7c4","01990a83-7673-7c0c-a792-bbd8fbbaf673","2025-09-02_09h22.48.781",NA,NA,412.7133,412.7133,412.7133,413.0632,NA,NA,NA,NA,NA,NA,NA,TRUE,2,1.4177,409.7318,412.7132,0,105,105,52,1,40,47,NA,NA,NA,NA,NA,1,106,"binary"
"A0337664A0C54108AD87471FDEEF9189",1,"01990a97-a8e5-7ac5-86cf-c8945307b7c4","01990a83-7673-7c0c-a792-bbd8fbbaf673","2025-09-02_09h22.48.781",NA,NA,416.0636,416.0636,416.0636,416.4299,NA,NA,NA,NA,NA,NA,NA,TRUE,1,0.5038,413.0654,416.0633,0,106,106,24,1,21,26,NA,NA,NA,NA,NA,1,107,"binary"
"A0337664A0C54108AD87471FDEEF9189",1,"01990a97-a8e5-7ac5-86cf-c8945307b7c4","01990a83-7673-7c0c-a792-bbd8fbbaf673","2025-09-02_09h22.48.781",NA,NA,419.4134,419.4134,419.4134,419.7796,NA,NA,NA,NA,NA,NA,NA,TRUE,1,0.7066,416.4317,419.4133,0,107,107,45,1,30,30,NA,NA,NA,NA,NA,1,108,"binary"
"A0337664A0C54108AD87471FDEEF9189",1,"01990a97-a8e5-7ac5-86cf-c8945307b7c4","01990a83-7673-7c0c-a792-bbd8fbbaf673","2025-09-02_09h22.48.781",NA,NA,427.7971,427.7972,427.7972,428.1459,NA,NA,NA,NA,NA,NA,NA,TRUE,1,0.9151,424.8126,427.7969,NA,NA,NA,NA,NA,150,35,0,0,0,92,1,2,1,"binary"
"A0337664A0C54108AD87471FDEEF9189",1,"01990a97-a8e5-7ac5-86cf-c8945307b7c4","01990a83-7673-7c0c-a792-bbd8fbbaf673","2025-09-02_09h22.48.781",NA,NA,431.147,431.1472,431.1472,431.4969,NA,NA,NA,NA,NA,NA,NA,TRUE,1,0.5533,428.1486,431.1469,NA,NA,NA,NA,NA,45,29,0,1,1,55,1,2,2,"binary"
"A0337664A0C54108AD87471FDEEF9189",1,"01990a97-a8e5-7ac5-86cf-c8945307b7c4","01990a83-7673-7c0c-a792-bbd8fbbaf673","2025-09-02_09h22.48.781",NA,NA,434.496,434.496,434.4961,434.8459,NA,NA,NA,NA,NA,NA,NA,TRUE,2,0.9924,431.4993,434.496,NA,NA,NA,NA,NA,10,32,0,2,2,11,1,2,3,"binary"
"A0337664A0C54108AD87471FDEEF9189",1,"01990a97-a8e5-7ac5-86cf-c8945307b7c4","01990a83-7673-7c0c-a792-bbd8fbbaf673","2025-09-02_09h22.48.781",NA,NA,437.8472,437.8472,437.8472,438.196,NA,NA,NA,NA,NA,NA,NA,TRUE,1,0.5518,434.8479,437.847,NA,NA,NA,NA,NA,25,27,0,3,3,30,1,2,4,"binary"
"A0337664A0C54108AD87471FDEEF9189",1,"01990a97-a8e5-7ac5-86cf-c8945307b7c4","01990a83-7673-7c0c-a792-bbd8fbbaf673","2025-09-02_09h22.48.781",NA,NA,441.1971,441.1971,441.1971,441.547,NA,NA,NA,NA,NA,NA,NA,TRUE,1,0.5894,438.1978,441.1969,NA,NA,NA,NA,NA,180,31,0,4,4,97,1,2,5,"binary"
"A0337664A0C54108AD87471FDEEF9189",1,"01990a97-a8e5-7ac5-86cf-c8945307b7c4","01990a83-7673-7c0c-a792-bbd8fbbaf673","2025-09-02_09h22.48.781",NA,NA,444.5458,444.5458,444.5458,444.8969,NA,NA,NA,NA,NA,NA,NA,TRUE,1,0.6742,441.549,444.5457,NA,NA,NA,NA,NA,30,32,0,5,5,46,1,2,6,"binary"
"A0337664A0C54108AD87471FDEEF9189",1,"01990a97-a8e5-7ac5-86cf-c8945307b7c4","01990a83-7673-7c0c-a792-bbd8fbbaf673","2025-09-02_09h22.48.781",NA,NA,447.8974,447.8974,447.8975,448.247,NA,NA,NA,NA,NA,NA,NA,TRUE,1,0.7316,444.8997,447.8971,NA,NA,NA,NA,NA,14,26,0,6,6,19,1,2,7,"binary"
"A0337664A0C54108AD87471FDEEF9189",1,"01990a97-a8e5-7ac5-86cf-c8945307b7c4","01990a83-7673-7c0c-a792-bbd8fbbaf673","2025-09-02_09h22.48.781",NA,NA,451.2472,451.2472,451.2472,451.5972,NA,NA,NA,NA,NA,NA,NA,TRUE,1,0.7556,448.2493,451.2471,NA,NA,NA,NA,NA,95,35,0,7,7,80,1,2,8,"binary"
"A0337664A0C54108AD87471FDEEF9189",1,"01990a97-a8e5-7ac5-86cf-c8945307b7c4","01990a83-7673-7c0c-a792-bbd8fbbaf673","2025-09-02_09h22.48.781",NA,NA,454.5972,454.5972,454.5972,454.9462,NA,NA,NA,NA,NA,NA,NA,TRUE,1,0.8445,451.5991,454.5971,NA,NA,NA,NA,NA,21,27,0,8,8,25,1,2,9,"binary"
"A0337664A0C54108AD87471FDEEF9189",1,"01990a97-a8e5-7ac5-86cf-c8945307b7c4","01990a83-7673-7c0c-a792-bbd8fbbaf673","2025-09-02_09h22.48.781",NA,NA,457.9464,457.9464,457.9464,458.2972,NA,NA,NA,NA,NA,NA,NA,TRUE,1,1.0422,454.9482,457.9463,NA,NA,NA,NA,NA,45,46,0,9,9,59,1,2,10,"binary"
"A0337664A0C54108AD87471FDEEF9189",1,"01990a97-a8e5-7ac5-86cf-c8945307b7c4","01990a83-7673-7c0c-a792-bbd8fbbaf673","2025-09-02_09h22.48.781",NA,NA,461.2971,461.2972,461.2973,461.6463,NA,NA,NA,NA,NA,NA,NA,TRUE,1,0.8993,458.2993,461.297,NA,NA,NA,NA,NA,45,35,0,10,10,57,1,2,11,"binary"
"A0337664A0C54108AD87471FDEEF9189",1,"01990a97-a8e5-7ac5-86cf-c8945307b7c4","01990a83-7673-7c0c-a792-bbd8fbbaf673","2025-09-02_09h22.48.781",NA,NA,464.6465,464.6465,464.6465,464.9973,NA,NA,NA,NA,NA,NA,NA,TRUE,1,0.7246,461.6481,464.6463,NA,NA,NA,NA,NA,12,26,0,11,11,13,1,2,12,"binary"
"A0337664A0C54108AD87471FDEEF9189",1,"01990a97-a8e5-7ac5-86cf-c8945307b7c4","01990a83-7673-7c0c-a792-bbd8fbbaf673","2025-09-02_09h22.48.781",NA,NA,467.9976,467.9976,467.9976,468.3475,NA,NA,NA,NA,NA,NA,NA,TRUE,1,0.8561,464.9995,467.9975,NA,NA,NA,NA,NA,90,54,0,12,12,77,1,2,13,"binary"
"A0337664A0C54108AD87471FDEEF9189",1,"01990a97-a8e5-7ac5-86cf-c8945307b7c4","01990a83-7673-7c0c-a792-bbd8fbbaf673","2025-09-02_09h22.48.781",NA,NA,471.3476,471.3476,471.3476,471.6973,NA,NA,NA,NA,NA,NA,NA,TRUE,1,0.8561,468.3495,471.3474,NA,NA,NA,NA,NA,60,40,0,13,13,69,1,2,14,"binary"
"A0337664A0C54108AD87471FDEEF9189",1,"01990a97-a8e5-7ac5-86cf-c8945307b7c4","01990a83-7673-7c0c-a792-bbd8fbbaf673","2025-09-02_09h22.48.781",NA,NA,474.6975,474.6975,474.6975,475.0472,NA,NA,NA,NA,NA,NA,NA,TRUE,1,0.7194,471.6994,474.6973,NA,NA,NA,NA,NA,30,27,0,14,14,43,1,2,15,"binary"
"A0337664A0C54108AD87471FDEEF9189",1,"01990a97-a8e5-7ac5-86cf-c8945307b7c4","01990a83-7673-7c0c-a792-bbd8fbbaf673","2025-09-02_09h22.48.781",NA,NA,478.0472,478.0472,478.0472,478.3965,NA,NA,NA,NA,NA,NA,NA,TRUE,1,1.1702,475.0491,478.047,NA,NA,NA,NA,NA,100,46,0,15,15,88,1,2,16,"binary"
"A0337664A0C54108AD87471FDEEF9189",1,"01990a97-a8e5-7ac5-86cf-c8945307b7c4","01990a83-7673-7c0c-a792-bbd8fbbaf673","2025-09-02_09h22.48.781",NA,NA,481.3979,481.3979,481.3979,481.7462,NA,NA,NA,NA,NA,NA,NA,TRUE,1,1.0262,478.3981,481.3977,NA,NA,NA,NA,NA,21,32,0,16,16,28,1,2,17,"binary"
"A0337664A0C54108AD87471FDEEF9189",1,"01990a97-a8e5-7ac5-86cf-c8945307b7c4","01990a83-7673-7c0c-a792-bbd8fbbaf673","2025-09-02_09h22.48.781",NA,NA,484.7478,484.7479,484.748,485.0976,NA,NA,NA,NA,NA,NA,NA,TRUE,1,0.6861,481.747,484.7476,NA,NA,NA,NA,NA,12,25,0,17,17,12,1,2,18,"binary"
"A0337664A0C54108AD87471FDEEF9189",1,"01990a97-a8e5-7ac5-86cf-c8945307b7c4","01990a83-7673-7c0c-a792-bbd8fbbaf673","2025-09-02_09h22.48.781",NA,NA,488.0977,488.0978,488.0978,488.4463,NA,NA,NA,NA,NA,NA,NA,TRUE,1,0.582,485.0995,488.0976,NA,NA,NA,NA,NA,40,33,0,18,18,49,1,2,19,"binary"
"A0337664A0C54108AD87471FDEEF9189",1,"01990a97-a8e5-7ac5-86cf-c8945307b7c4","01990a83-7673-7c0c-a792-bbd8fbbaf673","2025-09-02_09h22.48.781",NA,NA,491.4469,491.4469,491.4469,491.7971,NA,NA,NA,NA,NA,NA,NA,TRUE,2,1.9697,488.4468,491.4467,NA,NA,NA,NA,NA,28,39,0,19,19,40,1,2,20,"binary"
"A0337664A0C54108AD87471FDEEF9189",1,"01990a97-a8e5-7ac5-86cf-c8945307b7c4","01990a83-7673-7c0c-a792-bbd8fbbaf673","2025-09-02_09h22.48.781",NA,NA,494.798,494.798,494.798,495.1478,NA,NA,NA,NA,NA,NA,NA,TRUE,1,0.9896,491.7991,494.7977,NA,NA,NA,NA,NA,95,31,0,20,20,78,1,2,21,"binary"
"A0337664A0C54108AD87471FDEEF9189",1,"01990a97-a8e5-7ac5-86cf-c8945307b7c4","01990a83-7673-7c0c-a792-bbd8fbbaf673","2025-09-02_09h22.48.781",NA,NA,498.1472,498.1472,498.1472,498.4968,NA,NA,NA,NA,NA,NA,NA,TRUE,2,1.1909,495.1499,498.147,NA,NA,NA,NA,NA,10,30,0,21,21,10,1,2,22,"binary"
"A0337664A0C54108AD87471FDEEF9189",1,"01990a97-a8e5-7ac5-86cf-c8945307b7c4","01990a83-7673-7c0c-a792-bbd8fbbaf673","2025-09-02_09h22.48.781",NA,NA,501.4978,501.4979,501.4979,501.8468,NA,NA,NA,NA,NA,NA,NA,TRUE,1,1.335,498.4988,501.4977,NA,NA,NA,NA,NA,60,47,0,22,22,70,1,2,23,"binary"
"A0337664A0C54108AD87471FDEEF9189",1,"01990a97-a8e5-7ac5-86cf-c8945307b7c4","01990a83-7673-7c0c-a792-bbd8fbbaf673","2025-09-02_09h22.48.781",NA,NA,504.8483,504.8483,504.8483,505.198,NA,NA,NA,NA,NA,NA,NA,TRUE,1,0.7183,501.849,504.8481,NA,NA,NA,NA,NA,10,25,0,23,23,6,1,2,24,"binary"
"A0337664A0C54108AD87471FDEEF9189",1,"01990a97-a8e5-7ac5-86cf-c8945307b7c4","01990a83-7673-7c0c-a792-bbd8fbbaf673","2025-09-02_09h22.48.781",NA,NA,508.1966,508.1966,508.1966,508.5475,NA,NA,NA,NA,NA,NA,NA,TRUE,2,1.1937,505.2004,508.1966,NA,NA,NA,NA,NA,50,35,0,24,24,62,1,2,25,"binary"
"A0337664A0C54108AD87471FDEEF9189",1,"01990a97-a8e5-7ac5-86cf-c8945307b7c4","01990a83-7673-7c0c-a792-bbd8fbbaf673","2025-09-02_09h22.48.781",NA,NA,511.5484,511.5484,511.5484,511.8979,NA,NA,NA,NA,NA,NA,NA,TRUE,1,0.6289,508.5489,511.5482,NA,NA,NA,NA,NA,40,47,0,25,25,52,1,2,26,"binary"
"A0337664A0C54108AD87471FDEEF9189",1,"01990a97-a8e5-7ac5-86cf-c8945307b7c4","01990a83-7673-7c0c-a792-bbd8fbbaf673","2025-09-02_09h22.48.781",NA,NA,514.8977,514.8978,514.8978,515.2472,NA,NA,NA,NA,NA,NA,NA,TRUE,1,0.7897,511.9005,514.8976,NA,NA,NA,NA,NA,100,39,0,26,26,87,1,2,27,"binary"
"A0337664A0C54108AD87471FDEEF9189",1,"01990a97-a8e5-7ac5-86cf-c8945307b7c4","01990a83-7673-7c0c-a792-bbd8fbbaf673","2025-09-02_09h22.48.781",NA,NA,518.2483,518.2483,518.2483,518.5979,NA,NA,NA,NA,NA,NA,NA,TRUE,1,1.4759,515.2486,518.248,NA,NA,NA,NA,NA,40,40,0,27,27,51,1,2,28,"binary"
"A0337664A0C54108AD87471FDEEF9189",1,"01990a97-a8e5-7ac5-86cf-c8945307b7c4","01990a83-7673-7c0c-a792-bbd8fbbaf673","2025-09-02_09h22.48.781",NA,NA,521.5977,521.5977,521.5977,521.948,NA,NA,NA,NA,NA,NA,NA,TRUE,1,0.9245,518.5994,521.5976,NA,NA,NA,NA,NA,200,47,0,28,28,106,1,2,29,"binary"
"A0337664A0C54108AD87471FDEEF9189",1,"01990a97-a8e5-7ac5-86cf-c8945307b7c4","01990a83-7673-7c0c-a792-bbd8fbbaf673","2025-09-02_09h22.48.781",NA,NA,524.9484,524.9485,524.9485,525.2982,NA,NA,NA,NA,NA,NA,NA,TRUE,1,0.6729,521.95,524.9482,NA,NA,NA,NA,NA,100,31,0,29,29,85,1,2,30,"binary"
"A0337664A0C54108AD87471FDEEF9189",1,"01990a97-a8e5-7ac5-86cf-c8945307b7c4","01990a83-7673-7c0c-a792-bbd8fbbaf673","2025-09-02_09h22.48.781",NA,NA,528.2982,528.2982,528.2982,528.6482,NA,NA,NA,NA,NA,NA,NA,TRUE,1,0.8931,525.3,528.2981,NA,NA,NA,NA,NA,90,46,0,30,30,76,1,2,31,"binary"
"A0337664A0C54108AD87471FDEEF9189",1,"01990a97-a8e5-7ac5-86cf-c8945307b7c4","01990a83-7673-7c0c-a792-bbd8fbbaf673","2025-09-02_09h22.48.781",NA,NA,531.6482,531.6482,531.6483,531.9976,NA,NA,NA,NA,NA,NA,NA,TRUE,1,1.19,528.6503,531.648,NA,NA,NA,NA,NA,14,28,0,31,31,20,1,2,32,"binary"
"A0337664A0C54108AD87471FDEEF9189",1,"01990a97-a8e5-7ac5-86cf-c8945307b7c4","01990a83-7673-7c0c-a792-bbd8fbbaf673","2025-09-02_09h22.48.781",NA,NA,534.9985,534.9985,534.9985,535.3484,NA,NA,NA,NA,NA,NA,NA,TRUE,1,1.0256,531.9991,534.9983,NA,NA,NA,NA,NA,25,31,0,32,32,32,1,2,33,"binary"
"A0337664A0C54108AD87471FDEEF9189",1,"01990a97-a8e5-7ac5-86cf-c8945307b7c4","01990a83-7673-7c0c-a792-bbd8fbbaf673","2025-09-02_09h22.48.781",NA,NA,538.3479,538.3479,538.3479,538.6979,NA,NA,NA,NA,NA,NA,NA,TRUE,1,0.8268,535.3506,538.3479,NA,NA,NA,NA,NA,100,54,0,33,33,89,1,2,34,"binary"
"A0337664A0C54108AD87471FDEEF9189",1,"01990a97-a8e5-7ac5-86cf-c8945307b7c4","01990a83-7673-7c0c-a792-bbd8fbbaf673","2025-09-02_09h22.48.781",NA,NA,541.6983,541.6983,541.6983,542.0484,NA,NA,NA,NA,NA,NA,NA,TRUE,1,0.8245,538.6983,541.6982,NA,NA,NA,NA,NA,25,33,0,34,34,33,1,2,35,"binary"
"A0337664A0C54108AD87471FDEEF9189",1,"01990a97-a8e5-7ac5-86cf-c8945307b7c4","01990a83-7673-7c0c-a792-bbd8fbbaf673","2025-09-02_09h22.48.781",NA,NA,545.0486,545.0486,545.0486,545.3985,NA,NA,NA,NA,NA,NA,NA,TRUE,1,0.6066,542.0503,545.0484,NA,NA,NA,NA,NA,90,26,0,35,35,72,1,2,36,"binary"
"A0337664A0C54108AD87471FDEEF9189",1,"01990a97-a8e5-7ac5-86cf-c8945307b7c4","01990a83-7673-7c0c-a792-bbd8fbbaf673","2025-09-02_09h22.48.781",NA,NA,548.3989,548.3989,548.3989,548.7485,NA,NA,NA,NA,NA,NA,NA,TRUE,1,1.0074,545.4008,548.3986,NA,NA,NA,NA,NA,7,35,0,36,36,5,1,2,37,"binary"
"A0337664A0C54108AD87471FDEEF9189",1,"01990a97-a8e5-7ac5-86cf-c8945307b7c4","01990a83-7673-7c0c-a792-bbd8fbbaf673","2025-09-02_09h22.48.781",NA,NA,551.7486,551.9984,551.9985,552.0985,NA,NA,NA,NA,NA,NA,NA,FALSE,NA,NA,548.7505,551.7485,NA,NA,NA,NA,NA,25,46,0,37,37,35,1,2,38,"binary"
"A0337664A0C54108AD87471FDEEF9189",1,"01990a97-a8e5-7ac5-86cf-c8945307b7c4","01990a83-7673-7c0c-a792-bbd8fbbaf673","2025-09-02_09h22.48.781",NA,NA,555.0987,555.0988,555.0988,555.4486,NA,NA,NA,NA,NA,NA,NA,TRUE,1,1.9447,552.1006,555.0986,NA,NA,NA,NA,NA,50,46,0,38,38,64,1,2,39,"binary"
"A0337664A0C54108AD87471FDEEF9189",1,"01990a97-a8e5-7ac5-86cf-c8945307b7c4","01990a83-7673-7c0c-a792-bbd8fbbaf673","2025-09-02_09h22.48.781",NA,NA,558.4487,558.6986,558.6986,558.7985,NA,NA,NA,NA,NA,NA,NA,FALSE,NA,NA,555.4505,558.4486,NA,NA,NA,NA,NA,40,27,0,39,39,48,1,2,40,"binary"
"A0337664A0C54108AD87471FDEEF9189",1,"01990a97-a8e5-7ac5-86cf-c8945307b7c4","01990a83-7673-7c0c-a792-bbd8fbbaf673","2025-09-02_09h22.48.781",NA,NA,561.7989,561.7989,561.7989,562.1487,NA,NA,NA,NA,NA,NA,NA,TRUE,1,1.008,558.8007,561.7987,NA,NA,NA,NA,NA,150,54,0,40,40,95,1,2,41,"binary"
"A0337664A0C54108AD87471FDEEF9189",1,"01990a97-a8e5-7ac5-86cf-c8945307b7c4","01990a83-7673-7c0c-a792-bbd8fbbaf673","2025-09-02_09h22.48.781",NA,NA,565.1489,565.149,565.149,565.4986,NA,NA,NA,NA,NA,NA,NA,TRUE,1,0.723,562.1507,565.1487,NA,NA,NA,NA,NA,10,27,0,41,41,8,1,2,42,"binary"
"A0337664A0C54108AD87471FDEEF9189",1,"01990a97-a8e5-7ac5-86cf-c8945307b7c4","01990a83-7673-7c0c-a792-bbd8fbbaf673","2025-09-02_09h22.48.781",NA,NA,568.4987,568.4987,568.4988,568.8484,NA,NA,NA,NA,NA,NA,NA,TRUE,1,0.69,565.5009,568.4986,NA,NA,NA,NA,NA,30,26,0,42,42,42,1,2,43,"binary"
"A0337664A0C54108AD87471FDEEF9189",1,"01990a97-a8e5-7ac5-86cf-c8945307b7c4","01990a83-7673-7c0c-a792-bbd8fbbaf673","2025-09-02_09h22.48.781",NA,NA,571.8491,571.8492,571.8493,572.1989,NA,NA,NA,NA,NA,NA,NA,TRUE,1,0.6904,568.8489,571.8489,NA,NA,NA,NA,NA,45,26,0,43,43,54,1,2,44,"binary"
"A0337664A0C54108AD87471FDEEF9189",1,"01990a97-a8e5-7ac5-86cf-c8945307b7c4","01990a83-7673-7c0c-a792-bbd8fbbaf673","2025-09-02_09h22.48.781",NA,NA,575.1982,575.1982,575.1982,575.5488,NA,NA,NA,NA,NA,NA,NA,TRUE,1,0.751,572.2008,575.1981,NA,NA,NA,NA,NA,40,35,0,44,44,50,1,2,45,"binary"
"A0337664A0C54108AD87471FDEEF9189",1,"01990a97-a8e5-7ac5-86cf-c8945307b7c4","01990a83-7673-7c0c-a792-bbd8fbbaf673","2025-09-02_09h22.48.781",NA,NA,578.5486,578.5488,578.5488,578.899,NA,NA,NA,NA,NA,NA,NA,TRUE,2,0.8001,575.5507,578.5486,NA,NA,NA,NA,NA,21,38,0,45,45,29,1,2,46,"binary"
"A0337664A0C54108AD87471FDEEF9189",1,"01990a97-a8e5-7ac5-86cf-c8945307b7c4","01990a83-7673-7c0c-a792-bbd8fbbaf673","2025-09-02_09h22.48.781",NA,NA,581.8992,581.8993,581.8993,582.249,NA,NA,NA,NA,NA,NA,NA,TRUE,2,0.8726,578.9015,581.899,NA,NA,NA,NA,NA,12,33,0,46,46,16,1,2,47,"binary"
"A0337664A0C54108AD87471FDEEF9189",1,"01990a97-a8e5-7ac5-86cf-c8945307b7c4","01990a83-7673-7c0c-a792-bbd8fbbaf673","2025-09-02_09h22.48.781",NA,NA,585.2492,585.2493,585.2493,585.5992,NA,NA,NA,NA,NA,NA,NA,TRUE,1,0.8891,582.2509,585.2491,NA,NA,NA,NA,NA,28,35,0,47,47,39,1,2,48,"binary"
"A0337664A0C54108AD87471FDEEF9189",1,"01990a97-a8e5-7ac5-86cf-c8945307b7c4","01990a83-7673-7c0c-a792-bbd8fbbaf673","2025-09-02_09h22.48.781",NA,NA,588.5992,588.5993,588.5993,588.949,NA,NA,NA,NA,NA,NA,NA,TRUE,1,0.6724,585.6016,588.5991,NA,NA,NA,NA,NA,150,31,0,48,48,90,1,2,49,"binary"
"A0337664A0C54108AD87471FDEEF9189",1,"01990a97-a8e5-7ac5-86cf-c8945307b7c4","01990a83-7673-7c0c-a792-bbd8fbbaf673","2025-09-02_09h22.48.781",NA,NA,591.9492,591.9493,591.9493,592.299,NA,NA,NA,NA,NA,NA,NA,TRUE,1,0.6413,588.9515,591.949,NA,NA,NA,NA,NA,100,26,0,49,49,84,1,2,50,"binary"
"A0337664A0C54108AD87471FDEEF9189",1,"01990a97-a8e5-7ac5-86cf-c8945307b7c4","01990a83-7673-7c0c-a792-bbd8fbbaf673","2025-09-02_09h22.48.781",NA,NA,595.2993,595.2994,595.2994,595.6491,NA,NA,NA,NA,NA,NA,NA,TRUE,1,0.8166,592.3007,595.2992,NA,NA,NA,NA,NA,30,29,0,50,50,44,1,2,51,"binary"
"A0337664A0C54108AD87471FDEEF9189",1,"01990a97-a8e5-7ac5-86cf-c8945307b7c4","01990a83-7673-7c0c-a792-bbd8fbbaf673","2025-09-02_09h22.48.781",NA,NA,598.6492,598.6492,598.6492,598.9992,NA,NA,NA,NA,NA,NA,NA,TRUE,1,0.9562,595.6512,598.649,NA,NA,NA,NA,NA,90,40,0,51,51,75,1,2,52,"binary"
"A0337664A0C54108AD87471FDEEF9189",1,"01990a97-a8e5-7ac5-86cf-c8945307b7c4","01990a83-7673-7c0c-a792-bbd8fbbaf673","2025-09-02_09h22.48.781",NA,NA,601.9989,601.999,601.999,602.3491,NA,NA,NA,NA,NA,NA,NA,TRUE,2,0.966,599.0015,601.9988,NA,NA,NA,NA,NA,30,38,0,52,52,47,1,2,53,"binary"
"A0337664A0C54108AD87471FDEEF9189",1,"01990a97-a8e5-7ac5-86cf-c8945307b7c4","01990a83-7673-7c0c-a792-bbd8fbbaf673","2025-09-02_09h22.48.781",NA,NA,605.3496,605.3496,605.3496,605.6982,NA,NA,NA,NA,NA,NA,NA,TRUE,1,0.7896,602.3508,605.3495,NA,NA,NA,NA,NA,200,28,0,53,53,103,1,2,54,"binary"
"A0337664A0C54108AD87471FDEEF9189",1,"01990a97-a8e5-7ac5-86cf-c8945307b7c4","01990a83-7673-7c0c-a792-bbd8fbbaf673","2025-09-02_09h22.48.781",NA,NA,608.6998,608.6999,608.6999,609.0495,NA,NA,NA,NA,NA,NA,NA,TRUE,1,0.5672,605.7004,608.6996,NA,NA,NA,NA,NA,10,29,0,54,54,9,1,2,55,"binary"
"A0337664A0C54108AD87471FDEEF9189",1,"01990a97-a8e5-7ac5-86cf-c8945307b7c4","01990a83-7673-7c0c-a792-bbd8fbbaf673","2025-09-02_09h22.48.781",NA,NA,612.0487,612.0487,612.0487,612.3995,NA,NA,NA,NA,NA,NA,NA,TRUE,1,0.766,609.0523,612.0485,NA,NA,NA,NA,NA,90,30,0,55,55,73,1,2,56,"binary"
"A0337664A0C54108AD87471FDEEF9189",1,"01990a97-a8e5-7ac5-86cf-c8945307b7c4","01990a83-7673-7c0c-a792-bbd8fbbaf673","2025-09-02_09h22.48.781",NA,NA,615.3992,615.3992,615.3993,615.7484,NA,NA,NA,NA,NA,NA,NA,TRUE,1,1.4235,612.4019,615.3991,NA,NA,NA,NA,NA,180,54,0,56,56,101,1,2,57,"binary"
"A0337664A0C54108AD87471FDEEF9189",1,"01990a97-a8e5-7ac5-86cf-c8945307b7c4","01990a83-7673-7c0c-a792-bbd8fbbaf673","2025-09-02_09h22.48.781",NA,NA,618.7497,618.7498,618.7498,619.0995,NA,NA,NA,NA,NA,NA,NA,TRUE,1,0.4766,615.7503,618.7495,NA,NA,NA,NA,NA,180,46,0,57,57,100,1,2,58,"binary"
"A0337664A0C54108AD87471FDEEF9189",1,"01990a97-a8e5-7ac5-86cf-c8945307b7c4","01990a83-7673-7c0c-a792-bbd8fbbaf673","2025-09-02_09h22.48.781",NA,NA,622.0987,622.0987,622.0987,622.4494,NA,NA,NA,NA,NA,NA,NA,TRUE,2,1.1171,619.1016,622.0985,NA,NA,NA,NA,NA,12,35,0,58,58,17,1,2,59,"binary"
"A0337664A0C54108AD87471FDEEF9189",1,"01990a97-a8e5-7ac5-86cf-c8945307b7c4","01990a83-7673-7c0c-a792-bbd8fbbaf673","2025-09-02_09h22.48.781",NA,NA,625.4498,625.4498,625.4498,625.7996,NA,NA,NA,NA,NA,NA,NA,TRUE,1,0.7597,622.4513,625.4497,NA,NA,NA,NA,NA,21,29,0,59,59,26,1,2,60,"binary"
"A0337664A0C54108AD87471FDEEF9189",1,"01990a97-a8e5-7ac5-86cf-c8945307b7c4","01990a83-7673-7c0c-a792-bbd8fbbaf673","2025-09-02_09h22.48.781",NA,NA,628.7997,628.7997,628.7997,629.1496,NA,NA,NA,NA,NA,NA,NA,TRUE,1,0.6408,625.8024,628.7995,NA,NA,NA,NA,NA,150,33,0,60,60,91,1,2,61,"binary"
"A0337664A0C54108AD87471FDEEF9189",1,"01990a97-a8e5-7ac5-86cf-c8945307b7c4","01990a83-7673-7c0c-a792-bbd8fbbaf673","2025-09-02_09h22.48.781",NA,NA,632.1496,632.1496,632.1497,632.499,NA,NA,NA,NA,NA,NA,NA,TRUE,2,0.9567,629.152,632.1494,NA,NA,NA,NA,NA,14,32,0,61,61,21,1,2,62,"binary"
"A0337664A0C54108AD87471FDEEF9189",1,"01990a97-a8e5-7ac5-86cf-c8945307b7c4","01990a83-7673-7c0c-a792-bbd8fbbaf673","2025-09-02_09h22.48.781",NA,NA,635.4998,635.4998,635.4998,635.8487,NA,NA,NA,NA,NA,NA,NA,TRUE,1,0.6907,632.5003,635.4997,NA,NA,NA,NA,NA,25,35,0,62,62,34,1,2,63,"binary"
"A0337664A0C54108AD87471FDEEF9189",1,"01990a97-a8e5-7ac5-86cf-c8945307b7c4","01990a83-7673-7c0c-a792-bbd8fbbaf673","2025-09-02_09h22.48.781",NA,NA,638.8498,638.8498,638.8499,639.199,NA,NA,NA,NA,NA,NA,NA,TRUE,1,0.5842,635.8507,638.8497,NA,NA,NA,NA,NA,12,31,0,63,63,15,1,2,64,"binary"
"A0337664A0C54108AD87471FDEEF9189",1,"01990a97-a8e5-7ac5-86cf-c8945307b7c4","01990a83-7673-7c0c-a792-bbd8fbbaf673","2025-09-02_09h22.48.781",NA,NA,642.2,642.2,642.2,642.5494,NA,NA,NA,NA,NA,NA,NA,TRUE,1,0.6335,639.2014,642.1998,NA,NA,NA,NA,NA,100,38,0,64,64,86,1,2,65,"binary"
"A0337664A0C54108AD87471FDEEF9189",1,"01990a97-a8e5-7ac5-86cf-c8945307b7c4","01990a83-7673-7c0c-a792-bbd8fbbaf673","2025-09-02_09h22.48.781",NA,NA,645.55,645.5502,645.5502,645.8992,NA,NA,NA,NA,NA,NA,NA,TRUE,1,0.5604,642.5507,645.5498,NA,NA,NA,NA,NA,95,33,0,65,65,79,1,2,66,"binary"
"A0337664A0C54108AD87471FDEEF9189",1,"01990a97-a8e5-7ac5-86cf-c8945307b7c4","01990a83-7673-7c0c-a792-bbd8fbbaf673","2025-09-02_09h22.48.781",NA,NA,648.899,648.899,648.899,649.2489,NA,NA,NA,NA,NA,NA,NA,TRUE,1,0.6736,645.9013,648.8988,NA,NA,NA,NA,NA,14,25,0,66,66,18,1,2,67,"binary"
"A0337664A0C54108AD87471FDEEF9189",1,"01990a97-a8e5-7ac5-86cf-c8945307b7c4","01990a83-7673-7c0c-a792-bbd8fbbaf673","2025-09-02_09h22.48.781",NA,NA,652.2491,652.2491,652.2491,652.5998,NA,NA,NA,NA,NA,NA,NA,TRUE,1,0.6007,649.2511,652.2489,NA,NA,NA,NA,NA,180,27,0,67,67,96,1,2,68,"binary"
"A0337664A0C54108AD87471FDEEF9189",1,"01990a97-a8e5-7ac5-86cf-c8945307b7c4","01990a83-7673-7c0c-a792-bbd8fbbaf673","2025-09-02_09h22.48.781",NA,NA,655.5991,655.5992,655.5992,655.95,NA,NA,NA,NA,NA,NA,NA,TRUE,1,0.925,652.6019,655.599,NA,NA,NA,NA,NA,7,25,0,68,68,0,1,2,69,"binary"
"A0337664A0C54108AD87471FDEEF9189",1,"01990a97-a8e5-7ac5-86cf-c8945307b7c4","01990a83-7673-7c0c-a792-bbd8fbbaf673","2025-09-02_09h22.48.781",NA,NA,658.9501,658.9502,658.9502,659.3001,NA,NA,NA,NA,NA,NA,NA,TRUE,1,0.6831,655.952,658.95,NA,NA,NA,NA,NA,60,29,0,69,69,66,1,2,70,"binary"
"A0337664A0C54108AD87471FDEEF9189",1,"01990a97-a8e5-7ac5-86cf-c8945307b7c4","01990a83-7673-7c0c-a792-bbd8fbbaf673","2025-09-02_09h22.48.781",NA,NA,662.2987,662.2988,662.2988,662.6486,NA,NA,NA,NA,NA,NA,NA,TRUE,1,1.1228,659.302,662.2987,NA,NA,NA,NA,NA,14,35,0,70,70,22,1,2,71,"binary"
"A0337664A0C54108AD87471FDEEF9189",1,"01990a97-a8e5-7ac5-86cf-c8945307b7c4","01990a83-7673-7c0c-a792-bbd8fbbaf673","2025-09-02_09h22.48.781",NA,NA,665.6492,665.6492,665.6492,665.9992,NA,NA,NA,NA,NA,NA,NA,TRUE,1,0.6587,662.6494,665.6491,NA,NA,NA,NA,NA,60,54,0,71,71,71,1,2,72,"binary"
"A0337664A0C54108AD87471FDEEF9189",1,"01990a97-a8e5-7ac5-86cf-c8945307b7c4","01990a83-7673-7c0c-a792-bbd8fbbaf673","2025-09-02_09h22.48.781",NA,NA,669.0003,669.0004,669.0004,669.35,NA,NA,NA,NA,NA,NA,NA,TRUE,1,0.5515,666.0012,669.0002,NA,NA,NA,NA,NA,95,54,0,72,72,83,1,2,73,"binary"
"A0337664A0C54108AD87471FDEEF9189",1,"01990a97-a8e5-7ac5-86cf-c8945307b7c4","01990a83-7673-7c0c-a792-bbd8fbbaf673","2025-09-02_09h22.48.781",NA,NA,672.3502,672.3503,672.3503,672.7002,NA,NA,NA,NA,NA,NA,NA,TRUE,1,0.8238,669.3519,672.3501,NA,NA,NA,NA,NA,200,26,0,73,73,102,1,2,74,"binary"
"A0337664A0C54108AD87471FDEEF9189",1,"01990a97-a8e5-7ac5-86cf-c8945307b7c4","01990a83-7673-7c0c-a792-bbd8fbbaf673","2025-09-02_09h22.48.781",NA,NA,675.7004,675.7005,675.7005,676.0498,NA,NA,NA,NA,NA,NA,NA,TRUE,1,0.721,672.7018,675.7002,NA,NA,NA,NA,NA,50,30,0,74,74,61,1,2,75,"binary"
"A0337664A0C54108AD87471FDEEF9189",1,"01990a97-a8e5-7ac5-86cf-c8945307b7c4","01990a83-7673-7c0c-a792-bbd8fbbaf673","2025-09-02_09h22.48.781",NA,NA,679.0505,679.0505,679.0506,679.4004,NA,NA,NA,NA,NA,NA,NA,TRUE,1,0.5403,676.0523,679.0503,NA,NA,NA,NA,NA,180,39,0,75,75,99,1,2,76,"binary"
"A0337664A0C54108AD87471FDEEF9189",1,"01990a97-a8e5-7ac5-86cf-c8945307b7c4","01990a83-7673-7c0c-a792-bbd8fbbaf673","2025-09-02_09h22.48.781",NA,NA,682.3997,682.3997,682.3997,682.7504,NA,NA,NA,NA,NA,NA,NA,TRUE,1,0.5387,679.4031,682.3995,NA,NA,NA,NA,NA,10,26,0,76,76,7,1,2,77,"binary"
"A0337664A0C54108AD87471FDEEF9189",1,"01990a97-a8e5-7ac5-86cf-c8945307b7c4","01990a83-7673-7c0c-a792-bbd8fbbaf673","2025-09-02_09h22.48.781",NA,NA,685.7495,685.7496,685.7496,686.0994,NA,NA,NA,NA,NA,NA,NA,TRUE,1,0.6829,682.7525,685.7494,NA,NA,NA,NA,NA,45,40,0,77,77,58,1,2,78,"binary"
"A0337664A0C54108AD87471FDEEF9189",1,"01990a97-a8e5-7ac5-86cf-c8945307b7c4","01990a83-7673-7c0c-a792-bbd8fbbaf673","2025-09-02_09h22.48.781",NA,NA,689.1004,689.1006,689.1006,689.4495,NA,NA,NA,NA,NA,NA,NA,TRUE,1,0.5832,686.1019,689.1003,NA,NA,NA,NA,NA,90,33,0,78,78,74,1,2,79,"binary"
"A0337664A0C54108AD87471FDEEF9189",1,"01990a97-a8e5-7ac5-86cf-c8945307b7c4","01990a83-7673-7c0c-a792-bbd8fbbaf673","2025-09-02_09h22.48.781",NA,NA,692.4502,692.4502,692.4502,692.8001,NA,NA,NA,NA,NA,NA,NA,TRUE,1,0.84,689.4514,692.45,NA,NA,NA,NA,NA,7,26,0,79,79,1,1,2,80,"binary"
"A0337664A0C54108AD87471FDEEF9189",1,"01990a97-a8e5-7ac5-86cf-c8945307b7c4","01990a83-7673-7c0c-a792-bbd8fbbaf673","2025-09-02_09h22.48.781",NA,NA,695.7998,695.7998,695.7998,696.1505,NA,NA,NA,NA,NA,NA,NA,TRUE,1,0.8246,692.8007,695.7996,NA,NA,NA,NA,NA,28,28,0,80,80,37,1,2,81,"binary"
"A0337664A0C54108AD87471FDEEF9189",1,"01990a97-a8e5-7ac5-86cf-c8945307b7c4","01990a83-7673-7c0c-a792-bbd8fbbaf673","2025-09-02_09h22.48.781",NA,NA,699.151,699.1511,699.1511,699.5007,NA,NA,NA,NA,NA,NA,NA,TRUE,1,1.3501,696.1527,699.1506,NA,NA,NA,NA,NA,7,32,0,81,81,4,1,2,82,"binary"
"A0337664A0C54108AD87471FDEEF9189",1,"01990a97-a8e5-7ac5-86cf-c8945307b7c4","01990a83-7673-7c0c-a792-bbd8fbbaf673","2025-09-02_09h22.48.781",NA,NA,702.5,702.5,702.5,702.8497,NA,NA,NA,NA,NA,NA,NA,TRUE,1,0.7056,699.5023,702.4998,NA,NA,NA,NA,NA,21,26,0,82,82,24,1,2,83,"binary"
"A0337664A0C54108AD87471FDEEF9189",1,"01990a97-a8e5-7ac5-86cf-c8945307b7c4","01990a83-7673-7c0c-a792-bbd8fbbaf673","2025-09-02_09h22.48.781",NA,NA,705.851,705.8511,705.8511,706.1998,NA,NA,NA,NA,NA,NA,NA,TRUE,1,0.7059,702.852,705.8508,NA,NA,NA,NA,NA,30,30,0,83,83,45,1,2,84,"binary"
"A0337664A0C54108AD87471FDEEF9189",1,"01990a97-a8e5-7ac5-86cf-c8945307b7c4","01990a83-7673-7c0c-a792-bbd8fbbaf673","2025-09-02_09h22.48.781",NA,NA,709.2009,709.201,709.201,709.5495,NA,NA,NA,NA,NA,NA,NA,TRUE,1,0.8245,706.2019,709.2008,NA,NA,NA,NA,NA,200,39,0,84,84,105,1,2,85,"binary"
"A0337664A0C54108AD87471FDEEF9189",1,"01990a97-a8e5-7ac5-86cf-c8945307b7c4","01990a83-7673-7c0c-a792-bbd8fbbaf673","2025-09-02_09h22.48.781",NA,NA,712.5512,712.5512,712.5512,712.9008,NA,NA,NA,NA,NA,NA,NA,TRUE,1,0.829,709.5508,712.551,NA,NA,NA,NA,NA,150,40,0,85,85,93,1,2,86,"binary"
"A0337664A0C54108AD87471FDEEF9189",1,"01990a97-a8e5-7ac5-86cf-c8945307b7c4","01990a83-7673-7c0c-a792-bbd8fbbaf673","2025-09-02_09h22.48.781",NA,NA,715.901,715.9011,715.9011,716.2507,NA,NA,NA,NA,NA,NA,NA,TRUE,1,0.8338,712.903,715.9009,NA,NA,NA,NA,NA,40,54,0,86,86,53,1,2,87,"binary"
"A0337664A0C54108AD87471FDEEF9189",1,"01990a97-a8e5-7ac5-86cf-c8945307b7c4","01990a83-7673-7c0c-a792-bbd8fbbaf673","2025-09-02_09h22.48.781",NA,NA,719.2501,719.2502,719.2502,719.6009,NA,NA,NA,NA,NA,NA,NA,TRUE,1,1.0271,716.2524,719.25,NA,NA,NA,NA,NA,150,47,0,87,87,94,1,2,88,"binary"
"A0337664A0C54108AD87471FDEEF9189",1,"01990a97-a8e5-7ac5-86cf-c8945307b7c4","01990a83-7673-7c0c-a792-bbd8fbbaf673","2025-09-02_09h22.48.781",NA,NA,722.6002,722.6002,722.6003,722.9509,NA,NA,NA,NA,NA,NA,NA,TRUE,1,0.9426,719.6032,722.6001,NA,NA,NA,NA,NA,12,28,0,88,88,14,1,2,89,"binary"
"A0337664A0C54108AD87471FDEEF9189",1,"01990a97-a8e5-7ac5-86cf-c8945307b7c4","01990a83-7673-7c0c-a792-bbd8fbbaf673","2025-09-02_09h22.48.781",NA,NA,725.9511,725.9512,725.9512,726.3,NA,NA,NA,NA,NA,NA,NA,TRUE,1,0.9162,722.9528,725.9509,NA,NA,NA,NA,NA,45,31,0,89,89,56,1,2,90,"binary"
"A0337664A0C54108AD87471FDEEF9189",1,"01990a97-a8e5-7ac5-86cf-c8945307b7c4","01990a83-7673-7c0c-a792-bbd8fbbaf673","2025-09-02_09h22.48.781",NA,NA,729.3011,729.3012,729.3012,729.6509,NA,NA,NA,NA,NA,NA,NA,TRUE,1,1.0822,726.3014,729.301,NA,NA,NA,NA,NA,200,35,0,90,90,104,1,2,91,"binary"
"A0337664A0C54108AD87471FDEEF9189",1,"01990a97-a8e5-7ac5-86cf-c8945307b7c4","01990a83-7673-7c0c-a792-bbd8fbbaf673","2025-09-02_09h22.48.781",NA,NA,732.6513,732.6514,732.6514,733.0009,NA,NA,NA,NA,NA,NA,NA,TRUE,1,0.7916,729.653,732.6512,NA,NA,NA,NA,NA,95,47,0,91,91,82,1,2,92,"binary"
"A0337664A0C54108AD87471FDEEF9189",1,"01990a97-a8e5-7ac5-86cf-c8945307b7c4","01990a83-7673-7c0c-a792-bbd8fbbaf673","2025-09-02_09h22.48.781",NA,NA,736.0013,736.0013,736.0014,736.3509,NA,NA,NA,NA,NA,NA,NA,TRUE,1,0.6027,733.0027,736.0011,NA,NA,NA,NA,NA,7,30,0,92,92,3,1,2,93,"binary"
"A0337664A0C54108AD87471FDEEF9189",1,"01990a97-a8e5-7ac5-86cf-c8945307b7c4","01990a83-7673-7c0c-a792-bbd8fbbaf673","2025-09-02_09h22.48.781",NA,NA,739.3512,739.3512,739.3512,739.7003,NA,NA,NA,NA,NA,NA,NA,TRUE,2,1.1178,736.3528,739.351,NA,NA,NA,NA,NA,14,39,0,93,93,23,1,2,94,"binary"
"A0337664A0C54108AD87471FDEEF9189",1,"01990a97-a8e5-7ac5-86cf-c8945307b7c4","01990a83-7673-7c0c-a792-bbd8fbbaf673","2025-09-02_09h22.48.781",NA,NA,742.7014,742.7015,742.7015,743.0513,NA,NA,NA,NA,NA,NA,NA,TRUE,1,0.7076,739.7022,742.7013,NA,NA,NA,NA,NA,200,54,0,94,94,107,1,2,95,"binary"
"A0337664A0C54108AD87471FDEEF9189",1,"01990a97-a8e5-7ac5-86cf-c8945307b7c4","01990a83-7673-7c0c-a792-bbd8fbbaf673","2025-09-02_09h22.48.781",NA,NA,746.0515,746.0515,746.0515,746.4004,NA,NA,NA,NA,NA,NA,NA,TRUE,1,0.7741,743.0534,746.0514,NA,NA,NA,NA,NA,50,27,0,95,95,60,1,2,96,"binary"
"A0337664A0C54108AD87471FDEEF9189",1,"01990a97-a8e5-7ac5-86cf-c8945307b7c4","01990a83-7673-7c0c-a792-bbd8fbbaf673","2025-09-02_09h22.48.781",NA,NA,749.4015,749.4015,749.4015,749.7513,NA,NA,NA,NA,NA,NA,NA,TRUE,1,0.7429,746.4022,749.4013,NA,NA,NA,NA,NA,50,54,0,96,96,65,1,2,97,"binary"
"A0337664A0C54108AD87471FDEEF9189",1,"01990a97-a8e5-7ac5-86cf-c8945307b7c4","01990a83-7673-7c0c-a792-bbd8fbbaf673","2025-09-02_09h22.48.781",NA,NA,752.7517,752.7518,752.7519,753.1004,NA,NA,NA,NA,NA,NA,NA,TRUE,1,0.6009,749.7533,752.7515,NA,NA,NA,NA,NA,7,28,0,97,97,2,1,2,98,"binary"
"A0337664A0C54108AD87471FDEEF9189",1,"01990a97-a8e5-7ac5-86cf-c8945307b7c4","01990a83-7673-7c0c-a792-bbd8fbbaf673","2025-09-02_09h22.48.781",NA,NA,756.1016,756.1016,756.1016,756.4514,NA,NA,NA,NA,NA,NA,NA,TRUE,2,1.1888,753.1023,756.1015,NA,NA,NA,NA,NA,28,46,0,98,98,41,1,2,99,"binary"
"A0337664A0C54108AD87471FDEEF9189",1,"01990a97-a8e5-7ac5-86cf-c8945307b7c4","01990a83-7673-7c0c-a792-bbd8fbbaf673","2025-09-02_09h22.48.781",NA,NA,759.4507,759.4507,759.4508,759.8014,NA,NA,NA,NA,NA,NA,NA,TRUE,1,0.5731,756.4533,759.4505,NA,NA,NA,NA,NA,25,29,0,99,99,31,1,2,100,"binary"
"A0337664A0C54108AD87471FDEEF9189",1,"01990a97-a8e5-7ac5-86cf-c8945307b7c4","01990a83-7673-7c0c-a792-bbd8fbbaf673","2025-09-02_09h22.48.781",NA,NA,762.8017,762.8018,762.8018,763.1516,NA,NA,NA,NA,NA,NA,NA,TRUE,1,0.7438,759.8034,762.8016,NA,NA,NA,NA,NA,28,32,0,100,100,38,1,2,101,"binary"
"A0337664A0C54108AD87471FDEEF9189",1,"01990a97-a8e5-7ac5-86cf-c8945307b7c4","01990a83-7673-7c0c-a792-bbd8fbbaf673","2025-09-02_09h22.48.781",NA,NA,766.1518,766.1518,766.1518,766.5015,NA,NA,NA,NA,NA,NA,NA,TRUE,1,0.5401,763.1533,766.1515,NA,NA,NA,NA,NA,28,26,0,101,101,36,1,2,102,"binary"
"A0337664A0C54108AD87471FDEEF9189",1,"01990a97-a8e5-7ac5-86cf-c8945307b7c4","01990a83-7673-7c0c-a792-bbd8fbbaf673","2025-09-02_09h22.48.781",NA,NA,769.5018,769.5019,769.502,769.8516,NA,NA,NA,NA,NA,NA,NA,TRUE,1,0.9817,766.5036,769.5017,NA,NA,NA,NA,NA,50,40,0,102,102,63,1,2,103,"binary"
"A0337664A0C54108AD87471FDEEF9189",1,"01990a97-a8e5-7ac5-86cf-c8945307b7c4","01990a83-7673-7c0c-a792-bbd8fbbaf673","2025-09-02_09h22.48.781",NA,NA,772.8513,772.8514,772.8514,773.2017,NA,NA,NA,NA,NA,NA,NA,TRUE,1,0.7396,769.8537,772.8512,NA,NA,NA,NA,NA,180,35,0,103,103,98,1,2,104,"binary"
"A0337664A0C54108AD87471FDEEF9189",1,"01990a97-a8e5-7ac5-86cf-c8945307b7c4","01990a83-7673-7c0c-a792-bbd8fbbaf673","2025-09-02_09h22.48.781",NA,NA,776.202,776.202,776.202,776.5517,NA,NA,NA,NA,NA,NA,NA,TRUE,1,0.6252,773.2039,776.2017,NA,NA,NA,NA,NA,60,33,0,104,104,67,1,2,105,"binary"
"A0337664A0C54108AD87471FDEEF9189",1,"01990a97-a8e5-7ac5-86cf-c8945307b7c4","01990a83-7673-7c0c-a792-bbd8fbbaf673","2025-09-02_09h22.48.781",NA,NA,779.5517,779.5518,779.5518,779.9017,NA,NA,NA,NA,NA,NA,NA,TRUE,1,1.0579,776.5536,779.5516,NA,NA,NA,NA,NA,95,40,0,105,105,81,1,2,106,"binary"
"A0337664A0C54108AD87471FDEEF9189",1,"01990a97-a8e5-7ac5-86cf-c8945307b7c4","01990a83-7673-7c0c-a792-bbd8fbbaf673","2025-09-02_09h22.48.781",NA,NA,782.902,782.9021,782.9021,783.2518,NA,NA,NA,NA,NA,NA,NA,TRUE,1,0.9397,779.9041,782.9019,NA,NA,NA,NA,NA,60,35,0,106,106,68,1,2,107,"binary"
"A0337664A0C54108AD87471FDEEF9189",1,"01990a97-a8e5-7ac5-86cf-c8945307b7c4","01990a83-7673-7c0c-a792-bbd8fbbaf673","2025-09-02_09h22.48.781",NA,NA,786.2516,786.2516,786.2516,786.6019,NA,NA,NA,NA,NA,NA,NA,TRUE,1,0.8727,783.254,786.2515,NA,NA,NA,NA,NA,21,30,0,107,107,27,1,2,108,"binary"
