"participant","session","assignmentId","projectId","date","practiceTrial.started","practiceTrial.stopped","tooLate.started","tooLate.stopped","blank.started","blank.stopped","trials_pract.thisRepN","trials_pract.thisTrialN","trials_pract.thisN","trials_pract.thisIndex","trials_pract.ran","delay_pract","amount_pract","responseMade","key","rt","trial.started","trial.stopped","trials.thisRepN","trials.thisTrialN","trials.thisN","trials.thisIndex","trials.ran","delay","amount","trials_2.thisRepN","trials_2.thisTrialN","trials_2.thisN","trials_2.thisIndex","trials_2.ran","block","trial","taskType"
"B27D12A0E5074BA0B636F5FF79F39784",1,"0198ecee-550e-7a19-b0b4-5162145396d3","0198c47e-224f-7cc7-87e7-f5ab0011d1ce","2025-08-27_15h08.53.739",31.2544,34.2458,34.2461,34.4869,34.4869,34.5629,0,0,0,1,1,100,50,FALSE,NA,NA,NA,NA,NA,NA,NA,NA,NA,NA,NA,NA,NA,NA,NA,NA,0,1,"binary"
"B27D12A0E5074BA0B636F5FF79F39784",1,"0198ecee-550e-7a19-b0b4-5162145396d3","0198c47e-224f-7cc7-87e7-f5ab0011d1ce","2025-08-27_15h08.53.739",34.564,37.5773,37.5774,37.5774,37.5774,37.9342,0,1,1,0,1,7,30,TRUE,1,1.5799,NA,NA,NA,NA,NA,NA,NA,NA,NA,NA,NA,NA,NA,NA,0,2,"binary"
"B27D12A0E5074BA0B636F5FF79F39784",1,"0198ecee-550e-7a19-b0b4-5162145396d3","0198c47e-224f-7cc7-87e7-f5ab0011d1ce","2025-08-27_15h08.53.739",37.9354,40.9048,40.905,40.905,40.905,41.2547,0,2,2,4,1,30,40,TRUE,1,0.8335,NA,NA,NA,NA,NA,NA,NA,NA,NA,NA,NA,NA,NA,NA,0,3,"binary"
"B27D12A0E5074BA0B636F5FF79F39784",1,"0198ecee-550e-7a19-b0b4-5162145396d3","0198c47e-224f-7cc7-87e7-f5ab0011d1ce","2025-08-27_15h08.53.739",41.2556,44.2562,44.2563,44.2564,44.2564,44.646,0,3,3,2,1,14,45,TRUE,1,0.5748,NA,NA,NA,NA,NA,NA,NA,NA,NA,NA,NA,NA,NA,NA,0,4,"binary"
"B27D12A0E5074BA0B636F5FF79F39784",1,"0198ecee-550e-7a19-b0b4-5162145396d3","0198c47e-224f-7cc7-87e7-f5ab0011d1ce","2025-08-27_15h08.53.739",44.6471,47.645,47.6451,47.6451,47.6451,47.9652,0,4,4,3,1,3,27,TRUE,1,0.7036,NA,NA,NA,NA,NA,NA,NA,NA,NA,NA,NA,NA,NA,NA,0,5,"binary"
"B27D12A0E5074BA0B636F5FF79F39784",1,"0198ecee-550e-7a19-b0b4-5162145396d3","0198c47e-224f-7cc7-87e7-f5ab0011d1ce","2025-08-27_15h08.53.739",NA,NA,108.3412,108.3412,108.3412,108.6967,NA,NA,NA,NA,NA,NA,NA,TRUE,1,1.3667,105.3528,108.341,0,0,0,57,1,45,35,NA,NA,NA,NA,NA,1,1,"binary"
"B27D12A0E5074BA0B636F5FF79F39784",1,"0198ecee-550e-7a19-b0b4-5162145396d3","0198c47e-224f-7cc7-87e7-f5ab0011d1ce","2025-08-27_15h08.53.739",NA,NA,111.6563,111.6563,111.6564,112.0515,NA,NA,NA,NA,NA,NA,NA,TRUE,1,0.5792,108.6975,111.6562,0,1,1,90,1,150,31,NA,NA,NA,NA,NA,1,2,"binary"
"B27D12A0E5074BA0B636F5FF79F39784",1,"0198ecee-550e-7a19-b0b4-5162145396d3","0198c47e-224f-7cc7-87e7-f5ab0011d1ce","2025-08-27_15h08.53.739",NA,NA,115.0288,115.0288,115.0288,115.3611,NA,NA,NA,NA,NA,NA,NA,TRUE,1,0.5015,112.0524,115.0283,0,2,2,38,1,28,32,NA,NA,NA,NA,NA,1,3,"binary"
"B27D12A0E5074BA0B636F5FF79F39784",1,"0198ecee-550e-7a19-b0b4-5162145396d3","0198c47e-224f-7cc7-87e7-f5ab0011d1ce","2025-08-27_15h08.53.739",NA,NA,118.3743,118.3743,118.3743,118.7345,NA,NA,NA,NA,NA,NA,NA,TRUE,1,0.4586,115.3624,118.3742,0,3,3,84,1,100,26,NA,NA,NA,NA,NA,1,4,"binary"
"B27D12A0E5074BA0B636F5FF79F39784",1,"0198ecee-550e-7a19-b0b4-5162145396d3","0198c47e-224f-7cc7-87e7-f5ab0011d1ce","2025-08-27_15h08.53.739",NA,NA,121.7195,121.7195,121.7195,122.0835,NA,NA,NA,NA,NA,NA,NA,TRUE,1,0.4271,118.7353,121.7194,0,4,4,28,1,21,32,NA,NA,NA,NA,NA,1,5,"binary"
"B27D12A0E5074BA0B636F5FF79F39784",1,"0198ecee-550e-7a19-b0b4-5162145396d3","0198c47e-224f-7cc7-87e7-f5ab0011d1ce","2025-08-27_15h08.53.739",NA,NA,125.089,125.089,125.089,125.4301,NA,NA,NA,NA,NA,NA,NA,TRUE,1,0.3739,122.0843,125.0889,0,5,5,69,1,60,40,NA,NA,NA,NA,NA,1,6,"binary"
"B27D12A0E5074BA0B636F5FF79F39784",1,"0198ecee-550e-7a19-b0b4-5162145396d3","0198c47e-224f-7cc7-87e7-f5ab0011d1ce","2025-08-27_15h08.53.739",NA,NA,128.4332,128.4333,128.4333,128.7605,NA,NA,NA,NA,NA,NA,NA,TRUE,1,0.2962,125.4312,128.4331,0,6,6,26,1,21,29,NA,NA,NA,NA,NA,1,7,"binary"
"B27D12A0E5074BA0B636F5FF79F39784",1,"0198ecee-550e-7a19-b0b4-5162145396d3","0198c47e-224f-7cc7-87e7-f5ab0011d1ce","2025-08-27_15h08.53.739",NA,NA,131.7848,131.7848,131.7848,132.1133,NA,NA,NA,NA,NA,NA,NA,TRUE,1,0.3768,128.7612,131.7847,0,7,7,17,1,12,35,NA,NA,NA,NA,NA,1,8,"binary"
"B27D12A0E5074BA0B636F5FF79F39784",1,"0198ecee-550e-7a19-b0b4-5162145396d3","0198c47e-224f-7cc7-87e7-f5ab0011d1ce","2025-08-27_15h08.53.739",NA,NA,135.1241,135.1243,135.1243,135.4768,NA,NA,NA,NA,NA,NA,NA,TRUE,1,0.3647,132.1141,135.1241,0,8,8,1,1,7,26,NA,NA,NA,NA,NA,1,9,"binary"
"B27D12A0E5074BA0B636F5FF79F39784",1,"0198ecee-550e-7a19-b0b4-5162145396d3","0198c47e-224f-7cc7-87e7-f5ab0011d1ce","2025-08-27_15h08.53.739",NA,NA,138.466,138.466,138.466,138.8403,NA,NA,NA,NA,NA,NA,NA,TRUE,1,0.4992,135.4784,138.4659,0,9,9,19,1,14,26,NA,NA,NA,NA,NA,1,10,"binary"
"B27D12A0E5074BA0B636F5FF79F39784",1,"0198ecee-550e-7a19-b0b4-5162145396d3","0198c47e-224f-7cc7-87e7-f5ab0011d1ce","2025-08-27_15h08.53.739",NA,NA,141.8313,141.8313,141.8313,142.1913,NA,NA,NA,NA,NA,NA,NA,TRUE,1,0.3359,138.8411,141.8313,0,10,10,37,1,28,28,NA,NA,NA,NA,NA,1,11,"binary"
"B27D12A0E5074BA0B636F5FF79F39784",1,"0198ecee-550e-7a19-b0b4-5162145396d3","0198c47e-224f-7cc7-87e7-f5ab0011d1ce","2025-08-27_15h08.53.739",NA,NA,145.1703,145.1703,145.1703,145.5386,NA,NA,NA,NA,NA,NA,NA,TRUE,1,0.5079,142.1921,145.1702,0,11,11,29,1,21,38,NA,NA,NA,NA,NA,1,12,"binary"
"B27D12A0E5074BA0B636F5FF79F39784",1,"0198ecee-550e-7a19-b0b4-5162145396d3","0198c47e-224f-7cc7-87e7-f5ab0011d1ce","2025-08-27_15h08.53.739",NA,NA,148.5398,148.5398,148.5398,148.9056,NA,NA,NA,NA,NA,NA,NA,TRUE,1,0.4592,145.5393,148.5397,0,12,12,98,1,180,35,NA,NA,NA,NA,NA,1,13,"binary"
"B27D12A0E5074BA0B636F5FF79F39784",1,"0198ecee-550e-7a19-b0b4-5162145396d3","0198c47e-224f-7cc7-87e7-f5ab0011d1ce","2025-08-27_15h08.53.739",NA,NA,151.8644,151.8644,151.8644,152.2303,NA,NA,NA,NA,NA,NA,NA,TRUE,1,0.3433,148.9064,151.8643,0,13,13,81,1,95,40,NA,NA,NA,NA,NA,1,14,"binary"
"B27D12A0E5074BA0B636F5FF79F39784",1,"0198ecee-550e-7a19-b0b4-5162145396d3","0198c47e-224f-7cc7-87e7-f5ab0011d1ce","2025-08-27_15h08.53.739",NA,NA,155.2304,155.2305,155.2305,155.6033,NA,NA,NA,NA,NA,NA,NA,TRUE,1,0.2981,152.231,155.2302,0,14,14,7,1,10,26,NA,NA,NA,NA,NA,1,15,"binary"
"B27D12A0E5074BA0B636F5FF79F39784",1,"0198ecee-550e-7a19-b0b4-5162145396d3","0198c47e-224f-7cc7-87e7-f5ab0011d1ce","2025-08-27_15h08.53.739",NA,NA,158.5797,158.5798,158.5798,158.9392,NA,NA,NA,NA,NA,NA,NA,TRUE,1,0.5131,155.604,158.5796,0,15,15,58,1,45,40,NA,NA,NA,NA,NA,1,16,"binary"
"B27D12A0E5074BA0B636F5FF79F39784",1,"0198ecee-550e-7a19-b0b4-5162145396d3","0198c47e-224f-7cc7-87e7-f5ab0011d1ce","2025-08-27_15h08.53.739",NA,NA,161.9352,161.9352,161.9352,162.2892,NA,NA,NA,NA,NA,NA,NA,TRUE,1,0.3,158.9401,161.9351,0,16,16,97,1,180,31,NA,NA,NA,NA,NA,1,17,"binary"
"B27D12A0E5074BA0B636F5FF79F39784",1,"0198ecee-550e-7a19-b0b4-5162145396d3","0198c47e-224f-7cc7-87e7-f5ab0011d1ce","2025-08-27_15h08.53.739",NA,NA,165.2737,165.2737,165.2737,165.6301,NA,NA,NA,NA,NA,NA,NA,TRUE,1,0.287,162.29,165.2736,0,17,17,48,1,40,27,NA,NA,NA,NA,NA,1,18,"binary"
"B27D12A0E5074BA0B636F5FF79F39784",1,"0198ecee-550e-7a19-b0b4-5162145396d3","0198c47e-224f-7cc7-87e7-f5ab0011d1ce","2025-08-27_15h08.53.739",NA,NA,168.6412,168.6412,168.6412,168.9914,NA,NA,NA,NA,NA,NA,NA,TRUE,1,0.0428,165.6307,168.6411,0,18,18,3,1,7,30,NA,NA,NA,NA,NA,1,19,"binary"
"B27D12A0E5074BA0B636F5FF79F39784",1,"0198ecee-550e-7a19-b0b4-5162145396d3","0198c47e-224f-7cc7-87e7-f5ab0011d1ce","2025-08-27_15h08.53.739",NA,NA,171.9964,171.9964,171.9964,172.347,NA,NA,NA,NA,NA,NA,NA,TRUE,1,0.4654,168.9921,171.9963,0,19,19,75,1,90,40,NA,NA,NA,NA,NA,1,20,"binary"
"B27D12A0E5074BA0B636F5FF79F39784",1,"0198ecee-550e-7a19-b0b4-5162145396d3","0198c47e-224f-7cc7-87e7-f5ab0011d1ce","2025-08-27_15h08.53.739",NA,NA,175.355,175.355,175.355,175.6835,NA,NA,NA,NA,NA,NA,NA,TRUE,1,0.3293,172.3476,175.3549,0,20,20,4,1,7,32,NA,NA,NA,NA,NA,1,21,"binary"
"B27D12A0E5074BA0B636F5FF79F39784",1,"0198ecee-550e-7a19-b0b4-5162145396d3","0198c47e-224f-7cc7-87e7-f5ab0011d1ce","2025-08-27_15h08.53.739",NA,NA,178.6894,178.6895,178.6895,179.0192,NA,NA,NA,NA,NA,NA,NA,TRUE,1,0.2257,175.6844,178.6894,0,21,21,99,1,180,39,NA,NA,NA,NA,NA,1,22,"binary"
"B27D12A0E5074BA0B636F5FF79F39784",1,"0198ecee-550e-7a19-b0b4-5162145396d3","0198c47e-224f-7cc7-87e7-f5ab0011d1ce","2025-08-27_15h08.53.739",NA,NA,182.0456,182.0456,182.0456,182.3962,NA,NA,NA,NA,NA,NA,NA,TRUE,1,0.2568,179.0201,182.0455,0,22,22,47,1,30,38,NA,NA,NA,NA,NA,1,23,"binary"
"B27D12A0E5074BA0B636F5FF79F39784",1,"0198ecee-550e-7a19-b0b4-5162145396d3","0198c47e-224f-7cc7-87e7-f5ab0011d1ce","2025-08-27_15h08.53.739",NA,NA,185.3692,185.3692,185.3692,185.7366,NA,NA,NA,NA,NA,NA,NA,TRUE,1,0.1421,182.3969,185.3691,0,23,23,103,1,200,28,NA,NA,NA,NA,NA,1,24,"binary"
"B27D12A0E5074BA0B636F5FF79F39784",1,"0198ecee-550e-7a19-b0b4-5162145396d3","0198c47e-224f-7cc7-87e7-f5ab0011d1ce","2025-08-27_15h08.53.739",NA,NA,188.7204,188.7204,188.7204,189.0988,NA,NA,NA,NA,NA,NA,NA,TRUE,1,0.2969,185.7375,188.7203,0,24,24,74,1,90,33,NA,NA,NA,NA,NA,1,25,"binary"
"B27D12A0E5074BA0B636F5FF79F39784",1,"0198ecee-550e-7a19-b0b4-5162145396d3","0198c47e-224f-7cc7-87e7-f5ab0011d1ce","2025-08-27_15h08.53.739",NA,NA,192.0931,192.0931,192.0931,192.4349,NA,NA,NA,NA,NA,NA,NA,TRUE,1,0.2681,189.1007,192.093,0,25,25,88,1,100,46,NA,NA,NA,NA,NA,1,26,"binary"
"B27D12A0E5074BA0B636F5FF79F39784",1,"0198ecee-550e-7a19-b0b4-5162145396d3","0198c47e-224f-7cc7-87e7-f5ab0011d1ce","2025-08-27_15h08.53.739",NA,NA,195.4192,195.4193,195.4193,195.794,NA,NA,NA,NA,NA,NA,NA,TRUE,1,0.4086,192.4356,195.4192,0,26,26,52,1,40,47,NA,NA,NA,NA,NA,1,27,"binary"
"B27D12A0E5074BA0B636F5FF79F39784",1,"0198ecee-550e-7a19-b0b4-5162145396d3","0198c47e-224f-7cc7-87e7-f5ab0011d1ce","2025-08-27_15h08.53.739",NA,NA,198.7749,198.7749,198.7749,199.12,NA,NA,NA,NA,NA,NA,NA,TRUE,1,0.2744,195.7947,198.7747,0,27,27,61,1,50,30,NA,NA,NA,NA,NA,1,28,"binary"
"B27D12A0E5074BA0B636F5FF79F39784",1,"0198ecee-550e-7a19-b0b4-5162145396d3","0198c47e-224f-7cc7-87e7-f5ab0011d1ce","2025-08-27_15h08.53.739",NA,NA,202.1379,202.1379,202.1379,202.4944,NA,NA,NA,NA,NA,NA,NA,TRUE,1,0.3242,199.1208,202.1377,0,28,28,5,1,7,35,NA,NA,NA,NA,NA,1,29,"binary"
"B27D12A0E5074BA0B636F5FF79F39784",1,"0198ecee-550e-7a19-b0b4-5162145396d3","0198c47e-224f-7cc7-87e7-f5ab0011d1ce","2025-08-27_15h08.53.739",NA,NA,205.4756,205.4756,205.4756,205.8266,NA,NA,NA,NA,NA,NA,NA,TRUE,1,0.3189,202.4952,205.4755,0,29,29,94,1,150,47,NA,NA,NA,NA,NA,1,30,"binary"
"B27D12A0E5074BA0B636F5FF79F39784",1,"0198ecee-550e-7a19-b0b4-5162145396d3","0198c47e-224f-7cc7-87e7-f5ab0011d1ce","2025-08-27_15h08.53.739",NA,NA,208.8273,208.8273,208.8273,209.2013,NA,NA,NA,NA,NA,NA,NA,TRUE,1,0.3187,205.8277,208.8272,0,30,30,63,1,50,40,NA,NA,NA,NA,NA,1,31,"binary"
"B27D12A0E5074BA0B636F5FF79F39784",1,"0198ecee-550e-7a19-b0b4-5162145396d3","0198c47e-224f-7cc7-87e7-f5ab0011d1ce","2025-08-27_15h08.53.739",NA,NA,212.1814,212.1815,212.1815,212.5365,NA,NA,NA,NA,NA,NA,NA,TRUE,1,0.3216,209.202,212.1813,0,31,31,100,1,180,46,NA,NA,NA,NA,NA,1,32,"binary"
"B27D12A0E5074BA0B636F5FF79F39784",1,"0198ecee-550e-7a19-b0b4-5162145396d3","0198c47e-224f-7cc7-87e7-f5ab0011d1ce","2025-08-27_15h08.53.739",NA,NA,215.5417,215.5417,215.5418,215.8832,NA,NA,NA,NA,NA,NA,NA,TRUE,1,0.2747,212.5375,215.5417,0,32,32,10,1,10,30,NA,NA,NA,NA,NA,1,33,"binary"
"B27D12A0E5074BA0B636F5FF79F39784",1,"0198ecee-550e-7a19-b0b4-5162145396d3","0198c47e-224f-7cc7-87e7-f5ab0011d1ce","2025-08-27_15h08.53.739",NA,NA,218.8871,218.8871,218.8871,219.2259,NA,NA,NA,NA,NA,NA,NA,TRUE,1,0.2714,215.8839,218.8869,0,33,33,14,1,12,28,NA,NA,NA,NA,NA,1,34,"binary"
"B27D12A0E5074BA0B636F5FF79F39784",1,"0198ecee-550e-7a19-b0b4-5162145396d3","0198c47e-224f-7cc7-87e7-f5ab0011d1ce","2025-08-27_15h08.53.739",NA,NA,222.2385,222.2385,222.2385,222.5824,NA,NA,NA,NA,NA,NA,NA,TRUE,1,0.3158,219.2267,222.2384,0,34,34,79,1,95,33,NA,NA,NA,NA,NA,1,35,"binary"
"B27D12A0E5074BA0B636F5FF79F39784",1,"0198ecee-550e-7a19-b0b4-5162145396d3","0198c47e-224f-7cc7-87e7-f5ab0011d1ce","2025-08-27_15h08.53.739",NA,NA,225.6131,225.6131,225.6131,225.9133,NA,NA,NA,NA,NA,NA,NA,TRUE,1,0.2277,222.5834,225.613,0,35,35,15,1,12,31,NA,NA,NA,NA,NA,1,36,"binary"
"B27D12A0E5074BA0B636F5FF79F39784",1,"0198ecee-550e-7a19-b0b4-5162145396d3","0198c47e-224f-7cc7-87e7-f5ab0011d1ce","2025-08-27_15h08.53.739",NA,NA,228.9503,228.9503,228.9503,229.2964,NA,NA,NA,NA,NA,NA,NA,TRUE,1,0.3187,225.9144,228.9502,0,36,36,86,1,100,38,NA,NA,NA,NA,NA,1,37,"binary"
"B27D12A0E5074BA0B636F5FF79F39784",1,"0198ecee-550e-7a19-b0b4-5162145396d3","0198c47e-224f-7cc7-87e7-f5ab0011d1ce","2025-08-27_15h08.53.739",NA,NA,232.2926,232.2926,232.2926,232.6348,NA,NA,NA,NA,NA,NA,NA,TRUE,1,0.4048,229.2973,232.2925,0,37,37,83,1,95,54,NA,NA,NA,NA,NA,1,38,"binary"
"B27D12A0E5074BA0B636F5FF79F39784",1,"0198ecee-550e-7a19-b0b4-5162145396d3","0198c47e-224f-7cc7-87e7-f5ab0011d1ce","2025-08-27_15h08.53.739",NA,NA,235.6516,235.6516,235.6516,235.9988,NA,NA,NA,NA,NA,NA,NA,TRUE,1,0.6721,232.6357,235.6516,0,38,38,30,1,25,27,NA,NA,NA,NA,NA,1,39,"binary"
"B27D12A0E5074BA0B636F5FF79F39784",1,"0198ecee-550e-7a19-b0b4-5162145396d3","0198c47e-224f-7cc7-87e7-f5ab0011d1ce","2025-08-27_15h08.53.739",NA,NA,238.9906,238.9907,238.9907,239.3338,NA,NA,NA,NA,NA,NA,NA,TRUE,1,0.4533,235.9995,238.9905,0,39,39,20,1,14,28,NA,NA,NA,NA,NA,1,40,"binary"
"B27D12A0E5074BA0B636F5FF79F39784",1,"0198ecee-550e-7a19-b0b4-5162145396d3","0198c47e-224f-7cc7-87e7-f5ab0011d1ce","2025-08-27_15h08.53.739",NA,NA,242.3204,242.3204,242.3204,242.7067,NA,NA,NA,NA,NA,NA,NA,TRUE,1,1.339,239.3347,242.3203,0,40,40,54,1,45,26,NA,NA,NA,NA,NA,1,41,"binary"
"B27D12A0E5074BA0B636F5FF79F39784",1,"0198ecee-550e-7a19-b0b4-5162145396d3","0198c47e-224f-7cc7-87e7-f5ab0011d1ce","2025-08-27_15h08.53.739",NA,NA,245.6635,245.6635,245.6636,246.0587,NA,NA,NA,NA,NA,NA,NA,TRUE,1,0.3725,242.7076,245.6635,0,41,41,105,1,200,39,NA,NA,NA,NA,NA,1,42,"binary"
"B27D12A0E5074BA0B636F5FF79F39784",1,"0198ecee-550e-7a19-b0b4-5162145396d3","0198c47e-224f-7cc7-87e7-f5ab0011d1ce","2025-08-27_15h08.53.739",NA,NA,249.0195,249.0196,249.0196,249.3578,NA,NA,NA,NA,NA,NA,NA,TRUE,1,0.7072,246.0595,249.0194,0,42,42,85,1,100,31,NA,NA,NA,NA,NA,1,43,"binary"
"B27D12A0E5074BA0B636F5FF79F39784",1,"0198ecee-550e-7a19-b0b4-5162145396d3","0198c47e-224f-7cc7-87e7-f5ab0011d1ce","2025-08-27_15h08.53.739",NA,NA,252.3704,252.3704,252.3704,252.7417,NA,NA,NA,NA,NA,NA,NA,TRUE,1,0.2663,249.3585,252.3703,0,43,43,33,1,25,33,NA,NA,NA,NA,NA,1,44,"binary"
"B27D12A0E5074BA0B636F5FF79F39784",1,"0198ecee-550e-7a19-b0b4-5162145396d3","0198c47e-224f-7cc7-87e7-f5ab0011d1ce","2025-08-27_15h08.53.739",NA,NA,255.7418,255.7418,255.7418,256.0846,NA,NA,NA,NA,NA,NA,NA,TRUE,1,0.3164,252.7425,255.7418,0,44,44,60,1,50,27,NA,NA,NA,NA,NA,1,45,"binary"
"B27D12A0E5074BA0B636F5FF79F39784",1,"0198ecee-550e-7a19-b0b4-5162145396d3","0198c47e-224f-7cc7-87e7-f5ab0011d1ce","2025-08-27_15h08.53.739",NA,NA,259.0889,259.0889,259.0889,259.4316,NA,NA,NA,NA,NA,NA,NA,TRUE,1,0.2199,256.0857,259.0888,0,45,45,24,1,21,26,NA,NA,NA,NA,NA,1,46,"binary"
"B27D12A0E5074BA0B636F5FF79F39784",1,"0198ecee-550e-7a19-b0b4-5162145396d3","0198c47e-224f-7cc7-87e7-f5ab0011d1ce","2025-08-27_15h08.53.739",NA,NA,262.4164,262.4164,262.4164,262.7799,NA,NA,NA,NA,NA,NA,NA,TRUE,1,0.3085,259.4323,262.4164,0,46,46,12,1,12,25,NA,NA,NA,NA,NA,1,47,"binary"
"B27D12A0E5074BA0B636F5FF79F39784",1,"0198ecee-550e-7a19-b0b4-5162145396d3","0198c47e-224f-7cc7-87e7-f5ab0011d1ce","2025-08-27_15h08.53.739",NA,NA,265.7846,265.7847,265.7847,266.1167,NA,NA,NA,NA,NA,NA,NA,TRUE,1,0.2222,262.7808,265.7844,0,47,47,101,1,180,54,NA,NA,NA,NA,NA,1,48,"binary"
"B27D12A0E5074BA0B636F5FF79F39784",1,"0198ecee-550e-7a19-b0b4-5162145396d3","0198c47e-224f-7cc7-87e7-f5ab0011d1ce","2025-08-27_15h08.53.739",NA,NA,269.1075,269.1075,269.1075,269.4693,NA,NA,NA,NA,NA,NA,NA,TRUE,1,0.2694,266.1175,269.1074,0,48,48,87,1,100,39,NA,NA,NA,NA,NA,1,49,"binary"
"B27D12A0E5074BA0B636F5FF79F39784",1,"0198ecee-550e-7a19-b0b4-5162145396d3","0198c47e-224f-7cc7-87e7-f5ab0011d1ce","2025-08-27_15h08.53.739",NA,NA,272.4963,272.4964,272.4964,272.8267,NA,NA,NA,NA,NA,NA,NA,TRUE,1,0.2951,269.4701,272.4963,0,49,49,23,1,14,39,NA,NA,NA,NA,NA,1,50,"binary"
"B27D12A0E5074BA0B636F5FF79F39784",1,"0198ecee-550e-7a19-b0b4-5162145396d3","0198c47e-224f-7cc7-87e7-f5ab0011d1ce","2025-08-27_15h08.53.739",NA,NA,275.8256,275.8256,275.8256,276.1936,NA,NA,NA,NA,NA,NA,NA,TRUE,1,0.2563,272.8283,275.8256,0,50,50,49,1,40,33,NA,NA,NA,NA,NA,1,51,"binary"
"B27D12A0E5074BA0B636F5FF79F39784",1,"0198ecee-550e-7a19-b0b4-5162145396d3","0198c47e-224f-7cc7-87e7-f5ab0011d1ce","2025-08-27_15h08.53.739",NA,NA,279.1725,279.1725,279.1725,279.5416,NA,NA,NA,NA,NA,NA,NA,TRUE,1,0.0039,276.1944,279.1724,0,51,51,46,1,30,32,NA,NA,NA,NA,NA,1,52,"binary"
"B27D12A0E5074BA0B636F5FF79F39784",1,"0198ecee-550e-7a19-b0b4-5162145396d3","0198c47e-224f-7cc7-87e7-f5ab0011d1ce","2025-08-27_15h08.53.739",NA,NA,282.5362,282.5362,282.5362,282.908,NA,NA,NA,NA,NA,NA,NA,TRUE,1,0.0874,279.5423,282.5362,0,52,52,0,1,7,25,NA,NA,NA,NA,NA,1,53,"binary"
"B27D12A0E5074BA0B636F5FF79F39784",1,"0198ecee-550e-7a19-b0b4-5162145396d3","0198c47e-224f-7cc7-87e7-f5ab0011d1ce","2025-08-27_15h08.53.739",NA,NA,285.8698,285.8698,285.8698,286.228,NA,NA,NA,NA,NA,NA,NA,TRUE,1,0.7363,282.9087,285.8697,0,53,53,89,1,100,54,NA,NA,NA,NA,NA,1,54,"binary"
"B27D12A0E5074BA0B636F5FF79F39784",1,"0198ecee-550e-7a19-b0b4-5162145396d3","0198c47e-224f-7cc7-87e7-f5ab0011d1ce","2025-08-27_15h08.53.739",NA,NA,289.2337,289.2337,289.2338,289.5648,NA,NA,NA,NA,NA,NA,NA,TRUE,1,0.5862,286.2289,289.2336,0,54,54,68,1,60,35,NA,NA,NA,NA,NA,1,55,"binary"
"B27D12A0E5074BA0B636F5FF79F39784",1,"0198ecee-550e-7a19-b0b4-5162145396d3","0198c47e-224f-7cc7-87e7-f5ab0011d1ce","2025-08-27_15h08.53.739",NA,NA,292.6036,292.6036,292.6036,292.9539,NA,NA,NA,NA,NA,NA,NA,TRUE,1,0.4533,289.5656,292.6035,0,55,55,91,1,150,33,NA,NA,NA,NA,NA,1,56,"binary"
"B27D12A0E5074BA0B636F5FF79F39784",1,"0198ecee-550e-7a19-b0b4-5162145396d3","0198c47e-224f-7cc7-87e7-f5ab0011d1ce","2025-08-27_15h08.53.739",NA,NA,295.9248,295.9248,295.9248,296.2803,NA,NA,NA,NA,NA,NA,NA,TRUE,1,0.9086,292.9547,295.9246,0,56,56,92,1,150,35,NA,NA,NA,NA,NA,1,57,"binary"
"B27D12A0E5074BA0B636F5FF79F39784",1,"0198ecee-550e-7a19-b0b4-5162145396d3","0198c47e-224f-7cc7-87e7-f5ab0011d1ce","2025-08-27_15h08.53.739",NA,NA,299.281,299.281,299.281,299.6516,NA,NA,NA,NA,NA,NA,NA,TRUE,1,0.342,296.2811,299.2809,0,57,57,107,1,200,54,NA,NA,NA,NA,NA,1,58,"binary"
"B27D12A0E5074BA0B636F5FF79F39784",1,"0198ecee-550e-7a19-b0b4-5162145396d3","0198c47e-224f-7cc7-87e7-f5ab0011d1ce","2025-08-27_15h08.53.739",NA,NA,302.6564,302.6564,302.6564,302.9797,NA,NA,NA,NA,NA,NA,NA,TRUE,1,0.3418,299.6524,302.6563,0,58,58,51,1,40,40,NA,NA,NA,NA,NA,1,59,"binary"
"B27D12A0E5074BA0B636F5FF79F39784",1,"0198ecee-550e-7a19-b0b4-5162145396d3","0198c47e-224f-7cc7-87e7-f5ab0011d1ce","2025-08-27_15h08.53.739",NA,NA,305.9915,305.9915,305.9915,306.3214,NA,NA,NA,NA,NA,NA,NA,TRUE,1,0.3204,302.9804,305.9915,0,59,59,21,1,14,32,NA,NA,NA,NA,NA,1,60,"binary"
"B27D12A0E5074BA0B636F5FF79F39784",1,"0198ecee-550e-7a19-b0b4-5162145396d3","0198c47e-224f-7cc7-87e7-f5ab0011d1ce","2025-08-27_15h08.53.739",NA,NA,309.342,309.342,309.342,309.6649,NA,NA,NA,NA,NA,NA,NA,TRUE,1,0.2614,306.3221,309.3419,0,60,60,78,1,95,31,NA,NA,NA,NA,NA,1,61,"binary"
"B27D12A0E5074BA0B636F5FF79F39784",1,"0198ecee-550e-7a19-b0b4-5162145396d3","0198c47e-224f-7cc7-87e7-f5ab0011d1ce","2025-08-27_15h08.53.739",NA,NA,312.6967,312.6967,312.6967,313.0203,NA,NA,NA,NA,NA,NA,NA,TRUE,1,0.2953,309.6655,312.6966,0,61,61,18,1,14,25,NA,NA,NA,NA,NA,1,62,"binary"
"B27D12A0E5074BA0B636F5FF79F39784",1,"0198ecee-550e-7a19-b0b4-5162145396d3","0198c47e-224f-7cc7-87e7-f5ab0011d1ce","2025-08-27_15h08.53.739",NA,NA,316.0456,316.0456,316.0456,316.3725,NA,NA,NA,NA,NA,NA,NA,TRUE,1,0.262,313.0213,316.0454,0,62,62,106,1,200,47,NA,NA,NA,NA,NA,1,63,"binary"
"B27D12A0E5074BA0B636F5FF79F39784",1,"0198ecee-550e-7a19-b0b4-5162145396d3","0198c47e-224f-7cc7-87e7-f5ab0011d1ce","2025-08-27_15h08.53.739",NA,NA,319.3942,319.3943,319.3943,319.7136,NA,NA,NA,NA,NA,NA,NA,TRUE,1,0.2917,316.3733,319.3942,0,63,63,77,1,90,54,NA,NA,NA,NA,NA,1,64,"binary"
"B27D12A0E5074BA0B636F5FF79F39784",1,"0198ecee-550e-7a19-b0b4-5162145396d3","0198c47e-224f-7cc7-87e7-f5ab0011d1ce","2025-08-27_15h08.53.739",NA,NA,322.7233,322.7233,322.7233,323.0952,NA,NA,NA,NA,NA,NA,NA,TRUE,1,0.2571,319.7143,322.7232,0,64,64,70,1,60,47,NA,NA,NA,NA,NA,1,65,"binary"
"B27D12A0E5074BA0B636F5FF79F39784",1,"0198ecee-550e-7a19-b0b4-5162145396d3","0198c47e-224f-7cc7-87e7-f5ab0011d1ce","2025-08-27_15h08.53.739",NA,NA,326.0694,326.0694,326.0694,326.4291,NA,NA,NA,NA,NA,NA,NA,TRUE,1,0.3001,323.0962,326.0694,0,65,65,64,1,50,46,NA,NA,NA,NA,NA,1,66,"binary"
"B27D12A0E5074BA0B636F5FF79F39784",1,"0198ecee-550e-7a19-b0b4-5162145396d3","0198c47e-224f-7cc7-87e7-f5ab0011d1ce","2025-08-27_15h08.53.739",NA,NA,329.4196,329.4197,329.4197,329.7986,NA,NA,NA,NA,NA,NA,NA,TRUE,1,0.218,326.4299,329.4195,0,66,66,13,1,12,26,NA,NA,NA,NA,NA,1,67,"binary"
"B27D12A0E5074BA0B636F5FF79F39784",1,"0198ecee-550e-7a19-b0b4-5162145396d3","0198c47e-224f-7cc7-87e7-f5ab0011d1ce","2025-08-27_15h08.53.739",NA,NA,332.7889,332.789,332.789,333.1345,NA,NA,NA,NA,NA,NA,NA,TRUE,1,0.3213,329.7993,332.7889,0,67,67,16,1,12,33,NA,NA,NA,NA,NA,1,68,"binary"
"B27D12A0E5074BA0B636F5FF79F39784",1,"0198ecee-550e-7a19-b0b4-5162145396d3","0198c47e-224f-7cc7-87e7-f5ab0011d1ce","2025-08-27_15h08.53.739",NA,NA,336.1458,336.1458,336.1458,336.4815,NA,NA,NA,NA,NA,NA,NA,TRUE,1,0.8358,333.1352,336.1457,0,68,68,40,1,28,39,NA,NA,NA,NA,NA,1,69,"binary"
"B27D12A0E5074BA0B636F5FF79F39784",1,"0198ecee-550e-7a19-b0b4-5162145396d3","0198c47e-224f-7cc7-87e7-f5ab0011d1ce","2025-08-27_15h08.53.739",NA,NA,339.4836,339.4836,339.4836,339.843,NA,NA,NA,NA,NA,NA,NA,TRUE,1,0.4986,336.4824,339.4836,0,69,69,96,1,180,27,NA,NA,NA,NA,NA,1,70,"binary"
"B27D12A0E5074BA0B636F5FF79F39784",1,"0198ecee-550e-7a19-b0b4-5162145396d3","0198c47e-224f-7cc7-87e7-f5ab0011d1ce","2025-08-27_15h08.53.739",NA,NA,342.8535,342.8536,342.8536,343.1816,NA,NA,NA,NA,NA,NA,NA,TRUE,1,1.0009,339.8437,342.8534,0,70,70,95,1,150,54,NA,NA,NA,NA,NA,1,71,"binary"
"B27D12A0E5074BA0B636F5FF79F39784",1,"0198ecee-550e-7a19-b0b4-5162145396d3","0198c47e-224f-7cc7-87e7-f5ab0011d1ce","2025-08-27_15h08.53.739",NA,NA,346.1962,346.1962,346.1962,346.5545,NA,NA,NA,NA,NA,NA,NA,TRUE,1,0.6487,343.1823,346.1961,0,71,71,56,1,45,31,NA,NA,NA,NA,NA,1,72,"binary"
"B27D12A0E5074BA0B636F5FF79F39784",1,"0198ecee-550e-7a19-b0b4-5162145396d3","0198c47e-224f-7cc7-87e7-f5ab0011d1ce","2025-08-27_15h08.53.739",NA,NA,349.5427,349.5427,349.5427,349.873,NA,NA,NA,NA,NA,NA,NA,TRUE,1,1.1234,346.5553,349.5426,0,72,72,8,1,10,27,NA,NA,NA,NA,NA,1,73,"binary"
"B27D12A0E5074BA0B636F5FF79F39784",1,"0198ecee-550e-7a19-b0b4-5162145396d3","0198c47e-224f-7cc7-87e7-f5ab0011d1ce","2025-08-27_15h08.53.739",NA,NA,352.8762,352.8762,352.8762,353.2248,NA,NA,NA,NA,NA,NA,NA,TRUE,1,0.8703,349.8737,352.8761,0,73,73,82,1,95,47,NA,NA,NA,NA,NA,1,74,"binary"
"B27D12A0E5074BA0B636F5FF79F39784",1,"0198ecee-550e-7a19-b0b4-5162145396d3","0198c47e-224f-7cc7-87e7-f5ab0011d1ce","2025-08-27_15h08.53.739",NA,NA,356.237,356.237,356.237,356.576,NA,NA,NA,NA,NA,NA,NA,TRUE,1,0.8342,353.2256,356.237,0,74,74,76,1,90,46,NA,NA,NA,NA,NA,1,75,"binary"
"B27D12A0E5074BA0B636F5FF79F39784",1,"0198ecee-550e-7a19-b0b4-5162145396d3","0198c47e-224f-7cc7-87e7-f5ab0011d1ce","2025-08-27_15h08.53.739",NA,NA,359.6001,359.6001,359.6001,359.9272,NA,NA,NA,NA,NA,NA,NA,TRUE,1,0.9186,356.5767,359.6,0,75,75,39,1,28,35,NA,NA,NA,NA,NA,1,76,"binary"
"B27D12A0E5074BA0B636F5FF79F39784",1,"0198ecee-550e-7a19-b0b4-5162145396d3","0198c47e-224f-7cc7-87e7-f5ab0011d1ce","2025-08-27_15h08.53.739",NA,NA,362.9188,362.9188,362.9188,363.283,NA,NA,NA,NA,NA,NA,NA,TRUE,1,0.879,359.9279,362.9187,0,76,76,67,1,60,33,NA,NA,NA,NA,NA,1,77,"binary"
"B27D12A0E5074BA0B636F5FF79F39784",1,"0198ecee-550e-7a19-b0b4-5162145396d3","0198c47e-224f-7cc7-87e7-f5ab0011d1ce","2025-08-27_15h08.53.739",NA,NA,366.2939,366.294,366.294,366.6171,NA,NA,NA,NA,NA,NA,NA,TRUE,1,0.758,363.2838,366.2938,0,77,77,104,1,200,35,NA,NA,NA,NA,NA,1,78,"binary"
"B27D12A0E5074BA0B636F5FF79F39784",1,"0198ecee-550e-7a19-b0b4-5162145396d3","0198c47e-224f-7cc7-87e7-f5ab0011d1ce","2025-08-27_15h08.53.739",NA,NA,369.6122,369.6122,369.6122,369.9748,NA,NA,NA,NA,NA,NA,NA,TRUE,1,1.1911,366.6178,369.6121,0,78,78,22,1,14,35,NA,NA,NA,NA,NA,1,79,"binary"
"B27D12A0E5074BA0B636F5FF79F39784",1,"0198ecee-550e-7a19-b0b4-5162145396d3","0198c47e-224f-7cc7-87e7-f5ab0011d1ce","2025-08-27_15h08.53.739",NA,NA,373.0074,373.0075,373.0075,373.3379,NA,NA,NA,NA,NA,NA,NA,TRUE,1,0.7141,369.9755,373.0074,0,79,79,72,1,90,26,NA,NA,NA,NA,NA,1,80,"binary"
"B27D12A0E5074BA0B636F5FF79F39784",1,"0198ecee-550e-7a19-b0b4-5162145396d3","0198c47e-224f-7cc7-87e7-f5ab0011d1ce","2025-08-27_15h08.53.739",NA,NA,376.3386,376.3386,376.3386,376.7005,NA,NA,NA,NA,NA,NA,NA,TRUE,1,0.6875,373.3386,376.3386,0,80,80,2,1,7,28,NA,NA,NA,NA,NA,1,81,"binary"
"B27D12A0E5074BA0B636F5FF79F39784",1,"0198ecee-550e-7a19-b0b4-5162145396d3","0198c47e-224f-7cc7-87e7-f5ab0011d1ce","2025-08-27_15h08.53.739",NA,NA,379.664,379.664,379.664,380.0249,NA,NA,NA,NA,NA,NA,NA,TRUE,1,1.3227,376.7014,379.6639,0,81,81,35,1,25,46,NA,NA,NA,NA,NA,1,82,"binary"
"B27D12A0E5074BA0B636F5FF79F39784",1,"0198ecee-550e-7a19-b0b4-5162145396d3","0198c47e-224f-7cc7-87e7-f5ab0011d1ce","2025-08-27_15h08.53.739",NA,NA,383.04,383.04,383.04,383.3938,NA,NA,NA,NA,NA,NA,NA,TRUE,1,0.9372,380.0256,383.0399,0,82,82,93,1,150,40,NA,NA,NA,NA,NA,1,83,"binary"
"B27D12A0E5074BA0B636F5FF79F39784",1,"0198ecee-550e-7a19-b0b4-5162145396d3","0198c47e-224f-7cc7-87e7-f5ab0011d1ce","2025-08-27_15h08.53.739",NA,NA,386.3932,386.3932,386.3932,386.7342,NA,NA,NA,NA,NA,NA,NA,TRUE,1,0.6242,383.3945,386.3931,0,83,83,31,1,25,29,NA,NA,NA,NA,NA,1,84,"binary"
"B27D12A0E5074BA0B636F5FF79F39784",1,"0198ecee-550e-7a19-b0b4-5162145396d3","0198c47e-224f-7cc7-87e7-f5ab0011d1ce","2025-08-27_15h08.53.739",NA,NA,389.7379,389.7379,389.7379,390.075,NA,NA,NA,NA,NA,NA,NA,TRUE,1,0.6837,386.7349,389.7378,0,84,84,34,1,25,35,NA,NA,NA,NA,NA,1,85,"binary"
"B27D12A0E5074BA0B636F5FF79F39784",1,"0198ecee-550e-7a19-b0b4-5162145396d3","0198c47e-224f-7cc7-87e7-f5ab0011d1ce","2025-08-27_15h08.53.739",NA,NA,393.078,393.078,393.078,393.4481,NA,NA,NA,NA,NA,NA,NA,TRUE,1,0.5019,390.0757,393.078,0,85,85,32,1,25,31,NA,NA,NA,NA,NA,1,86,"binary"
"B27D12A0E5074BA0B636F5FF79F39784",1,"0198ecee-550e-7a19-b0b4-5162145396d3","0198c47e-224f-7cc7-87e7-f5ab0011d1ce","2025-08-27_15h08.53.739",NA,NA,396.4426,396.4426,396.4426,396.7932,NA,NA,NA,NA,NA,NA,NA,TRUE,1,0.4366,393.4489,396.4426,0,86,86,50,1,40,35,NA,NA,NA,NA,NA,1,87,"binary"
"B27D12A0E5074BA0B636F5FF79F39784",1,"0198ecee-550e-7a19-b0b4-5162145396d3","0198c47e-224f-7cc7-87e7-f5ab0011d1ce","2025-08-27_15h08.53.739",NA,NA,399.8028,399.8028,399.8028,400.1314,NA,NA,NA,NA,NA,NA,NA,TRUE,1,0.5293,396.7942,399.8027,0,87,87,59,1,45,46,NA,NA,NA,NA,NA,1,88,"binary"
"B27D12A0E5074BA0B636F5FF79F39784",1,"0198ecee-550e-7a19-b0b4-5162145396d3","0198c47e-224f-7cc7-87e7-f5ab0011d1ce","2025-08-27_15h08.53.739",NA,NA,403.1317,403.1317,403.1317,403.4984,NA,NA,NA,NA,NA,NA,NA,TRUE,1,0.798,400.1321,403.1316,0,88,88,42,1,30,26,NA,NA,NA,NA,NA,1,89,"binary"
"B27D12A0E5074BA0B636F5FF79F39784",1,"0198ecee-550e-7a19-b0b4-5162145396d3","0198c47e-224f-7cc7-87e7-f5ab0011d1ce","2025-08-27_15h08.53.739",NA,NA,406.4944,406.4944,406.4944,406.8061,NA,NA,NA,NA,NA,NA,NA,TRUE,1,0.7408,403.499,406.4943,0,89,89,43,1,30,27,NA,NA,NA,NA,NA,1,90,"binary"
"B27D12A0E5074BA0B636F5FF79F39784",1,"0198ecee-550e-7a19-b0b4-5162145396d3","0198c47e-224f-7cc7-87e7-f5ab0011d1ce","2025-08-27_15h08.53.739",NA,NA,409.8325,409.8326,409.8326,410.1827,NA,NA,NA,NA,NA,NA,NA,TRUE,1,0.404,406.8068,409.8324,0,90,90,73,1,90,30,NA,NA,NA,NA,NA,1,91,"binary"
"B27D12A0E5074BA0B636F5FF79F39784",1,"0198ecee-550e-7a19-b0b4-5162145396d3","0198c47e-224f-7cc7-87e7-f5ab0011d1ce","2025-08-27_15h08.53.739",NA,NA,413.193,413.193,413.193,413.5157,NA,NA,NA,NA,NA,NA,NA,TRUE,1,0.0899,410.1833,413.1929,0,91,91,71,1,60,54,NA,NA,NA,NA,NA,1,92,"binary"
"B27D12A0E5074BA0B636F5FF79F39784",1,"0198ecee-550e-7a19-b0b4-5162145396d3","0198c47e-224f-7cc7-87e7-f5ab0011d1ce","2025-08-27_15h08.53.739",NA,NA,416.5474,416.5475,416.5475,416.8677,NA,NA,NA,NA,NA,NA,NA,TRUE,1,0.1249,413.5164,416.5473,0,92,92,65,1,50,54,NA,NA,NA,NA,NA,1,93,"binary"
"B27D12A0E5074BA0B636F5FF79F39784",1,"0198ecee-550e-7a19-b0b4-5162145396d3","0198c47e-224f-7cc7-87e7-f5ab0011d1ce","2025-08-27_15h08.53.739",NA,NA,419.8897,419.8897,419.8897,420.2464,NA,NA,NA,NA,NA,NA,NA,TRUE,1,0.8346,416.8685,419.8896,0,93,93,41,1,28,46,NA,NA,NA,NA,NA,1,94,"binary"
"B27D12A0E5074BA0B636F5FF79F39784",1,"0198ecee-550e-7a19-b0b4-5162145396d3","0198c47e-224f-7cc7-87e7-f5ab0011d1ce","2025-08-27_15h08.53.739",NA,NA,423.2161,423.2161,423.2161,423.5879,NA,NA,NA,NA,NA,NA,NA,TRUE,1,0.7759,420.2471,423.2161,0,94,94,62,1,50,35,NA,NA,NA,NA,NA,1,95,"binary"
"B27D12A0E5074BA0B636F5FF79F39784",1,"0198ecee-550e-7a19-b0b4-5162145396d3","0198c47e-224f-7cc7-87e7-f5ab0011d1ce","2025-08-27_15h08.53.739",NA,NA,426.5922,426.5922,426.5922,426.9114,NA,NA,NA,NA,NA,NA,NA,TRUE,1,1.3533,423.5887,426.5921,0,95,95,6,1,10,25,NA,NA,NA,NA,NA,1,96,"binary"
"B27D12A0E5074BA0B636F5FF79F39784",1,"0198ecee-550e-7a19-b0b4-5162145396d3","0198c47e-224f-7cc7-87e7-f5ab0011d1ce","2025-08-27_15h08.53.739",NA,NA,429.9405,429.9405,429.9405,430.3045,NA,NA,NA,NA,NA,NA,NA,TRUE,1,0.3119,426.9122,429.9403,0,96,96,55,1,45,29,NA,NA,NA,NA,NA,1,97,"binary"
"B27D12A0E5074BA0B636F5FF79F39784",1,"0198ecee-550e-7a19-b0b4-5162145396d3","0198c47e-224f-7cc7-87e7-f5ab0011d1ce","2025-08-27_15h08.53.739",NA,NA,433.3025,433.3026,433.3026,433.6307,NA,NA,NA,NA,NA,NA,NA,TRUE,1,0.3449,430.3052,433.3024,0,97,97,102,1,200,26,NA,NA,NA,NA,NA,1,98,"binary"
"B27D12A0E5074BA0B636F5FF79F39784",1,"0198ecee-550e-7a19-b0b4-5162145396d3","0198c47e-224f-7cc7-87e7-f5ab0011d1ce","2025-08-27_15h08.53.739",NA,NA,436.6267,436.6267,436.6267,436.9873,NA,NA,NA,NA,NA,NA,NA,TRUE,1,0.7697,433.6314,436.6267,0,98,98,80,1,95,35,NA,NA,NA,NA,NA,1,99,"binary"
"B27D12A0E5074BA0B636F5FF79F39784",1,"0198ecee-550e-7a19-b0b4-5162145396d3","0198c47e-224f-7cc7-87e7-f5ab0011d1ce","2025-08-27_15h08.53.739",NA,NA,439.9606,439.9607,439.9607,440.3325,NA,NA,NA,NA,NA,NA,NA,TRUE,2,1.5166,436.9885,439.9606,0,99,99,11,1,10,32,NA,NA,NA,NA,NA,1,100,"binary"
"B27D12A0E5074BA0B636F5FF79F39784",1,"0198ecee-550e-7a19-b0b4-5162145396d3","0198c47e-224f-7cc7-87e7-f5ab0011d1ce","2025-08-27_15h08.53.739",NA,NA,443.3342,443.3343,443.3343,443.697,NA,NA,NA,NA,NA,NA,NA,TRUE,1,2.1107,440.3334,443.3341,0,100,100,25,1,21,27,NA,NA,NA,NA,NA,1,101,"binary"
"B27D12A0E5074BA0B636F5FF79F39784",1,"0198ecee-550e-7a19-b0b4-5162145396d3","0198c47e-224f-7cc7-87e7-f5ab0011d1ce","2025-08-27_15h08.53.739",NA,NA,446.6783,446.6783,446.6784,447.0369,NA,NA,NA,NA,NA,NA,NA,TRUE,1,1.5441,443.6979,446.6783,0,101,101,44,1,30,29,NA,NA,NA,NA,NA,1,102,"binary"
"B27D12A0E5074BA0B636F5FF79F39784",1,"0198ecee-550e-7a19-b0b4-5162145396d3","0198c47e-224f-7cc7-87e7-f5ab0011d1ce","2025-08-27_15h08.53.739",NA,NA,450.0386,450.0386,450.0386,450.3739,NA,NA,NA,NA,NA,NA,NA,TRUE,1,0.6476,447.0377,450.0385,0,102,102,9,1,10,29,NA,NA,NA,NA,NA,1,103,"binary"
"B27D12A0E5074BA0B636F5FF79F39784",1,"0198ecee-550e-7a19-b0b4-5162145396d3","0198c47e-224f-7cc7-87e7-f5ab0011d1ce","2025-08-27_15h08.53.739",NA,NA,453.407,453.407,453.407,453.7489,NA,NA,NA,NA,NA,NA,NA,TRUE,1,0.3489,450.3746,453.4068,0,103,103,53,1,40,54,NA,NA,NA,NA,NA,1,104,"binary"
"B27D12A0E5074BA0B636F5FF79F39784",1,"0198ecee-550e-7a19-b0b4-5162145396d3","0198c47e-224f-7cc7-87e7-f5ab0011d1ce","2025-08-27_15h08.53.739",NA,NA,456.7242,456.7242,456.7242,457.1065,NA,NA,NA,NA,NA,NA,NA,TRUE,1,1.0505,453.7497,456.7241,0,104,104,36,1,28,26,NA,NA,NA,NA,NA,1,105,"binary"
"B27D12A0E5074BA0B636F5FF79F39784",1,"0198ecee-550e-7a19-b0b4-5162145396d3","0198c47e-224f-7cc7-87e7-f5ab0011d1ce","2025-08-27_15h08.53.739",NA,NA,460.0904,460.0904,460.0904,460.4195,NA,NA,NA,NA,NA,NA,NA,TRUE,1,0.5906,457.1076,460.0903,0,105,105,66,1,60,29,NA,NA,NA,NA,NA,1,106,"binary"
"B27D12A0E5074BA0B636F5FF79F39784",1,"0198ecee-550e-7a19-b0b4-5162145396d3","0198c47e-224f-7cc7-87e7-f5ab0011d1ce","2025-08-27_15h08.53.739",NA,NA,463.4098,463.4099,463.4099,463.784,NA,NA,NA,NA,NA,NA,NA,TRUE,1,0.2293,460.4206,463.4098,0,106,106,27,1,21,30,NA,NA,NA,NA,NA,1,107,"binary"
"B27D12A0E5074BA0B636F5FF79F39784",1,"0198ecee-550e-7a19-b0b4-5162145396d3","0198c47e-224f-7cc7-87e7-f5ab0011d1ce","2025-08-27_15h08.53.739",NA,NA,466.7963,466.7963,466.7963,467.1224,NA,NA,NA,NA,NA,NA,NA,TRUE,1,0.2693,463.7848,466.7963,0,107,107,45,1,30,30,NA,NA,NA,NA,NA,1,108,"binary"
"B27D12A0E5074BA0B636F5FF79F39784",1,"0198ecee-550e-7a19-b0b4-5162145396d3","0198c47e-224f-7cc7-87e7-f5ab0011d1ce","2025-08-27_15h08.53.739",NA,NA,474.4141,474.4141,474.4141,474.7746,NA,NA,NA,NA,NA,NA,NA,TRUE,1,0.8861,471.4275,474.414,NA,NA,NA,NA,NA,40,27,0,0,0,48,1,2,1,"binary"
"B27D12A0E5074BA0B636F5FF79F39784",1,"0198ecee-550e-7a19-b0b4-5162145396d3","0198c47e-224f-7cc7-87e7-f5ab0011d1ce","2025-08-27_15h08.53.739",NA,NA,477.7893,477.7893,477.7893,478.1213,NA,NA,NA,NA,NA,NA,NA,TRUE,1,0.3037,474.7756,477.7892,NA,NA,NA,NA,NA,100,38,0,1,1,86,1,2,2,"binary"
"B27D12A0E5074BA0B636F5FF79F39784",1,"0198ecee-550e-7a19-b0b4-5162145396d3","0198c47e-224f-7cc7-87e7-f5ab0011d1ce","2025-08-27_15h08.53.739",NA,NA,481.1154,481.1154,481.1154,481.4398,NA,NA,NA,NA,NA,NA,NA,TRUE,1,0.3,478.122,481.1153,NA,NA,NA,NA,NA,7,26,0,2,2,1,1,2,3,"binary"
"B27D12A0E5074BA0B636F5FF79F39784",1,"0198ecee-550e-7a19-b0b4-5162145396d3","0198c47e-224f-7cc7-87e7-f5ab0011d1ce","2025-08-27_15h08.53.739",NA,NA,484.4463,484.4463,484.4463,484.8022,NA,NA,NA,NA,NA,NA,NA,TRUE,1,0.1248,481.4406,484.4461,NA,NA,NA,NA,NA,200,26,0,3,3,102,1,2,4,"binary"
"B27D12A0E5074BA0B636F5FF79F39784",1,"0198ecee-550e-7a19-b0b4-5162145396d3","0198c47e-224f-7cc7-87e7-f5ab0011d1ce","2025-08-27_15h08.53.739",NA,NA,487.8161,487.8161,487.8161,488.1608,NA,NA,NA,NA,NA,NA,NA,TRUE,1,0.1438,484.8029,487.816,NA,NA,NA,NA,NA,21,29,0,4,4,26,1,2,5,"binary"
"B27D12A0E5074BA0B636F5FF79F39784",1,"0198ecee-550e-7a19-b0b4-5162145396d3","0198c47e-224f-7cc7-87e7-f5ab0011d1ce","2025-08-27_15h08.53.739",NA,NA,491.1815,491.1816,491.1816,491.5035,NA,NA,NA,NA,NA,NA,NA,TRUE,1,0.187,488.1617,491.1815,NA,NA,NA,NA,NA,100,31,0,5,5,85,1,2,6,"binary"
"B27D12A0E5074BA0B636F5FF79F39784",1,"0198ecee-550e-7a19-b0b4-5162145396d3","0198c47e-224f-7cc7-87e7-f5ab0011d1ce","2025-08-27_15h08.53.739",NA,NA,494.5066,494.5066,494.5066,494.8361,NA,NA,NA,NA,NA,NA,NA,TRUE,1,0.7225,491.5042,494.5064,NA,NA,NA,NA,NA,180,39,0,6,6,99,1,2,7,"binary"
"B27D12A0E5074BA0B636F5FF79F39784",1,"0198ecee-550e-7a19-b0b4-5162145396d3","0198c47e-224f-7cc7-87e7-f5ab0011d1ce","2025-08-27_15h08.53.739",NA,NA,497.8556,497.8556,497.8556,498.2201,NA,NA,NA,NA,NA,NA,NA,TRUE,1,0.6162,494.8369,497.8554,NA,NA,NA,NA,NA,30,38,0,7,7,47,1,2,8,"binary"
"B27D12A0E5074BA0B636F5FF79F39784",1,"0198ecee-550e-7a19-b0b4-5162145396d3","0198c47e-224f-7cc7-87e7-f5ab0011d1ce","2025-08-27_15h08.53.739",NA,NA,501.2224,501.2224,501.2224,501.5855,NA,NA,NA,NA,NA,NA,NA,TRUE,1,0.5412,498.2208,501.2223,NA,NA,NA,NA,NA,10,26,0,8,8,7,1,2,9,"binary"
"B27D12A0E5074BA0B636F5FF79F39784",1,"0198ecee-550e-7a19-b0b4-5162145396d3","0198c47e-224f-7cc7-87e7-f5ab0011d1ce","2025-08-27_15h08.53.739",NA,NA,504.5577,504.5577,504.5577,504.9349,NA,NA,NA,NA,NA,NA,NA,TRUE,1,0.4219,501.5864,504.5576,NA,NA,NA,NA,NA,21,26,0,9,9,24,1,2,10,"binary"
"B27D12A0E5074BA0B636F5FF79F39784",1,"0198ecee-550e-7a19-b0b4-5162145396d3","0198c47e-224f-7cc7-87e7-f5ab0011d1ce","2025-08-27_15h08.53.739",NA,NA,507.9057,507.9057,507.9057,508.2728,NA,NA,NA,NA,NA,NA,NA,TRUE,1,0.5162,504.9357,507.9056,NA,NA,NA,NA,NA,10,29,0,10,10,9,1,2,11,"binary"
"B27D12A0E5074BA0B636F5FF79F39784",1,"0198ecee-550e-7a19-b0b4-5162145396d3","0198c47e-224f-7cc7-87e7-f5ab0011d1ce","2025-08-27_15h08.53.739",NA,NA,511.2466,511.2466,511.2466,511.6236,NA,NA,NA,NA,NA,NA,NA,TRUE,1,0.3498,508.2736,511.2465,NA,NA,NA,NA,NA,25,29,0,11,11,31,1,2,12,"binary"
"B27D12A0E5074BA0B636F5FF79F39784",1,"0198ecee-550e-7a19-b0b4-5162145396d3","0198c47e-224f-7cc7-87e7-f5ab0011d1ce","2025-08-27_15h08.53.739",NA,NA,514.5947,514.5947,514.5947,514.9466,NA,NA,NA,NA,NA,NA,NA,TRUE,1,0.2921,511.6243,514.5947,NA,NA,NA,NA,NA,200,54,0,12,12,107,1,2,13,"binary"
"B27D12A0E5074BA0B636F5FF79F39784",1,"0198ecee-550e-7a19-b0b4-5162145396d3","0198c47e-224f-7cc7-87e7-f5ab0011d1ce","2025-08-27_15h08.53.739",NA,NA,517.9491,517.9491,517.9491,518.3355,NA,NA,NA,NA,NA,NA,NA,TRUE,1,0.2829,514.9475,517.9491,NA,NA,NA,NA,NA,10,32,0,13,13,11,1,2,14,"binary"
"B27D12A0E5074BA0B636F5FF79F39784",1,"0198ecee-550e-7a19-b0b4-5162145396d3","0198c47e-224f-7cc7-87e7-f5ab0011d1ce","2025-08-27_15h08.53.739",NA,NA,521.2976,521.2976,521.2976,521.6591,NA,NA,NA,NA,NA,NA,NA,TRUE,1,0.1789,518.3365,521.2976,NA,NA,NA,NA,NA,28,35,0,14,14,39,1,2,15,"binary"
"B27D12A0E5074BA0B636F5FF79F39784",1,"0198ecee-550e-7a19-b0b4-5162145396d3","0198c47e-224f-7cc7-87e7-f5ab0011d1ce","2025-08-27_15h08.53.739",NA,NA,524.6815,524.6815,524.6815,525.0087,NA,NA,NA,NA,NA,NA,NA,TRUE,1,0.2999,521.6598,524.6815,NA,NA,NA,NA,NA,180,27,0,15,15,96,1,2,16,"binary"
"B27D12A0E5074BA0B636F5FF79F39784",1,"0198ecee-550e-7a19-b0b4-5162145396d3","0198c47e-224f-7cc7-87e7-f5ab0011d1ce","2025-08-27_15h08.53.739",NA,NA,528.0039,528.004,528.004,528.3702,NA,NA,NA,NA,NA,NA,NA,TRUE,1,0.3407,525.0095,528.0038,NA,NA,NA,NA,NA,7,28,0,16,16,2,1,2,17,"binary"
"B27D12A0E5074BA0B636F5FF79F39784",1,"0198ecee-550e-7a19-b0b4-5162145396d3","0198c47e-224f-7cc7-87e7-f5ab0011d1ce","2025-08-27_15h08.53.739",NA,NA,531.3436,531.3436,531.3436,531.7206,NA,NA,NA,NA,NA,NA,NA,TRUE,1,0.3923,528.3709,531.3435,NA,NA,NA,NA,NA,60,29,0,17,17,66,1,2,18,"binary"
"B27D12A0E5074BA0B636F5FF79F39784",1,"0198ecee-550e-7a19-b0b4-5162145396d3","0198c47e-224f-7cc7-87e7-f5ab0011d1ce","2025-08-27_15h08.53.739",NA,NA,534.6986,534.6986,534.6986,535.059,NA,NA,NA,NA,NA,NA,NA,TRUE,1,0.4698,531.7214,534.6986,NA,NA,NA,NA,NA,90,33,0,18,18,74,1,2,19,"binary"
"B27D12A0E5074BA0B636F5FF79F39784",1,"0198ecee-550e-7a19-b0b4-5162145396d3","0198c47e-224f-7cc7-87e7-f5ab0011d1ce","2025-08-27_15h08.53.739",NA,NA,538.0468,538.0468,538.0468,538.4103,NA,NA,NA,NA,NA,NA,NA,TRUE,1,0.3701,535.0598,538.0468,NA,NA,NA,NA,NA,12,31,0,19,19,15,1,2,20,"binary"
"B27D12A0E5074BA0B636F5FF79F39784",1,"0198ecee-550e-7a19-b0b4-5162145396d3","0198c47e-224f-7cc7-87e7-f5ab0011d1ce","2025-08-27_15h08.53.739",NA,NA,541.4349,541.435,541.435,541.78,NA,NA,NA,NA,NA,NA,NA,TRUE,1,0.3408,538.4112,541.4349,NA,NA,NA,NA,NA,12,25,0,20,20,12,1,2,21,"binary"
"B27D12A0E5074BA0B636F5FF79F39784",1,"0198ecee-550e-7a19-b0b4-5162145396d3","0198c47e-224f-7cc7-87e7-f5ab0011d1ce","2025-08-27_15h08.53.739",NA,NA,544.762,544.762,544.762,545.1042,NA,NA,NA,NA,NA,NA,NA,TRUE,1,0.3987,541.7814,544.7619,NA,NA,NA,NA,NA,180,31,0,21,21,97,1,2,22,"binary"
"B27D12A0E5074BA0B636F5FF79F39784",1,"0198ecee-550e-7a19-b0b4-5162145396d3","0198c47e-224f-7cc7-87e7-f5ab0011d1ce","2025-08-27_15h08.53.739",NA,NA,548.1168,548.1168,548.1168,548.484,NA,NA,NA,NA,NA,NA,NA,TRUE,1,0.4782,545.105,548.1167,NA,NA,NA,NA,NA,45,26,0,22,22,54,1,2,23,"binary"
"B27D12A0E5074BA0B636F5FF79F39784",1,"0198ecee-550e-7a19-b0b4-5162145396d3","0198c47e-224f-7cc7-87e7-f5ab0011d1ce","2025-08-27_15h08.53.739",NA,NA,551.4689,551.4689,551.4689,551.8364,NA,NA,NA,NA,NA,NA,NA,TRUE,1,1.0505,548.4847,551.4688,NA,NA,NA,NA,NA,14,32,0,23,23,21,1,2,24,"binary"
"B27D12A0E5074BA0B636F5FF79F39784",1,"0198ecee-550e-7a19-b0b4-5162145396d3","0198c47e-224f-7cc7-87e7-f5ab0011d1ce","2025-08-27_15h08.53.739",NA,NA,554.8091,554.8091,554.8092,555.1635,NA,NA,NA,NA,NA,NA,NA,TRUE,1,0.4567,551.8371,554.8091,NA,NA,NA,NA,NA,45,29,0,24,24,55,1,2,25,"binary"
"B27D12A0E5074BA0B636F5FF79F39784",1,"0198ecee-550e-7a19-b0b4-5162145396d3","0198c47e-224f-7cc7-87e7-f5ab0011d1ce","2025-08-27_15h08.53.739",NA,NA,558.1764,558.1764,558.1764,558.4899,NA,NA,NA,NA,NA,NA,NA,TRUE,1,0.4386,555.1644,558.1763,NA,NA,NA,NA,NA,150,54,0,25,25,95,1,2,26,"binary"
"B27D12A0E5074BA0B636F5FF79F39784",1,"0198ecee-550e-7a19-b0b4-5162145396d3","0198c47e-224f-7cc7-87e7-f5ab0011d1ce","2025-08-27_15h08.53.739",NA,NA,561.5319,561.5319,561.5319,561.8563,NA,NA,NA,NA,NA,NA,NA,TRUE,1,0.3037,558.4907,561.5319,NA,NA,NA,NA,NA,60,47,0,26,26,70,1,2,27,"binary"
"B27D12A0E5074BA0B636F5FF79F39784",1,"0198ecee-550e-7a19-b0b4-5162145396d3","0198c47e-224f-7cc7-87e7-f5ab0011d1ce","2025-08-27_15h08.53.739",NA,NA,564.8636,564.8636,564.8636,565.2311,NA,NA,NA,NA,NA,NA,NA,TRUE,1,0.2128,561.8569,564.8635,NA,NA,NA,NA,NA,10,25,0,27,27,6,1,2,28,"binary"
"B27D12A0E5074BA0B636F5FF79F39784",1,"0198ecee-550e-7a19-b0b4-5162145396d3","0198c47e-224f-7cc7-87e7-f5ab0011d1ce","2025-08-27_15h08.53.739",NA,NA,568.2251,568.2252,568.2252,568.5815,NA,NA,NA,NA,NA,NA,NA,TRUE,1,0.0906,565.2319,568.2251,NA,NA,NA,NA,NA,100,54,0,28,28,89,1,2,29,"binary"
"B27D12A0E5074BA0B636F5FF79F39784",1,"0198ecee-550e-7a19-b0b4-5162145396d3","0198c47e-224f-7cc7-87e7-f5ab0011d1ce","2025-08-27_15h08.53.739",NA,NA,571.5812,571.5813,571.5813,571.9004,NA,NA,NA,NA,NA,NA,NA,TRUE,1,0.4068,568.5823,571.5812,NA,NA,NA,NA,NA,28,46,0,29,29,41,1,2,30,"binary"
"B27D12A0E5074BA0B636F5FF79F39784",1,"0198ecee-550e-7a19-b0b4-5162145396d3","0198c47e-224f-7cc7-87e7-f5ab0011d1ce","2025-08-27_15h08.53.739",NA,NA,574.9181,574.9181,574.9181,575.2817,NA,NA,NA,NA,NA,NA,NA,TRUE,1,0.2874,571.9011,574.918,NA,NA,NA,NA,NA,50,54,0,30,30,65,1,2,31,"binary"
"B27D12A0E5074BA0B636F5FF79F39784",1,"0198ecee-550e-7a19-b0b4-5162145396d3","0198c47e-224f-7cc7-87e7-f5ab0011d1ce","2025-08-27_15h08.53.739",NA,NA,578.2681,578.2681,578.2681,578.6068,NA,NA,NA,NA,NA,NA,NA,TRUE,1,0.3085,575.2825,578.268,NA,NA,NA,NA,NA,45,31,0,31,31,56,1,2,32,"binary"
"B27D12A0E5074BA0B636F5FF79F39784",1,"0198ecee-550e-7a19-b0b4-5162145396d3","0198c47e-224f-7cc7-87e7-f5ab0011d1ce","2025-08-27_15h08.53.739",NA,NA,581.6125,581.6125,581.6125,581.9403,NA,NA,NA,NA,NA,NA,NA,TRUE,1,0.3027,578.6076,581.6124,NA,NA,NA,NA,NA,12,28,0,32,32,14,1,2,33,"binary"
"B27D12A0E5074BA0B636F5FF79F39784",1,"0198ecee-550e-7a19-b0b4-5162145396d3","0198c47e-224f-7cc7-87e7-f5ab0011d1ce","2025-08-27_15h08.53.739",NA,NA,584.9556,584.9556,584.9556,585.3233,NA,NA,NA,NA,NA,NA,NA,TRUE,1,0.1749,581.9411,584.9555,NA,NA,NA,NA,NA,150,47,0,33,33,94,1,2,34,"binary"
"B27D12A0E5074BA0B636F5FF79F39784",1,"0198ecee-550e-7a19-b0b4-5162145396d3","0198c47e-224f-7cc7-87e7-f5ab0011d1ce","2025-08-27_15h08.53.739",NA,NA,588.3113,588.3113,588.3113,588.6761,NA,NA,NA,NA,NA,NA,NA,TRUE,1,0.3889,585.3241,588.3111,NA,NA,NA,NA,NA,40,33,0,34,34,49,1,2,35,"binary"
"B27D12A0E5074BA0B636F5FF79F39784",1,"0198ecee-550e-7a19-b0b4-5162145396d3","0198c47e-224f-7cc7-87e7-f5ab0011d1ce","2025-08-27_15h08.53.739",NA,NA,591.6839,591.6839,591.6839,592.013,NA,NA,NA,NA,NA,NA,NA,TRUE,1,0.2538,588.6769,591.6839,NA,NA,NA,NA,NA,7,32,0,35,35,4,1,2,36,"binary"
"B27D12A0E5074BA0B636F5FF79F39784",1,"0198ecee-550e-7a19-b0b4-5162145396d3","0198c47e-224f-7cc7-87e7-f5ab0011d1ce","2025-08-27_15h08.53.739",NA,NA,595.0397,595.0398,595.0398,595.3608,NA,NA,NA,NA,NA,NA,NA,TRUE,1,0.3047,592.0136,595.0396,NA,NA,NA,NA,NA,100,26,0,36,36,84,1,2,37,"binary"
"B27D12A0E5074BA0B636F5FF79F39784",1,"0198ecee-550e-7a19-b0b4-5162145396d3","0198c47e-224f-7cc7-87e7-f5ab0011d1ce","2025-08-27_15h08.53.739",NA,NA,598.3838,598.3839,598.3839,598.7104,NA,NA,NA,NA,NA,NA,NA,TRUE,1,0.0444,595.3615,598.3838,NA,NA,NA,NA,NA,180,54,0,37,37,101,1,2,38,"binary"
"B27D12A0E5074BA0B636F5FF79F39784",1,"0198ecee-550e-7a19-b0b4-5162145396d3","0198c47e-224f-7cc7-87e7-f5ab0011d1ce","2025-08-27_15h08.53.739",NA,NA,601.7295,601.7295,601.7295,602.0643,NA,NA,NA,NA,NA,NA,NA,TRUE,1,0.1714,598.7111,601.7295,NA,NA,NA,NA,NA,30,27,0,38,38,43,1,2,39,"binary"
"B27D12A0E5074BA0B636F5FF79F39784",1,"0198ecee-550e-7a19-b0b4-5162145396d3","0198c47e-224f-7cc7-87e7-f5ab0011d1ce","2025-08-27_15h08.53.739",NA,NA,605.0732,605.0732,605.0732,605.4044,NA,NA,NA,NA,NA,NA,NA,TRUE,1,0.2723,602.0651,605.0732,NA,NA,NA,NA,NA,95,31,0,39,39,78,1,2,40,"binary"
"B27D12A0E5074BA0B636F5FF79F39784",1,"0198ecee-550e-7a19-b0b4-5162145396d3","0198c47e-224f-7cc7-87e7-f5ab0011d1ce","2025-08-27_15h08.53.739",NA,NA,608.3911,608.3912,608.3912,608.7698,NA,NA,NA,NA,NA,NA,NA,TRUE,1,0.2675,605.4051,608.3911,NA,NA,NA,NA,NA,50,27,0,40,40,60,1,2,41,"binary"
"B27D12A0E5074BA0B636F5FF79F39784",1,"0198ecee-550e-7a19-b0b4-5162145396d3","0198c47e-224f-7cc7-87e7-f5ab0011d1ce","2025-08-27_15h08.53.739",NA,NA,611.7437,611.7437,611.7437,612.1165,NA,NA,NA,NA,NA,NA,NA,TRUE,1,0.1719,608.7704,611.7436,NA,NA,NA,NA,NA,200,39,0,41,41,105,1,2,42,"binary"
"B27D12A0E5074BA0B636F5FF79F39784",1,"0198ecee-550e-7a19-b0b4-5162145396d3","0198c47e-224f-7cc7-87e7-f5ab0011d1ce","2025-08-27_15h08.53.739",NA,NA,615.0882,615.0883,615.0883,615.4643,NA,NA,NA,NA,NA,NA,NA,TRUE,1,0.2585,612.1173,615.0882,NA,NA,NA,NA,NA,50,30,0,42,42,61,1,2,43,"binary"
"B27D12A0E5074BA0B636F5FF79F39784",1,"0198ecee-550e-7a19-b0b4-5162145396d3","0198c47e-224f-7cc7-87e7-f5ab0011d1ce","2025-08-27_15h08.53.739",NA,NA,618.4748,618.4749,618.4749,618.8021,NA,NA,NA,NA,NA,NA,NA,TRUE,1,0.2555,615.4651,618.4747,NA,NA,NA,NA,NA,95,54,0,43,43,83,1,2,44,"binary"
"B27D12A0E5074BA0B636F5FF79F39784",1,"0198ecee-550e-7a19-b0b4-5162145396d3","0198c47e-224f-7cc7-87e7-f5ab0011d1ce","2025-08-27_15h08.53.739",NA,NA,621.8295,621.8296,621.8296,622.1565,NA,NA,NA,NA,NA,NA,NA,TRUE,1,0.3476,618.8029,621.8295,NA,NA,NA,NA,NA,180,35,0,44,44,98,1,2,45,"binary"
"B27D12A0E5074BA0B636F5FF79F39784",1,"0198ecee-550e-7a19-b0b4-5162145396d3","0198c47e-224f-7cc7-87e7-f5ab0011d1ce","2025-08-27_15h08.53.739",NA,NA,625.1632,625.1632,625.1632,625.5325,NA,NA,NA,NA,NA,NA,NA,TRUE,1,0.5076,622.1572,625.1632,NA,NA,NA,NA,NA,30,30,0,45,45,45,1,2,46,"binary"
"B27D12A0E5074BA0B636F5FF79F39784",1,"0198ecee-550e-7a19-b0b4-5162145396d3","0198c47e-224f-7cc7-87e7-f5ab0011d1ce","2025-08-27_15h08.53.739",NA,NA,628.4954,628.4954,628.4954,628.8672,NA,NA,NA,NA,NA,NA,NA,TRUE,1,0.3766,625.5334,628.4953,NA,NA,NA,NA,NA,21,27,0,46,46,25,1,2,47,"binary"
"B27D12A0E5074BA0B636F5FF79F39784",1,"0198ecee-550e-7a19-b0b4-5162145396d3","0198c47e-224f-7cc7-87e7-f5ab0011d1ce","2025-08-27_15h08.53.739",NA,NA,631.8345,631.8345,631.8345,632.2192,NA,NA,NA,NA,NA,NA,NA,TRUE,1,0.4559,628.8679,631.8345,NA,NA,NA,NA,NA,100,46,0,47,47,88,1,2,48,"binary"
"B27D12A0E5074BA0B636F5FF79F39784",1,"0198ecee-550e-7a19-b0b4-5162145396d3","0198c47e-224f-7cc7-87e7-f5ab0011d1ce","2025-08-27_15h08.53.739",NA,NA,635.2093,635.2093,635.2093,635.5501,NA,NA,NA,NA,NA,NA,NA,TRUE,1,0.2629,632.2204,635.2092,NA,NA,NA,NA,NA,95,33,0,48,48,79,1,2,49,"binary"
"B27D12A0E5074BA0B636F5FF79F39784",1,"0198ecee-550e-7a19-b0b4-5162145396d3","0198c47e-224f-7cc7-87e7-f5ab0011d1ce","2025-08-27_15h08.53.739",NA,NA,638.5666,638.5667,638.5667,638.9015,NA,NA,NA,NA,NA,NA,NA,TRUE,1,0.1272,635.551,638.5666,NA,NA,NA,NA,NA,28,26,0,49,49,36,1,2,50,"binary"
"B27D12A0E5074BA0B636F5FF79F39784",1,"0198ecee-550e-7a19-b0b4-5162145396d3","0198c47e-224f-7cc7-87e7-f5ab0011d1ce","2025-08-27_15h08.53.739",NA,NA,641.9143,641.9143,641.9143,642.2852,NA,NA,NA,NA,NA,NA,NA,TRUE,1,0.1372,638.9024,641.9143,NA,NA,NA,NA,NA,14,39,0,50,50,23,1,2,51,"binary"
"B27D12A0E5074BA0B636F5FF79F39784",1,"0198ecee-550e-7a19-b0b4-5162145396d3","0198c47e-224f-7cc7-87e7-f5ab0011d1ce","2025-08-27_15h08.53.739",NA,NA,645.2829,645.2829,645.2829,645.6069,NA,NA,NA,NA,NA,NA,NA,TRUE,1,0.1765,642.2859,645.2828,NA,NA,NA,NA,NA,150,31,0,51,51,90,1,2,52,"binary"
"B27D12A0E5074BA0B636F5FF79F39784",1,"0198ecee-550e-7a19-b0b4-5162145396d3","0198c47e-224f-7cc7-87e7-f5ab0011d1ce","2025-08-27_15h08.53.739",NA,NA,648.6219,648.6219,648.6219,648.9573,NA,NA,NA,NA,NA,NA,NA,TRUE,1,0.5462,645.6076,648.6218,NA,NA,NA,NA,NA,60,33,0,52,52,67,1,2,53,"binary"
"B27D12A0E5074BA0B636F5FF79F39784",1,"0198ecee-550e-7a19-b0b4-5162145396d3","0198c47e-224f-7cc7-87e7-f5ab0011d1ce","2025-08-27_15h08.53.739",NA,NA,651.9662,651.9662,651.9662,652.3193,NA,NA,NA,NA,NA,NA,NA,TRUE,1,0.3375,648.958,651.9662,NA,NA,NA,NA,NA,10,27,0,53,53,8,1,2,54,"binary"
"B27D12A0E5074BA0B636F5FF79F39784",1,"0198ecee-550e-7a19-b0b4-5162145396d3","0198c47e-224f-7cc7-87e7-f5ab0011d1ce","2025-08-27_15h08.53.739",NA,NA,655.3007,655.3007,655.3007,655.6339,NA,NA,NA,NA,NA,NA,NA,TRUE,1,0.1726,652.3201,655.3007,NA,NA,NA,NA,NA,28,39,0,54,54,40,1,2,55,"binary"
"B27D12A0E5074BA0B636F5FF79F39784",1,"0198ecee-550e-7a19-b0b4-5162145396d3","0198c47e-224f-7cc7-87e7-f5ab0011d1ce","2025-08-27_15h08.53.739",NA,NA,658.6652,658.6652,658.6652,658.9967,NA,NA,NA,NA,NA,NA,NA,TRUE,1,0.1355,655.6347,658.6651,NA,NA,NA,NA,NA,95,47,0,55,55,82,1,2,56,"binary"
"B27D12A0E5074BA0B636F5FF79F39784",1,"0198ecee-550e-7a19-b0b4-5162145396d3","0198c47e-224f-7cc7-87e7-f5ab0011d1ce","2025-08-27_15h08.53.739",NA,NA,662.0237,662.0237,662.0237,662.3671,NA,NA,NA,NA,NA,NA,NA,TRUE,1,0.2952,658.9976,662.0236,NA,NA,NA,NA,NA,28,32,0,56,56,38,1,2,57,"binary"
"B27D12A0E5074BA0B636F5FF79F39784",1,"0198ecee-550e-7a19-b0b4-5162145396d3","0198c47e-224f-7cc7-87e7-f5ab0011d1ce","2025-08-27_15h08.53.739",NA,NA,665.3767,665.3768,665.3768,665.7136,NA,NA,NA,NA,NA,NA,NA,TRUE,1,0.1842,662.3678,665.3767,NA,NA,NA,NA,NA,90,40,0,57,57,75,1,2,58,"binary"
"B27D12A0E5074BA0B636F5FF79F39784",1,"0198ecee-550e-7a19-b0b4-5162145396d3","0198c47e-224f-7cc7-87e7-f5ab0011d1ce","2025-08-27_15h08.53.739",NA,NA,668.7246,668.7246,668.7246,669.0509,NA,NA,NA,NA,NA,NA,NA,TRUE,1,0.1375,665.7143,668.7246,NA,NA,NA,NA,NA,50,46,0,58,58,64,1,2,59,"binary"
"B27D12A0E5074BA0B636F5FF79F39784",1,"0198ecee-550e-7a19-b0b4-5162145396d3","0198c47e-224f-7cc7-87e7-f5ab0011d1ce","2025-08-27_15h08.53.739",NA,NA,672.074,672.074,672.074,672.4098,NA,NA,NA,NA,NA,NA,NA,TRUE,1,0.1303,669.0516,672.0739,NA,NA,NA,NA,NA,50,35,0,59,59,62,1,2,60,"binary"
"B27D12A0E5074BA0B636F5FF79F39784",1,"0198ecee-550e-7a19-b0b4-5162145396d3","0198c47e-224f-7cc7-87e7-f5ab0011d1ce","2025-08-27_15h08.53.739",NA,NA,675.4365,675.4365,675.4365,675.7752,NA,NA,NA,NA,NA,NA,NA,TRUE,1,0.2556,672.4106,675.4364,NA,NA,NA,NA,NA,21,38,0,60,60,29,1,2,61,"binary"
"B27D12A0E5074BA0B636F5FF79F39784",1,"0198ecee-550e-7a19-b0b4-5162145396d3","0198c47e-224f-7cc7-87e7-f5ab0011d1ce","2025-08-27_15h08.53.739",NA,NA,678.7763,678.7763,678.7763,679.1169,NA,NA,NA,NA,NA,NA,NA,TRUE,1,0.3886,675.7761,678.7762,NA,NA,NA,NA,NA,25,33,0,61,61,33,1,2,62,"binary"
"B27D12A0E5074BA0B636F5FF79F39784",1,"0198ecee-550e-7a19-b0b4-5162145396d3","0198c47e-224f-7cc7-87e7-f5ab0011d1ce","2025-08-27_15h08.53.739",NA,NA,682.1141,682.1141,682.1141,682.4428,NA,NA,NA,NA,NA,NA,NA,TRUE,1,0.2081,679.1176,682.114,NA,NA,NA,NA,NA,7,35,0,62,62,5,1,2,63,"binary"
"B27D12A0E5074BA0B636F5FF79F39784",1,"0198ecee-550e-7a19-b0b4-5162145396d3","0198c47e-224f-7cc7-87e7-f5ab0011d1ce","2025-08-27_15h08.53.739",NA,NA,685.4669,685.467,685.467,685.7975,NA,NA,NA,NA,NA,NA,NA,TRUE,1,0.351,682.4435,685.4669,NA,NA,NA,NA,NA,7,25,0,63,63,0,1,2,64,"binary"
"B27D12A0E5074BA0B636F5FF79F39784",1,"0198ecee-550e-7a19-b0b4-5162145396d3","0198c47e-224f-7cc7-87e7-f5ab0011d1ce","2025-08-27_15h08.53.739",NA,NA,688.8095,688.8095,688.8095,689.1869,NA,NA,NA,NA,NA,NA,NA,TRUE,1,0.2161,685.7983,688.8094,NA,NA,NA,NA,NA,30,29,0,64,64,44,1,2,65,"binary"
"B27D12A0E5074BA0B636F5FF79F39784",1,"0198ecee-550e-7a19-b0b4-5162145396d3","0198c47e-224f-7cc7-87e7-f5ab0011d1ce","2025-08-27_15h08.53.739",NA,NA,692.1762,692.1762,692.1762,692.4856,NA,NA,NA,NA,NA,NA,NA,TRUE,1,0.0926,689.1876,692.1761,NA,NA,NA,NA,NA,95,35,0,65,65,80,1,2,66,"binary"
"B27D12A0E5074BA0B636F5FF79F39784",1,"0198ecee-550e-7a19-b0b4-5162145396d3","0198c47e-224f-7cc7-87e7-f5ab0011d1ce","2025-08-27_15h08.53.739",NA,NA,695.4996,695.4996,695.4996,695.8579,NA,NA,NA,NA,NA,NA,NA,TRUE,1,0.5749,692.4867,695.4996,NA,NA,NA,NA,NA,100,39,0,66,66,87,1,2,67,"binary"
"B27D12A0E5074BA0B636F5FF79F39784",1,"0198ecee-550e-7a19-b0b4-5162145396d3","0198c47e-224f-7cc7-87e7-f5ab0011d1ce","2025-08-27_15h08.53.739",NA,NA,698.8736,698.8738,698.8738,699.2012,NA,NA,NA,NA,NA,NA,NA,TRUE,1,0.3684,695.8587,698.8734,NA,NA,NA,NA,NA,14,28,0,67,67,20,1,2,68,"binary"
"B27D12A0E5074BA0B636F5FF79F39784",1,"0198ecee-550e-7a19-b0b4-5162145396d3","0198c47e-224f-7cc7-87e7-f5ab0011d1ce","2025-08-27_15h08.53.739",NA,NA,702.1991,702.1991,702.1991,702.5654,NA,NA,NA,NA,NA,NA,NA,TRUE,1,0.3206,699.202,702.199,NA,NA,NA,NA,NA,14,26,0,68,68,19,1,2,69,"binary"
"B27D12A0E5074BA0B636F5FF79F39784",1,"0198ecee-550e-7a19-b0b4-5162145396d3","0198c47e-224f-7cc7-87e7-f5ab0011d1ce","2025-08-27_15h08.53.739",NA,NA,705.5651,705.5651,705.5651,705.905,NA,NA,NA,NA,NA,NA,NA,TRUE,1,0.0423,702.5662,705.565,NA,NA,NA,NA,NA,10,30,0,69,69,10,1,2,70,"binary"
"B27D12A0E5074BA0B636F5FF79F39784",1,"0198ecee-550e-7a19-b0b4-5162145396d3","0198c47e-224f-7cc7-87e7-f5ab0011d1ce","2025-08-27_15h08.53.739",NA,NA,708.9294,708.9294,708.9294,709.2631,NA,NA,NA,NA,NA,NA,NA,TRUE,1,0.1278,705.9057,708.9292,NA,NA,NA,NA,NA,95,40,0,70,70,81,1,2,71,"binary"
"B27D12A0E5074BA0B636F5FF79F39784",1,"0198ecee-550e-7a19-b0b4-5162145396d3","0198c47e-224f-7cc7-87e7-f5ab0011d1ce","2025-08-27_15h08.53.739",NA,NA,712.2687,712.2687,712.2687,712.6393,NA,NA,NA,NA,NA,NA,NA,TRUE,1,0.3119,709.2639,712.2686,NA,NA,NA,NA,NA,150,33,0,71,71,91,1,2,72,"binary"
"B27D12A0E5074BA0B636F5FF79F39784",1,"0198ecee-550e-7a19-b0b4-5162145396d3","0198c47e-224f-7cc7-87e7-f5ab0011d1ce","2025-08-27_15h08.53.739",NA,NA,715.5836,715.5836,715.5836,715.9548,NA,NA,NA,NA,NA,NA,NA,TRUE,1,0.2877,712.6401,715.5835,NA,NA,NA,NA,NA,14,35,0,72,72,22,1,2,73,"binary"
"B27D12A0E5074BA0B636F5FF79F39784",1,"0198ecee-550e-7a19-b0b4-5162145396d3","0198c47e-224f-7cc7-87e7-f5ab0011d1ce","2025-08-27_15h08.53.739",NA,NA,718.9785,718.9785,718.9785,719.3084,NA,NA,NA,NA,NA,NA,NA,TRUE,1,0.1813,715.9555,718.9783,NA,NA,NA,NA,NA,40,47,0,73,73,52,1,2,74,"binary"
"B27D12A0E5074BA0B636F5FF79F39784",1,"0198ecee-550e-7a19-b0b4-5162145396d3","0198c47e-224f-7cc7-87e7-f5ab0011d1ce","2025-08-27_15h08.53.739",NA,NA,722.3089,722.3089,722.3089,722.6581,NA,NA,NA,NA,NA,NA,NA,TRUE,1,0.2272,719.3091,722.3088,NA,NA,NA,NA,NA,60,54,0,74,74,71,1,2,75,"binary"
"B27D12A0E5074BA0B636F5FF79F39784",1,"0198ecee-550e-7a19-b0b4-5162145396d3","0198c47e-224f-7cc7-87e7-f5ab0011d1ce","2025-08-27_15h08.53.739",NA,NA,725.6564,725.6564,725.6564,726.0238,NA,NA,NA,NA,NA,NA,NA,TRUE,1,0.2218,722.6588,725.6564,NA,NA,NA,NA,NA,12,33,0,75,75,16,1,2,76,"binary"
"B27D12A0E5074BA0B636F5FF79F39784",1,"0198ecee-550e-7a19-b0b4-5162145396d3","0198c47e-224f-7cc7-87e7-f5ab0011d1ce","2025-08-27_15h08.53.739",NA,NA,729.0157,729.0157,729.0157,729.347,NA,NA,NA,NA,NA,NA,NA,TRUE,1,0.1798,726.0245,729.0157,NA,NA,NA,NA,NA,90,54,0,76,76,77,1,2,77,"binary"
"B27D12A0E5074BA0B636F5FF79F39784",1,"0198ecee-550e-7a19-b0b4-5162145396d3","0198c47e-224f-7cc7-87e7-f5ab0011d1ce","2025-08-27_15h08.53.739",NA,NA,732.3617,732.3618,732.3618,732.7231,NA,NA,NA,NA,NA,NA,NA,TRUE,1,0.1778,729.3484,732.3617,NA,NA,NA,NA,NA,45,40,0,77,77,58,1,2,78,"binary"
"B27D12A0E5074BA0B636F5FF79F39784",1,"0198ecee-550e-7a19-b0b4-5162145396d3","0198c47e-224f-7cc7-87e7-f5ab0011d1ce","2025-08-27_15h08.53.739",NA,NA,735.7215,735.7215,735.7215,736.0503,NA,NA,NA,NA,NA,NA,NA,TRUE,1,0.3029,732.7239,735.7214,NA,NA,NA,NA,NA,7,30,0,78,78,3,1,2,79,"binary"
"B27D12A0E5074BA0B636F5FF79F39784",1,"0198ecee-550e-7a19-b0b4-5162145396d3","0198c47e-224f-7cc7-87e7-f5ab0011d1ce","2025-08-27_15h08.53.739",NA,NA,739.0532,739.0532,739.0532,739.4122,NA,NA,NA,NA,NA,NA,NA,TRUE,1,0.2179,736.0509,739.0532,NA,NA,NA,NA,NA,90,26,0,79,79,72,1,2,80,"binary"
"B27D12A0E5074BA0B636F5FF79F39784",1,"0198ecee-550e-7a19-b0b4-5162145396d3","0198c47e-224f-7cc7-87e7-f5ab0011d1ce","2025-08-27_15h08.53.739",NA,NA,742.4354,742.4355,742.4355,742.7732,NA,NA,NA,NA,NA,NA,NA,TRUE,1,0.2318,739.4129,742.4354,NA,NA,NA,NA,NA,14,25,0,80,80,18,1,2,81,"binary"
"B27D12A0E5074BA0B636F5FF79F39784",1,"0198ecee-550e-7a19-b0b4-5162145396d3","0198c47e-224f-7cc7-87e7-f5ab0011d1ce","2025-08-27_15h08.53.739",NA,NA,745.7679,745.7679,745.7679,746.1347,NA,NA,NA,NA,NA,NA,NA,TRUE,1,0.2548,742.7739,745.7678,NA,NA,NA,NA,NA,40,40,0,81,81,51,1,2,82,"binary"
"B27D12A0E5074BA0B636F5FF79F39784",1,"0198ecee-550e-7a19-b0b4-5162145396d3","0198c47e-224f-7cc7-87e7-f5ab0011d1ce","2025-08-27_15h08.53.739",NA,NA,749.1147,749.1147,749.1147,749.4483,NA,NA,NA,NA,NA,NA,NA,TRUE,1,0.1754,746.1353,749.1147,NA,NA,NA,NA,NA,180,46,0,82,82,100,1,2,83,"binary"
"B27D12A0E5074BA0B636F5FF79F39784",1,"0198ecee-550e-7a19-b0b4-5162145396d3","0198c47e-224f-7cc7-87e7-f5ab0011d1ce","2025-08-27_15h08.53.739",NA,NA,752.4744,752.4744,752.4744,752.8146,NA,NA,NA,NA,NA,NA,NA,TRUE,1,0.1811,749.4489,752.4744,NA,NA,NA,NA,NA,200,47,0,83,83,106,1,2,84,"binary"
"B27D12A0E5074BA0B636F5FF79F39784",1,"0198ecee-550e-7a19-b0b4-5162145396d3","0198c47e-224f-7cc7-87e7-f5ab0011d1ce","2025-08-27_15h08.53.739",NA,NA,755.815,755.815,755.8151,756.17,NA,NA,NA,NA,NA,NA,NA,TRUE,1,0.1379,752.8154,755.8149,NA,NA,NA,NA,NA,25,46,0,84,84,35,1,2,85,"binary"
"B27D12A0E5074BA0B636F5FF79F39784",1,"0198ecee-550e-7a19-b0b4-5162145396d3","0198c47e-224f-7cc7-87e7-f5ab0011d1ce","2025-08-27_15h08.53.739",NA,NA,759.1677,759.1677,759.1677,759.5298,NA,NA,NA,NA,NA,NA,NA,TRUE,1,0.1754,756.1707,759.1676,NA,NA,NA,NA,NA,200,28,0,85,85,103,1,2,86,"binary"
"B27D12A0E5074BA0B636F5FF79F39784",1,"0198ecee-550e-7a19-b0b4-5162145396d3","0198c47e-224f-7cc7-87e7-f5ab0011d1ce","2025-08-27_15h08.53.739",NA,NA,762.5253,762.5253,762.5254,762.8524,NA,NA,NA,NA,NA,NA,NA,TRUE,1,0.4743,759.5305,762.5253,NA,NA,NA,NA,NA,25,27,0,86,86,30,1,2,87,"binary"
"B27D12A0E5074BA0B636F5FF79F39784",1,"0198ecee-550e-7a19-b0b4-5162145396d3","0198c47e-224f-7cc7-87e7-f5ab0011d1ce","2025-08-27_15h08.53.739",NA,NA,765.8681,765.8681,765.8681,766.223,NA,NA,NA,NA,NA,NA,NA,TRUE,1,0.2976,762.8531,765.8681,NA,NA,NA,NA,NA,25,31,0,87,87,32,1,2,88,"binary"
"B27D12A0E5074BA0B636F5FF79F39784",1,"0198ecee-550e-7a19-b0b4-5162145396d3","0198c47e-224f-7cc7-87e7-f5ab0011d1ce","2025-08-27_15h08.53.739",NA,NA,769.1968,769.1968,769.1968,769.5524,NA,NA,NA,NA,NA,NA,NA,TRUE,1,0.2502,766.2237,769.1966,NA,NA,NA,NA,NA,90,30,0,88,88,73,1,2,89,"binary"
"B27D12A0E5074BA0B636F5FF79F39784",1,"0198ecee-550e-7a19-b0b4-5162145396d3","0198c47e-224f-7cc7-87e7-f5ab0011d1ce","2025-08-27_15h08.53.739",NA,NA,772.5804,772.5805,772.5805,772.9014,NA,NA,NA,NA,NA,NA,NA,TRUE,1,0.086,769.5531,772.5803,NA,NA,NA,NA,NA,30,26,0,89,89,42,1,2,90,"binary"
"B27D12A0E5074BA0B636F5FF79F39784",1,"0198ecee-550e-7a19-b0b4-5162145396d3","0198c47e-224f-7cc7-87e7-f5ab0011d1ce","2025-08-27_15h08.53.739",NA,NA,775.8973,775.8973,775.8973,776.2391,NA,NA,NA,NA,NA,NA,NA,TRUE,1,0.261,772.9023,775.8973,NA,NA,NA,NA,NA,40,54,0,90,90,53,1,2,91,"binary"
"B27D12A0E5074BA0B636F5FF79F39784",1,"0198ecee-550e-7a19-b0b4-5162145396d3","0198c47e-224f-7cc7-87e7-f5ab0011d1ce","2025-08-27_15h08.53.739",NA,NA,779.2546,779.2546,779.2546,779.6197,NA,NA,NA,NA,NA,NA,NA,TRUE,1,0.1315,776.2397,779.2546,NA,NA,NA,NA,NA,45,35,0,91,91,57,1,2,92,"binary"
"B27D12A0E5074BA0B636F5FF79F39784",1,"0198ecee-550e-7a19-b0b4-5162145396d3","0198c47e-224f-7cc7-87e7-f5ab0011d1ce","2025-08-27_15h08.53.739",NA,NA,782.5947,782.5947,782.5947,782.9742,NA,NA,NA,NA,NA,NA,NA,TRUE,1,0.0048,779.6205,782.5946,NA,NA,NA,NA,NA,21,30,0,92,92,27,1,2,93,"binary"
"B27D12A0E5074BA0B636F5FF79F39784",1,"0198ecee-550e-7a19-b0b4-5162145396d3","0198c47e-224f-7cc7-87e7-f5ab0011d1ce","2025-08-27_15h08.53.739",NA,NA,785.9535,785.9536,785.9536,786.3298,NA,NA,NA,NA,NA,NA,NA,TRUE,1,0.141,782.975,785.9535,NA,NA,NA,NA,NA,21,32,0,93,93,28,1,2,94,"binary"
"B27D12A0E5074BA0B636F5FF79F39784",1,"0198ecee-550e-7a19-b0b4-5162145396d3","0198c47e-224f-7cc7-87e7-f5ab0011d1ce","2025-08-27_15h08.53.739",NA,NA,789.3337,789.3337,789.3337,789.6557,NA,NA,NA,NA,NA,NA,NA,TRUE,1,0.3075,786.3316,789.3336,NA,NA,NA,NA,NA,150,40,0,94,94,93,1,2,95,"binary"
"B27D12A0E5074BA0B636F5FF79F39784",1,"0198ecee-550e-7a19-b0b4-5162145396d3","0198c47e-224f-7cc7-87e7-f5ab0011d1ce","2025-08-27_15h08.53.739",NA,NA,792.6478,792.6478,792.6478,793.0064,NA,NA,NA,NA,NA,NA,NA,TRUE,1,0.2934,789.6564,792.6478,NA,NA,NA,NA,NA,90,46,0,95,95,76,1,2,96,"binary"
"B27D12A0E5074BA0B636F5FF79F39784",1,"0198ecee-550e-7a19-b0b4-5162145396d3","0198c47e-224f-7cc7-87e7-f5ab0011d1ce","2025-08-27_15h08.53.739",NA,NA,796.0329,796.033,796.033,796.3683,NA,NA,NA,NA,NA,NA,NA,TRUE,1,0.2515,793.0071,796.0328,NA,NA,NA,NA,NA,150,35,0,96,96,92,1,2,97,"binary"
"B27D12A0E5074BA0B636F5FF79F39784",1,"0198ecee-550e-7a19-b0b4-5162145396d3","0198c47e-224f-7cc7-87e7-f5ab0011d1ce","2025-08-27_15h08.53.739",NA,NA,799.3467,799.3467,799.3468,799.6976,NA,NA,NA,NA,NA,NA,NA,TRUE,1,0.3094,796.369,799.3466,NA,NA,NA,NA,NA,25,35,0,97,97,34,1,2,98,"binary"
"B27D12A0E5074BA0B636F5FF79F39784",1,"0198ecee-550e-7a19-b0b4-5162145396d3","0198c47e-224f-7cc7-87e7-f5ab0011d1ce","2025-08-27_15h08.53.739",NA,NA,802.6968,802.6968,802.6968,803.0664,NA,NA,NA,NA,NA,NA,NA,TRUE,1,0.3482,799.6983,802.6967,NA,NA,NA,NA,NA,45,46,0,98,98,59,1,2,99,"binary"
"B27D12A0E5074BA0B636F5FF79F39784",1,"0198ecee-550e-7a19-b0b4-5162145396d3","0198c47e-224f-7cc7-87e7-f5ab0011d1ce","2025-08-27_15h08.53.739",NA,NA,806.0529,806.0529,806.0529,806.4396,NA,NA,NA,NA,NA,NA,NA,TRUE,1,0.352,803.0672,806.0529,NA,NA,NA,NA,NA,200,35,0,99,99,104,1,2,100,"binary"
"B27D12A0E5074BA0B636F5FF79F39784",1,"0198ecee-550e-7a19-b0b4-5162145396d3","0198c47e-224f-7cc7-87e7-f5ab0011d1ce","2025-08-27_15h08.53.739",NA,NA,809.3893,809.3894,809.3894,809.7639,NA,NA,NA,NA,NA,NA,NA,TRUE,1,0.2684,806.4406,809.3893,NA,NA,NA,NA,NA,30,32,0,100,100,46,1,2,101,"binary"
"B27D12A0E5074BA0B636F5FF79F39784",1,"0198ecee-550e-7a19-b0b4-5162145396d3","0198c47e-224f-7cc7-87e7-f5ab0011d1ce","2025-08-27_15h08.53.739",NA,NA,812.7354,812.7354,812.7354,813.1175,NA,NA,NA,NA,NA,NA,NA,TRUE,1,0.2625,809.765,812.7353,NA,NA,NA,NA,NA,28,28,0,101,101,37,1,2,102,"binary"
"B27D12A0E5074BA0B636F5FF79F39784",1,"0198ecee-550e-7a19-b0b4-5162145396d3","0198c47e-224f-7cc7-87e7-f5ab0011d1ce","2025-08-27_15h08.53.739",NA,NA,816.1324,816.1324,816.1324,816.4734,NA,NA,NA,NA,NA,NA,NA,TRUE,1,0.179,813.1181,816.1323,NA,NA,NA,NA,NA,60,40,0,102,102,69,1,2,103,"binary"
"B27D12A0E5074BA0B636F5FF79F39784",1,"0198ecee-550e-7a19-b0b4-5162145396d3","0198c47e-224f-7cc7-87e7-f5ab0011d1ce","2025-08-27_15h08.53.739",NA,NA,819.464,819.464,819.464,819.7925,NA,NA,NA,NA,NA,NA,NA,TRUE,1,0.1805,816.4742,819.4637,NA,NA,NA,NA,NA,60,35,0,103,103,68,1,2,104,"binary"
"B27D12A0E5074BA0B636F5FF79F39784",1,"0198ecee-550e-7a19-b0b4-5162145396d3","0198c47e-224f-7cc7-87e7-f5ab0011d1ce","2025-08-27_15h08.53.739",NA,NA,822.8269,822.8269,822.8269,823.1583,NA,NA,NA,NA,NA,NA,NA,TRUE,1,0.2664,819.7932,822.8267,NA,NA,NA,NA,NA,50,40,0,104,104,63,1,2,105,"binary"
"B27D12A0E5074BA0B636F5FF79F39784",1,"0198ecee-550e-7a19-b0b4-5162145396d3","0198c47e-224f-7cc7-87e7-f5ab0011d1ce","2025-08-27_15h08.53.739",NA,NA,826.1575,826.1575,826.1575,826.5221,NA,NA,NA,NA,NA,NA,NA,TRUE,1,0.2087,823.159,826.1574,NA,NA,NA,NA,NA,12,26,0,105,105,13,1,2,106,"binary"
"B27D12A0E5074BA0B636F5FF79F39784",1,"0198ecee-550e-7a19-b0b4-5162145396d3","0198c47e-224f-7cc7-87e7-f5ab0011d1ce","2025-08-27_15h08.53.739",NA,NA,829.5102,829.5102,829.5102,829.8699,NA,NA,NA,NA,NA,NA,NA,TRUE,1,0.136,826.5235,829.5101,NA,NA,NA,NA,NA,12,35,0,106,106,17,1,2,107,"binary"
"B27D12A0E5074BA0B636F5FF79F39784",1,"0198ecee-550e-7a19-b0b4-5162145396d3","0198c47e-224f-7cc7-87e7-f5ab0011d1ce","2025-08-27_15h08.53.739",NA,NA,832.8736,832.8736,832.8736,833.1977,NA,NA,NA,NA,NA,NA,NA,TRUE,1,0.1723,829.8707,832.8735,NA,NA,NA,NA,NA,40,35,0,107,107,50,1,2,108,"binary"
