"participant","session","assignmentId","projectId","date","practiceTrial.started","practiceTrial.stopped","tooLate.started","tooLate.stopped","blank.started","blank.stopped","trials_pract.thisRepN","trials_pract.thisTrialN","trials_pract.thisN","trials_pract.thisIndex","trials_pract.ran","delay_pract","amount_pract","responseMade","key","rt","trial.started","trial.stopped","trials.thisRepN","trials.thisTrialN","trials.thisN","trials.thisIndex","trials.ran","delay","amount","trials_2.thisRepN","trials_2.thisTrialN","trials_2.thisN","trials_2.thisIndex","trials_2.ran","block","trial","taskType"
"B6473020623C47F4BB5E4977C8E2F543",1,"01990a99-46e5-7a59-ac4b-aa3a59610b9c","01990a83-7673-7c0c-a792-bbd8fbbaf673","2025-09-02_09h31.09.853",111.2791,114.2317,114.2335,114.2342,114.2344,114.5811,0,0,0,0,1,7,30,TRUE,2,1.743,NA,NA,NA,NA,NA,NA,NA,NA,NA,NA,NA,NA,NA,NA,0,1,"binary"
"B6473020623C47F4BB5E4977C8E2F543",1,"01990a99-46e5-7a59-ac4b-aa3a59610b9c","01990a83-7673-7c0c-a792-bbd8fbbaf673","2025-09-02_09h31.09.853",114.587,117.5778,117.5781,117.5782,117.5782,117.9274,0,1,1,4,1,30,40,TRUE,2,1.6643,NA,NA,NA,NA,NA,NA,NA,NA,NA,NA,NA,NA,NA,NA,0,2,"binary"
"B6473020623C47F4BB5E4977C8E2F543",1,"01990a99-46e5-7a59-ac4b-aa3a59610b9c","01990a83-7673-7c0c-a792-bbd8fbbaf673","2025-09-02_09h31.09.853",117.9313,120.9239,120.9242,120.9243,120.9244,121.2734,0,2,2,2,1,14,45,TRUE,2,1.6872,NA,NA,NA,NA,NA,NA,NA,NA,NA,NA,NA,NA,NA,NA,0,3,"binary"
"B6473020623C47F4BB5E4977C8E2F543",1,"01990a99-46e5-7a59-ac4b-aa3a59610b9c","01990a83-7673-7c0c-a792-bbd8fbbaf673","2025-09-02_09h31.09.853",121.2751,124.2879,124.2883,124.302,124.302,124.6367,0,3,3,3,1,3,27,TRUE,2,2.1593,NA,NA,NA,NA,NA,NA,NA,NA,NA,NA,NA,NA,NA,NA,0,4,"binary"
"B6473020623C47F4BB5E4977C8E2F543",1,"01990a99-46e5-7a59-ac4b-aa3a59610b9c","01990a83-7673-7c0c-a792-bbd8fbbaf673","2025-09-02_09h31.09.853",124.6385,127.6349,127.6351,127.6353,127.6354,127.9842,0,4,4,1,1,100,50,TRUE,2,1.4168,NA,NA,NA,NA,NA,NA,NA,NA,NA,NA,NA,NA,NA,NA,0,5,"binary"
"B6473020623C47F4BB5E4977C8E2F543",1,"01990a99-46e5-7a59-ac4b-aa3a59610b9c","01990a83-7673-7c0c-a792-bbd8fbbaf673","2025-09-02_09h31.09.853",NA,NA,208.4067,208.4073,208.4075,208.7554,NA,NA,NA,NA,NA,NA,NA,TRUE,2,1.7917,205.45,208.4059,0,0,0,87,1,100,39,NA,NA,NA,NA,NA,1,1,"binary"
"B6473020623C47F4BB5E4977C8E2F543",1,"01990a99-46e5-7a59-ac4b-aa3a59610b9c","01990a83-7673-7c0c-a792-bbd8fbbaf673","2025-09-02_09h31.09.853",NA,NA,211.7526,211.7527,211.7527,212.1019,NA,NA,NA,NA,NA,NA,NA,TRUE,1,2.3878,208.7595,211.7523,0,1,1,6,1,10,25,NA,NA,NA,NA,NA,1,2,"binary"
"B6473020623C47F4BB5E4977C8E2F543",1,"01990a99-46e5-7a59-ac4b-aa3a59610b9c","01990a83-7673-7c0c-a792-bbd8fbbaf673","2025-09-02_09h31.09.853",NA,NA,215.0994,215.0996,215.0997,215.4477,NA,NA,NA,NA,NA,NA,NA,TRUE,2,1.5646,212.1063,215.099,0,2,2,1,1,7,26,NA,NA,NA,NA,NA,1,3,"binary"
"B6473020623C47F4BB5E4977C8E2F543",1,"01990a99-46e5-7a59-ac4b-aa3a59610b9c","01990a83-7673-7c0c-a792-bbd8fbbaf673","2025-09-02_09h31.09.853",NA,NA,218.4618,218.4619,218.462,218.8116,NA,NA,NA,NA,NA,NA,NA,TRUE,2,1.0372,215.4504,218.4616,0,3,3,86,1,100,38,NA,NA,NA,NA,NA,1,4,"binary"
"B6473020623C47F4BB5E4977C8E2F543",1,"01990a99-46e5-7a59-ac4b-aa3a59610b9c","01990a83-7673-7c0c-a792-bbd8fbbaf673","2025-09-02_09h31.09.853",NA,NA,221.8091,221.8092,221.8093,222.158,NA,NA,NA,NA,NA,NA,NA,TRUE,2,0.9477,218.8141,221.8087,0,4,4,50,1,40,35,NA,NA,NA,NA,NA,1,5,"binary"
"B6473020623C47F4BB5E4977C8E2F543",1,"01990a99-46e5-7a59-ac4b-aa3a59610b9c","01990a83-7673-7c0c-a792-bbd8fbbaf673","2025-09-02_09h31.09.853",NA,NA,225.1554,225.1554,225.1554,225.5051,NA,NA,NA,NA,NA,NA,NA,TRUE,2,0.8447,222.1603,225.1552,0,5,5,4,1,7,32,NA,NA,NA,NA,NA,1,6,"binary"
"B6473020623C47F4BB5E4977C8E2F543",1,"01990a99-46e5-7a59-ac4b-aa3a59610b9c","01990a83-7673-7c0c-a792-bbd8fbbaf673","2025-09-02_09h31.09.853",NA,NA,228.5018,228.5019,228.502,228.8512,NA,NA,NA,NA,NA,NA,NA,TRUE,2,0.9865,225.5078,228.5017,0,6,6,60,1,50,27,NA,NA,NA,NA,NA,1,7,"binary"
"B6473020623C47F4BB5E4977C8E2F543",1,"01990a99-46e5-7a59-ac4b-aa3a59610b9c","01990a83-7673-7c0c-a792-bbd8fbbaf673","2025-09-02_09h31.09.853",NA,NA,231.8493,231.8495,231.8495,232.1987,NA,NA,NA,NA,NA,NA,NA,TRUE,2,1.018,228.8526,231.8489,0,7,7,94,1,150,47,NA,NA,NA,NA,NA,1,8,"binary"
"B6473020623C47F4BB5E4977C8E2F543",1,"01990a99-46e5-7a59-ac4b-aa3a59610b9c","01990a83-7673-7c0c-a792-bbd8fbbaf673","2025-09-02_09h31.09.853",NA,NA,235.2119,235.2121,235.2121,235.5623,NA,NA,NA,NA,NA,NA,NA,TRUE,2,2.6024,232.2014,235.2117,0,8,8,53,1,40,54,NA,NA,NA,NA,NA,1,9,"binary"
"B6473020623C47F4BB5E4977C8E2F543",1,"01990a99-46e5-7a59-ac4b-aa3a59610b9c","01990a83-7673-7c0c-a792-bbd8fbbaf673","2025-09-02_09h31.09.853",NA,NA,238.5593,238.5596,238.5596,238.9089,NA,NA,NA,NA,NA,NA,NA,TRUE,1,1.6265,235.5653,238.5591,0,9,9,88,1,100,46,NA,NA,NA,NA,NA,1,10,"binary"
"B6473020623C47F4BB5E4977C8E2F543",1,"01990a99-46e5-7a59-ac4b-aa3a59610b9c","01990a83-7673-7c0c-a792-bbd8fbbaf673","2025-09-02_09h31.09.853",NA,NA,241.9052,241.9054,241.9054,242.2557,NA,NA,NA,NA,NA,NA,NA,TRUE,1,2.1827,238.912,241.9052,0,10,10,20,1,14,28,NA,NA,NA,NA,NA,1,11,"binary"
"B6473020623C47F4BB5E4977C8E2F543",1,"01990a99-46e5-7a59-ac4b-aa3a59610b9c","01990a83-7673-7c0c-a792-bbd8fbbaf673","2025-09-02_09h31.09.853",NA,NA,245.2525,245.2525,245.2525,245.602,NA,NA,NA,NA,NA,NA,NA,TRUE,1,1.7562,242.2586,245.2523,0,11,11,104,1,200,35,NA,NA,NA,NA,NA,1,12,"binary"
"B6473020623C47F4BB5E4977C8E2F543",1,"01990a99-46e5-7a59-ac4b-aa3a59610b9c","01990a83-7673-7c0c-a792-bbd8fbbaf673","2025-09-02_09h31.09.853",NA,NA,248.5999,248.6,248.6,248.9489,NA,NA,NA,NA,NA,NA,NA,TRUE,1,2.0654,245.6037,248.5996,0,12,12,82,1,95,47,NA,NA,NA,NA,NA,1,13,"binary"
"B6473020623C47F4BB5E4977C8E2F543",1,"01990a99-46e5-7a59-ac4b-aa3a59610b9c","01990a83-7673-7c0c-a792-bbd8fbbaf673","2025-09-02_09h31.09.853",NA,NA,251.9632,251.9633,251.9634,252.3116,NA,NA,NA,NA,NA,NA,NA,TRUE,2,2.2166,248.952,251.963,0,13,13,54,1,45,26,NA,NA,NA,NA,NA,1,14,"binary"
"B6473020623C47F4BB5E4977C8E2F543",1,"01990a99-46e5-7a59-ac4b-aa3a59610b9c","01990a83-7673-7c0c-a792-bbd8fbbaf673","2025-09-02_09h31.09.853",NA,NA,255.31,255.3104,255.3104,255.6593,NA,NA,NA,NA,NA,NA,NA,TRUE,1,1.501,252.313,255.3096,0,14,14,77,1,90,54,NA,NA,NA,NA,NA,1,15,"binary"
"B6473020623C47F4BB5E4977C8E2F543",1,"01990a99-46e5-7a59-ac4b-aa3a59610b9c","01990a83-7673-7c0c-a792-bbd8fbbaf673","2025-09-02_09h31.09.853",NA,NA,258.6564,258.6566,258.6566,259.0061,NA,NA,NA,NA,NA,NA,NA,TRUE,1,1.5231,255.663,258.6561,0,15,15,36,1,28,26,NA,NA,NA,NA,NA,1,16,"binary"
"B6473020623C47F4BB5E4977C8E2F543",1,"01990a99-46e5-7a59-ac4b-aa3a59610b9c","01990a83-7673-7c0c-a792-bbd8fbbaf673","2025-09-02_09h31.09.853",NA,NA,262.0031,262.0031,262.0032,262.3538,NA,NA,NA,NA,NA,NA,NA,TRUE,1,1.7259,259.0093,262.0029,0,16,16,78,1,95,31,NA,NA,NA,NA,NA,1,17,"binary"
"B6473020623C47F4BB5E4977C8E2F543",1,"01990a99-46e5-7a59-ac4b-aa3a59610b9c","01990a83-7673-7c0c-a792-bbd8fbbaf673","2025-09-02_09h31.09.853",NA,NA,265.3502,265.3502,265.3503,265.6995,NA,NA,NA,NA,NA,NA,NA,TRUE,1,1.3339,262.3578,265.3498,0,17,17,84,1,100,26,NA,NA,NA,NA,NA,1,18,"binary"
"B6473020623C47F4BB5E4977C8E2F543",1,"01990a99-46e5-7a59-ac4b-aa3a59610b9c","01990a83-7673-7c0c-a792-bbd8fbbaf673","2025-09-02_09h31.09.853",NA,NA,268.7126,268.7127,268.7127,269.0619,NA,NA,NA,NA,NA,NA,NA,TRUE,1,1.4567,265.7037,268.7125,0,18,18,91,1,150,33,NA,NA,NA,NA,NA,1,19,"binary"
"B6473020623C47F4BB5E4977C8E2F543",1,"01990a99-46e5-7a59-ac4b-aa3a59610b9c","01990a83-7673-7c0c-a792-bbd8fbbaf673","2025-09-02_09h31.09.853",NA,NA,272.0592,272.0594,272.0594,272.4097,NA,NA,NA,NA,NA,NA,NA,TRUE,1,1.5981,269.0633,272.0591,0,19,19,106,1,200,47,NA,NA,NA,NA,NA,1,20,"binary"
"B6473020623C47F4BB5E4977C8E2F543",1,"01990a99-46e5-7a59-ac4b-aa3a59610b9c","01990a83-7673-7c0c-a792-bbd8fbbaf673","2025-09-02_09h31.09.853",NA,NA,275.4066,275.4067,275.4067,275.7563,NA,NA,NA,NA,NA,NA,NA,TRUE,1,1.2588,272.4129,275.4064,0,20,20,98,1,180,35,NA,NA,NA,NA,NA,1,21,"binary"
"B6473020623C47F4BB5E4977C8E2F543",1,"01990a99-46e5-7a59-ac4b-aa3a59610b9c","01990a83-7673-7c0c-a792-bbd8fbbaf673","2025-09-02_09h31.09.853",NA,NA,278.7541,278.7541,278.7541,279.1023,NA,NA,NA,NA,NA,NA,NA,TRUE,2,1.9584,275.759,278.7538,0,21,21,47,1,30,38,NA,NA,NA,NA,NA,1,22,"binary"
"B6473020623C47F4BB5E4977C8E2F543",1,"01990a99-46e5-7a59-ac4b-aa3a59610b9c","01990a83-7673-7c0c-a792-bbd8fbbaf673","2025-09-02_09h31.09.853",NA,NA,282.0999,282.1001,282.1001,282.4488,NA,NA,NA,NA,NA,NA,NA,TRUE,1,2.4936,279.104,282.0998,0,22,22,32,1,25,31,NA,NA,NA,NA,NA,1,23,"binary"
"B6473020623C47F4BB5E4977C8E2F543",1,"01990a99-46e5-7a59-ac4b-aa3a59610b9c","01990a83-7673-7c0c-a792-bbd8fbbaf673","2025-09-02_09h31.09.853",NA,NA,285.447,285.4471,285.4471,285.7965,NA,NA,NA,NA,NA,NA,NA,TRUE,1,1.6938,282.4503,285.4469,0,23,23,69,1,60,40,NA,NA,NA,NA,NA,1,24,"binary"
"B6473020623C47F4BB5E4977C8E2F543",1,"01990a99-46e5-7a59-ac4b-aa3a59610b9c","01990a83-7673-7c0c-a792-bbd8fbbaf673","2025-09-02_09h31.09.853",NA,NA,288.8103,288.8106,288.8106,289.159,NA,NA,NA,NA,NA,NA,NA,TRUE,1,2.0993,285.7997,288.8101,0,24,24,61,1,50,30,NA,NA,NA,NA,NA,1,25,"binary"
"B6473020623C47F4BB5E4977C8E2F543",1,"01990a99-46e5-7a59-ac4b-aa3a59610b9c","01990a83-7673-7c0c-a792-bbd8fbbaf673","2025-09-02_09h31.09.853",NA,NA,292.1572,292.1573,292.1573,292.5066,NA,NA,NA,NA,NA,NA,NA,TRUE,2,1.5567,289.1606,292.157,0,25,25,9,1,10,29,NA,NA,NA,NA,NA,1,26,"binary"
"B6473020623C47F4BB5E4977C8E2F543",1,"01990a99-46e5-7a59-ac4b-aa3a59610b9c","01990a83-7673-7c0c-a792-bbd8fbbaf673","2025-09-02_09h31.09.853",NA,NA,295.5041,295.5042,295.5043,295.8529,NA,NA,NA,NA,NA,NA,NA,TRUE,1,1.4747,292.5098,295.5038,0,26,26,62,1,50,35,NA,NA,NA,NA,NA,1,27,"binary"
"B6473020623C47F4BB5E4977C8E2F543",1,"01990a99-46e5-7a59-ac4b-aa3a59610b9c","01990a83-7673-7c0c-a792-bbd8fbbaf673","2025-09-02_09h31.09.853",NA,NA,298.8508,298.8509,298.851,299.2002,NA,NA,NA,NA,NA,NA,NA,TRUE,1,1.6564,295.855,298.8505,0,27,27,67,1,60,33,NA,NA,NA,NA,NA,1,28,"binary"
"B6473020623C47F4BB5E4977C8E2F543",1,"01990a99-46e5-7a59-ac4b-aa3a59610b9c","01990a83-7673-7c0c-a792-bbd8fbbaf673","2025-09-02_09h31.09.853",NA,NA,302.1973,302.1974,302.1974,302.5627,NA,NA,NA,NA,NA,NA,NA,TRUE,1,1.5255,299.2041,302.1969,0,28,28,37,1,28,28,NA,NA,NA,NA,NA,1,29,"binary"
"B6473020623C47F4BB5E4977C8E2F543",1,"01990a99-46e5-7a59-ac4b-aa3a59610b9c","01990a83-7673-7c0c-a792-bbd8fbbaf673","2025-09-02_09h31.09.853",NA,NA,305.561,305.5613,305.5613,305.9098,NA,NA,NA,NA,NA,NA,NA,TRUE,2,1.748,302.5652,305.5607,0,29,29,16,1,12,33,NA,NA,NA,NA,NA,1,30,"binary"
"B6473020623C47F4BB5E4977C8E2F543",1,"01990a99-46e5-7a59-ac4b-aa3a59610b9c","01990a83-7673-7c0c-a792-bbd8fbbaf673","2025-09-02_09h31.09.853",NA,NA,308.9075,308.9076,308.9076,309.2568,NA,NA,NA,NA,NA,NA,NA,TRUE,2,1.297,305.9128,308.9073,0,30,30,10,1,10,30,NA,NA,NA,NA,NA,1,31,"binary"
"B6473020623C47F4BB5E4977C8E2F543",1,"01990a99-46e5-7a59-ac4b-aa3a59610b9c","01990a83-7673-7c0c-a792-bbd8fbbaf673","2025-09-02_09h31.09.853",NA,NA,312.2546,312.2548,312.2548,312.6026,NA,NA,NA,NA,NA,NA,NA,TRUE,2,1.8828,309.2597,312.2543,0,31,31,21,1,14,32,NA,NA,NA,NA,NA,1,32,"binary"
"B6473020623C47F4BB5E4977C8E2F543",1,"01990a99-46e5-7a59-ac4b-aa3a59610b9c","01990a83-7673-7c0c-a792-bbd8fbbaf673","2025-09-02_09h31.09.853",NA,NA,315.6006,315.6007,315.6007,315.9505,NA,NA,NA,NA,NA,NA,NA,TRUE,2,1.9193,312.6035,315.6004,0,32,32,52,1,40,47,NA,NA,NA,NA,NA,1,33,"binary"
"B6473020623C47F4BB5E4977C8E2F543",1,"01990a99-46e5-7a59-ac4b-aa3a59610b9c","01990a83-7673-7c0c-a792-bbd8fbbaf673","2025-09-02_09h31.09.853",NA,NA,318.9479,318.9479,318.9479,319.2973,NA,NA,NA,NA,NA,NA,NA,TRUE,1,1.2064,315.954,318.9476,0,33,33,97,1,180,31,NA,NA,NA,NA,NA,1,34,"binary"
"B6473020623C47F4BB5E4977C8E2F543",1,"01990a99-46e5-7a59-ac4b-aa3a59610b9c","01990a83-7673-7c0c-a792-bbd8fbbaf673","2025-09-02_09h31.09.853",NA,NA,322.311,322.3111,322.3112,322.6607,NA,NA,NA,NA,NA,NA,NA,TRUE,1,1.2408,319.3004,322.3107,0,34,34,92,1,150,35,NA,NA,NA,NA,NA,1,35,"binary"
"B6473020623C47F4BB5E4977C8E2F543",1,"01990a99-46e5-7a59-ac4b-aa3a59610b9c","01990a83-7673-7c0c-a792-bbd8fbbaf673","2025-09-02_09h31.09.853",NA,NA,325.6575,325.6576,325.6576,326.0071,NA,NA,NA,NA,NA,NA,NA,TRUE,2,2.0824,322.6642,325.6573,0,35,35,38,1,28,32,NA,NA,NA,NA,NA,1,36,"binary"
"B6473020623C47F4BB5E4977C8E2F543",1,"01990a99-46e5-7a59-ac4b-aa3a59610b9c","01990a83-7673-7c0c-a792-bbd8fbbaf673","2025-09-02_09h31.09.853",NA,NA,329.0044,329.0044,329.0045,329.3541,NA,NA,NA,NA,NA,NA,NA,TRUE,1,1.3761,326.0102,329.0041,0,36,36,80,1,95,35,NA,NA,NA,NA,NA,1,37,"binary"
"B6473020623C47F4BB5E4977C8E2F543",1,"01990a99-46e5-7a59-ac4b-aa3a59610b9c","01990a83-7673-7c0c-a792-bbd8fbbaf673","2025-09-02_09h31.09.853",NA,NA,332.3509,332.351,332.351,332.7006,NA,NA,NA,NA,NA,NA,NA,TRUE,1,2.0834,329.3573,332.3507,0,37,37,51,1,40,40,NA,NA,NA,NA,NA,1,38,"binary"
"B6473020623C47F4BB5E4977C8E2F543",1,"01990a99-46e5-7a59-ac4b-aa3a59610b9c","01990a83-7673-7c0c-a792-bbd8fbbaf673","2025-09-02_09h31.09.853",NA,NA,335.6975,335.6976,335.6976,336.0467,NA,NA,NA,NA,NA,NA,NA,TRUE,2,1.5873,332.7038,335.6973,0,38,38,39,1,28,35,NA,NA,NA,NA,NA,1,39,"binary"
"B6473020623C47F4BB5E4977C8E2F543",1,"01990a99-46e5-7a59-ac4b-aa3a59610b9c","01990a83-7673-7c0c-a792-bbd8fbbaf673","2025-09-02_09h31.09.853",NA,NA,339.0615,339.0617,339.0618,339.4104,NA,NA,NA,NA,NA,NA,NA,TRUE,1,1.702,336.0483,339.0612,0,39,39,66,1,60,29,NA,NA,NA,NA,NA,1,40,"binary"
"B6473020623C47F4BB5E4977C8E2F543",1,"01990a99-46e5-7a59-ac4b-aa3a59610b9c","01990a83-7673-7c0c-a792-bbd8fbbaf673","2025-09-02_09h31.09.853",NA,NA,342.407,342.407,342.407,342.7571,NA,NA,NA,NA,NA,NA,NA,TRUE,1,1.913,339.4137,342.4068,0,40,40,0,1,7,25,NA,NA,NA,NA,NA,1,41,"binary"
"B6473020623C47F4BB5E4977C8E2F543",1,"01990a99-46e5-7a59-ac4b-aa3a59610b9c","01990a83-7673-7c0c-a792-bbd8fbbaf673","2025-09-02_09h31.09.853",NA,NA,345.7552,345.7553,345.7553,346.1038,NA,NA,NA,NA,NA,NA,NA,TRUE,1,1.2687,342.7606,345.7549,0,41,41,65,1,50,54,NA,NA,NA,NA,NA,1,42,"binary"
"B6473020623C47F4BB5E4977C8E2F543",1,"01990a99-46e5-7a59-ac4b-aa3a59610b9c","01990a83-7673-7c0c-a792-bbd8fbbaf673","2025-09-02_09h31.09.853",NA,NA,349.1012,349.1012,349.1013,349.4508,NA,NA,NA,NA,NA,NA,NA,TRUE,1,1.2941,346.1062,349.101,0,42,42,75,1,90,40,NA,NA,NA,NA,NA,1,43,"binary"
"B6473020623C47F4BB5E4977C8E2F543",1,"01990a99-46e5-7a59-ac4b-aa3a59610b9c","01990a83-7673-7c0c-a792-bbd8fbbaf673","2025-09-02_09h31.09.853",NA,NA,352.4484,352.4485,352.4485,352.7971,NA,NA,NA,NA,NA,NA,NA,TRUE,2,2.0734,349.4536,352.4481,0,43,43,11,1,10,32,NA,NA,NA,NA,NA,1,44,"binary"
"B6473020623C47F4BB5E4977C8E2F543",1,"01990a99-46e5-7a59-ac4b-aa3a59610b9c","01990a83-7673-7c0c-a792-bbd8fbbaf673","2025-09-02_09h31.09.853",NA,NA,355.8108,355.8108,355.8108,356.1611,NA,NA,NA,NA,NA,NA,NA,TRUE,1,1.537,352.7991,355.8106,0,44,44,44,1,30,29,NA,NA,NA,NA,NA,1,45,"binary"
"B6473020623C47F4BB5E4977C8E2F543",1,"01990a99-46e5-7a59-ac4b-aa3a59610b9c","01990a83-7673-7c0c-a792-bbd8fbbaf673","2025-09-02_09h31.09.853",NA,NA,359.1584,359.1585,359.1585,359.5075,NA,NA,NA,NA,NA,NA,NA,TRUE,1,2.1457,356.1646,359.1582,0,45,45,31,1,25,29,NA,NA,NA,NA,NA,1,46,"binary"
"B6473020623C47F4BB5E4977C8E2F543",1,"01990a99-46e5-7a59-ac4b-aa3a59610b9c","01990a83-7673-7c0c-a792-bbd8fbbaf673","2025-09-02_09h31.09.853",NA,NA,362.5052,362.5053,362.5053,362.8537,NA,NA,NA,NA,NA,NA,NA,TRUE,1,1.0936,359.5104,362.505,0,46,46,100,1,180,46,NA,NA,NA,NA,NA,1,47,"binary"
"B6473020623C47F4BB5E4977C8E2F543",1,"01990a99-46e5-7a59-ac4b-aa3a59610b9c","01990a83-7673-7c0c-a792-bbd8fbbaf673","2025-09-02_09h31.09.853",NA,NA,365.852,365.852,365.852,366.2013,NA,NA,NA,NA,NA,NA,NA,TRUE,1,1.8256,362.8555,365.8516,0,47,47,24,1,21,26,NA,NA,NA,NA,NA,1,48,"binary"
"B6473020623C47F4BB5E4977C8E2F543",1,"01990a99-46e5-7a59-ac4b-aa3a59610b9c","01990a83-7673-7c0c-a792-bbd8fbbaf673","2025-09-02_09h31.09.853",NA,NA,369.1984,369.1984,369.1985,369.5483,NA,NA,NA,NA,NA,NA,NA,TRUE,1,1.0373,366.205,369.1981,0,48,48,13,1,12,26,NA,NA,NA,NA,NA,1,49,"binary"
"B6473020623C47F4BB5E4977C8E2F543",1,"01990a99-46e5-7a59-ac4b-aa3a59610b9c","01990a83-7673-7c0c-a792-bbd8fbbaf673","2025-09-02_09h31.09.853",NA,NA,372.5606,372.5607,372.5607,372.9107,NA,NA,NA,NA,NA,NA,NA,TRUE,1,1.4003,369.5517,372.5606,0,49,49,99,1,180,39,NA,NA,NA,NA,NA,1,50,"binary"
"B6473020623C47F4BB5E4977C8E2F543",1,"01990a99-46e5-7a59-ac4b-aa3a59610b9c","01990a83-7673-7c0c-a792-bbd8fbbaf673","2025-09-02_09h31.09.853",NA,NA,375.9077,375.9077,375.9077,376.257,NA,NA,NA,NA,NA,NA,NA,TRUE,1,0.995,372.9124,375.9075,0,50,50,15,1,12,31,NA,NA,NA,NA,NA,1,51,"binary"
"B6473020623C47F4BB5E4977C8E2F543",1,"01990a99-46e5-7a59-ac4b-aa3a59610b9c","01990a83-7673-7c0c-a792-bbd8fbbaf673","2025-09-02_09h31.09.853",NA,NA,379.2555,379.2556,379.2556,379.6049,NA,NA,NA,NA,NA,NA,NA,TRUE,1,1.0035,376.2599,379.2552,0,51,51,55,1,45,29,NA,NA,NA,NA,NA,1,52,"binary"
"B6473020623C47F4BB5E4977C8E2F543",1,"01990a99-46e5-7a59-ac4b-aa3a59610b9c","01990a83-7673-7c0c-a792-bbd8fbbaf673","2025-09-02_09h31.09.853",NA,NA,382.6022,382.6023,382.6023,382.9505,NA,NA,NA,NA,NA,NA,NA,TRUE,1,0.6769,379.6085,382.6017,0,52,52,45,1,30,30,NA,NA,NA,NA,NA,1,53,"binary"
"B6473020623C47F4BB5E4977C8E2F543",1,"01990a99-46e5-7a59-ac4b-aa3a59610b9c","01990a83-7673-7c0c-a792-bbd8fbbaf673","2025-09-02_09h31.09.853",NA,NA,385.9493,385.9494,385.9494,386.2982,NA,NA,NA,NA,NA,NA,NA,TRUE,1,0.9603,382.9527,385.949,0,53,53,8,1,10,27,NA,NA,NA,NA,NA,1,54,"binary"
"B6473020623C47F4BB5E4977C8E2F543",1,"01990a99-46e5-7a59-ac4b-aa3a59610b9c","01990a83-7673-7c0c-a792-bbd8fbbaf673","2025-09-02_09h31.09.853",NA,NA,389.3117,389.3119,389.3119,389.6614,NA,NA,NA,NA,NA,NA,NA,TRUE,1,0.6351,386.3018,389.3116,0,54,54,42,1,30,26,NA,NA,NA,NA,NA,1,55,"binary"
"B6473020623C47F4BB5E4977C8E2F543",1,"01990a99-46e5-7a59-ac4b-aa3a59610b9c","01990a83-7673-7c0c-a792-bbd8fbbaf673","2025-09-02_09h31.09.853",NA,NA,392.6581,392.6582,392.6582,393.0081,NA,NA,NA,NA,NA,NA,NA,TRUE,1,0.6762,389.6646,392.658,0,55,55,95,1,150,54,NA,NA,NA,NA,NA,1,56,"binary"
"B6473020623C47F4BB5E4977C8E2F543",1,"01990a99-46e5-7a59-ac4b-aa3a59610b9c","01990a83-7673-7c0c-a792-bbd8fbbaf673","2025-09-02_09h31.09.853",NA,NA,396.0057,396.0058,396.0058,396.3553,NA,NA,NA,NA,NA,NA,NA,TRUE,1,0.7365,393.0115,396.0054,0,56,56,56,1,45,31,NA,NA,NA,NA,NA,1,57,"binary"
"B6473020623C47F4BB5E4977C8E2F543",1,"01990a99-46e5-7a59-ac4b-aa3a59610b9c","01990a83-7673-7c0c-a792-bbd8fbbaf673","2025-09-02_09h31.09.853",NA,NA,399.3522,399.3524,399.3524,399.7018,NA,NA,NA,NA,NA,NA,NA,TRUE,1,0.9913,396.3595,399.352,0,57,57,57,1,45,35,NA,NA,NA,NA,NA,1,58,"binary"
"B6473020623C47F4BB5E4977C8E2F543",1,"01990a99-46e5-7a59-ac4b-aa3a59610b9c","01990a83-7673-7c0c-a792-bbd8fbbaf673","2025-09-02_09h31.09.853",NA,NA,402.6982,402.6983,402.6983,403.0481,NA,NA,NA,NA,NA,NA,NA,TRUE,1,0.5395,399.7052,402.698,0,58,58,12,1,12,25,NA,NA,NA,NA,NA,1,59,"binary"
"B6473020623C47F4BB5E4977C8E2F543",1,"01990a99-46e5-7a59-ac4b-aa3a59610b9c","01990a83-7673-7c0c-a792-bbd8fbbaf673","2025-09-02_09h31.09.853",NA,NA,406.0627,406.0629,406.063,406.412,NA,NA,NA,NA,NA,NA,NA,TRUE,1,0.5768,403.0508,406.0624,0,59,59,83,1,95,54,NA,NA,NA,NA,NA,1,60,"binary"
"B6473020623C47F4BB5E4977C8E2F543",1,"01990a99-46e5-7a59-ac4b-aa3a59610b9c","01990a83-7673-7c0c-a792-bbd8fbbaf673","2025-09-02_09h31.09.853",NA,NA,409.4088,409.4091,409.4091,409.7584,NA,NA,NA,NA,NA,NA,NA,TRUE,1,0.6351,406.4151,409.4086,0,60,60,34,1,25,35,NA,NA,NA,NA,NA,1,61,"binary"
"B6473020623C47F4BB5E4977C8E2F543",1,"01990a99-46e5-7a59-ac4b-aa3a59610b9c","01990a83-7673-7c0c-a792-bbd8fbbaf673","2025-09-02_09h31.09.853",NA,NA,412.756,412.756,412.756,413.1053,NA,NA,NA,NA,NA,NA,NA,TRUE,1,0.6914,409.7624,412.7556,0,61,61,33,1,25,33,NA,NA,NA,NA,NA,1,62,"binary"
"B6473020623C47F4BB5E4977C8E2F543",1,"01990a99-46e5-7a59-ac4b-aa3a59610b9c","01990a83-7673-7c0c-a792-bbd8fbbaf673","2025-09-02_09h31.09.853",NA,NA,416.1027,416.1028,416.1028,416.4517,NA,NA,NA,NA,NA,NA,NA,TRUE,1,0.9363,413.108,416.1023,0,62,62,107,1,200,54,NA,NA,NA,NA,NA,1,63,"binary"
"B6473020623C47F4BB5E4977C8E2F543",1,"01990a99-46e5-7a59-ac4b-aa3a59610b9c","01990a83-7673-7c0c-a792-bbd8fbbaf673","2025-09-02_09h31.09.853",NA,NA,419.4495,419.4496,419.4497,419.7979,NA,NA,NA,NA,NA,NA,NA,TRUE,1,0.4836,416.456,419.4492,0,63,63,14,1,12,28,NA,NA,NA,NA,NA,1,64,"binary"
"B6473020623C47F4BB5E4977C8E2F543",1,"01990a99-46e5-7a59-ac4b-aa3a59610b9c","01990a83-7673-7c0c-a792-bbd8fbbaf673","2025-09-02_09h31.09.853",NA,NA,422.8119,422.8121,422.8121,423.1623,NA,NA,NA,NA,NA,NA,NA,TRUE,1,0.852,419.8014,422.8118,0,64,64,63,1,50,40,NA,NA,NA,NA,NA,1,65,"binary"
"B6473020623C47F4BB5E4977C8E2F543",1,"01990a99-46e5-7a59-ac4b-aa3a59610b9c","01990a83-7673-7c0c-a792-bbd8fbbaf673","2025-09-02_09h31.09.853",NA,NA,426.1586,426.1586,426.1586,426.5087,NA,NA,NA,NA,NA,NA,NA,TRUE,1,1.4244,423.1663,426.1584,0,65,65,35,1,25,46,NA,NA,NA,NA,NA,1,66,"binary"
"B6473020623C47F4BB5E4977C8E2F543",1,"01990a99-46e5-7a59-ac4b-aa3a59610b9c","01990a83-7673-7c0c-a792-bbd8fbbaf673","2025-09-02_09h31.09.853",NA,NA,429.5054,429.5055,429.5055,429.8557,NA,NA,NA,NA,NA,NA,NA,TRUE,1,1.426,426.5115,429.5053,0,66,66,43,1,30,27,NA,NA,NA,NA,NA,1,67,"binary"
"B6473020623C47F4BB5E4977C8E2F543",1,"01990a99-46e5-7a59-ac4b-aa3a59610b9c","01990a83-7673-7c0c-a792-bbd8fbbaf673","2025-09-02_09h31.09.853",NA,NA,432.8521,432.8522,432.8522,433.2022,NA,NA,NA,NA,NA,NA,NA,TRUE,1,1.1054,429.8584,432.8519,0,67,67,30,1,25,27,NA,NA,NA,NA,NA,1,68,"binary"
"B6473020623C47F4BB5E4977C8E2F543",1,"01990a99-46e5-7a59-ac4b-aa3a59610b9c","01990a83-7673-7c0c-a792-bbd8fbbaf673","2025-09-02_09h31.09.853",NA,NA,436.1996,436.1997,436.1997,436.5481,NA,NA,NA,NA,NA,NA,NA,TRUE,1,1.1055,433.2054,436.1994,0,68,68,71,1,60,54,NA,NA,NA,NA,NA,1,69,"binary"
"B6473020623C47F4BB5E4977C8E2F543",1,"01990a99-46e5-7a59-ac4b-aa3a59610b9c","01990a83-7673-7c0c-a792-bbd8fbbaf673","2025-09-02_09h31.09.853",NA,NA,439.5625,439.5626,439.5626,439.9123,NA,NA,NA,NA,NA,NA,NA,TRUE,1,0.7249,436.5496,439.5623,0,69,69,2,1,7,28,NA,NA,NA,NA,NA,1,70,"binary"
"B6473020623C47F4BB5E4977C8E2F543",1,"01990a99-46e5-7a59-ac4b-aa3a59610b9c","01990a83-7673-7c0c-a792-bbd8fbbaf673","2025-09-02_09h31.09.853",NA,NA,442.9096,442.9099,442.9099,443.259,NA,NA,NA,NA,NA,NA,NA,TRUE,1,0.9498,439.9151,442.9093,0,70,70,81,1,95,40,NA,NA,NA,NA,NA,1,71,"binary"
"B6473020623C47F4BB5E4977C8E2F543",1,"01990a99-46e5-7a59-ac4b-aa3a59610b9c","01990a83-7673-7c0c-a792-bbd8fbbaf673","2025-09-02_09h31.09.853",NA,NA,446.2558,446.2558,446.2559,446.6055,NA,NA,NA,NA,NA,NA,NA,TRUE,1,0.5338,443.2617,446.2557,0,71,71,49,1,40,33,NA,NA,NA,NA,NA,1,72,"binary"
"B6473020623C47F4BB5E4977C8E2F543",1,"01990a99-46e5-7a59-ac4b-aa3a59610b9c","01990a83-7673-7c0c-a792-bbd8fbbaf673","2025-09-02_09h31.09.853",NA,NA,449.6024,449.6025,449.6025,449.9527,NA,NA,NA,NA,NA,NA,NA,TRUE,1,0.9608,446.6083,449.6022,0,72,72,90,1,150,31,NA,NA,NA,NA,NA,1,73,"binary"
"B6473020623C47F4BB5E4977C8E2F543",1,"01990a99-46e5-7a59-ac4b-aa3a59610b9c","01990a83-7673-7c0c-a792-bbd8fbbaf673","2025-09-02_09h31.09.853",NA,NA,452.95,452.9501,452.9502,453.2992,NA,NA,NA,NA,NA,NA,NA,TRUE,1,0.7675,449.9562,452.9498,0,73,73,73,1,90,30,NA,NA,NA,NA,NA,1,74,"binary"
"B6473020623C47F4BB5E4977C8E2F543",1,"01990a99-46e5-7a59-ac4b-aa3a59610b9c","01990a83-7673-7c0c-a792-bbd8fbbaf673","2025-09-02_09h31.09.853",NA,NA,456.3123,456.3125,456.3125,456.6622,NA,NA,NA,NA,NA,NA,NA,TRUE,1,0.8177,453.3025,456.3123,0,74,74,79,1,95,33,NA,NA,NA,NA,NA,1,75,"binary"
"B6473020623C47F4BB5E4977C8E2F543",1,"01990a99-46e5-7a59-ac4b-aa3a59610b9c","01990a83-7673-7c0c-a792-bbd8fbbaf673","2025-09-02_09h31.09.853",NA,NA,459.6596,459.6597,459.6598,460.0096,NA,NA,NA,NA,NA,NA,NA,TRUE,1,0.6176,456.6647,459.6594,0,75,75,22,1,14,35,NA,NA,NA,NA,NA,1,76,"binary"
"B6473020623C47F4BB5E4977C8E2F543",1,"01990a99-46e5-7a59-ac4b-aa3a59610b9c","01990a83-7673-7c0c-a792-bbd8fbbaf673","2025-09-02_09h31.09.853",NA,NA,463.0063,463.0063,463.0064,463.3553,NA,NA,NA,NA,NA,NA,NA,TRUE,1,0.8767,460.0159,463.0061,0,76,76,58,1,45,40,NA,NA,NA,NA,NA,1,77,"binary"
"B6473020623C47F4BB5E4977C8E2F543",1,"01990a99-46e5-7a59-ac4b-aa3a59610b9c","01990a83-7673-7c0c-a792-bbd8fbbaf673","2025-09-02_09h31.09.853",NA,NA,466.3535,466.3536,466.3537,466.7023,NA,NA,NA,NA,NA,NA,NA,TRUE,1,1.3359,463.3568,466.3532,0,77,77,26,1,21,29,NA,NA,NA,NA,NA,1,78,"binary"
"B6473020623C47F4BB5E4977C8E2F543",1,"01990a99-46e5-7a59-ac4b-aa3a59610b9c","01990a83-7673-7c0c-a792-bbd8fbbaf673","2025-09-02_09h31.09.853",NA,NA,469.7002,469.7002,469.7003,470.0495,NA,NA,NA,NA,NA,NA,NA,TRUE,1,0.9388,466.7055,469.7,0,78,78,103,1,200,28,NA,NA,NA,NA,NA,1,79,"binary"
"B6473020623C47F4BB5E4977C8E2F543",1,"01990a99-46e5-7a59-ac4b-aa3a59610b9c","01990a83-7673-7c0c-a792-bbd8fbbaf673","2025-09-02_09h31.09.853",NA,NA,473.0471,473.0472,473.0472,473.3964,NA,NA,NA,NA,NA,NA,NA,TRUE,1,1.0922,470.0522,473.0469,0,79,79,68,1,60,35,NA,NA,NA,NA,NA,1,80,"binary"
"B6473020623C47F4BB5E4977C8E2F543",1,"01990a99-46e5-7a59-ac4b-aa3a59610b9c","01990a83-7673-7c0c-a792-bbd8fbbaf673","2025-09-02_09h31.09.853",NA,NA,476.4104,476.4105,476.4105,476.7594,NA,NA,NA,NA,NA,NA,NA,TRUE,1,1.0654,473.3992,476.4102,0,80,80,93,1,150,40,NA,NA,NA,NA,NA,1,81,"binary"
"B6473020623C47F4BB5E4977C8E2F543",1,"01990a99-46e5-7a59-ac4b-aa3a59610b9c","01990a83-7673-7c0c-a792-bbd8fbbaf673","2025-09-02_09h31.09.853",NA,NA,479.757,479.7571,479.7571,480.1064,NA,NA,NA,NA,NA,NA,NA,TRUE,1,0.8259,476.7634,479.7568,0,81,81,72,1,90,26,NA,NA,NA,NA,NA,1,82,"binary"
"B6473020623C47F4BB5E4977C8E2F543",1,"01990a99-46e5-7a59-ac4b-aa3a59610b9c","01990a83-7673-7c0c-a792-bbd8fbbaf673","2025-09-02_09h31.09.853",NA,NA,483.1037,483.1038,483.1039,483.4533,NA,NA,NA,NA,NA,NA,NA,TRUE,1,0.9183,480.1092,483.1034,0,82,82,5,1,7,35,NA,NA,NA,NA,NA,1,83,"binary"
"B6473020623C47F4BB5E4977C8E2F543",1,"01990a99-46e5-7a59-ac4b-aa3a59610b9c","01990a83-7673-7c0c-a792-bbd8fbbaf673","2025-09-02_09h31.09.853",NA,NA,486.4506,486.4507,486.4507,486.7996,NA,NA,NA,NA,NA,NA,NA,TRUE,2,1.5758,483.4565,486.4504,0,83,83,3,1,7,30,NA,NA,NA,NA,NA,1,84,"binary"
"B6473020623C47F4BB5E4977C8E2F543",1,"01990a99-46e5-7a59-ac4b-aa3a59610b9c","01990a83-7673-7c0c-a792-bbd8fbbaf673","2025-09-02_09h31.09.853",NA,NA,489.7976,489.7978,489.7978,490.1468,NA,NA,NA,NA,NA,NA,NA,TRUE,2,1.8665,486.8022,489.7973,0,84,84,17,1,12,35,NA,NA,NA,NA,NA,1,85,"binary"
"B6473020623C47F4BB5E4977C8E2F543",1,"01990a99-46e5-7a59-ac4b-aa3a59610b9c","01990a83-7673-7c0c-a792-bbd8fbbaf673","2025-09-02_09h31.09.853",NA,NA,493.1607,493.1608,493.1609,493.5095,NA,NA,NA,NA,NA,NA,NA,TRUE,1,1.8326,490.1505,493.1605,0,85,85,18,1,14,25,NA,NA,NA,NA,NA,1,86,"binary"
"B6473020623C47F4BB5E4977C8E2F543",1,"01990a99-46e5-7a59-ac4b-aa3a59610b9c","01990a83-7673-7c0c-a792-bbd8fbbaf673","2025-09-02_09h31.09.853",NA,NA,496.5073,496.757,496.7571,496.8565,NA,NA,NA,NA,NA,NA,NA,FALSE,NA,NA,493.5119,496.5069,0,86,86,46,1,30,32,NA,NA,NA,NA,NA,1,87,"binary"
"B6473020623C47F4BB5E4977C8E2F543",1,"01990a99-46e5-7a59-ac4b-aa3a59610b9c","01990a83-7673-7c0c-a792-bbd8fbbaf673","2025-09-02_09h31.09.853",NA,NA,499.8537,499.8538,499.8539,500.2035,NA,NA,NA,NA,NA,NA,NA,TRUE,1,0.7766,496.8608,499.8535,0,87,87,48,1,40,27,NA,NA,NA,NA,NA,1,88,"binary"
"B6473020623C47F4BB5E4977C8E2F543",1,"01990a99-46e5-7a59-ac4b-aa3a59610b9c","01990a83-7673-7c0c-a792-bbd8fbbaf673","2025-09-02_09h31.09.853",NA,NA,503.2011,503.2012,503.2013,503.55,NA,NA,NA,NA,NA,NA,NA,TRUE,1,0.6691,500.2068,503.2008,0,88,88,105,1,200,39,NA,NA,NA,NA,NA,1,89,"binary"
"B6473020623C47F4BB5E4977C8E2F543",1,"01990a99-46e5-7a59-ac4b-aa3a59610b9c","01990a83-7673-7c0c-a792-bbd8fbbaf673","2025-09-02_09h31.09.853",NA,NA,506.5478,506.5479,506.548,506.9127,NA,NA,NA,NA,NA,NA,NA,TRUE,1,0.5037,503.5542,506.5475,0,89,89,25,1,21,27,NA,NA,NA,NA,NA,1,90,"binary"
"B6473020623C47F4BB5E4977C8E2F543",1,"01990a99-46e5-7a59-ac4b-aa3a59610b9c","01990a83-7673-7c0c-a792-bbd8fbbaf673","2025-09-02_09h31.09.853",NA,NA,509.9106,509.9107,509.9107,510.2602,NA,NA,NA,NA,NA,NA,NA,TRUE,1,0.4818,506.915,509.9103,0,90,90,29,1,21,38,NA,NA,NA,NA,NA,1,91,"binary"
"B6473020623C47F4BB5E4977C8E2F543",1,"01990a99-46e5-7a59-ac4b-aa3a59610b9c","01990a83-7673-7c0c-a792-bbd8fbbaf673","2025-09-02_09h31.09.853",NA,NA,513.2574,513.2575,513.2575,513.6072,NA,NA,NA,NA,NA,NA,NA,TRUE,2,1.3491,510.2631,513.2573,0,91,91,23,1,14,39,NA,NA,NA,NA,NA,1,92,"binary"
"B6473020623C47F4BB5E4977C8E2F543",1,"01990a99-46e5-7a59-ac4b-aa3a59610b9c","01990a83-7673-7c0c-a792-bbd8fbbaf673","2025-09-02_09h31.09.853",NA,NA,516.604,516.604,516.604,516.9535,NA,NA,NA,NA,NA,NA,NA,TRUE,1,1.0824,513.6109,516.6038,0,92,92,85,1,100,31,NA,NA,NA,NA,NA,1,93,"binary"
"B6473020623C47F4BB5E4977C8E2F543",1,"01990a99-46e5-7a59-ac4b-aa3a59610b9c","01990a83-7673-7c0c-a792-bbd8fbbaf673","2025-09-02_09h31.09.853",NA,NA,519.9512,519.9512,519.9513,520.2998,NA,NA,NA,NA,NA,NA,NA,TRUE,1,1.5489,516.9559,519.951,0,93,93,27,1,21,30,NA,NA,NA,NA,NA,1,94,"binary"
"B6473020623C47F4BB5E4977C8E2F543",1,"01990a99-46e5-7a59-ac4b-aa3a59610b9c","01990a83-7673-7c0c-a792-bbd8fbbaf673","2025-09-02_09h31.09.853",NA,NA,523.2967,523.2968,523.2968,523.6473,NA,NA,NA,NA,NA,NA,NA,TRUE,2,1.1218,520.3014,523.2967,0,94,94,41,1,28,46,NA,NA,NA,NA,NA,1,95,"binary"
"B6473020623C47F4BB5E4977C8E2F543",1,"01990a99-46e5-7a59-ac4b-aa3a59610b9c","01990a83-7673-7c0c-a792-bbd8fbbaf673","2025-09-02_09h31.09.853",NA,NA,526.661,526.6612,526.6612,527.0106,NA,NA,NA,NA,NA,NA,NA,TRUE,1,0.901,523.6504,526.6607,0,95,95,7,1,10,26,NA,NA,NA,NA,NA,1,96,"binary"
"B6473020623C47F4BB5E4977C8E2F543",1,"01990a99-46e5-7a59-ac4b-aa3a59610b9c","01990a83-7673-7c0c-a792-bbd8fbbaf673","2025-09-02_09h31.09.853",NA,NA,530.0081,530.0081,530.0082,530.3567,NA,NA,NA,NA,NA,NA,NA,TRUE,1,1.1744,527.0145,530.0079,0,96,96,101,1,180,54,NA,NA,NA,NA,NA,1,97,"binary"
"B6473020623C47F4BB5E4977C8E2F543",1,"01990a99-46e5-7a59-ac4b-aa3a59610b9c","01990a83-7673-7c0c-a792-bbd8fbbaf673","2025-09-02_09h31.09.853",NA,NA,533.3538,533.3539,533.3539,533.7042,NA,NA,NA,NA,NA,NA,NA,TRUE,1,0.9265,530.3584,533.3537,0,97,97,102,1,200,26,NA,NA,NA,NA,NA,1,98,"binary"
"B6473020623C47F4BB5E4977C8E2F543",1,"01990a99-46e5-7a59-ac4b-aa3a59610b9c","01990a83-7673-7c0c-a792-bbd8fbbaf673","2025-09-02_09h31.09.853",NA,NA,536.7013,536.7014,536.7014,537.0498,NA,NA,NA,NA,NA,NA,NA,TRUE,1,1.0312,533.7076,536.7009,0,98,98,74,1,90,33,NA,NA,NA,NA,NA,1,99,"binary"
"B6473020623C47F4BB5E4977C8E2F543",1,"01990a99-46e5-7a59-ac4b-aa3a59610b9c","01990a83-7673-7c0c-a792-bbd8fbbaf673","2025-09-02_09h31.09.853",NA,NA,540.0475,540.0475,540.0475,540.3969,NA,NA,NA,NA,NA,NA,NA,TRUE,1,1.0281,537.0513,540.0472,0,99,99,28,1,21,32,NA,NA,NA,NA,NA,1,100,"binary"
"B6473020623C47F4BB5E4977C8E2F543",1,"01990a99-46e5-7a59-ac4b-aa3a59610b9c","01990a83-7673-7c0c-a792-bbd8fbbaf673","2025-09-02_09h31.09.853",NA,NA,543.4107,543.4108,543.4109,543.7611,NA,NA,NA,NA,NA,NA,NA,TRUE,2,1.6506,540.3983,543.4105,0,100,100,70,1,60,47,NA,NA,NA,NA,NA,1,101,"binary"
"B6473020623C47F4BB5E4977C8E2F543",1,"01990a99-46e5-7a59-ac4b-aa3a59610b9c","01990a83-7673-7c0c-a792-bbd8fbbaf673","2025-09-02_09h31.09.853",NA,NA,546.7582,546.7583,546.7583,547.1072,NA,NA,NA,NA,NA,NA,NA,TRUE,1,1.4232,543.7652,546.758,0,101,101,96,1,180,27,NA,NA,NA,NA,NA,1,102,"binary"
"B6473020623C47F4BB5E4977C8E2F543",1,"01990a99-46e5-7a59-ac4b-aa3a59610b9c","01990a83-7673-7c0c-a792-bbd8fbbaf673","2025-09-02_09h31.09.853",NA,NA,550.1051,550.1051,550.1051,550.454,NA,NA,NA,NA,NA,NA,NA,TRUE,1,1.1129,547.1105,550.1047,0,102,102,19,1,14,26,NA,NA,NA,NA,NA,1,103,"binary"
"B6473020623C47F4BB5E4977C8E2F543",1,"01990a99-46e5-7a59-ac4b-aa3a59610b9c","01990a83-7673-7c0c-a792-bbd8fbbaf673","2025-09-02_09h31.09.853",NA,NA,553.4514,553.4514,553.4514,553.801,NA,NA,NA,NA,NA,NA,NA,TRUE,1,1.0999,550.4575,553.4511,0,103,103,76,1,90,46,NA,NA,NA,NA,NA,1,104,"binary"
"B6473020623C47F4BB5E4977C8E2F543",1,"01990a99-46e5-7a59-ac4b-aa3a59610b9c","01990a83-7673-7c0c-a792-bbd8fbbaf673","2025-09-02_09h31.09.853",NA,NA,556.7983,556.7983,556.7983,557.148,NA,NA,NA,NA,NA,NA,NA,TRUE,2,1.2332,553.8038,556.7981,0,104,104,40,1,28,39,NA,NA,NA,NA,NA,1,105,"binary"
"B6473020623C47F4BB5E4977C8E2F543",1,"01990a99-46e5-7a59-ac4b-aa3a59610b9c","01990a83-7673-7c0c-a792-bbd8fbbaf673","2025-09-02_09h31.09.853",NA,NA,560.1616,560.1617,560.1617,560.511,NA,NA,NA,NA,NA,NA,NA,TRUE,1,1.2171,557.1518,560.1614,0,105,105,59,1,45,46,NA,NA,NA,NA,NA,1,106,"binary"
"B6473020623C47F4BB5E4977C8E2F543",1,"01990a99-46e5-7a59-ac4b-aa3a59610b9c","01990a83-7673-7c0c-a792-bbd8fbbaf673","2025-09-02_09h31.09.853",NA,NA,563.5087,563.5088,563.5089,563.858,NA,NA,NA,NA,NA,NA,NA,TRUE,1,1.0816,560.5139,563.5084,0,106,106,64,1,50,46,NA,NA,NA,NA,NA,1,107,"binary"
"B6473020623C47F4BB5E4977C8E2F543",1,"01990a99-46e5-7a59-ac4b-aa3a59610b9c","01990a83-7673-7c0c-a792-bbd8fbbaf673","2025-09-02_09h31.09.853",NA,NA,566.855,566.8551,566.8551,567.2047,NA,NA,NA,NA,NA,NA,NA,TRUE,1,1.0578,563.8617,566.8547,0,107,107,89,1,100,54,NA,NA,NA,NA,NA,1,108,"binary"
"B6473020623C47F4BB5E4977C8E2F543",1,"01990a99-46e5-7a59-ac4b-aa3a59610b9c","01990a83-7673-7c0c-a792-bbd8fbbaf673","2025-09-02_09h31.09.853",NA,NA,577.8767,577.8767,577.8767,578.2267,NA,NA,NA,NA,NA,NA,NA,TRUE,1,2.8392,574.9056,577.8765,NA,NA,NA,NA,NA,12,28,0,0,0,14,1,2,1,"binary"
"B6473020623C47F4BB5E4977C8E2F543",1,"01990a99-46e5-7a59-ac4b-aa3a59610b9c","01990a83-7673-7c0c-a792-bbd8fbbaf673","2025-09-02_09h31.09.853",NA,NA,581.2249,581.2249,581.225,581.5738,NA,NA,NA,NA,NA,NA,NA,TRUE,1,0.9392,578.2296,581.2245,NA,NA,NA,NA,NA,10,27,0,1,1,8,1,2,2,"binary"
"B6473020623C47F4BB5E4977C8E2F543",1,"01990a99-46e5-7a59-ac4b-aa3a59610b9c","01990a83-7673-7c0c-a792-bbd8fbbaf673","2025-09-02_09h31.09.853",NA,NA,584.5716,584.5717,584.5717,584.9205,NA,NA,NA,NA,NA,NA,NA,TRUE,1,1.0324,581.5776,584.5713,NA,NA,NA,NA,NA,95,40,0,2,2,81,1,2,3,"binary"
"B6473020623C47F4BB5E4977C8E2F543",1,"01990a99-46e5-7a59-ac4b-aa3a59610b9c","01990a83-7673-7c0c-a792-bbd8fbbaf673","2025-09-02_09h31.09.853",NA,NA,587.9337,587.9337,587.9338,588.2832,NA,NA,NA,NA,NA,NA,NA,TRUE,1,0.8195,584.9239,587.9335,NA,NA,NA,NA,NA,10,26,0,3,3,7,1,2,4,"binary"
"B6473020623C47F4BB5E4977C8E2F543",1,"01990a99-46e5-7a59-ac4b-aa3a59610b9c","01990a83-7673-7c0c-a792-bbd8fbbaf673","2025-09-02_09h31.09.853",NA,NA,591.2814,591.2816,591.2816,591.6306,NA,NA,NA,NA,NA,NA,NA,TRUE,2,1.3463,588.2847,591.2812,NA,NA,NA,NA,NA,14,35,0,4,4,22,1,2,5,"binary"
"B6473020623C47F4BB5E4977C8E2F543",1,"01990a99-46e5-7a59-ac4b-aa3a59610b9c","01990a83-7673-7c0c-a792-bbd8fbbaf673","2025-09-02_09h31.09.853",NA,NA,594.6278,594.6279,594.6279,594.977,NA,NA,NA,NA,NA,NA,NA,TRUE,2,1.3908,591.634,594.6276,NA,NA,NA,NA,NA,28,39,0,5,5,40,1,2,6,"binary"
"B6473020623C47F4BB5E4977C8E2F543",1,"01990a99-46e5-7a59-ac4b-aa3a59610b9c","01990a83-7673-7c0c-a792-bbd8fbbaf673","2025-09-02_09h31.09.853",NA,NA,597.974,597.974,597.974,598.3241,NA,NA,NA,NA,NA,NA,NA,TRUE,1,1.1007,594.9793,597.9738,NA,NA,NA,NA,NA,150,31,0,6,6,90,1,2,7,"binary"
"B6473020623C47F4BB5E4977C8E2F543",1,"01990a99-46e5-7a59-ac4b-aa3a59610b9c","01990a83-7673-7c0c-a792-bbd8fbbaf673","2025-09-02_09h31.09.853",NA,NA,601.3214,601.3214,601.3215,601.6711,NA,NA,NA,NA,NA,NA,NA,TRUE,1,1.1672,598.3274,601.3212,NA,NA,NA,NA,NA,30,27,0,7,7,43,1,2,8,"binary"
"B6473020623C47F4BB5E4977C8E2F543",1,"01990a99-46e5-7a59-ac4b-aa3a59610b9c","01990a83-7673-7c0c-a792-bbd8fbbaf673","2025-09-02_09h31.09.853",NA,NA,604.6686,604.6687,604.6687,605.0335,NA,NA,NA,NA,NA,NA,NA,TRUE,1,1.1136,601.6747,604.6683,NA,NA,NA,NA,NA,150,54,0,8,8,95,1,2,9,"binary"
"B6473020623C47F4BB5E4977C8E2F543",1,"01990a99-46e5-7a59-ac4b-aa3a59610b9c","01990a83-7673-7c0c-a792-bbd8fbbaf673","2025-09-02_09h31.09.853",NA,NA,608.0313,608.0315,608.0315,608.381,NA,NA,NA,NA,NA,NA,NA,TRUE,1,2.13,605.0351,608.031,NA,NA,NA,NA,NA,40,47,0,9,9,52,1,2,10,"binary"
"B6473020623C47F4BB5E4977C8E2F543",1,"01990a99-46e5-7a59-ac4b-aa3a59610b9c","01990a83-7673-7c0c-a792-bbd8fbbaf673","2025-09-02_09h31.09.853",NA,NA,611.3782,611.3783,611.3784,611.7277,NA,NA,NA,NA,NA,NA,NA,TRUE,1,0.9751,608.3844,611.378,NA,NA,NA,NA,NA,180,46,0,10,10,100,1,2,11,"binary"
"B6473020623C47F4BB5E4977C8E2F543",1,"01990a99-46e5-7a59-ac4b-aa3a59610b9c","01990a83-7673-7c0c-a792-bbd8fbbaf673","2025-09-02_09h31.09.853",NA,NA,614.7249,614.7249,614.7249,615.0742,NA,NA,NA,NA,NA,NA,NA,TRUE,1,1.0088,611.7305,614.7246,NA,NA,NA,NA,NA,95,35,0,11,11,80,1,2,12,"binary"
"B6473020623C47F4BB5E4977C8E2F543",1,"01990a99-46e5-7a59-ac4b-aa3a59610b9c","01990a83-7673-7c0c-a792-bbd8fbbaf673","2025-09-02_09h31.09.853",NA,NA,618.0719,618.0719,618.0719,618.4213,NA,NA,NA,NA,NA,NA,NA,TRUE,1,1.0024,615.0762,618.0716,NA,NA,NA,NA,NA,25,31,0,12,12,32,1,2,13,"binary"
"B6473020623C47F4BB5E4977C8E2F543",1,"01990a99-46e5-7a59-ac4b-aa3a59610b9c","01990a83-7673-7c0c-a792-bbd8fbbaf673","2025-09-02_09h31.09.853",NA,NA,621.419,621.419,621.4191,621.768,NA,NA,NA,NA,NA,NA,NA,TRUE,1,0.8745,618.4254,621.4186,NA,NA,NA,NA,NA,60,54,0,13,13,71,1,2,14,"binary"
"B6473020623C47F4BB5E4977C8E2F543",1,"01990a99-46e5-7a59-ac4b-aa3a59610b9c","01990a83-7673-7c0c-a792-bbd8fbbaf673","2025-09-02_09h31.09.853",NA,NA,624.7822,624.7824,624.7825,625.1315,NA,NA,NA,NA,NA,NA,NA,TRUE,1,0.7586,621.772,624.7819,NA,NA,NA,NA,NA,95,31,0,14,14,78,1,2,15,"binary"
"B6473020623C47F4BB5E4977C8E2F543",1,"01990a99-46e5-7a59-ac4b-aa3a59610b9c","01990a83-7673-7c0c-a792-bbd8fbbaf673","2025-09-02_09h31.09.853",NA,NA,628.1276,628.1278,628.1278,628.4771,NA,NA,NA,NA,NA,NA,NA,TRUE,1,0.9798,625.1352,628.1275,NA,NA,NA,NA,NA,50,30,0,15,15,61,1,2,16,"binary"
"B6473020623C47F4BB5E4977C8E2F543",1,"01990a99-46e5-7a59-ac4b-aa3a59610b9c","01990a83-7673-7c0c-a792-bbd8fbbaf673","2025-09-02_09h31.09.853",NA,NA,631.4754,631.4754,631.4755,631.8244,NA,NA,NA,NA,NA,NA,NA,TRUE,1,0.9046,628.4791,631.4752,NA,NA,NA,NA,NA,100,38,0,16,16,86,1,2,17,"binary"
"B6473020623C47F4BB5E4977C8E2F543",1,"01990a99-46e5-7a59-ac4b-aa3a59610b9c","01990a83-7673-7c0c-a792-bbd8fbbaf673","2025-09-02_09h31.09.853",NA,NA,634.822,634.8221,634.8223,635.1715,NA,NA,NA,NA,NA,NA,NA,TRUE,1,1.0772,631.8278,634.8216,NA,NA,NA,NA,NA,45,26,0,17,17,54,1,2,18,"binary"
"B6473020623C47F4BB5E4977C8E2F543",1,"01990a99-46e5-7a59-ac4b-aa3a59610b9c","01990a83-7673-7c0c-a792-bbd8fbbaf673","2025-09-02_09h31.09.853",NA,NA,638.1686,638.1686,638.1687,638.5182,NA,NA,NA,NA,NA,NA,NA,TRUE,1,1.888,635.1749,638.1683,NA,NA,NA,NA,NA,30,32,0,18,18,46,1,2,19,"binary"
"B6473020623C47F4BB5E4977C8E2F543",1,"01990a99-46e5-7a59-ac4b-aa3a59610b9c","01990a83-7673-7c0c-a792-bbd8fbbaf673","2025-09-02_09h31.09.853",NA,NA,641.532,641.5322,641.5322,641.8809,NA,NA,NA,NA,NA,NA,NA,TRUE,1,1.2352,638.5215,641.5319,NA,NA,NA,NA,NA,50,46,0,19,19,64,1,2,20,"binary"
"B6473020623C47F4BB5E4977C8E2F543",1,"01990a99-46e5-7a59-ac4b-aa3a59610b9c","01990a83-7673-7c0c-a792-bbd8fbbaf673","2025-09-02_09h31.09.853",NA,NA,644.8786,644.8787,644.8787,645.2283,NA,NA,NA,NA,NA,NA,NA,TRUE,2,1.4623,641.8826,644.8784,NA,NA,NA,NA,NA,12,33,0,20,20,16,1,2,21,"binary"
"B6473020623C47F4BB5E4977C8E2F543",1,"01990a99-46e5-7a59-ac4b-aa3a59610b9c","01990a83-7673-7c0c-a792-bbd8fbbaf673","2025-09-02_09h31.09.853",NA,NA,648.2257,648.2258,648.2258,648.5751,NA,NA,NA,NA,NA,NA,NA,TRUE,2,1.5236,645.2315,648.2256,NA,NA,NA,NA,NA,10,32,0,21,21,11,1,2,22,"binary"
"B6473020623C47F4BB5E4977C8E2F543",1,"01990a99-46e5-7a59-ac4b-aa3a59610b9c","01990a83-7673-7c0c-a792-bbd8fbbaf673","2025-09-02_09h31.09.853",NA,NA,651.5732,651.5732,651.5733,651.9217,NA,NA,NA,NA,NA,NA,NA,TRUE,1,0.9602,648.5786,651.573,NA,NA,NA,NA,NA,200,39,0,22,22,105,1,2,23,"binary"
"B6473020623C47F4BB5E4977C8E2F543",1,"01990a99-46e5-7a59-ac4b-aa3a59610b9c","01990a83-7673-7c0c-a792-bbd8fbbaf673","2025-09-02_09h31.09.853",NA,NA,654.9183,654.9183,654.9183,655.2685,NA,NA,NA,NA,NA,NA,NA,TRUE,1,1.8739,651.9246,654.9181,NA,NA,NA,NA,NA,150,33,0,23,23,91,1,2,24,"binary"
"B6473020623C47F4BB5E4977C8E2F543",1,"01990a99-46e5-7a59-ac4b-aa3a59610b9c","01990a83-7673-7c0c-a792-bbd8fbbaf673","2025-09-02_09h31.09.853",NA,NA,658.2825,658.5314,658.5314,658.632,NA,NA,NA,NA,NA,NA,NA,FALSE,NA,NA,655.2726,658.2821,NA,NA,NA,NA,NA,40,54,0,24,24,53,1,2,25,"binary"
"B6473020623C47F4BB5E4977C8E2F543",1,"01990a99-46e5-7a59-ac4b-aa3a59610b9c","01990a83-7673-7c0c-a792-bbd8fbbaf673","2025-09-02_09h31.09.853",NA,NA,661.6283,661.6283,661.6283,661.9779,NA,NA,NA,NA,NA,NA,NA,TRUE,1,1.2234,658.6357,661.6281,NA,NA,NA,NA,NA,90,54,0,25,25,77,1,2,26,"binary"
"B6473020623C47F4BB5E4977C8E2F543",1,"01990a99-46e5-7a59-ac4b-aa3a59610b9c","01990a83-7673-7c0c-a792-bbd8fbbaf673","2025-09-02_09h31.09.853",NA,NA,664.9762,664.9763,664.9764,665.3245,NA,NA,NA,NA,NA,NA,NA,TRUE,1,0.553,661.9795,664.9759,NA,NA,NA,NA,NA,7,30,0,26,26,3,1,2,27,"binary"
"B6473020623C47F4BB5E4977C8E2F543",1,"01990a99-46e5-7a59-ac4b-aa3a59610b9c","01990a83-7673-7c0c-a792-bbd8fbbaf673","2025-09-02_09h31.09.853",NA,NA,668.3226,668.3226,668.3226,668.6717,NA,NA,NA,NA,NA,NA,NA,TRUE,1,0.421,665.3274,668.3223,NA,NA,NA,NA,NA,200,35,0,27,27,104,1,2,28,"binary"
"B6473020623C47F4BB5E4977C8E2F543",1,"01990a99-46e5-7a59-ac4b-aa3a59610b9c","01990a83-7673-7c0c-a792-bbd8fbbaf673","2025-09-02_09h31.09.853",NA,NA,671.6683,671.6684,671.6684,672.0185,NA,NA,NA,NA,NA,NA,NA,TRUE,1,0.5546,668.6742,671.6682,NA,NA,NA,NA,NA,45,29,0,28,28,55,1,2,29,"binary"
"B6473020623C47F4BB5E4977C8E2F543",1,"01990a99-46e5-7a59-ac4b-aa3a59610b9c","01990a83-7673-7c0c-a792-bbd8fbbaf673","2025-09-02_09h31.09.853",NA,NA,675.0327,675.0328,675.0328,675.382,NA,NA,NA,NA,NA,NA,NA,TRUE,1,0.6004,672.0218,675.0325,NA,NA,NA,NA,NA,180,35,0,29,29,98,1,2,30,"binary"
"B6473020623C47F4BB5E4977C8E2F543",1,"01990a99-46e5-7a59-ac4b-aa3a59610b9c","01990a83-7673-7c0c-a792-bbd8fbbaf673","2025-09-02_09h31.09.853",NA,NA,678.3796,678.3796,678.3797,678.7279,NA,NA,NA,NA,NA,NA,NA,TRUE,1,0.4623,675.3854,678.3794,NA,NA,NA,NA,NA,50,27,0,30,30,60,1,2,31,"binary"
"B6473020623C47F4BB5E4977C8E2F543",1,"01990a99-46e5-7a59-ac4b-aa3a59610b9c","01990a83-7673-7c0c-a792-bbd8fbbaf673","2025-09-02_09h31.09.853",NA,NA,681.7253,681.7254,681.7254,682.0755,NA,NA,NA,NA,NA,NA,NA,TRUE,1,0.4062,678.7292,681.7252,NA,NA,NA,NA,NA,10,25,0,31,31,6,1,2,32,"binary"
"B6473020623C47F4BB5E4977C8E2F543",1,"01990a99-46e5-7a59-ac4b-aa3a59610b9c","01990a83-7673-7c0c-a792-bbd8fbbaf673","2025-09-02_09h31.09.853",NA,NA,685.0731,685.0731,685.0731,685.4221,NA,NA,NA,NA,NA,NA,NA,TRUE,1,0.3851,682.0788,685.0728,NA,NA,NA,NA,NA,200,47,0,32,32,106,1,2,33,"binary"
"B6473020623C47F4BB5E4977C8E2F543",1,"01990a99-46e5-7a59-ac4b-aa3a59610b9c","01990a83-7673-7c0c-a792-bbd8fbbaf673","2025-09-02_09h31.09.853",NA,NA,688.4198,688.4198,688.4198,688.7683,NA,NA,NA,NA,NA,NA,NA,TRUE,1,0.5507,685.426,688.4195,NA,NA,NA,NA,NA,21,32,0,33,33,28,1,2,34,"binary"
"B6473020623C47F4BB5E4977C8E2F543",1,"01990a99-46e5-7a59-ac4b-aa3a59610b9c","01990a83-7673-7c0c-a792-bbd8fbbaf673","2025-09-02_09h31.09.853",NA,NA,691.7822,691.7822,691.7822,692.1324,NA,NA,NA,NA,NA,NA,NA,TRUE,1,0.4699,688.7703,691.7821,NA,NA,NA,NA,NA,10,30,0,34,34,10,1,2,35,"binary"
"B6473020623C47F4BB5E4977C8E2F543",1,"01990a99-46e5-7a59-ac4b-aa3a59610b9c","01990a83-7673-7c0c-a792-bbd8fbbaf673","2025-09-02_09h31.09.853",NA,NA,695.1299,695.1299,695.13,695.4783,NA,NA,NA,NA,NA,NA,NA,TRUE,1,0.2178,692.1354,695.1296,NA,NA,NA,NA,NA,28,28,0,35,35,37,1,2,36,"binary"
"B6473020623C47F4BB5E4977C8E2F543",1,"01990a99-46e5-7a59-ac4b-aa3a59610b9c","01990a83-7673-7c0c-a792-bbd8fbbaf673","2025-09-02_09h31.09.853",NA,NA,698.4765,698.4766,698.4766,698.8255,NA,NA,NA,NA,NA,NA,NA,TRUE,1,0.8465,695.4817,698.4763,NA,NA,NA,NA,NA,50,54,0,36,36,65,1,2,37,"binary"
"B6473020623C47F4BB5E4977C8E2F543",1,"01990a99-46e5-7a59-ac4b-aa3a59610b9c","01990a83-7673-7c0c-a792-bbd8fbbaf673","2025-09-02_09h31.09.853",NA,NA,701.8232,701.8233,701.8233,702.1726,NA,NA,NA,NA,NA,NA,NA,TRUE,1,0.6849,698.8297,701.8228,NA,NA,NA,NA,NA,21,29,0,37,37,26,1,2,38,"binary"
"B6473020623C47F4BB5E4977C8E2F543",1,"01990a99-46e5-7a59-ac4b-aa3a59610b9c","01990a83-7673-7c0c-a792-bbd8fbbaf673","2025-09-02_09h31.09.853",NA,NA,705.1699,705.1699,705.17,705.5186,NA,NA,NA,NA,NA,NA,NA,TRUE,1,0.76,702.1764,705.1695,NA,NA,NA,NA,NA,180,54,0,38,38,101,1,2,39,"binary"
"B6473020623C47F4BB5E4977C8E2F543",1,"01990a99-46e5-7a59-ac4b-aa3a59610b9c","01990a83-7673-7c0c-a792-bbd8fbbaf673","2025-09-02_09h31.09.853",NA,NA,708.5336,708.5338,708.5338,708.8827,NA,NA,NA,NA,NA,NA,NA,TRUE,1,1.1765,705.5215,708.5332,NA,NA,NA,NA,NA,7,26,0,39,39,1,1,2,40,"binary"
"B6473020623C47F4BB5E4977C8E2F543",1,"01990a99-46e5-7a59-ac4b-aa3a59610b9c","01990a83-7673-7c0c-a792-bbd8fbbaf673","2025-09-02_09h31.09.853",NA,NA,711.8793,711.8794,711.8794,712.2292,NA,NA,NA,NA,NA,NA,NA,TRUE,1,0.4548,708.8867,711.8791,NA,NA,NA,NA,NA,100,26,0,40,40,84,1,2,41,"binary"
"B6473020623C47F4BB5E4977C8E2F543",1,"01990a99-46e5-7a59-ac4b-aa3a59610b9c","01990a83-7673-7c0c-a792-bbd8fbbaf673","2025-09-02_09h31.09.853",NA,NA,715.2257,715.2257,715.2257,715.5761,NA,NA,NA,NA,NA,NA,NA,TRUE,1,0.4463,712.232,715.2255,NA,NA,NA,NA,NA,60,35,0,41,41,68,1,2,42,"binary"
"B6473020623C47F4BB5E4977C8E2F543",1,"01990a99-46e5-7a59-ac4b-aa3a59610b9c","01990a83-7673-7c0c-a792-bbd8fbbaf673","2025-09-02_09h31.09.853",NA,NA,718.5733,718.5734,718.5734,718.9229,NA,NA,NA,NA,NA,NA,NA,TRUE,1,0.112,715.5789,718.5732,NA,NA,NA,NA,NA,40,33,0,42,42,49,1,2,43,"binary"
"B6473020623C47F4BB5E4977C8E2F543",1,"01990a99-46e5-7a59-ac4b-aa3a59610b9c","01990a83-7673-7c0c-a792-bbd8fbbaf673","2025-09-02_09h31.09.853",NA,NA,721.9196,721.9197,721.9197,722.2695,NA,NA,NA,NA,NA,NA,NA,TRUE,1,0.355,718.9257,721.9195,NA,NA,NA,NA,NA,12,31,0,43,43,15,1,2,44,"binary"
"B6473020623C47F4BB5E4977C8E2F543",1,"01990a99-46e5-7a59-ac4b-aa3a59610b9c","01990a83-7673-7c0c-a792-bbd8fbbaf673","2025-09-02_09h31.09.853",NA,NA,725.2833,725.2834,725.2834,725.6327,NA,NA,NA,NA,NA,NA,NA,TRUE,2,1.6503,722.2723,725.2831,NA,NA,NA,NA,NA,14,32,0,44,44,21,1,2,45,"binary"
"B6473020623C47F4BB5E4977C8E2F543",1,"01990a99-46e5-7a59-ac4b-aa3a59610b9c","01990a83-7673-7c0c-a792-bbd8fbbaf673","2025-09-02_09h31.09.853",NA,NA,728.6304,728.6306,728.6306,728.9792,NA,NA,NA,NA,NA,NA,NA,TRUE,1,1.1888,725.6354,728.6302,NA,NA,NA,NA,NA,60,40,0,45,45,69,1,2,46,"binary"
"B6473020623C47F4BB5E4977C8E2F543",1,"01990a99-46e5-7a59-ac4b-aa3a59610b9c","01990a83-7673-7c0c-a792-bbd8fbbaf673","2025-09-02_09h31.09.853",NA,NA,731.977,731.977,731.977,732.3254,NA,NA,NA,NA,NA,NA,NA,TRUE,1,1.0118,728.982,731.9768,NA,NA,NA,NA,NA,7,25,0,46,46,0,1,2,47,"binary"
"B6473020623C47F4BB5E4977C8E2F543",1,"01990a99-46e5-7a59-ac4b-aa3a59610b9c","01990a83-7673-7c0c-a792-bbd8fbbaf673","2025-09-02_09h31.09.853",NA,NA,735.3241,735.3242,735.3242,735.6732,NA,NA,NA,NA,NA,NA,NA,TRUE,1,0.9381,732.3267,735.3238,NA,NA,NA,NA,NA,95,54,0,47,47,83,1,2,48,"binary"
"B6473020623C47F4BB5E4977C8E2F543",1,"01990a99-46e5-7a59-ac4b-aa3a59610b9c","01990a83-7673-7c0c-a792-bbd8fbbaf673","2025-09-02_09h31.09.853",NA,NA,738.6694,738.6694,738.6694,739.0197,NA,NA,NA,NA,NA,NA,NA,TRUE,1,0.1779,735.6764,738.6692,NA,NA,NA,NA,NA,7,35,0,48,48,5,1,2,49,"binary"
"B6473020623C47F4BB5E4977C8E2F543",1,"01990a99-46e5-7a59-ac4b-aa3a59610b9c","01990a83-7673-7c0c-a792-bbd8fbbaf673","2025-09-02_09h31.09.853",NA,NA,742.0338,742.0339,742.0339,742.3832,NA,NA,NA,NA,NA,NA,NA,TRUE,1,0.6886,739.0229,742.0335,NA,NA,NA,NA,NA,12,25,0,49,49,12,1,2,50,"binary"
"B6473020623C47F4BB5E4977C8E2F543",1,"01990a99-46e5-7a59-ac4b-aa3a59610b9c","01990a83-7673-7c0c-a792-bbd8fbbaf673","2025-09-02_09h31.09.853",NA,NA,745.3799,745.3799,745.3799,745.73,NA,NA,NA,NA,NA,NA,NA,TRUE,1,1.1276,742.3869,745.3797,NA,NA,NA,NA,NA,28,35,0,50,50,39,1,2,51,"binary"
"B6473020623C47F4BB5E4977C8E2F543",1,"01990a99-46e5-7a59-ac4b-aa3a59610b9c","01990a83-7673-7c0c-a792-bbd8fbbaf673","2025-09-02_09h31.09.853",NA,NA,748.7273,748.7274,748.7275,749.077,NA,NA,NA,NA,NA,NA,NA,TRUE,2,1.6919,745.7332,748.7269,NA,NA,NA,NA,NA,40,35,0,51,51,50,1,2,52,"binary"
"B6473020623C47F4BB5E4977C8E2F543",1,"01990a99-46e5-7a59-ac4b-aa3a59610b9c","01990a83-7673-7c0c-a792-bbd8fbbaf673","2025-09-02_09h31.09.853",NA,NA,752.0739,752.074,752.074,752.423,NA,NA,NA,NA,NA,NA,NA,TRUE,1,2.0469,749.0808,752.0737,NA,NA,NA,NA,NA,12,35,0,52,52,17,1,2,53,"binary"
"B6473020623C47F4BB5E4977C8E2F543",1,"01990a99-46e5-7a59-ac4b-aa3a59610b9c","01990a83-7673-7c0c-a792-bbd8fbbaf673","2025-09-02_09h31.09.853",NA,NA,755.4201,755.4201,755.4201,755.7701,NA,NA,NA,NA,NA,NA,NA,TRUE,1,1.3508,752.4259,755.4199,NA,NA,NA,NA,NA,45,40,0,53,53,58,1,2,54,"binary"
"B6473020623C47F4BB5E4977C8E2F543",1,"01990a99-46e5-7a59-ac4b-aa3a59610b9c","01990a83-7673-7c0c-a792-bbd8fbbaf673","2025-09-02_09h31.09.853",NA,NA,758.7845,758.7846,758.7846,759.1337,NA,NA,NA,NA,NA,NA,NA,TRUE,1,0.4856,755.7736,758.7842,NA,NA,NA,NA,NA,50,35,0,54,54,62,1,2,55,"binary"
"B6473020623C47F4BB5E4977C8E2F543",1,"01990a99-46e5-7a59-ac4b-aa3a59610b9c","01990a83-7673-7c0c-a792-bbd8fbbaf673","2025-09-02_09h31.09.853",NA,NA,762.1298,762.1298,762.1298,762.4793,NA,NA,NA,NA,NA,NA,NA,TRUE,1,0.4001,759.1373,762.1297,NA,NA,NA,NA,NA,100,54,0,55,55,89,1,2,56,"binary"
"B6473020623C47F4BB5E4977C8E2F543",1,"01990a99-46e5-7a59-ac4b-aa3a59610b9c","01990a83-7673-7c0c-a792-bbd8fbbaf673","2025-09-02_09h31.09.853",NA,NA,765.4765,765.4765,765.4765,765.8269,NA,NA,NA,NA,NA,NA,NA,TRUE,2,1.7551,762.4809,765.4764,NA,NA,NA,NA,NA,21,38,0,56,56,29,1,2,57,"binary"
"B6473020623C47F4BB5E4977C8E2F543",1,"01990a99-46e5-7a59-ac4b-aa3a59610b9c","01990a83-7673-7c0c-a792-bbd8fbbaf673","2025-09-02_09h31.09.853",NA,NA,768.8237,768.8238,768.8239,769.1737,NA,NA,NA,NA,NA,NA,NA,TRUE,1,1.2946,765.8304,768.8235,NA,NA,NA,NA,NA,45,31,0,57,57,56,1,2,58,"binary"
"B6473020623C47F4BB5E4977C8E2F543",1,"01990a99-46e5-7a59-ac4b-aa3a59610b9c","01990a83-7673-7c0c-a792-bbd8fbbaf673","2025-09-02_09h31.09.853",NA,NA,772.1708,772.1708,772.1708,772.5201,NA,NA,NA,NA,NA,NA,NA,TRUE,1,1.8509,769.1764,772.1705,NA,NA,NA,NA,NA,30,29,0,58,58,44,1,2,59,"binary"
"B6473020623C47F4BB5E4977C8E2F543",1,"01990a99-46e5-7a59-ac4b-aa3a59610b9c","01990a83-7673-7c0c-a792-bbd8fbbaf673","2025-09-02_09h31.09.853",NA,NA,775.5343,775.5344,775.5344,775.8829,NA,NA,NA,NA,NA,NA,NA,TRUE,1,0.9032,772.5227,775.534,NA,NA,NA,NA,NA,200,28,0,59,59,103,1,2,60,"binary"
"B6473020623C47F4BB5E4977C8E2F543",1,"01990a99-46e5-7a59-ac4b-aa3a59610b9c","01990a83-7673-7c0c-a792-bbd8fbbaf673","2025-09-02_09h31.09.853",NA,NA,778.8808,778.8811,778.8811,779.2305,NA,NA,NA,NA,NA,NA,NA,TRUE,1,0.7647,775.8845,778.8805,NA,NA,NA,NA,NA,25,27,0,60,60,30,1,2,61,"binary"
"B6473020623C47F4BB5E4977C8E2F543",1,"01990a99-46e5-7a59-ac4b-aa3a59610b9c","01990a83-7673-7c0c-a792-bbd8fbbaf673","2025-09-02_09h31.09.853",NA,NA,782.2282,782.2283,782.2283,782.577,NA,NA,NA,NA,NA,NA,NA,TRUE,1,0.8369,779.2336,782.2279,NA,NA,NA,NA,NA,90,26,0,61,61,72,1,2,62,"binary"
"B6473020623C47F4BB5E4977C8E2F543",1,"01990a99-46e5-7a59-ac4b-aa3a59610b9c","01990a83-7673-7c0c-a792-bbd8fbbaf673","2025-09-02_09h31.09.853",NA,NA,785.575,785.5751,785.5751,785.9242,NA,NA,NA,NA,NA,NA,NA,TRUE,1,0.882,782.5812,785.5745,NA,NA,NA,NA,NA,150,47,0,62,62,94,1,2,63,"binary"
"B6473020623C47F4BB5E4977C8E2F543",1,"01990a99-46e5-7a59-ac4b-aa3a59610b9c","01990a83-7673-7c0c-a792-bbd8fbbaf673","2025-09-02_09h31.09.853",NA,NA,788.9208,788.9209,788.9209,789.2698,NA,NA,NA,NA,NA,NA,NA,TRUE,2,1.439,785.9283,788.9207,NA,NA,NA,NA,NA,30,38,0,63,63,47,1,2,64,"binary"
"B6473020623C47F4BB5E4977C8E2F543",1,"01990a99-46e5-7a59-ac4b-aa3a59610b9c","01990a83-7673-7c0c-a792-bbd8fbbaf673","2025-09-02_09h31.09.853",NA,NA,792.2837,792.2838,792.2838,792.634,NA,NA,NA,NA,NA,NA,NA,TRUE,1,1.4188,789.2714,792.2837,NA,NA,NA,NA,NA,28,32,0,64,64,38,1,2,65,"binary"
"B6473020623C47F4BB5E4977C8E2F543",1,"01990a99-46e5-7a59-ac4b-aa3a59610b9c","01990a83-7673-7c0c-a792-bbd8fbbaf673","2025-09-02_09h31.09.853",NA,NA,795.6315,795.6316,795.6316,795.9806,NA,NA,NA,NA,NA,NA,NA,TRUE,1,0.8661,792.6372,795.6312,NA,NA,NA,NA,NA,150,40,0,65,65,93,1,2,66,"binary"
"B6473020623C47F4BB5E4977C8E2F543",1,"01990a99-46e5-7a59-ac4b-aa3a59610b9c","01990a83-7673-7c0c-a792-bbd8fbbaf673","2025-09-02_09h31.09.853",NA,NA,798.978,798.9781,798.9781,799.3277,NA,NA,NA,NA,NA,NA,NA,TRUE,1,1.1503,795.9839,798.9778,NA,NA,NA,NA,NA,28,26,0,66,66,36,1,2,67,"binary"
"B6473020623C47F4BB5E4977C8E2F543",1,"01990a99-46e5-7a59-ac4b-aa3a59610b9c","01990a83-7673-7c0c-a792-bbd8fbbaf673","2025-09-02_09h31.09.853",NA,NA,802.325,802.325,802.3251,802.6744,NA,NA,NA,NA,NA,NA,NA,TRUE,1,0.9617,799.331,802.3247,NA,NA,NA,NA,NA,21,27,0,67,67,25,1,2,68,"binary"
"B6473020623C47F4BB5E4977C8E2F543",1,"01990a99-46e5-7a59-ac4b-aa3a59610b9c","01990a83-7673-7c0c-a792-bbd8fbbaf673","2025-09-02_09h31.09.853",NA,NA,805.6717,805.6718,805.6718,806.021,NA,NA,NA,NA,NA,NA,NA,TRUE,1,1.085,802.6778,805.6715,NA,NA,NA,NA,NA,90,30,0,68,68,73,1,2,69,"binary"
"B6473020623C47F4BB5E4977C8E2F543",1,"01990a99-46e5-7a59-ac4b-aa3a59610b9c","01990a83-7673-7c0c-a792-bbd8fbbaf673","2025-09-02_09h31.09.853",NA,NA,809.0183,809.0183,809.0183,809.3845,NA,NA,NA,NA,NA,NA,NA,TRUE,1,0.9894,806.0237,809.0181,NA,NA,NA,NA,NA,95,33,0,69,69,79,1,2,70,"binary"
"B6473020623C47F4BB5E4977C8E2F543",1,"01990a99-46e5-7a59-ac4b-aa3a59610b9c","01990a83-7673-7c0c-a792-bbd8fbbaf673","2025-09-02_09h31.09.853",NA,NA,812.3818,812.3819,812.3819,812.7312,NA,NA,NA,NA,NA,NA,NA,TRUE,1,2.0111,809.3879,812.3816,NA,NA,NA,NA,NA,25,29,0,70,70,31,1,2,71,"binary"
"B6473020623C47F4BB5E4977C8E2F543",1,"01990a99-46e5-7a59-ac4b-aa3a59610b9c","01990a83-7673-7c0c-a792-bbd8fbbaf673","2025-09-02_09h31.09.853",NA,NA,815.7275,815.7276,815.7276,816.078,NA,NA,NA,NA,NA,NA,NA,TRUE,1,1.0247,812.7344,815.7273,NA,NA,NA,NA,NA,14,26,0,71,71,19,1,2,72,"binary"
"B6473020623C47F4BB5E4977C8E2F543",1,"01990a99-46e5-7a59-ac4b-aa3a59610b9c","01990a83-7673-7c0c-a792-bbd8fbbaf673","2025-09-02_09h31.09.853",NA,NA,819.0752,819.0753,819.0754,819.4245,NA,NA,NA,NA,NA,NA,NA,TRUE,1,0.604,816.083,819.0749,NA,NA,NA,NA,NA,12,26,0,72,72,13,1,2,73,"binary"
"B6473020623C47F4BB5E4977C8E2F543",1,"01990a99-46e5-7a59-ac4b-aa3a59610b9c","01990a83-7673-7c0c-a792-bbd8fbbaf673","2025-09-02_09h31.09.853",NA,NA,822.4207,822.4207,822.4207,822.7714,NA,NA,NA,NA,NA,NA,NA,TRUE,1,0.4925,819.4277,822.4205,NA,NA,NA,NA,NA,100,31,0,73,73,85,1,2,74,"binary"
"B6473020623C47F4BB5E4977C8E2F543",1,"01990a99-46e5-7a59-ac4b-aa3a59610b9c","01990a83-7673-7c0c-a792-bbd8fbbaf673","2025-09-02_09h31.09.853",NA,NA,825.7687,825.7689,825.7689,826.1182,NA,NA,NA,NA,NA,NA,NA,TRUE,1,1.1011,822.7748,825.7684,NA,NA,NA,NA,NA,25,33,0,74,74,33,1,2,75,"binary"
"B6473020623C47F4BB5E4977C8E2F543",1,"01990a99-46e5-7a59-ac4b-aa3a59610b9c","01990a83-7673-7c0c-a792-bbd8fbbaf673","2025-09-02_09h31.09.853",NA,NA,829.1318,829.1319,829.132,829.4813,NA,NA,NA,NA,NA,NA,NA,TRUE,1,0.9826,826.1219,829.1317,NA,NA,NA,NA,NA,60,47,0,75,75,70,1,2,76,"binary"
"B6473020623C47F4BB5E4977C8E2F543",1,"01990a99-46e5-7a59-ac4b-aa3a59610b9c","01990a83-7673-7c0c-a792-bbd8fbbaf673","2025-09-02_09h31.09.853",NA,NA,832.4786,832.4787,832.4787,832.8278,NA,NA,NA,NA,NA,NA,NA,TRUE,1,0.9762,829.4842,832.4784,NA,NA,NA,NA,NA,30,26,0,76,76,42,1,2,77,"binary"
"B6473020623C47F4BB5E4977C8E2F543",1,"01990a99-46e5-7a59-ac4b-aa3a59610b9c","01990a83-7673-7c0c-a792-bbd8fbbaf673","2025-09-02_09h31.09.853",NA,NA,835.8253,835.8253,835.8254,836.1747,NA,NA,NA,NA,NA,NA,NA,TRUE,1,1.2588,832.832,835.8251,NA,NA,NA,NA,NA,7,28,0,77,77,2,1,2,78,"binary"
"B6473020623C47F4BB5E4977C8E2F543",1,"01990a99-46e5-7a59-ac4b-aa3a59610b9c","01990a83-7673-7c0c-a792-bbd8fbbaf673","2025-09-02_09h31.09.853",NA,NA,839.1719,839.1719,839.1719,839.5213,NA,NA,NA,NA,NA,NA,NA,TRUE,2,1.4843,836.1778,839.1717,NA,NA,NA,NA,NA,28,46,0,78,78,41,1,2,79,"binary"
"B6473020623C47F4BB5E4977C8E2F543",1,"01990a99-46e5-7a59-ac4b-aa3a59610b9c","01990a83-7673-7c0c-a792-bbd8fbbaf673","2025-09-02_09h31.09.853",NA,NA,842.5181,842.5181,842.5181,842.8842,NA,NA,NA,NA,NA,NA,NA,TRUE,1,0.941,839.5247,842.5179,NA,NA,NA,NA,NA,100,39,0,79,79,87,1,2,80,"binary"
"B6473020623C47F4BB5E4977C8E2F543",1,"01990a99-46e5-7a59-ac4b-aa3a59610b9c","01990a83-7673-7c0c-a792-bbd8fbbaf673","2025-09-02_09h31.09.853",NA,NA,845.8824,845.8825,845.8826,846.2309,NA,NA,NA,NA,NA,NA,NA,TRUE,2,1.2829,842.8862,845.882,NA,NA,NA,NA,NA,25,46,0,80,80,35,1,2,81,"binary"
"B6473020623C47F4BB5E4977C8E2F543",1,"01990a99-46e5-7a59-ac4b-aa3a59610b9c","01990a83-7673-7c0c-a792-bbd8fbbaf673","2025-09-02_09h31.09.853",NA,NA,849.228,849.228,849.228,849.5784,NA,NA,NA,NA,NA,NA,NA,TRUE,1,1.2816,846.2331,849.2279,NA,NA,NA,NA,NA,45,46,0,81,81,59,1,2,82,"binary"
"B6473020623C47F4BB5E4977C8E2F543",1,"01990a99-46e5-7a59-ac4b-aa3a59610b9c","01990a83-7673-7c0c-a792-bbd8fbbaf673","2025-09-02_09h31.09.853",NA,NA,852.5752,852.5752,852.5752,852.9251,NA,NA,NA,NA,NA,NA,NA,TRUE,1,0.8582,849.582,852.575,NA,NA,NA,NA,NA,95,47,0,82,82,82,1,2,83,"binary"
"B6473020623C47F4BB5E4977C8E2F543",1,"01990a99-46e5-7a59-ac4b-aa3a59610b9c","01990a83-7673-7c0c-a792-bbd8fbbaf673","2025-09-02_09h31.09.853",NA,NA,855.9216,855.9216,855.9216,856.2709,NA,NA,NA,NA,NA,NA,NA,TRUE,1,1.1856,852.928,855.9214,NA,NA,NA,NA,NA,45,35,0,83,83,57,1,2,84,"binary"
"B6473020623C47F4BB5E4977C8E2F543",1,"01990a99-46e5-7a59-ac4b-aa3a59610b9c","01990a83-7673-7c0c-a792-bbd8fbbaf673","2025-09-02_09h31.09.853",NA,NA,859.2694,859.2696,859.2696,859.6186,NA,NA,NA,NA,NA,NA,NA,TRUE,2,0.954,856.2729,859.2691,NA,NA,NA,NA,NA,14,39,0,84,84,23,1,2,85,"binary"
"B6473020623C47F4BB5E4977C8E2F543",1,"01990a99-46e5-7a59-ac4b-aa3a59610b9c","01990a83-7673-7c0c-a792-bbd8fbbaf673","2025-09-02_09h31.09.853",NA,NA,862.6327,862.633,862.633,862.981,NA,NA,NA,NA,NA,NA,NA,TRUE,1,0.9948,859.6229,862.6324,NA,NA,NA,NA,NA,21,26,0,85,85,24,1,2,86,"binary"
"B6473020623C47F4BB5E4977C8E2F543",1,"01990a99-46e5-7a59-ac4b-aa3a59610b9c","01990a83-7673-7c0c-a792-bbd8fbbaf673","2025-09-02_09h31.09.853",NA,NA,865.9793,865.9794,865.9794,866.3286,NA,NA,NA,NA,NA,NA,NA,TRUE,1,1.5208,862.9841,865.9789,NA,NA,NA,NA,NA,14,28,0,86,86,20,1,2,87,"binary"
"B6473020623C47F4BB5E4977C8E2F543",1,"01990a99-46e5-7a59-ac4b-aa3a59610b9c","01990a83-7673-7c0c-a792-bbd8fbbaf673","2025-09-02_09h31.09.853",NA,NA,869.3259,869.3259,869.326,869.6754,NA,NA,NA,NA,NA,NA,NA,TRUE,1,1.0959,866.3341,869.3257,NA,NA,NA,NA,NA,50,40,0,87,87,63,1,2,88,"binary"
"B6473020623C47F4BB5E4977C8E2F543",1,"01990a99-46e5-7a59-ac4b-aa3a59610b9c","01990a83-7673-7c0c-a792-bbd8fbbaf673","2025-09-02_09h31.09.853",NA,NA,872.6727,872.6727,872.6727,873.0219,NA,NA,NA,NA,NA,NA,NA,TRUE,1,1.5988,869.6784,872.6725,NA,NA,NA,NA,NA,25,35,0,88,88,34,1,2,89,"binary"
"B6473020623C47F4BB5E4977C8E2F543",1,"01990a99-46e5-7a59-ac4b-aa3a59610b9c","01990a83-7673-7c0c-a792-bbd8fbbaf673","2025-09-02_09h31.09.853",NA,NA,876.0193,876.0194,876.0194,876.3685,NA,NA,NA,NA,NA,NA,NA,TRUE,1,0.887,873.0248,876.0192,NA,NA,NA,NA,NA,200,54,0,89,89,107,1,2,90,"binary"
"B6473020623C47F4BB5E4977C8E2F543",1,"01990a99-46e5-7a59-ac4b-aa3a59610b9c","01990a83-7673-7c0c-a792-bbd8fbbaf673","2025-09-02_09h31.09.853",NA,NA,879.3827,879.3827,879.3827,879.7321,NA,NA,NA,NA,NA,NA,NA,TRUE,1,0.951,876.372,879.3825,NA,NA,NA,NA,NA,90,40,0,90,90,75,1,2,91,"binary"
"B6473020623C47F4BB5E4977C8E2F543",1,"01990a99-46e5-7a59-ac4b-aa3a59610b9c","01990a83-7673-7c0c-a792-bbd8fbbaf673","2025-09-02_09h31.09.853",NA,NA,882.7286,882.7287,882.7287,883.0785,NA,NA,NA,NA,NA,NA,NA,TRUE,1,0.9298,879.7352,882.7285,NA,NA,NA,NA,NA,180,39,0,91,91,99,1,2,92,"binary"
"B6473020623C47F4BB5E4977C8E2F543",1,"01990a99-46e5-7a59-ac4b-aa3a59610b9c","01990a83-7673-7c0c-a792-bbd8fbbaf673","2025-09-02_09h31.09.853",NA,NA,886.0762,886.0763,886.0763,886.4256,NA,NA,NA,NA,NA,NA,NA,TRUE,1,0.6935,883.0817,886.0761,NA,NA,NA,NA,NA,100,46,0,92,92,88,1,2,93,"binary"
"B6473020623C47F4BB5E4977C8E2F543",1,"01990a99-46e5-7a59-ac4b-aa3a59610b9c","01990a83-7673-7c0c-a792-bbd8fbbaf673","2025-09-02_09h31.09.853",NA,NA,889.4224,889.4225,889.4225,889.7723,NA,NA,NA,NA,NA,NA,NA,TRUE,1,0.8078,886.4291,889.4223,NA,NA,NA,NA,NA,60,29,0,93,93,66,1,2,94,"binary"
"B6473020623C47F4BB5E4977C8E2F543",1,"01990a99-46e5-7a59-ac4b-aa3a59610b9c","01990a83-7673-7c0c-a792-bbd8fbbaf673","2025-09-02_09h31.09.853",NA,NA,892.7696,892.7696,892.7696,893.1189,NA,NA,NA,NA,NA,NA,NA,TRUE,1,0.6675,889.775,892.7694,NA,NA,NA,NA,NA,180,31,0,94,94,97,1,2,95,"binary"
"B6473020623C47F4BB5E4977C8E2F543",1,"01990a99-46e5-7a59-ac4b-aa3a59610b9c","01990a83-7673-7c0c-a792-bbd8fbbaf673","2025-09-02_09h31.09.853",NA,NA,896.1335,896.1337,896.1338,896.4824,NA,NA,NA,NA,NA,NA,NA,TRUE,1,0.6033,893.1219,896.1332,NA,NA,NA,NA,NA,200,26,0,95,95,102,1,2,96,"binary"
"B6473020623C47F4BB5E4977C8E2F543",1,"01990a99-46e5-7a59-ac4b-aa3a59610b9c","01990a83-7673-7c0c-a792-bbd8fbbaf673","2025-09-02_09h31.09.853",NA,NA,899.4803,899.4805,899.4805,899.8295,NA,NA,NA,NA,NA,NA,NA,TRUE,1,0.4963,896.4876,899.4799,NA,NA,NA,NA,NA,14,25,0,96,96,18,1,2,97,"binary"
"B6473020623C47F4BB5E4977C8E2F543",1,"01990a99-46e5-7a59-ac4b-aa3a59610b9c","01990a83-7673-7c0c-a792-bbd8fbbaf673","2025-09-02_09h31.09.853",NA,NA,902.826,902.826,902.826,903.176,NA,NA,NA,NA,NA,NA,NA,TRUE,1,0.9049,899.8342,902.8258,NA,NA,NA,NA,NA,150,35,0,97,97,92,1,2,98,"binary"
"B6473020623C47F4BB5E4977C8E2F543",1,"01990a99-46e5-7a59-ac4b-aa3a59610b9c","01990a83-7673-7c0c-a792-bbd8fbbaf673","2025-09-02_09h31.09.853",NA,NA,906.1737,906.1737,906.1738,906.5224,NA,NA,NA,NA,NA,NA,NA,TRUE,1,0.7646,903.1796,906.1734,NA,NA,NA,NA,NA,180,27,0,98,98,96,1,2,99,"binary"
"B6473020623C47F4BB5E4977C8E2F543",1,"01990a99-46e5-7a59-ac4b-aa3a59610b9c","01990a83-7673-7c0c-a792-bbd8fbbaf673","2025-09-02_09h31.09.853",NA,NA,909.5191,909.5191,909.5192,909.8685,NA,NA,NA,NA,NA,NA,NA,TRUE,1,1.9361,906.5267,909.519,NA,NA,NA,NA,NA,21,30,0,99,99,27,1,2,100,"binary"
"B6473020623C47F4BB5E4977C8E2F543",1,"01990a99-46e5-7a59-ac4b-aa3a59610b9c","01990a83-7673-7c0c-a792-bbd8fbbaf673","2025-09-02_09h31.09.853",NA,NA,912.8826,912.8827,912.8827,913.232,NA,NA,NA,NA,NA,NA,NA,TRUE,2,1.6853,909.8699,912.8824,NA,NA,NA,NA,NA,10,29,0,100,100,9,1,2,101,"binary"
"B6473020623C47F4BB5E4977C8E2F543",1,"01990a99-46e5-7a59-ac4b-aa3a59610b9c","01990a83-7673-7c0c-a792-bbd8fbbaf673","2025-09-02_09h31.09.853",NA,NA,916.2299,916.23,916.23,916.579,NA,NA,NA,NA,NA,NA,NA,TRUE,1,1.2809,913.2336,916.2297,NA,NA,NA,NA,NA,30,30,0,101,101,45,1,2,102,"binary"
"B6473020623C47F4BB5E4977C8E2F543",1,"01990a99-46e5-7a59-ac4b-aa3a59610b9c","01990a83-7673-7c0c-a792-bbd8fbbaf673","2025-09-02_09h31.09.853",NA,NA,919.5767,919.5768,919.5768,919.9255,NA,NA,NA,NA,NA,NA,NA,TRUE,2,1.3501,916.5822,919.5766,NA,NA,NA,NA,NA,7,32,0,102,102,4,1,2,103,"binary"
"B6473020623C47F4BB5E4977C8E2F543",1,"01990a99-46e5-7a59-ac4b-aa3a59610b9c","01990a83-7673-7c0c-a792-bbd8fbbaf673","2025-09-02_09h31.09.853",NA,NA,922.9226,922.9226,922.9226,923.2729,NA,NA,NA,NA,NA,NA,NA,TRUE,1,1.1521,919.9269,922.9224,NA,NA,NA,NA,NA,90,46,0,103,103,76,1,2,104,"binary"
"B6473020623C47F4BB5E4977C8E2F543",1,"01990a99-46e5-7a59-ac4b-aa3a59610b9c","01990a83-7673-7c0c-a792-bbd8fbbaf673","2025-09-02_09h31.09.853",NA,NA,926.2704,926.2705,926.2705,926.6193,NA,NA,NA,NA,NA,NA,NA,TRUE,1,0.9394,923.2756,926.2702,NA,NA,NA,NA,NA,40,27,0,104,104,48,1,2,105,"binary"
"B6473020623C47F4BB5E4977C8E2F543",1,"01990a99-46e5-7a59-ac4b-aa3a59610b9c","01990a83-7673-7c0c-a792-bbd8fbbaf673","2025-09-02_09h31.09.853",NA,NA,929.6336,929.6338,929.6339,929.9822,NA,NA,NA,NA,NA,NA,NA,TRUE,1,0.849,926.6221,929.6333,NA,NA,NA,NA,NA,60,33,0,105,105,67,1,2,106,"binary"
"B6473020623C47F4BB5E4977C8E2F543",1,"01990a99-46e5-7a59-ac4b-aa3a59610b9c","01990a83-7673-7c0c-a792-bbd8fbbaf673","2025-09-02_09h31.09.853",NA,NA,932.9804,933.2297,933.2297,933.3294,NA,NA,NA,NA,NA,NA,NA,FALSE,NA,NA,929.9838,932.9802,NA,NA,NA,NA,NA,40,40,0,106,106,51,1,2,107,"binary"
"B6473020623C47F4BB5E4977C8E2F543",1,"01990a99-46e5-7a59-ac4b-aa3a59610b9c","01990a83-7673-7c0c-a792-bbd8fbbaf673","2025-09-02_09h31.09.853",NA,NA,936.3261,936.5765,936.5767,936.6766,NA,NA,NA,NA,NA,NA,NA,FALSE,NA,NA,933.3324,936.3259,NA,NA,NA,NA,NA,90,33,0,107,107,74,1,2,108,"binary"
