"participant","session","assignmentId","projectId","date","practiceTrial.started","practiceTrial.stopped","tooLate.started","tooLate.stopped","blank.started","blank.stopped","trials_pract.thisRepN","trials_pract.thisTrialN","trials_pract.thisN","trials_pract.thisIndex","trials_pract.ran","delay_pract","amount_pract","responseMade","key","rt","trial.started","trial.stopped","trials.thisRepN","trials.thisTrialN","trials.thisN","trials.thisIndex","trials.ran","delay","amount","trials_2.thisRepN","trials_2.thisTrialN","trials_2.thisN","trials_2.thisIndex","trials_2.ran","block","trial","taskType"
"B67F83AFF19D40C0930DCAEF894D052E",1,"0198ecee-4b2e-7635-8ead-95a00ce83136","0198c47e-224f-7cc7-87e7-f5ab0011d1ce","2025-08-27_12h09.45.741",61.8871,64.8209,64.8214,65.1259,65.1259,65.2293,0,0,0,2,1,14,45,FALSE,NA,NA,NA,NA,NA,NA,NA,NA,NA,NA,NA,NA,NA,NA,NA,NA,0,1,"binary"
"B67F83AFF19D40C0930DCAEF894D052E",1,"0198ecee-4b2e-7635-8ead-95a00ce83136","0198c47e-224f-7cc7-87e7-f5ab0011d1ce","2025-08-27_12h09.45.741",65.2307,68.1527,68.1528,68.1528,68.1529,68.5456,0,1,1,0,1,7,30,TRUE,2,1.8778,NA,NA,NA,NA,NA,NA,NA,NA,NA,NA,NA,NA,NA,NA,0,2,"binary"
"B67F83AFF19D40C0930DCAEF894D052E",1,"0198ecee-4b2e-7635-8ead-95a00ce83136","0198c47e-224f-7cc7-87e7-f5ab0011d1ce","2025-08-27_12h09.45.741",68.5471,71.5012,71.5013,71.5013,71.5013,71.9099,0,2,2,3,1,3,27,TRUE,1,1.3654,NA,NA,NA,NA,NA,NA,NA,NA,NA,NA,NA,NA,NA,NA,0,3,"binary"
"B67F83AFF19D40C0930DCAEF894D052E",1,"0198ecee-4b2e-7635-8ead-95a00ce83136","0198c47e-224f-7cc7-87e7-f5ab0011d1ce","2025-08-27_12h09.45.741",71.911,74.8599,74.86,74.86,74.86,75.2904,0,3,3,4,1,30,40,TRUE,2,1.2642,NA,NA,NA,NA,NA,NA,NA,NA,NA,NA,NA,NA,NA,NA,0,4,"binary"
"B67F83AFF19D40C0930DCAEF894D052E",1,"0198ecee-4b2e-7635-8ead-95a00ce83136","0198c47e-224f-7cc7-87e7-f5ab0011d1ce","2025-08-27_12h09.45.741",75.2921,78.2501,78.2501,78.2501,78.2501,78.555,0,4,4,1,1,100,50,TRUE,1,1.9134,NA,NA,NA,NA,NA,NA,NA,NA,NA,NA,NA,NA,NA,NA,0,5,"binary"
"B67F83AFF19D40C0930DCAEF894D052E",1,"0198ecee-4b2e-7635-8ead-95a00ce83136","0198c47e-224f-7cc7-87e7-f5ab0011d1ce","2025-08-27_12h09.45.741",NA,NA,135.8774,135.8776,135.8777,136.2911,NA,NA,NA,NA,NA,NA,NA,TRUE,1,1.3839,132.932,135.8771,0,0,0,5,1,7,35,NA,NA,NA,NA,NA,1,1,"binary"
"B67F83AFF19D40C0930DCAEF894D052E",1,"0198ecee-4b2e-7635-8ead-95a00ce83136","0198c47e-224f-7cc7-87e7-f5ab0011d1ce","2025-08-27_12h09.45.741",NA,NA,139.2421,139.2421,139.2421,139.5469,NA,NA,NA,NA,NA,NA,NA,TRUE,1,1.3649,136.2925,139.242,0,1,1,24,1,21,26,NA,NA,NA,NA,NA,1,2,"binary"
"B67F83AFF19D40C0930DCAEF894D052E",1,"0198ecee-4b2e-7635-8ead-95a00ce83136","0198c47e-224f-7cc7-87e7-f5ab0011d1ce","2025-08-27_12h09.45.741",NA,NA,142.6018,142.6018,142.6018,142.9366,NA,NA,NA,NA,NA,NA,NA,TRUE,1,1.2545,139.5483,142.6017,0,2,2,31,1,25,29,NA,NA,NA,NA,NA,1,3,"binary"
"B67F83AFF19D40C0930DCAEF894D052E",1,"0198ecee-4b2e-7635-8ead-95a00ce83136","0198c47e-224f-7cc7-87e7-f5ab0011d1ce","2025-08-27_12h09.45.741",NA,NA,145.9309,145.9309,145.9309,146.3446,NA,NA,NA,NA,NA,NA,NA,TRUE,1,1.1825,142.9378,145.9307,0,3,3,98,1,180,35,NA,NA,NA,NA,NA,1,4,"binary"
"B67F83AFF19D40C0930DCAEF894D052E",1,"0198ecee-4b2e-7635-8ead-95a00ce83136","0198c47e-224f-7cc7-87e7-f5ab0011d1ce","2025-08-27_12h09.45.741",NA,NA,149.2483,149.2484,149.2484,149.6664,NA,NA,NA,NA,NA,NA,NA,TRUE,1,1.3351,146.3461,149.2482,0,4,4,73,1,90,30,NA,NA,NA,NA,NA,1,5,"binary"
"B67F83AFF19D40C0930DCAEF894D052E",1,"0198ecee-4b2e-7635-8ead-95a00ce83136","0198c47e-224f-7cc7-87e7-f5ab0011d1ce","2025-08-27_12h09.45.741",NA,NA,152.6923,152.6924,152.6924,153.0008,NA,NA,NA,NA,NA,NA,NA,TRUE,2,1.373,149.6673,152.6922,0,5,5,57,1,45,35,NA,NA,NA,NA,NA,1,6,"binary"
"B67F83AFF19D40C0930DCAEF894D052E",1,"0198ecee-4b2e-7635-8ead-95a00ce83136","0198c47e-224f-7cc7-87e7-f5ab0011d1ce","2025-08-27_12h09.45.741",NA,NA,156.0085,156.0086,156.0086,156.3245,NA,NA,NA,NA,NA,NA,NA,TRUE,2,1.2604,153.0018,156.0084,0,6,6,71,1,60,54,NA,NA,NA,NA,NA,1,7,"binary"
"B67F83AFF19D40C0930DCAEF894D052E",1,"0198ecee-4b2e-7635-8ead-95a00ce83136","0198c47e-224f-7cc7-87e7-f5ab0011d1ce","2025-08-27_12h09.45.741",NA,NA,159.2924,159.2925,159.2925,159.7098,NA,NA,NA,NA,NA,NA,NA,TRUE,2,1.3908,156.3258,159.2924,0,7,7,34,1,25,35,NA,NA,NA,NA,NA,1,8,"binary"
"B67F83AFF19D40C0930DCAEF894D052E",1,"0198ecee-4b2e-7635-8ead-95a00ce83136","0198c47e-224f-7cc7-87e7-f5ab0011d1ce","2025-08-27_12h09.45.741",NA,NA,162.6521,162.6522,162.6522,163.0478,NA,NA,NA,NA,NA,NA,NA,TRUE,2,1.3815,159.7108,162.652,0,8,8,87,1,100,39,NA,NA,NA,NA,NA,1,9,"binary"
"B67F83AFF19D40C0930DCAEF894D052E",1,"0198ecee-4b2e-7635-8ead-95a00ce83136","0198c47e-224f-7cc7-87e7-f5ab0011d1ce","2025-08-27_12h09.45.741",NA,NA,166.082,166.082,166.0821,166.3814,NA,NA,NA,NA,NA,NA,NA,TRUE,2,1.3846,163.0488,166.0819,0,9,9,64,1,50,46,NA,NA,NA,NA,NA,1,10,"binary"
"B67F83AFF19D40C0930DCAEF894D052E",1,"0198ecee-4b2e-7635-8ead-95a00ce83136","0198c47e-224f-7cc7-87e7-f5ab0011d1ce","2025-08-27_12h09.45.741",NA,NA,169.408,169.408,169.408,169.7192,NA,NA,NA,NA,NA,NA,NA,TRUE,1,1.2734,166.3824,169.4079,0,10,10,61,1,50,30,NA,NA,NA,NA,NA,1,11,"binary"
"B67F83AFF19D40C0930DCAEF894D052E",1,"0198ecee-4b2e-7635-8ead-95a00ce83136","0198c47e-224f-7cc7-87e7-f5ab0011d1ce","2025-08-27_12h09.45.741",NA,NA,172.7754,172.7754,172.7754,173.0859,NA,NA,NA,NA,NA,NA,NA,TRUE,2,1.5845,169.7201,172.7752,0,11,11,11,1,10,32,NA,NA,NA,NA,NA,1,12,"binary"
"B67F83AFF19D40C0930DCAEF894D052E",1,"0198ecee-4b2e-7635-8ead-95a00ce83136","0198c47e-224f-7cc7-87e7-f5ab0011d1ce","2025-08-27_12h09.45.741",NA,NA,176.1407,176.1407,176.1408,176.4411,NA,NA,NA,NA,NA,NA,NA,TRUE,2,1.183,173.0869,176.1407,0,12,12,100,1,180,46,NA,NA,NA,NA,NA,1,13,"binary"
"B67F83AFF19D40C0930DCAEF894D052E",1,"0198ecee-4b2e-7635-8ead-95a00ce83136","0198c47e-224f-7cc7-87e7-f5ab0011d1ce","2025-08-27_12h09.45.741",NA,NA,179.4589,179.459,179.459,179.7685,NA,NA,NA,NA,NA,NA,NA,TRUE,1,0.9554,176.4427,179.4589,0,13,13,60,1,50,27,NA,NA,NA,NA,NA,1,14,"binary"
"B67F83AFF19D40C0930DCAEF894D052E",1,"0198ecee-4b2e-7635-8ead-95a00ce83136","0198c47e-224f-7cc7-87e7-f5ab0011d1ce","2025-08-27_12h09.45.741",NA,NA,182.775,182.7751,182.7751,183.1778,NA,NA,NA,NA,NA,NA,NA,TRUE,1,1.0558,179.7696,182.7749,0,14,14,93,1,150,40,NA,NA,NA,NA,NA,1,15,"binary"
"B67F83AFF19D40C0930DCAEF894D052E",1,"0198ecee-4b2e-7635-8ead-95a00ce83136","0198c47e-224f-7cc7-87e7-f5ab0011d1ce","2025-08-27_12h09.45.741",NA,NA,186.0908,186.0909,186.0909,186.4841,NA,NA,NA,NA,NA,NA,NA,TRUE,1,1.0626,183.1789,186.0907,0,15,15,91,1,150,33,NA,NA,NA,NA,NA,1,16,"binary"
"B67F83AFF19D40C0930DCAEF894D052E",1,"0198ecee-4b2e-7635-8ead-95a00ce83136","0198c47e-224f-7cc7-87e7-f5ab0011d1ce","2025-08-27_12h09.45.741",NA,NA,189.5246,189.5246,189.5246,189.8357,NA,NA,NA,NA,NA,NA,NA,TRUE,1,1.7904,186.4851,189.5246,0,16,16,20,1,14,28,NA,NA,NA,NA,NA,1,17,"binary"
"B67F83AFF19D40C0930DCAEF894D052E",1,"0198ecee-4b2e-7635-8ead-95a00ce83136","0198c47e-224f-7cc7-87e7-f5ab0011d1ce","2025-08-27_12h09.45.741",NA,NA,192.822,192.822,192.822,193.2249,NA,NA,NA,NA,NA,NA,NA,TRUE,2,1.3039,189.8368,192.8219,0,17,17,88,1,100,46,NA,NA,NA,NA,NA,1,18,"binary"
"B67F83AFF19D40C0930DCAEF894D052E",1,"0198ecee-4b2e-7635-8ead-95a00ce83136","0198c47e-224f-7cc7-87e7-f5ab0011d1ce","2025-08-27_12h09.45.741",NA,NA,196.1605,196.1605,196.1605,196.5678,NA,NA,NA,NA,NA,NA,NA,TRUE,1,1.6955,193.226,196.1604,0,18,18,77,1,90,54,NA,NA,NA,NA,NA,1,19,"binary"
"B67F83AFF19D40C0930DCAEF894D052E",1,"0198ecee-4b2e-7635-8ead-95a00ce83136","0198c47e-224f-7cc7-87e7-f5ab0011d1ce","2025-08-27_12h09.45.741",NA,NA,199.529,199.5291,199.5291,199.9272,NA,NA,NA,NA,NA,NA,NA,TRUE,1,1.6832,196.5688,199.529,0,19,19,82,1,95,47,NA,NA,NA,NA,NA,1,20,"binary"
"B67F83AFF19D40C0930DCAEF894D052E",1,"0198ecee-4b2e-7635-8ead-95a00ce83136","0198c47e-224f-7cc7-87e7-f5ab0011d1ce","2025-08-27_12h09.45.741",NA,NA,202.8658,202.8658,202.8658,203.2836,NA,NA,NA,NA,NA,NA,NA,TRUE,1,1.8931,199.9285,202.8656,0,20,20,45,1,30,30,NA,NA,NA,NA,NA,1,21,"binary"
"B67F83AFF19D40C0930DCAEF894D052E",1,"0198ecee-4b2e-7635-8ead-95a00ce83136","0198c47e-224f-7cc7-87e7-f5ab0011d1ce","2025-08-27_12h09.45.741",NA,NA,206.2141,206.2141,206.2141,206.6295,NA,NA,NA,NA,NA,NA,NA,TRUE,1,1.6434,203.2849,206.214,0,21,21,67,1,60,33,NA,NA,NA,NA,NA,1,22,"binary"
"B67F83AFF19D40C0930DCAEF894D052E",1,"0198ecee-4b2e-7635-8ead-95a00ce83136","0198c47e-224f-7cc7-87e7-f5ab0011d1ce","2025-08-27_12h09.45.741",NA,NA,209.5755,209.5755,209.5755,209.9788,NA,NA,NA,NA,NA,NA,NA,TRUE,2,1.6081,206.6305,209.5754,0,22,22,79,1,95,33,NA,NA,NA,NA,NA,1,23,"binary"
"B67F83AFF19D40C0930DCAEF894D052E",1,"0198ecee-4b2e-7635-8ead-95a00ce83136","0198c47e-224f-7cc7-87e7-f5ab0011d1ce","2025-08-27_12h09.45.741",NA,NA,212.8991,212.8991,212.8991,213.2993,NA,NA,NA,NA,NA,NA,NA,TRUE,2,1.58,209.9804,212.899,0,23,23,38,1,28,32,NA,NA,NA,NA,NA,1,24,"binary"
"B67F83AFF19D40C0930DCAEF894D052E",1,"0198ecee-4b2e-7635-8ead-95a00ce83136","0198c47e-224f-7cc7-87e7-f5ab0011d1ce","2025-08-27_12h09.45.741",NA,NA,216.3188,216.3188,216.3188,216.622,NA,NA,NA,NA,NA,NA,NA,TRUE,1,1.5751,213.3004,216.3187,0,24,24,106,1,200,47,NA,NA,NA,NA,NA,1,25,"binary"
"B67F83AFF19D40C0930DCAEF894D052E",1,"0198ecee-4b2e-7635-8ead-95a00ce83136","0198c47e-224f-7cc7-87e7-f5ab0011d1ce","2025-08-27_12h09.45.741",NA,NA,219.6243,219.6244,219.6244,220.027,NA,NA,NA,NA,NA,NA,NA,TRUE,2,1.6681,216.6234,219.6243,0,25,25,2,1,7,28,NA,NA,NA,NA,NA,1,26,"binary"
"B67F83AFF19D40C0930DCAEF894D052E",1,"0198ecee-4b2e-7635-8ead-95a00ce83136","0198c47e-224f-7cc7-87e7-f5ab0011d1ce","2025-08-27_12h09.45.741",NA,NA,222.9803,222.9803,222.9803,223.3001,NA,NA,NA,NA,NA,NA,NA,TRUE,2,2.0021,220.028,222.9801,0,26,26,23,1,14,39,NA,NA,NA,NA,NA,1,27,"binary"
"B67F83AFF19D40C0930DCAEF894D052E",1,"0198ecee-4b2e-7635-8ead-95a00ce83136","0198c47e-224f-7cc7-87e7-f5ab0011d1ce","2025-08-27_12h09.45.741",NA,NA,226.3155,226.3155,226.3155,226.7149,NA,NA,NA,NA,NA,NA,NA,TRUE,1,0.9452,223.3016,226.3152,0,27,27,97,1,180,31,NA,NA,NA,NA,NA,1,28,"binary"
"B67F83AFF19D40C0930DCAEF894D052E",1,"0198ecee-4b2e-7635-8ead-95a00ce83136","0198c47e-224f-7cc7-87e7-f5ab0011d1ce","2025-08-27_12h09.45.741",NA,NA,229.7193,229.7193,229.7193,230.0302,NA,NA,NA,NA,NA,NA,NA,TRUE,1,1.5602,226.7159,229.7192,0,28,28,26,1,21,29,NA,NA,NA,NA,NA,1,29,"binary"
"B67F83AFF19D40C0930DCAEF894D052E",1,"0198ecee-4b2e-7635-8ead-95a00ce83136","0198c47e-224f-7cc7-87e7-f5ab0011d1ce","2025-08-27_12h09.45.741",NA,NA,233.0584,233.0584,233.0584,233.3559,NA,NA,NA,NA,NA,NA,NA,TRUE,1,1.3711,230.0313,233.0583,0,29,29,54,1,45,26,NA,NA,NA,NA,NA,1,30,"binary"
"B67F83AFF19D40C0930DCAEF894D052E",1,"0198ecee-4b2e-7635-8ead-95a00ce83136","0198c47e-224f-7cc7-87e7-f5ab0011d1ce","2025-08-27_12h09.45.741",NA,NA,236.4044,236.4044,236.4044,236.7042,NA,NA,NA,NA,NA,NA,NA,TRUE,1,1.6122,233.3569,236.4043,0,30,30,85,1,100,31,NA,NA,NA,NA,NA,1,31,"binary"
"B67F83AFF19D40C0930DCAEF894D052E",1,"0198ecee-4b2e-7635-8ead-95a00ce83136","0198c47e-224f-7cc7-87e7-f5ab0011d1ce","2025-08-27_12h09.45.741",NA,NA,239.7809,239.7809,239.7809,240.1123,NA,NA,NA,NA,NA,NA,NA,TRUE,2,1.488,236.7051,239.7808,0,31,31,8,1,10,27,NA,NA,NA,NA,NA,1,32,"binary"
"B67F83AFF19D40C0930DCAEF894D052E",1,"0198ecee-4b2e-7635-8ead-95a00ce83136","0198c47e-224f-7cc7-87e7-f5ab0011d1ce","2025-08-27_12h09.45.741",NA,NA,243.0755,243.0755,243.0755,243.4713,NA,NA,NA,NA,NA,NA,NA,TRUE,2,1.7977,240.1139,243.0754,0,32,32,78,1,95,31,NA,NA,NA,NA,NA,1,33,"binary"
"B67F83AFF19D40C0930DCAEF894D052E",1,"0198ecee-4b2e-7635-8ead-95a00ce83136","0198c47e-224f-7cc7-87e7-f5ab0011d1ce","2025-08-27_12h09.45.741",NA,NA,246.492,246.492,246.492,246.7981,NA,NA,NA,NA,NA,NA,NA,TRUE,1,2.2074,243.4725,246.492,0,33,33,37,1,28,28,NA,NA,NA,NA,NA,1,34,"binary"
"B67F83AFF19D40C0930DCAEF894D052E",1,"0198ecee-4b2e-7635-8ead-95a00ce83136","0198c47e-224f-7cc7-87e7-f5ab0011d1ce","2025-08-27_12h09.45.741",NA,NA,249.8121,249.8121,249.8121,250.1176,NA,NA,NA,NA,NA,NA,NA,TRUE,2,1.3713,246.7991,249.812,0,34,34,22,1,14,35,NA,NA,NA,NA,NA,1,35,"binary"
"B67F83AFF19D40C0930DCAEF894D052E",1,"0198ecee-4b2e-7635-8ead-95a00ce83136","0198c47e-224f-7cc7-87e7-f5ab0011d1ce","2025-08-27_12h09.45.741",NA,NA,253.1335,253.1336,253.1336,253.536,NA,NA,NA,NA,NA,NA,NA,TRUE,2,1.4877,250.1193,253.1334,0,35,35,81,1,95,40,NA,NA,NA,NA,NA,1,36,"binary"
"B67F83AFF19D40C0930DCAEF894D052E",1,"0198ecee-4b2e-7635-8ead-95a00ce83136","0198c47e-224f-7cc7-87e7-f5ab0011d1ce","2025-08-27_12h09.45.741",NA,NA,256.4708,256.4708,256.4708,256.8757,NA,NA,NA,NA,NA,NA,NA,TRUE,2,1.6043,253.537,256.4706,0,36,36,17,1,12,35,NA,NA,NA,NA,NA,1,37,"binary"
"B67F83AFF19D40C0930DCAEF894D052E",1,"0198ecee-4b2e-7635-8ead-95a00ce83136","0198c47e-224f-7cc7-87e7-f5ab0011d1ce","2025-08-27_12h09.45.741",NA,NA,259.7903,259.7903,259.7904,260.2031,NA,NA,NA,NA,NA,NA,NA,TRUE,2,1.6811,256.8769,259.7903,0,37,37,69,1,60,40,NA,NA,NA,NA,NA,1,38,"binary"
"B67F83AFF19D40C0930DCAEF894D052E",1,"0198ecee-4b2e-7635-8ead-95a00ce83136","0198c47e-224f-7cc7-87e7-f5ab0011d1ce","2025-08-27_12h09.45.741",NA,NA,263.1324,263.1325,263.1325,263.565,NA,NA,NA,NA,NA,NA,NA,TRUE,1,1.6862,260.2046,263.1324,0,38,38,43,1,30,27,NA,NA,NA,NA,NA,1,39,"binary"
"B67F83AFF19D40C0930DCAEF894D052E",1,"0198ecee-4b2e-7635-8ead-95a00ce83136","0198c47e-224f-7cc7-87e7-f5ab0011d1ce","2025-08-27_12h09.45.741",NA,NA,266.5262,266.5262,266.5263,266.9319,NA,NA,NA,NA,NA,NA,NA,TRUE,1,2.3504,263.5667,266.526,0,39,39,30,1,25,27,NA,NA,NA,NA,NA,1,40,"binary"
"B67F83AFF19D40C0930DCAEF894D052E",1,"0198ecee-4b2e-7635-8ead-95a00ce83136","0198c47e-224f-7cc7-87e7-f5ab0011d1ce","2025-08-27_12h09.45.741",NA,NA,269.8922,269.8923,269.8923,270.1921,NA,NA,NA,NA,NA,NA,NA,TRUE,1,1.6187,266.9333,269.8922,0,40,40,99,1,180,39,NA,NA,NA,NA,NA,1,41,"binary"
"B67F83AFF19D40C0930DCAEF894D052E",1,"0198ecee-4b2e-7635-8ead-95a00ce83136","0198c47e-224f-7cc7-87e7-f5ab0011d1ce","2025-08-27_12h09.45.741",NA,NA,273.2465,273.2465,273.2465,273.5609,NA,NA,NA,NA,NA,NA,NA,TRUE,1,1.8026,270.1935,273.2464,0,41,41,36,1,28,26,NA,NA,NA,NA,NA,1,42,"binary"
"B67F83AFF19D40C0930DCAEF894D052E",1,"0198ecee-4b2e-7635-8ead-95a00ce83136","0198c47e-224f-7cc7-87e7-f5ab0011d1ce","2025-08-27_12h09.45.741",NA,NA,276.592,276.592,276.592,276.9012,NA,NA,NA,NA,NA,NA,NA,TRUE,1,1.6951,273.5618,276.5919,0,42,42,94,1,150,47,NA,NA,NA,NA,NA,1,43,"binary"
"B67F83AFF19D40C0930DCAEF894D052E",1,"0198ecee-4b2e-7635-8ead-95a00ce83136","0198c47e-224f-7cc7-87e7-f5ab0011d1ce","2025-08-27_12h09.45.741",NA,NA,279.9172,279.9172,279.9173,280.2241,NA,NA,NA,NA,NA,NA,NA,TRUE,2,1.3755,276.9023,279.9172,0,43,43,39,1,28,35,NA,NA,NA,NA,NA,1,44,"binary"
"B67F83AFF19D40C0930DCAEF894D052E",1,"0198ecee-4b2e-7635-8ead-95a00ce83136","0198c47e-224f-7cc7-87e7-f5ab0011d1ce","2025-08-27_12h09.45.741",NA,NA,283.2741,283.2741,283.2741,283.6741,NA,NA,NA,NA,NA,NA,NA,TRUE,1,1.3761,280.225,283.274,0,44,44,92,1,150,35,NA,NA,NA,NA,NA,1,45,"binary"
"B67F83AFF19D40C0930DCAEF894D052E",1,"0198ecee-4b2e-7635-8ead-95a00ce83136","0198c47e-224f-7cc7-87e7-f5ab0011d1ce","2025-08-27_12h09.45.741",NA,NA,286.6036,286.6036,286.6036,287.0095,NA,NA,NA,NA,NA,NA,NA,TRUE,2,1.4918,283.675,286.6035,0,45,45,10,1,10,30,NA,NA,NA,NA,NA,1,46,"binary"
"B67F83AFF19D40C0930DCAEF894D052E",1,"0198ecee-4b2e-7635-8ead-95a00ce83136","0198c47e-224f-7cc7-87e7-f5ab0011d1ce","2025-08-27_12h09.45.741",NA,NA,289.9507,289.9507,289.9507,290.3699,NA,NA,NA,NA,NA,NA,NA,TRUE,1,2.2187,287.0106,289.9506,0,46,46,0,1,7,25,NA,NA,NA,NA,NA,1,47,"binary"
"B67F83AFF19D40C0930DCAEF894D052E",1,"0198ecee-4b2e-7635-8ead-95a00ce83136","0198c47e-224f-7cc7-87e7-f5ab0011d1ce","2025-08-27_12h09.45.741",NA,NA,293.3083,293.3083,293.3084,293.711,NA,NA,NA,NA,NA,NA,NA,TRUE,1,1.8072,290.371,293.3083,0,47,47,13,1,12,26,NA,NA,NA,NA,NA,1,48,"binary"
"B67F83AFF19D40C0930DCAEF894D052E",1,"0198ecee-4b2e-7635-8ead-95a00ce83136","0198c47e-224f-7cc7-87e7-f5ab0011d1ce","2025-08-27_12h09.45.741",NA,NA,296.6429,296.6429,296.6429,297.0538,NA,NA,NA,NA,NA,NA,NA,TRUE,2,1.6987,293.7121,296.6429,0,48,48,44,1,30,29,NA,NA,NA,NA,NA,1,49,"binary"
"B67F83AFF19D40C0930DCAEF894D052E",1,"0198ecee-4b2e-7635-8ead-95a00ce83136","0198c47e-224f-7cc7-87e7-f5ab0011d1ce","2025-08-27_12h09.45.741",NA,NA,300.0665,300.0666,300.0666,300.365,NA,NA,NA,NA,NA,NA,NA,TRUE,2,1.5776,297.0548,300.0664,0,49,49,35,1,25,46,NA,NA,NA,NA,NA,1,50,"binary"
"B67F83AFF19D40C0930DCAEF894D052E",1,"0198ecee-4b2e-7635-8ead-95a00ce83136","0198c47e-224f-7cc7-87e7-f5ab0011d1ce","2025-08-27_12h09.45.741",NA,NA,303.3815,303.3815,303.3815,303.6865,NA,NA,NA,NA,NA,NA,NA,TRUE,2,1.6879,300.3661,303.3815,0,50,50,32,1,25,31,NA,NA,NA,NA,NA,1,51,"binary"
"B67F83AFF19D40C0930DCAEF894D052E",1,"0198ecee-4b2e-7635-8ead-95a00ce83136","0198c47e-224f-7cc7-87e7-f5ab0011d1ce","2025-08-27_12h09.45.741",NA,NA,306.6978,306.6978,306.6978,307.1085,NA,NA,NA,NA,NA,NA,NA,TRUE,2,1.5731,303.6875,306.6977,0,51,51,40,1,28,39,NA,NA,NA,NA,NA,1,52,"binary"
"B67F83AFF19D40C0930DCAEF894D052E",1,"0198ecee-4b2e-7635-8ead-95a00ce83136","0198c47e-224f-7cc7-87e7-f5ab0011d1ce","2025-08-27_12h09.45.741",NA,NA,310.1116,310.1116,310.1116,310.4178,NA,NA,NA,NA,NA,NA,NA,TRUE,1,1.3695,307.1099,310.1115,0,52,52,58,1,45,40,NA,NA,NA,NA,NA,1,53,"binary"
"B67F83AFF19D40C0930DCAEF894D052E",1,"0198ecee-4b2e-7635-8ead-95a00ce83136","0198c47e-224f-7cc7-87e7-f5ab0011d1ce","2025-08-27_12h09.45.741",NA,NA,313.4329,313.4329,313.4329,313.7406,NA,NA,NA,NA,NA,NA,NA,TRUE,2,2.098,310.4191,313.4328,0,53,53,33,1,25,33,NA,NA,NA,NA,NA,1,54,"binary"
"B67F83AFF19D40C0930DCAEF894D052E",1,"0198ecee-4b2e-7635-8ead-95a00ce83136","0198c47e-224f-7cc7-87e7-f5ab0011d1ce","2025-08-27_12h09.45.741",NA,NA,316.7753,316.7753,316.7753,317.1841,NA,NA,NA,NA,NA,NA,NA,TRUE,1,1.1861,313.7416,316.7752,0,54,54,105,1,200,39,NA,NA,NA,NA,NA,1,55,"binary"
"B67F83AFF19D40C0930DCAEF894D052E",1,"0198ecee-4b2e-7635-8ead-95a00ce83136","0198c47e-224f-7cc7-87e7-f5ab0011d1ce","2025-08-27_12h09.45.741",NA,NA,320.117,320.117,320.117,320.5186,NA,NA,NA,NA,NA,NA,NA,TRUE,2,1.4755,317.1856,320.1169,0,55,55,16,1,12,33,NA,NA,NA,NA,NA,1,56,"binary"
"B67F83AFF19D40C0930DCAEF894D052E",1,"0198ecee-4b2e-7635-8ead-95a00ce83136","0198c47e-224f-7cc7-87e7-f5ab0011d1ce","2025-08-27_12h09.45.741",NA,NA,323.4694,323.4694,323.4694,323.7935,NA,NA,NA,NA,NA,NA,NA,TRUE,2,2.2349,320.5197,323.4693,0,56,56,80,1,95,35,NA,NA,NA,NA,NA,1,57,"binary"
"B67F83AFF19D40C0930DCAEF894D052E",1,"0198ecee-4b2e-7635-8ead-95a00ce83136","0198c47e-224f-7cc7-87e7-f5ab0011d1ce","2025-08-27_12h09.45.741",NA,NA,326.8543,326.8543,326.8543,327.153,NA,NA,NA,NA,NA,NA,NA,TRUE,2,1.9358,323.7945,326.8542,0,57,57,63,1,50,40,NA,NA,NA,NA,NA,1,58,"binary"
"B67F83AFF19D40C0930DCAEF894D052E",1,"0198ecee-4b2e-7635-8ead-95a00ce83136","0198c47e-224f-7cc7-87e7-f5ab0011d1ce","2025-08-27_12h09.45.741",NA,NA,330.1878,330.1879,330.1879,330.4942,NA,NA,NA,NA,NA,NA,NA,TRUE,1,1.1836,327.1546,330.1877,0,58,58,90,1,150,31,NA,NA,NA,NA,NA,1,59,"binary"
"B67F83AFF19D40C0930DCAEF894D052E",1,"0198ecee-4b2e-7635-8ead-95a00ce83136","0198c47e-224f-7cc7-87e7-f5ab0011d1ce","2025-08-27_12h09.45.741",NA,NA,333.5942,333.5942,333.5942,333.8971,NA,NA,NA,NA,NA,NA,NA,TRUE,1,1.5713,330.4959,333.5941,0,59,59,42,1,30,26,NA,NA,NA,NA,NA,1,60,"binary"
"B67F83AFF19D40C0930DCAEF894D052E",1,"0198ecee-4b2e-7635-8ead-95a00ce83136","0198c47e-224f-7cc7-87e7-f5ab0011d1ce","2025-08-27_12h09.45.741",NA,NA,336.9103,336.9103,336.9103,337.2108,NA,NA,NA,NA,NA,NA,NA,TRUE,1,1.5711,333.898,336.9102,0,60,60,96,1,180,27,NA,NA,NA,NA,NA,1,61,"binary"
"B67F83AFF19D40C0930DCAEF894D052E",1,"0198ecee-4b2e-7635-8ead-95a00ce83136","0198c47e-224f-7cc7-87e7-f5ab0011d1ce","2025-08-27_12h09.45.741",NA,NA,340.2239,340.2239,340.2239,340.6331,NA,NA,NA,NA,NA,NA,NA,TRUE,1,1.4808,337.2121,340.2237,0,61,61,48,1,40,27,NA,NA,NA,NA,NA,1,62,"binary"
"B67F83AFF19D40C0930DCAEF894D052E",1,"0198ecee-4b2e-7635-8ead-95a00ce83136","0198c47e-224f-7cc7-87e7-f5ab0011d1ce","2025-08-27_12h09.45.741",NA,NA,343.5461,343.5461,343.5461,343.952,NA,NA,NA,NA,NA,NA,NA,TRUE,2,1.3788,340.6342,343.546,0,62,62,27,1,21,30,NA,NA,NA,NA,NA,1,63,"binary"
"B67F83AFF19D40C0930DCAEF894D052E",1,"0198ecee-4b2e-7635-8ead-95a00ce83136","0198c47e-224f-7cc7-87e7-f5ab0011d1ce","2025-08-27_12h09.45.741",NA,NA,346.9704,346.9705,346.9705,347.2739,NA,NA,NA,NA,NA,NA,NA,TRUE,2,1.6855,343.9534,346.9704,0,63,63,83,1,95,54,NA,NA,NA,NA,NA,1,64,"binary"
"B67F83AFF19D40C0930DCAEF894D052E",1,"0198ecee-4b2e-7635-8ead-95a00ce83136","0198c47e-224f-7cc7-87e7-f5ab0011d1ce","2025-08-27_12h09.45.741",NA,NA,350.3156,350.3157,350.3157,350.6275,NA,NA,NA,NA,NA,NA,NA,TRUE,2,1.7084,347.2749,350.3156,0,64,64,51,1,40,40,NA,NA,NA,NA,NA,1,65,"binary"
"B67F83AFF19D40C0930DCAEF894D052E",1,"0198ecee-4b2e-7635-8ead-95a00ce83136","0198c47e-224f-7cc7-87e7-f5ab0011d1ce","2025-08-27_12h09.45.741",NA,NA,353.6727,353.6727,353.6727,353.9796,NA,NA,NA,NA,NA,NA,NA,TRUE,1,1.92,350.6284,353.6727,0,65,65,19,1,14,26,NA,NA,NA,NA,NA,1,66,"binary"
"B67F83AFF19D40C0930DCAEF894D052E",1,"0198ecee-4b2e-7635-8ead-95a00ce83136","0198c47e-224f-7cc7-87e7-f5ab0011d1ce","2025-08-27_12h09.45.741",NA,NA,357.0018,357.0018,357.0018,357.3022,NA,NA,NA,NA,NA,NA,NA,TRUE,2,1.3792,353.981,357.0016,0,66,66,21,1,14,32,NA,NA,NA,NA,NA,1,67,"binary"
"B67F83AFF19D40C0930DCAEF894D052E",1,"0198ecee-4b2e-7635-8ead-95a00ce83136","0198c47e-224f-7cc7-87e7-f5ab0011d1ce","2025-08-27_12h09.45.741",NA,NA,360.3255,360.3256,360.3256,360.7255,NA,NA,NA,NA,NA,NA,NA,TRUE,2,1.172,357.3031,360.3254,0,67,67,46,1,30,32,NA,NA,NA,NA,NA,1,68,"binary"
"B67F83AFF19D40C0930DCAEF894D052E",1,"0198ecee-4b2e-7635-8ead-95a00ce83136","0198c47e-224f-7cc7-87e7-f5ab0011d1ce","2025-08-27_12h09.45.741",NA,NA,363.6456,363.6456,363.6456,364.055,NA,NA,NA,NA,NA,NA,NA,TRUE,2,1.8984,360.7265,363.6454,0,68,68,9,1,10,29,NA,NA,NA,NA,NA,1,69,"binary"
"B67F83AFF19D40C0930DCAEF894D052E",1,"0198ecee-4b2e-7635-8ead-95a00ce83136","0198c47e-224f-7cc7-87e7-f5ab0011d1ce","2025-08-27_12h09.45.741",NA,NA,367.0928,367.0928,367.0928,367.3897,NA,NA,NA,NA,NA,NA,NA,TRUE,2,1.6965,364.056,367.0927,0,69,69,28,1,21,32,NA,NA,NA,NA,NA,1,70,"binary"
"B67F83AFF19D40C0930DCAEF894D052E",1,"0198ecee-4b2e-7635-8ead-95a00ce83136","0198c47e-224f-7cc7-87e7-f5ab0011d1ce","2025-08-27_12h09.45.741",NA,NA,370.3979,370.3979,370.398,370.6921,NA,NA,NA,NA,NA,NA,NA,TRUE,2,1.2568,367.3906,370.3978,0,70,70,4,1,7,32,NA,NA,NA,NA,NA,1,71,"binary"
"B67F83AFF19D40C0930DCAEF894D052E",1,"0198ecee-4b2e-7635-8ead-95a00ce83136","0198c47e-224f-7cc7-87e7-f5ab0011d1ce","2025-08-27_12h09.45.741",NA,NA,373.7276,373.7276,373.7277,374.0403,NA,NA,NA,NA,NA,NA,NA,TRUE,2,1.3739,370.6932,373.7276,0,71,71,59,1,45,46,NA,NA,NA,NA,NA,1,72,"binary"
"B67F83AFF19D40C0930DCAEF894D052E",1,"0198ecee-4b2e-7635-8ead-95a00ce83136","0198c47e-224f-7cc7-87e7-f5ab0011d1ce","2025-08-27_12h09.45.741",NA,NA,377.0575,377.0575,377.0575,377.4567,NA,NA,NA,NA,NA,NA,NA,TRUE,2,1.2725,374.0413,377.0574,0,72,72,3,1,7,30,NA,NA,NA,NA,NA,1,73,"binary"
"B67F83AFF19D40C0930DCAEF894D052E",1,"0198ecee-4b2e-7635-8ead-95a00ce83136","0198c47e-224f-7cc7-87e7-f5ab0011d1ce","2025-08-27_12h09.45.741",NA,NA,380.4801,380.4801,380.4801,380.7819,NA,NA,NA,NA,NA,NA,NA,TRUE,2,1.5878,377.4581,380.48,0,73,73,107,1,200,54,NA,NA,NA,NA,NA,1,74,"binary"
"B67F83AFF19D40C0930DCAEF894D052E",1,"0198ecee-4b2e-7635-8ead-95a00ce83136","0198c47e-224f-7cc7-87e7-f5ab0011d1ce","2025-08-27_12h09.45.741",NA,NA,383.8099,383.8099,383.8099,384.1155,NA,NA,NA,NA,NA,NA,NA,TRUE,1,1.5967,380.7834,383.8098,0,74,74,101,1,180,54,NA,NA,NA,NA,NA,1,75,"binary"
"B67F83AFF19D40C0930DCAEF894D052E",1,"0198ecee-4b2e-7635-8ead-95a00ce83136","0198c47e-224f-7cc7-87e7-f5ab0011d1ce","2025-08-27_12h09.45.741",NA,NA,387.158,387.158,387.158,387.4656,NA,NA,NA,NA,NA,NA,NA,TRUE,2,1.8233,384.1164,387.1578,0,75,75,62,1,50,35,NA,NA,NA,NA,NA,1,76,"binary"
"B67F83AFF19D40C0930DCAEF894D052E",1,"0198ecee-4b2e-7635-8ead-95a00ce83136","0198c47e-224f-7cc7-87e7-f5ab0011d1ce","2025-08-27_12h09.45.741",NA,NA,390.5076,390.5076,390.5076,390.8173,NA,NA,NA,NA,NA,NA,NA,TRUE,1,1.1963,387.4666,390.5076,0,76,76,95,1,150,54,NA,NA,NA,NA,NA,1,77,"binary"
"B67F83AFF19D40C0930DCAEF894D052E",1,"0198ecee-4b2e-7635-8ead-95a00ce83136","0198c47e-224f-7cc7-87e7-f5ab0011d1ce","2025-08-27_12h09.45.741",NA,NA,393.8507,393.8507,393.8507,394.1585,NA,NA,NA,NA,NA,NA,NA,TRUE,2,1.487,390.8183,393.8506,0,77,77,70,1,60,47,NA,NA,NA,NA,NA,1,78,"binary"
"B67F83AFF19D40C0930DCAEF894D052E",1,"0198ecee-4b2e-7635-8ead-95a00ce83136","0198c47e-224f-7cc7-87e7-f5ab0011d1ce","2025-08-27_12h09.45.741",NA,NA,397.233,397.233,397.233,397.5311,NA,NA,NA,NA,NA,NA,NA,TRUE,1,2.3498,394.1599,397.2329,0,78,78,86,1,100,38,NA,NA,NA,NA,NA,1,79,"binary"
"B67F83AFF19D40C0930DCAEF894D052E",1,"0198ecee-4b2e-7635-8ead-95a00ce83136","0198c47e-224f-7cc7-87e7-f5ab0011d1ce","2025-08-27_12h09.45.741",NA,NA,400.5407,400.5407,400.5408,400.846,NA,NA,NA,NA,NA,NA,NA,TRUE,1,1.6805,397.532,400.5406,0,79,79,7,1,10,26,NA,NA,NA,NA,NA,1,80,"binary"
"B67F83AFF19D40C0930DCAEF894D052E",1,"0198ecee-4b2e-7635-8ead-95a00ce83136","0198c47e-224f-7cc7-87e7-f5ab0011d1ce","2025-08-27_12h09.45.741",NA,NA,403.8486,403.8486,403.8486,404.2449,NA,NA,NA,NA,NA,NA,NA,TRUE,1,1.2081,400.8474,403.8484,0,80,80,102,1,200,26,NA,NA,NA,NA,NA,1,81,"binary"
"B67F83AFF19D40C0930DCAEF894D052E",1,"0198ecee-4b2e-7635-8ead-95a00ce83136","0198c47e-224f-7cc7-87e7-f5ab0011d1ce","2025-08-27_12h09.45.741",NA,NA,407.2974,407.2974,407.2974,407.5927,NA,NA,NA,NA,NA,NA,NA,TRUE,2,1.8019,404.246,407.2973,0,81,81,65,1,50,54,NA,NA,NA,NA,NA,1,82,"binary"
"B67F83AFF19D40C0930DCAEF894D052E",1,"0198ecee-4b2e-7635-8ead-95a00ce83136","0198c47e-224f-7cc7-87e7-f5ab0011d1ce","2025-08-27_12h09.45.741",NA,NA,410.5693,410.5693,410.5693,410.8779,NA,NA,NA,NA,NA,NA,NA,TRUE,2,1.6878,407.5936,410.5692,0,82,82,50,1,40,35,NA,NA,NA,NA,NA,1,83,"binary"
"B67F83AFF19D40C0930DCAEF894D052E",1,"0198ecee-4b2e-7635-8ead-95a00ce83136","0198c47e-224f-7cc7-87e7-f5ab0011d1ce","2025-08-27_12h09.45.741",NA,NA,413.997,413.9971,413.9971,414.2969,NA,NA,NA,NA,NA,NA,NA,TRUE,1,1.2063,410.879,413.997,0,83,83,104,1,200,35,NA,NA,NA,NA,NA,1,84,"binary"
"B67F83AFF19D40C0930DCAEF894D052E",1,"0198ecee-4b2e-7635-8ead-95a00ce83136","0198c47e-224f-7cc7-87e7-f5ab0011d1ce","2025-08-27_12h09.45.741",NA,NA,417.2627,417.2627,417.2627,417.6712,NA,NA,NA,NA,NA,NA,NA,TRUE,1,2.3412,414.2985,417.2625,0,84,84,72,1,90,26,NA,NA,NA,NA,NA,1,85,"binary"
"B67F83AFF19D40C0930DCAEF894D052E",1,"0198ecee-4b2e-7635-8ead-95a00ce83136","0198c47e-224f-7cc7-87e7-f5ab0011d1ce","2025-08-27_12h09.45.741",NA,NA,420.6555,420.6555,420.6555,420.9613,NA,NA,NA,NA,NA,NA,NA,TRUE,1,1.3261,417.6722,420.6555,0,85,85,103,1,200,28,NA,NA,NA,NA,NA,1,86,"binary"
"B67F83AFF19D40C0930DCAEF894D052E",1,"0198ecee-4b2e-7635-8ead-95a00ce83136","0198c47e-224f-7cc7-87e7-f5ab0011d1ce","2025-08-27_12h09.45.741",NA,NA,423.9748,423.9748,423.9748,424.3087,NA,NA,NA,NA,NA,NA,NA,TRUE,2,1.8059,420.9623,423.9747,0,86,86,68,1,60,35,NA,NA,NA,NA,NA,1,87,"binary"
"B67F83AFF19D40C0930DCAEF894D052E",1,"0198ecee-4b2e-7635-8ead-95a00ce83136","0198c47e-224f-7cc7-87e7-f5ab0011d1ce","2025-08-27_12h09.45.741",NA,NA,427.3184,427.3185,427.3185,427.6451,NA,NA,NA,NA,NA,NA,NA,TRUE,1,1.551,424.3101,427.3183,0,87,87,1,1,7,26,NA,NA,NA,NA,NA,1,88,"binary"
"B67F83AFF19D40C0930DCAEF894D052E",1,"0198ecee-4b2e-7635-8ead-95a00ce83136","0198c47e-224f-7cc7-87e7-f5ab0011d1ce","2025-08-27_12h09.45.741",NA,NA,430.6648,430.6648,430.6648,430.9967,NA,NA,NA,NA,NA,NA,NA,TRUE,1,1.5817,427.6461,430.6646,0,88,88,66,1,60,29,NA,NA,NA,NA,NA,1,89,"binary"
"B67F83AFF19D40C0930DCAEF894D052E",1,"0198ecee-4b2e-7635-8ead-95a00ce83136","0198c47e-224f-7cc7-87e7-f5ab0011d1ce","2025-08-27_12h09.45.741",NA,NA,433.9815,433.9816,433.9816,434.4085,NA,NA,NA,NA,NA,NA,NA,TRUE,2,1.9814,430.9977,433.9815,0,89,89,76,1,90,46,NA,NA,NA,NA,NA,1,90,"binary"
"B67F83AFF19D40C0930DCAEF894D052E",1,"0198ecee-4b2e-7635-8ead-95a00ce83136","0198c47e-224f-7cc7-87e7-f5ab0011d1ce","2025-08-27_12h09.45.741",NA,NA,437.4318,437.4318,437.4318,437.7332,NA,NA,NA,NA,NA,NA,NA,TRUE,2,1.58,434.4095,437.4316,0,90,90,53,1,40,54,NA,NA,NA,NA,NA,1,91,"binary"
"B67F83AFF19D40C0930DCAEF894D052E",1,"0198ecee-4b2e-7635-8ead-95a00ce83136","0198c47e-224f-7cc7-87e7-f5ab0011d1ce","2025-08-27_12h09.45.741",NA,NA,440.7465,440.7465,440.7465,441.0595,NA,NA,NA,NA,NA,NA,NA,TRUE,2,1.6795,437.7342,440.7464,0,91,91,41,1,28,46,NA,NA,NA,NA,NA,1,92,"binary"
"B67F83AFF19D40C0930DCAEF894D052E",1,"0198ecee-4b2e-7635-8ead-95a00ce83136","0198c47e-224f-7cc7-87e7-f5ab0011d1ce","2025-08-27_12h09.45.741",NA,NA,444.0447,444.0447,444.0447,444.4812,NA,NA,NA,NA,NA,NA,NA,TRUE,2,1.5587,441.0609,444.0446,0,92,92,29,1,21,38,NA,NA,NA,NA,NA,1,93,"binary"
"B67F83AFF19D40C0930DCAEF894D052E",1,"0198ecee-4b2e-7635-8ead-95a00ce83136","0198c47e-224f-7cc7-87e7-f5ab0011d1ce","2025-08-27_12h09.45.741",NA,NA,447.4693,447.4694,447.4694,447.8049,NA,NA,NA,NA,NA,NA,NA,TRUE,1,1.4548,444.4826,447.4691,0,93,93,6,1,10,25,NA,NA,NA,NA,NA,1,94,"binary"
"B67F83AFF19D40C0930DCAEF894D052E",1,"0198ecee-4b2e-7635-8ead-95a00ce83136","0198c47e-224f-7cc7-87e7-f5ab0011d1ce","2025-08-27_12h09.45.741",NA,NA,450.8379,450.8379,450.8379,451.1445,NA,NA,NA,NA,NA,NA,NA,TRUE,2,2.5054,447.8064,450.8377,0,94,94,55,1,45,29,NA,NA,NA,NA,NA,1,95,"binary"
"B67F83AFF19D40C0930DCAEF894D052E",1,"0198ecee-4b2e-7635-8ead-95a00ce83136","0198c47e-224f-7cc7-87e7-f5ab0011d1ce","2025-08-27_12h09.45.741",NA,NA,454.119,454.119,454.1191,454.4465,NA,NA,NA,NA,NA,NA,NA,TRUE,2,1.9278,451.1454,454.1189,0,95,95,47,1,30,38,NA,NA,NA,NA,NA,1,96,"binary"
"B67F83AFF19D40C0930DCAEF894D052E",1,"0198ecee-4b2e-7635-8ead-95a00ce83136","0198c47e-224f-7cc7-87e7-f5ab0011d1ce","2025-08-27_12h09.45.741",NA,NA,457.5278,457.5278,457.5278,457.8515,NA,NA,NA,NA,NA,NA,NA,TRUE,2,2.1809,454.4479,457.5276,0,96,96,89,1,100,54,NA,NA,NA,NA,NA,1,97,"binary"
"B67F83AFF19D40C0930DCAEF894D052E",1,"0198ecee-4b2e-7635-8ead-95a00ce83136","0198c47e-224f-7cc7-87e7-f5ab0011d1ce","2025-08-27_12h09.45.741",NA,NA,460.8063,460.8063,460.8063,461.2177,NA,NA,NA,NA,NA,NA,NA,TRUE,1,1.3177,457.8525,460.8062,0,97,97,84,1,100,26,NA,NA,NA,NA,NA,1,98,"binary"
"B67F83AFF19D40C0930DCAEF894D052E",1,"0198ecee-4b2e-7635-8ead-95a00ce83136","0198c47e-224f-7cc7-87e7-f5ab0011d1ce","2025-08-27_12h09.45.741",NA,NA,464.1691,464.1692,464.1693,464.5159,NA,NA,NA,NA,NA,NA,NA,TRUE,2,2.5237,461.2186,464.1691,0,98,98,49,1,40,33,NA,NA,NA,NA,NA,1,99,"binary"
"B67F83AFF19D40C0930DCAEF894D052E",1,"0198ecee-4b2e-7635-8ead-95a00ce83136","0198c47e-224f-7cc7-87e7-f5ab0011d1ce","2025-08-27_12h09.45.741",NA,NA,467.5012,467.5012,467.5012,467.8312,NA,NA,NA,NA,NA,NA,NA,TRUE,1,1.278,464.5174,467.5011,0,99,99,12,1,12,25,NA,NA,NA,NA,NA,1,100,"binary"
"B67F83AFF19D40C0930DCAEF894D052E",1,"0198ecee-4b2e-7635-8ead-95a00ce83136","0198c47e-224f-7cc7-87e7-f5ab0011d1ce","2025-08-27_12h09.45.741",NA,NA,470.8441,470.8441,470.8441,471.2769,NA,NA,NA,NA,NA,NA,NA,TRUE,1,1.2398,467.8323,470.844,0,100,100,18,1,14,25,NA,NA,NA,NA,NA,1,101,"binary"
"B67F83AFF19D40C0930DCAEF894D052E",1,"0198ecee-4b2e-7635-8ead-95a00ce83136","0198c47e-224f-7cc7-87e7-f5ab0011d1ce","2025-08-27_12h09.45.741",NA,NA,474.2426,474.2426,474.2426,474.5893,NA,NA,NA,NA,NA,NA,NA,TRUE,1,1.6158,471.2779,474.2425,0,101,101,14,1,12,28,NA,NA,NA,NA,NA,1,102,"binary"
"B67F83AFF19D40C0930DCAEF894D052E",1,"0198ecee-4b2e-7635-8ead-95a00ce83136","0198c47e-224f-7cc7-87e7-f5ab0011d1ce","2025-08-27_12h09.45.741",NA,NA,477.6144,477.615,477.615,477.9479,NA,NA,NA,NA,NA,NA,NA,TRUE,2,1.7795,474.5909,477.6143,0,102,102,56,1,45,31,NA,NA,NA,NA,NA,1,103,"binary"
"B67F83AFF19D40C0930DCAEF894D052E",1,"0198ecee-4b2e-7635-8ead-95a00ce83136","0198c47e-224f-7cc7-87e7-f5ab0011d1ce","2025-08-27_12h09.45.741",NA,NA,480.9651,481.1792,481.1792,481.2855,NA,NA,NA,NA,NA,NA,NA,FALSE,NA,NA,477.9489,480.965,0,103,103,74,1,90,33,NA,NA,NA,NA,NA,1,104,"binary"
"B67F83AFF19D40C0930DCAEF894D052E",1,"0198ecee-4b2e-7635-8ead-95a00ce83136","0198c47e-224f-7cc7-87e7-f5ab0011d1ce","2025-08-27_12h09.45.741",NA,NA,484.3059,484.3059,484.3059,484.6249,NA,NA,NA,NA,NA,NA,NA,TRUE,1,1.9068,481.2869,484.3058,0,104,104,15,1,12,31,NA,NA,NA,NA,NA,1,105,"binary"
"B67F83AFF19D40C0930DCAEF894D052E",1,"0198ecee-4b2e-7635-8ead-95a00ce83136","0198c47e-224f-7cc7-87e7-f5ab0011d1ce","2025-08-27_12h09.45.741",NA,NA,487.6794,487.6794,487.6794,487.977,NA,NA,NA,NA,NA,NA,NA,TRUE,1,1.4134,484.6258,487.6794,0,105,105,25,1,21,27,NA,NA,NA,NA,NA,1,106,"binary"
"B67F83AFF19D40C0930DCAEF894D052E",1,"0198ecee-4b2e-7635-8ead-95a00ce83136","0198c47e-224f-7cc7-87e7-f5ab0011d1ce","2025-08-27_12h09.45.741",NA,NA,490.9635,490.9635,490.9635,491.3126,NA,NA,NA,NA,NA,NA,NA,TRUE,2,1.4814,487.9782,490.9633,0,106,106,75,1,90,40,NA,NA,NA,NA,NA,1,107,"binary"
"B67F83AFF19D40C0930DCAEF894D052E",1,"0198ecee-4b2e-7635-8ead-95a00ce83136","0198c47e-224f-7cc7-87e7-f5ab0011d1ce","2025-08-27_12h09.45.741",NA,NA,494.3696,494.3697,494.3697,494.7033,NA,NA,NA,NA,NA,NA,NA,TRUE,2,1.5282,491.3141,494.3694,0,107,107,52,1,40,47,NA,NA,NA,NA,NA,1,108,"binary"
"B67F83AFF19D40C0930DCAEF894D052E",1,"0198ecee-4b2e-7635-8ead-95a00ce83136","0198c47e-224f-7cc7-87e7-f5ab0011d1ce","2025-08-27_12h09.45.741",NA,NA,512.8055,512.8055,512.8055,513.2176,NA,NA,NA,NA,NA,NA,NA,TRUE,2,1.6924,509.8732,512.8053,NA,NA,NA,NA,NA,50,35,0,0,0,62,1,2,1,"binary"
"B67F83AFF19D40C0930DCAEF894D052E",1,"0198ecee-4b2e-7635-8ead-95a00ce83136","0198c47e-224f-7cc7-87e7-f5ab0011d1ce","2025-08-27_12h09.45.741",NA,NA,516.1702,516.1703,516.1703,516.5612,NA,NA,NA,NA,NA,NA,NA,TRUE,2,1.2918,513.2187,516.1702,NA,NA,NA,NA,NA,40,35,0,1,1,50,1,2,2,"binary"
"B67F83AFF19D40C0930DCAEF894D052E",1,"0198ecee-4b2e-7635-8ead-95a00ce83136","0198c47e-224f-7cc7-87e7-f5ab0011d1ce","2025-08-27_12h09.45.741",NA,NA,519.5669,519.567,519.567,519.8672,NA,NA,NA,NA,NA,NA,NA,TRUE,1,1.0486,516.5626,519.5668,NA,NA,NA,NA,NA,10,27,0,2,2,8,1,2,3,"binary"
"B67F83AFF19D40C0930DCAEF894D052E",1,"0198ecee-4b2e-7635-8ead-95a00ce83136","0198c47e-224f-7cc7-87e7-f5ab0011d1ce","2025-08-27_12h09.45.741",NA,NA,522.8372,522.8372,522.8372,523.2343,NA,NA,NA,NA,NA,NA,NA,TRUE,2,1.0626,519.8682,522.8372,NA,NA,NA,NA,NA,90,46,0,3,3,76,1,2,4,"binary"
"B67F83AFF19D40C0930DCAEF894D052E",1,"0198ecee-4b2e-7635-8ead-95a00ce83136","0198c47e-224f-7cc7-87e7-f5ab0011d1ce","2025-08-27_12h09.45.741",NA,NA,526.2383,526.2383,526.2383,526.5398,NA,NA,NA,NA,NA,NA,NA,TRUE,2,0.9405,523.2357,526.2381,NA,NA,NA,NA,NA,30,38,0,4,4,47,1,2,5,"binary"
"B67F83AFF19D40C0930DCAEF894D052E",1,"0198ecee-4b2e-7635-8ead-95a00ce83136","0198c47e-224f-7cc7-87e7-f5ab0011d1ce","2025-08-27_12h09.45.741",NA,NA,529.6165,529.6166,529.6166,529.9231,NA,NA,NA,NA,NA,NA,NA,TRUE,1,1.1109,526.5411,529.6164,NA,NA,NA,NA,NA,200,39,0,5,5,105,1,2,6,"binary"
"B67F83AFF19D40C0930DCAEF894D052E",1,"0198ecee-4b2e-7635-8ead-95a00ce83136","0198c47e-224f-7cc7-87e7-f5ab0011d1ce","2025-08-27_12h09.45.741",NA,NA,532.9371,532.9371,532.9371,533.2415,NA,NA,NA,NA,NA,NA,NA,TRUE,2,0.8894,529.9242,532.937,NA,NA,NA,NA,NA,45,35,0,6,6,57,1,2,7,"binary"
"B67F83AFF19D40C0930DCAEF894D052E",1,"0198ecee-4b2e-7635-8ead-95a00ce83136","0198c47e-224f-7cc7-87e7-f5ab0011d1ce","2025-08-27_12h09.45.741",NA,NA,536.2607,536.2608,536.2608,536.6597,NA,NA,NA,NA,NA,NA,NA,TRUE,1,0.9364,533.243,536.2606,NA,NA,NA,NA,NA,100,31,0,7,7,85,1,2,8,"binary"
"B67F83AFF19D40C0930DCAEF894D052E",1,"0198ecee-4b2e-7635-8ead-95a00ce83136","0198c47e-224f-7cc7-87e7-f5ab0011d1ce","2025-08-27_12h09.45.741",NA,NA,539.6362,539.6362,539.6362,539.9499,NA,NA,NA,NA,NA,NA,NA,TRUE,2,1.0967,536.6606,539.636,NA,NA,NA,NA,NA,12,28,0,8,8,14,1,2,9,"binary"
"B67F83AFF19D40C0930DCAEF894D052E",1,"0198ecee-4b2e-7635-8ead-95a00ce83136","0198c47e-224f-7cc7-87e7-f5ab0011d1ce","2025-08-27_12h09.45.741",NA,NA,542.9858,542.9858,542.9858,543.2918,NA,NA,NA,NA,NA,NA,NA,TRUE,2,1.1676,539.9509,542.9858,NA,NA,NA,NA,NA,40,33,0,9,9,49,1,2,10,"binary"
"B67F83AFF19D40C0930DCAEF894D052E",1,"0198ecee-4b2e-7635-8ead-95a00ce83136","0198c47e-224f-7cc7-87e7-f5ab0011d1ce","2025-08-27_12h09.45.741",NA,NA,546.3254,546.3254,546.3254,546.7276,NA,NA,NA,NA,NA,NA,NA,TRUE,2,1.0542,543.2932,546.3253,NA,NA,NA,NA,NA,14,39,0,10,10,23,1,2,11,"binary"
"B67F83AFF19D40C0930DCAEF894D052E",1,"0198ecee-4b2e-7635-8ead-95a00ce83136","0198c47e-224f-7cc7-87e7-f5ab0011d1ce","2025-08-27_12h09.45.741",NA,NA,549.6495,549.6495,549.6495,550.0448,NA,NA,NA,NA,NA,NA,NA,TRUE,2,1.1729,546.729,549.6493,NA,NA,NA,NA,NA,21,38,0,11,11,29,1,2,12,"binary"
"B67F83AFF19D40C0930DCAEF894D052E",1,"0198ecee-4b2e-7635-8ead-95a00ce83136","0198c47e-224f-7cc7-87e7-f5ab0011d1ce","2025-08-27_12h09.45.741",NA,NA,553.0016,553.0016,553.0016,553.4064,NA,NA,NA,NA,NA,NA,NA,TRUE,2,1.1995,550.0459,553.0015,NA,NA,NA,NA,NA,7,30,0,12,12,3,1,2,13,"binary"
"B67F83AFF19D40C0930DCAEF894D052E",1,"0198ecee-4b2e-7635-8ead-95a00ce83136","0198c47e-224f-7cc7-87e7-f5ab0011d1ce","2025-08-27_12h09.45.741",NA,NA,556.4347,556.4347,556.4348,556.756,NA,NA,NA,NA,NA,NA,NA,TRUE,1,1.1781,553.4074,556.4347,NA,NA,NA,NA,NA,25,29,0,13,13,31,1,2,14,"binary"
"B67F83AFF19D40C0930DCAEF894D052E",1,"0198ecee-4b2e-7635-8ead-95a00ce83136","0198c47e-224f-7cc7-87e7-f5ab0011d1ce","2025-08-27_12h09.45.741",NA,NA,559.7781,559.7782,559.7782,560.0869,NA,NA,NA,NA,NA,NA,NA,TRUE,1,1.0749,556.7576,559.778,NA,NA,NA,NA,NA,200,35,0,14,14,104,1,2,15,"binary"
"B67F83AFF19D40C0930DCAEF894D052E",1,"0198ecee-4b2e-7635-8ead-95a00ce83136","0198c47e-224f-7cc7-87e7-f5ab0011d1ce","2025-08-27_12h09.45.741",NA,NA,563.1149,563.1149,563.1149,563.4224,NA,NA,NA,NA,NA,NA,NA,TRUE,2,1.5807,560.0879,563.1148,NA,NA,NA,NA,NA,95,35,0,15,15,80,1,2,16,"binary"
"B67F83AFF19D40C0930DCAEF894D052E",1,"0198ecee-4b2e-7635-8ead-95a00ce83136","0198c47e-224f-7cc7-87e7-f5ab0011d1ce","2025-08-27_12h09.45.741",NA,NA,566.491,566.491,566.491,566.8006,NA,NA,NA,NA,NA,NA,NA,TRUE,2,1.2017,563.4234,566.4909,NA,NA,NA,NA,NA,60,40,0,16,16,69,1,2,17,"binary"
"B67F83AFF19D40C0930DCAEF894D052E",1,"0198ecee-4b2e-7635-8ead-95a00ce83136","0198c47e-224f-7cc7-87e7-f5ab0011d1ce","2025-08-27_12h09.45.741",NA,NA,569.7428,569.7428,569.7428,570.1406,NA,NA,NA,NA,NA,NA,NA,TRUE,2,1.2036,566.802,569.7427,NA,NA,NA,NA,NA,28,46,0,17,17,41,1,2,18,"binary"
"B67F83AFF19D40C0930DCAEF894D052E",1,"0198ecee-4b2e-7635-8ead-95a00ce83136","0198c47e-224f-7cc7-87e7-f5ab0011d1ce","2025-08-27_12h09.45.741",NA,NA,573.165,573.165,573.165,573.4593,NA,NA,NA,NA,NA,NA,NA,TRUE,2,0.8591,570.1419,573.1649,NA,NA,NA,NA,NA,10,29,0,18,18,9,1,2,19,"binary"
"B67F83AFF19D40C0930DCAEF894D052E",1,"0198ecee-4b2e-7635-8ead-95a00ce83136","0198c47e-224f-7cc7-87e7-f5ab0011d1ce","2025-08-27_12h09.45.741",NA,NA,576.5203,576.5203,576.5203,576.8201,NA,NA,NA,NA,NA,NA,NA,TRUE,1,0.8678,573.4602,576.5202,NA,NA,NA,NA,NA,150,40,0,19,19,93,1,2,20,"binary"
"B67F83AFF19D40C0930DCAEF894D052E",1,"0198ecee-4b2e-7635-8ead-95a00ce83136","0198c47e-224f-7cc7-87e7-f5ab0011d1ce","2025-08-27_12h09.45.741",NA,NA,579.8356,579.8356,579.8356,580.2326,NA,NA,NA,NA,NA,NA,NA,TRUE,1,1.4758,576.8211,579.8356,NA,NA,NA,NA,NA,180,54,0,20,20,101,1,2,21,"binary"
"B67F83AFF19D40C0930DCAEF894D052E",1,"0198ecee-4b2e-7635-8ead-95a00ce83136","0198c47e-224f-7cc7-87e7-f5ab0011d1ce","2025-08-27_12h09.45.741",NA,NA,583.1734,583.1735,583.1735,583.5868,NA,NA,NA,NA,NA,NA,NA,TRUE,1,1.4963,580.2336,583.1733,NA,NA,NA,NA,NA,180,31,0,21,21,97,1,2,22,"binary"
"B67F83AFF19D40C0930DCAEF894D052E",1,"0198ecee-4b2e-7635-8ead-95a00ce83136","0198c47e-224f-7cc7-87e7-f5ab0011d1ce","2025-08-27_12h09.45.741",NA,NA,586.5249,586.5249,586.5249,586.9169,NA,NA,NA,NA,NA,NA,NA,TRUE,1,1.3871,583.5878,586.5248,NA,NA,NA,NA,NA,95,31,0,22,22,78,1,2,23,"binary"
"B67F83AFF19D40C0930DCAEF894D052E",1,"0198ecee-4b2e-7635-8ead-95a00ce83136","0198c47e-224f-7cc7-87e7-f5ab0011d1ce","2025-08-27_12h09.45.741",NA,NA,589.8436,589.8436,589.8436,590.2462,NA,NA,NA,NA,NA,NA,NA,TRUE,1,1.6894,586.9179,589.8434,NA,NA,NA,NA,NA,100,54,0,23,23,89,1,2,24,"binary"
"B67F83AFF19D40C0930DCAEF894D052E",1,"0198ecee-4b2e-7635-8ead-95a00ce83136","0198c47e-224f-7cc7-87e7-f5ab0011d1ce","2025-08-27_12h09.45.741",NA,NA,593.299,593.2991,593.2991,593.5946,NA,NA,NA,NA,NA,NA,NA,TRUE,2,1.3796,590.2477,593.299,NA,NA,NA,NA,NA,50,40,0,24,24,63,1,2,25,"binary"
"B67F83AFF19D40C0930DCAEF894D052E",1,"0198ecee-4b2e-7635-8ead-95a00ce83136","0198c47e-224f-7cc7-87e7-f5ab0011d1ce","2025-08-27_12h09.45.741",NA,NA,596.548,596.5481,596.5481,596.941,NA,NA,NA,NA,NA,NA,NA,TRUE,2,0.9795,593.596,596.5479,NA,NA,NA,NA,NA,25,46,0,25,25,35,1,2,26,"binary"
"B67F83AFF19D40C0930DCAEF894D052E",1,"0198ecee-4b2e-7635-8ead-95a00ce83136","0198c47e-224f-7cc7-87e7-f5ab0011d1ce","2025-08-27_12h09.45.741",NA,NA,599.9684,599.9684,599.9684,600.2696,NA,NA,NA,NA,NA,NA,NA,TRUE,2,1.4515,596.9427,599.9683,NA,NA,NA,NA,NA,40,47,0,26,26,52,1,2,27,"binary"
"B67F83AFF19D40C0930DCAEF894D052E",1,"0198ecee-4b2e-7635-8ead-95a00ce83136","0198c47e-224f-7cc7-87e7-f5ab0011d1ce","2025-08-27_12h09.45.741",NA,NA,603.3077,603.3077,603.3078,603.605,NA,NA,NA,NA,NA,NA,NA,TRUE,2,0.9596,600.2706,603.3076,NA,NA,NA,NA,NA,50,46,0,27,27,64,1,2,28,"binary"
"B67F83AFF19D40C0930DCAEF894D052E",1,"0198ecee-4b2e-7635-8ead-95a00ce83136","0198c47e-224f-7cc7-87e7-f5ab0011d1ce","2025-08-27_12h09.45.741",NA,NA,606.6191,606.6191,606.6191,607.0299,NA,NA,NA,NA,NA,NA,NA,TRUE,1,0.9445,603.6064,606.619,NA,NA,NA,NA,NA,180,39,0,28,28,99,1,2,29,"binary"
"B67F83AFF19D40C0930DCAEF894D052E",1,"0198ecee-4b2e-7635-8ead-95a00ce83136","0198c47e-224f-7cc7-87e7-f5ab0011d1ce","2025-08-27_12h09.45.741",NA,NA,609.9524,609.9524,609.9524,610.3478,NA,NA,NA,NA,NA,NA,NA,TRUE,1,1.585,607.031,609.9524,NA,NA,NA,NA,NA,21,26,0,29,29,24,1,2,30,"binary"
"B67F83AFF19D40C0930DCAEF894D052E",1,"0198ecee-4b2e-7635-8ead-95a00ce83136","0198c47e-224f-7cc7-87e7-f5ab0011d1ce","2025-08-27_12h09.45.741",NA,NA,613.3029,613.303,613.303,613.7043,NA,NA,NA,NA,NA,NA,NA,TRUE,2,1.6016,610.3492,613.3028,NA,NA,NA,NA,NA,50,30,0,30,30,61,1,2,31,"binary"
"B67F83AFF19D40C0930DCAEF894D052E",1,"0198ecee-4b2e-7635-8ead-95a00ce83136","0198c47e-224f-7cc7-87e7-f5ab0011d1ce","2025-08-27_12h09.45.741",NA,NA,616.7082,616.7082,616.7082,617.0319,NA,NA,NA,NA,NA,NA,NA,TRUE,1,1.2719,613.7056,616.7082,NA,NA,NA,NA,NA,100,26,0,31,31,84,1,2,32,"binary"
"B67F83AFF19D40C0930DCAEF894D052E",1,"0198ecee-4b2e-7635-8ead-95a00ce83136","0198c47e-224f-7cc7-87e7-f5ab0011d1ce","2025-08-27_12h09.45.741",NA,NA,620.0398,620.0398,620.0398,620.3417,NA,NA,NA,NA,NA,NA,NA,TRUE,2,1.316,617.033,620.0397,NA,NA,NA,NA,NA,30,26,0,32,32,42,1,2,33,"binary"
"B67F83AFF19D40C0930DCAEF894D052E",1,"0198ecee-4b2e-7635-8ead-95a00ce83136","0198c47e-224f-7cc7-87e7-f5ab0011d1ce","2025-08-27_12h09.45.741",NA,NA,623.3636,623.3636,623.3636,623.6774,NA,NA,NA,NA,NA,NA,NA,TRUE,1,0.962,620.3432,623.3635,NA,NA,NA,NA,NA,180,46,0,33,33,100,1,2,34,"binary"
"B67F83AFF19D40C0930DCAEF894D052E",1,"0198ecee-4b2e-7635-8ead-95a00ce83136","0198c47e-224f-7cc7-87e7-f5ab0011d1ce","2025-08-27_12h09.45.741",NA,NA,626.7637,626.7638,626.7639,627.0913,NA,NA,NA,NA,NA,NA,NA,TRUE,1,2.2178,623.6784,626.7636,NA,NA,NA,NA,NA,95,54,0,34,34,83,1,2,35,"binary"
"B67F83AFF19D40C0930DCAEF894D052E",1,"0198ecee-4b2e-7635-8ead-95a00ce83136","0198c47e-224f-7cc7-87e7-f5ab0011d1ce","2025-08-27_12h09.45.741",NA,NA,630.1301,630.1301,630.1301,630.4395,NA,NA,NA,NA,NA,NA,NA,TRUE,2,1.3711,627.0929,630.13,NA,NA,NA,NA,NA,7,32,0,35,35,4,1,2,36,"binary"
"B67F83AFF19D40C0930DCAEF894D052E",1,"0198ecee-4b2e-7635-8ead-95a00ce83136","0198c47e-224f-7cc7-87e7-f5ab0011d1ce","2025-08-27_12h09.45.741",NA,NA,633.4871,633.4872,633.4872,633.7867,NA,NA,NA,NA,NA,NA,NA,TRUE,1,1.2897,630.4407,633.4869,NA,NA,NA,NA,NA,150,31,0,36,36,90,1,2,37,"binary"
"B67F83AFF19D40C0930DCAEF894D052E",1,"0198ecee-4b2e-7635-8ead-95a00ce83136","0198c47e-224f-7cc7-87e7-f5ab0011d1ce","2025-08-27_12h09.45.741",NA,NA,636.8179,636.818,636.818,637.1168,NA,NA,NA,NA,NA,NA,NA,TRUE,2,1.6932,633.7877,636.8178,NA,NA,NA,NA,NA,25,35,0,37,37,34,1,2,38,"binary"
"B67F83AFF19D40C0930DCAEF894D052E",1,"0198ecee-4b2e-7635-8ead-95a00ce83136","0198c47e-224f-7cc7-87e7-f5ab0011d1ce","2025-08-27_12h09.45.741",NA,NA,640.1346,640.1346,640.1347,640.5388,NA,NA,NA,NA,NA,NA,NA,TRUE,1,1.3761,637.1177,640.1346,NA,NA,NA,NA,NA,90,30,0,38,38,73,1,2,39,"binary"
"B67F83AFF19D40C0930DCAEF894D052E",1,"0198ecee-4b2e-7635-8ead-95a00ce83136","0198c47e-224f-7cc7-87e7-f5ab0011d1ce","2025-08-27_12h09.45.741",NA,NA,643.4852,643.4853,643.4853,643.882,NA,NA,NA,NA,NA,NA,NA,TRUE,2,1.2942,640.5398,643.4852,NA,NA,NA,NA,NA,25,31,0,39,39,32,1,2,40,"binary"
"B67F83AFF19D40C0930DCAEF894D052E",1,"0198ecee-4b2e-7635-8ead-95a00ce83136","0198c47e-224f-7cc7-87e7-f5ab0011d1ce","2025-08-27_12h09.45.741",NA,NA,646.8938,646.8938,646.8938,647.1989,NA,NA,NA,NA,NA,NA,NA,TRUE,1,1.2777,643.8831,646.8937,NA,NA,NA,NA,NA,14,25,0,40,40,18,1,2,41,"binary"
"B67F83AFF19D40C0930DCAEF894D052E",1,"0198ecee-4b2e-7635-8ead-95a00ce83136","0198c47e-224f-7cc7-87e7-f5ab0011d1ce","2025-08-27_12h09.45.741",NA,NA,650.1926,650.1927,650.1927,650.4928,NA,NA,NA,NA,NA,NA,NA,TRUE,2,1.3597,647.2004,650.1925,NA,NA,NA,NA,NA,28,35,0,41,41,39,1,2,42,"binary"
"B67F83AFF19D40C0930DCAEF894D052E",1,"0198ecee-4b2e-7635-8ead-95a00ce83136","0198c47e-224f-7cc7-87e7-f5ab0011d1ce","2025-08-27_12h09.45.741",NA,NA,653.5195,653.5195,653.5195,653.9318,NA,NA,NA,NA,NA,NA,NA,TRUE,2,2.0072,650.4937,653.5194,NA,NA,NA,NA,NA,60,54,0,42,42,71,1,2,43,"binary"
"B67F83AFF19D40C0930DCAEF894D052E",1,"0198ecee-4b2e-7635-8ead-95a00ce83136","0198c47e-224f-7cc7-87e7-f5ab0011d1ce","2025-08-27_12h09.45.741",NA,NA,656.884,656.884,656.884,657.1933,NA,NA,NA,NA,NA,NA,NA,TRUE,2,1.5991,653.9328,656.8839,NA,NA,NA,NA,NA,90,54,0,43,43,77,1,2,44,"binary"
"B67F83AFF19D40C0930DCAEF894D052E",1,"0198ecee-4b2e-7635-8ead-95a00ce83136","0198c47e-224f-7cc7-87e7-f5ab0011d1ce","2025-08-27_12h09.45.741",NA,NA,660.2511,660.2511,660.2511,660.5517,NA,NA,NA,NA,NA,NA,NA,TRUE,2,2.1183,657.1946,660.251,NA,NA,NA,NA,NA,100,46,0,44,44,88,1,2,45,"binary"
"B67F83AFF19D40C0930DCAEF894D052E",1,"0198ecee-4b2e-7635-8ead-95a00ce83136","0198c47e-224f-7cc7-87e7-f5ab0011d1ce","2025-08-27_12h09.45.741",NA,NA,663.5953,663.5953,663.5953,663.9392,NA,NA,NA,NA,NA,NA,NA,TRUE,1,1.1865,660.5527,663.5951,NA,NA,NA,NA,NA,150,33,0,45,45,91,1,2,46,"binary"
"B67F83AFF19D40C0930DCAEF894D052E",1,"0198ecee-4b2e-7635-8ead-95a00ce83136","0198c47e-224f-7cc7-87e7-f5ab0011d1ce","2025-08-27_12h09.45.741",NA,NA,666.9622,666.9622,666.9622,667.2721,NA,NA,NA,NA,NA,NA,NA,TRUE,2,1.1837,663.9407,666.9622,NA,NA,NA,NA,NA,30,30,0,46,46,45,1,2,47,"binary"
"B67F83AFF19D40C0930DCAEF894D052E",1,"0198ecee-4b2e-7635-8ead-95a00ce83136","0198c47e-224f-7cc7-87e7-f5ab0011d1ce","2025-08-27_12h09.45.741",NA,NA,670.307,670.307,670.307,670.6405,NA,NA,NA,NA,NA,NA,NA,TRUE,1,2.301,667.2731,670.307,NA,NA,NA,NA,NA,28,26,0,47,47,36,1,2,48,"binary"
"B67F83AFF19D40C0930DCAEF894D052E",1,"0198ecee-4b2e-7635-8ead-95a00ce83136","0198c47e-224f-7cc7-87e7-f5ab0011d1ce","2025-08-27_12h09.45.741",NA,NA,673.603,673.6031,673.6031,673.9447,NA,NA,NA,NA,NA,NA,NA,TRUE,1,1.6178,670.6418,673.603,NA,NA,NA,NA,NA,150,35,0,48,48,92,1,2,49,"binary"
"B67F83AFF19D40C0930DCAEF894D052E",1,"0198ecee-4b2e-7635-8ead-95a00ce83136","0198c47e-224f-7cc7-87e7-f5ab0011d1ce","2025-08-27_12h09.45.741",NA,NA,676.9576,676.9576,676.9576,677.3626,NA,NA,NA,NA,NA,NA,NA,TRUE,1,1.1629,673.9459,676.9575,NA,NA,NA,NA,NA,200,26,0,49,49,102,1,2,50,"binary"
"B67F83AFF19D40C0930DCAEF894D052E",1,"0198ecee-4b2e-7635-8ead-95a00ce83136","0198c47e-224f-7cc7-87e7-f5ab0011d1ce","2025-08-27_12h09.45.741",NA,NA,680.359,680.3591,680.3591,680.6607,NA,NA,NA,NA,NA,NA,NA,TRUE,1,1.2633,677.3638,680.3589,NA,NA,NA,NA,NA,45,31,0,50,50,56,1,2,51,"binary"
"B67F83AFF19D40C0930DCAEF894D052E",1,"0198ecee-4b2e-7635-8ead-95a00ce83136","0198c47e-224f-7cc7-87e7-f5ab0011d1ce","2025-08-27_12h09.45.741",NA,NA,683.7206,683.7206,683.7206,684.0262,NA,NA,NA,NA,NA,NA,NA,TRUE,2,1.5868,680.6621,683.7205,NA,NA,NA,NA,NA,30,29,0,51,51,44,1,2,52,"binary"
"B67F83AFF19D40C0930DCAEF894D052E",1,"0198ecee-4b2e-7635-8ead-95a00ce83136","0198c47e-224f-7cc7-87e7-f5ab0011d1ce","2025-08-27_12h09.45.741",NA,NA,687.0129,687.0129,687.0129,687.4198,NA,NA,NA,NA,NA,NA,NA,TRUE,2,1.1546,684.0272,687.0128,NA,NA,NA,NA,NA,60,47,0,52,52,70,1,2,53,"binary"
"B67F83AFF19D40C0930DCAEF894D052E",1,"0198ecee-4b2e-7635-8ead-95a00ce83136","0198c47e-224f-7cc7-87e7-f5ab0011d1ce","2025-08-27_12h09.45.741",NA,NA,690.3835,690.3835,690.3835,690.6958,NA,NA,NA,NA,NA,NA,NA,TRUE,2,1.6297,687.421,690.3834,NA,NA,NA,NA,NA,50,54,0,53,53,65,1,2,54,"binary"
"B67F83AFF19D40C0930DCAEF894D052E",1,"0198ecee-4b2e-7635-8ead-95a00ce83136","0198c47e-224f-7cc7-87e7-f5ab0011d1ce","2025-08-27_12h09.45.741",NA,NA,693.7467,693.7467,693.7468,694.0602,NA,NA,NA,NA,NA,NA,NA,TRUE,2,1.5959,690.6968,693.7466,NA,NA,NA,NA,NA,14,28,0,54,54,20,1,2,55,"binary"
"B67F83AFF19D40C0930DCAEF894D052E",1,"0198ecee-4b2e-7635-8ead-95a00ce83136","0198c47e-224f-7cc7-87e7-f5ab0011d1ce","2025-08-27_12h09.45.741",NA,NA,697.085,697.0851,697.0851,697.3997,NA,NA,NA,NA,NA,NA,NA,TRUE,1,1.7824,694.0612,697.0849,NA,NA,NA,NA,NA,21,27,0,55,55,25,1,2,56,"binary"
"B67F83AFF19D40C0930DCAEF894D052E",1,"0198ecee-4b2e-7635-8ead-95a00ce83136","0198c47e-224f-7cc7-87e7-f5ab0011d1ce","2025-08-27_12h09.45.741",NA,NA,700.4088,700.4088,700.4088,700.8232,NA,NA,NA,NA,NA,NA,NA,TRUE,1,1.6938,697.4006,700.4087,NA,NA,NA,NA,NA,21,29,0,56,56,26,1,2,57,"binary"
"B67F83AFF19D40C0930DCAEF894D052E",1,"0198ecee-4b2e-7635-8ead-95a00ce83136","0198c47e-224f-7cc7-87e7-f5ab0011d1ce","2025-08-27_12h09.45.741",NA,NA,703.7739,703.7739,703.7739,704.1804,NA,NA,NA,NA,NA,NA,NA,TRUE,1,1.9222,700.8244,703.7739,NA,NA,NA,NA,NA,180,35,0,57,57,98,1,2,58,"binary"
"B67F83AFF19D40C0930DCAEF894D052E",1,"0198ecee-4b2e-7635-8ead-95a00ce83136","0198c47e-224f-7cc7-87e7-f5ab0011d1ce","2025-08-27_12h09.45.741",NA,NA,707.0924,707.0924,707.0924,707.5127,NA,NA,NA,NA,NA,NA,NA,TRUE,2,1.389,704.1816,707.0924,NA,NA,NA,NA,NA,12,35,0,58,58,17,1,2,59,"binary"
"B67F83AFF19D40C0930DCAEF894D052E",1,"0198ecee-4b2e-7635-8ead-95a00ce83136","0198c47e-224f-7cc7-87e7-f5ab0011d1ce","2025-08-27_12h09.45.741",NA,NA,710.5063,710.5063,710.5063,710.8171,NA,NA,NA,NA,NA,NA,NA,TRUE,2,1.0494,707.5137,710.5062,NA,NA,NA,NA,NA,28,39,0,59,59,40,1,2,60,"binary"
"B67F83AFF19D40C0930DCAEF894D052E",1,"0198ecee-4b2e-7635-8ead-95a00ce83136","0198c47e-224f-7cc7-87e7-f5ab0011d1ce","2025-08-27_12h09.45.741",NA,NA,713.819,713.8191,713.8191,714.2286,NA,NA,NA,NA,NA,NA,NA,TRUE,2,1.261,710.8183,713.819,NA,NA,NA,NA,NA,28,32,0,60,60,38,1,2,61,"binary"
"B67F83AFF19D40C0930DCAEF894D052E",1,"0198ecee-4b2e-7635-8ead-95a00ce83136","0198c47e-224f-7cc7-87e7-f5ab0011d1ce","2025-08-27_12h09.45.741",NA,NA,717.1669,717.1669,717.1669,717.579,NA,NA,NA,NA,NA,NA,NA,TRUE,2,1.3843,714.2299,717.1667,NA,NA,NA,NA,NA,95,47,0,61,61,82,1,2,62,"binary"
"B67F83AFF19D40C0930DCAEF894D052E",1,"0198ecee-4b2e-7635-8ead-95a00ce83136","0198c47e-224f-7cc7-87e7-f5ab0011d1ce","2025-08-27_12h09.45.741",NA,NA,720.5911,720.5911,720.5911,720.8913,NA,NA,NA,NA,NA,NA,NA,TRUE,1,0.846,717.58,720.591,NA,NA,NA,NA,NA,180,27,0,62,62,96,1,2,63,"binary"
"B67F83AFF19D40C0930DCAEF894D052E",1,"0198ecee-4b2e-7635-8ead-95a00ce83136","0198c47e-224f-7cc7-87e7-f5ab0011d1ce","2025-08-27_12h09.45.741",NA,NA,723.9288,723.9288,723.9288,724.238,NA,NA,NA,NA,NA,NA,NA,TRUE,1,1.6976,720.8923,723.9288,NA,NA,NA,NA,NA,45,29,0,63,63,55,1,2,64,"binary"
"B67F83AFF19D40C0930DCAEF894D052E",1,"0198ecee-4b2e-7635-8ead-95a00ce83136","0198c47e-224f-7cc7-87e7-f5ab0011d1ce","2025-08-27_12h09.45.741",NA,NA,727.2163,727.2163,727.2163,727.6382,NA,NA,NA,NA,NA,NA,NA,TRUE,2,1.3929,724.239,727.2161,NA,NA,NA,NA,NA,90,40,0,64,64,75,1,2,65,"binary"
"B67F83AFF19D40C0930DCAEF894D052E",1,"0198ecee-4b2e-7635-8ead-95a00ce83136","0198c47e-224f-7cc7-87e7-f5ab0011d1ce","2025-08-27_12h09.45.741",NA,NA,730.5898,730.5898,730.5898,730.9061,NA,NA,NA,NA,NA,NA,NA,TRUE,1,1.7923,727.6393,730.5897,NA,NA,NA,NA,NA,100,38,0,65,65,86,1,2,66,"binary"
"B67F83AFF19D40C0930DCAEF894D052E",1,"0198ecee-4b2e-7635-8ead-95a00ce83136","0198c47e-224f-7cc7-87e7-f5ab0011d1ce","2025-08-27_12h09.45.741",NA,NA,733.9119,733.9119,733.9119,734.3388,NA,NA,NA,NA,NA,NA,NA,TRUE,2,1.0866,730.9071,733.9118,NA,NA,NA,NA,NA,14,32,0,66,66,21,1,2,67,"binary"
"B67F83AFF19D40C0930DCAEF894D052E",1,"0198ecee-4b2e-7635-8ead-95a00ce83136","0198c47e-224f-7cc7-87e7-f5ab0011d1ce","2025-08-27_12h09.45.741",NA,NA,737.2965,737.2965,737.2965,737.6299,NA,NA,NA,NA,NA,NA,NA,TRUE,2,1.8706,734.3399,737.2964,NA,NA,NA,NA,NA,21,30,0,67,67,27,1,2,68,"binary"
"B67F83AFF19D40C0930DCAEF894D052E",1,"0198ecee-4b2e-7635-8ead-95a00ce83136","0198c47e-224f-7cc7-87e7-f5ab0011d1ce","2025-08-27_12h09.45.741",NA,NA,740.6725,740.6725,740.6725,740.9809,NA,NA,NA,NA,NA,NA,NA,TRUE,1,1.0186,737.6311,740.6723,NA,NA,NA,NA,NA,7,26,0,68,68,1,1,2,69,"binary"
"B67F83AFF19D40C0930DCAEF894D052E",1,"0198ecee-4b2e-7635-8ead-95a00ce83136","0198c47e-224f-7cc7-87e7-f5ab0011d1ce","2025-08-27_12h09.45.741",NA,NA,743.9509,743.9509,743.9509,744.3544,NA,NA,NA,NA,NA,NA,NA,TRUE,2,1.7111,740.982,743.9508,NA,NA,NA,NA,NA,95,40,0,69,69,81,1,2,70,"binary"
"B67F83AFF19D40C0930DCAEF894D052E",1,"0198ecee-4b2e-7635-8ead-95a00ce83136","0198c47e-224f-7cc7-87e7-f5ab0011d1ce","2025-08-27_12h09.45.741",NA,NA,747.3165,747.3165,747.3165,747.7191,NA,NA,NA,NA,NA,NA,NA,TRUE,2,0.9573,744.3553,747.3164,NA,NA,NA,NA,NA,7,35,0,70,70,5,1,2,71,"binary"
"B67F83AFF19D40C0930DCAEF894D052E",1,"0198ecee-4b2e-7635-8ead-95a00ce83136","0198c47e-224f-7cc7-87e7-f5ab0011d1ce","2025-08-27_12h09.45.741",NA,NA,750.6939,750.6939,750.6939,751.0959,NA,NA,NA,NA,NA,NA,NA,TRUE,1,1.1212,747.72,750.6938,NA,NA,NA,NA,NA,200,54,0,71,71,107,1,2,72,"binary"
"B67F83AFF19D40C0930DCAEF894D052E",1,"0198ecee-4b2e-7635-8ead-95a00ce83136","0198c47e-224f-7cc7-87e7-f5ab0011d1ce","2025-08-27_12h09.45.741",NA,NA,754.0196,754.0196,754.0196,754.414,NA,NA,NA,NA,NA,NA,NA,TRUE,1,1.2665,751.0969,754.0196,NA,NA,NA,NA,NA,60,35,0,72,72,68,1,2,73,"binary"
"B67F83AFF19D40C0930DCAEF894D052E",1,"0198ecee-4b2e-7635-8ead-95a00ce83136","0198c47e-224f-7cc7-87e7-f5ab0011d1ce","2025-08-27_12h09.45.741",NA,NA,757.4342,757.4342,757.4342,757.7279,NA,NA,NA,NA,NA,NA,NA,TRUE,2,1.2744,754.4153,757.4341,NA,NA,NA,NA,NA,12,33,0,73,73,16,1,2,74,"binary"
"B67F83AFF19D40C0930DCAEF894D052E",1,"0198ecee-4b2e-7635-8ead-95a00ce83136","0198c47e-224f-7cc7-87e7-f5ab0011d1ce","2025-08-27_12h09.45.741",NA,NA,760.6902,760.6902,760.6902,761.0943,NA,NA,NA,NA,NA,NA,NA,TRUE,1,1.6172,757.7289,760.6902,NA,NA,NA,NA,NA,50,27,0,74,74,60,1,2,75,"binary"
"B67F83AFF19D40C0930DCAEF894D052E",1,"0198ecee-4b2e-7635-8ead-95a00ce83136","0198c47e-224f-7cc7-87e7-f5ab0011d1ce","2025-08-27_12h09.45.741",NA,NA,764.1264,764.1265,764.1265,764.4273,NA,NA,NA,NA,NA,NA,NA,TRUE,1,1.9025,761.0958,764.1264,NA,NA,NA,NA,NA,30,27,0,75,75,43,1,2,76,"binary"
"B67F83AFF19D40C0930DCAEF894D052E",1,"0198ecee-4b2e-7635-8ead-95a00ce83136","0198c47e-224f-7cc7-87e7-f5ab0011d1ce","2025-08-27_12h09.45.741",NA,NA,767.4621,767.4621,767.4621,767.7693,NA,NA,NA,NA,NA,NA,NA,TRUE,1,1.388,764.4283,767.462,NA,NA,NA,NA,NA,28,28,0,76,76,37,1,2,77,"binary"
"B67F83AFF19D40C0930DCAEF894D052E",1,"0198ecee-4b2e-7635-8ead-95a00ce83136","0198c47e-224f-7cc7-87e7-f5ab0011d1ce","2025-08-27_12h09.45.741",NA,NA,770.7988,770.7989,770.7989,771.1025,NA,NA,NA,NA,NA,NA,NA,TRUE,1,2.1123,767.7702,770.7988,NA,NA,NA,NA,NA,95,33,0,77,77,79,1,2,78,"binary"
"B67F83AFF19D40C0930DCAEF894D052E",1,"0198ecee-4b2e-7635-8ead-95a00ce83136","0198c47e-224f-7cc7-87e7-f5ab0011d1ce","2025-08-27_12h09.45.741",NA,NA,774.124,774.124,774.1241,774.528,NA,NA,NA,NA,NA,NA,NA,TRUE,1,1.5912,771.1039,774.124,NA,NA,NA,NA,NA,45,26,0,78,78,54,1,2,79,"binary"
"B67F83AFF19D40C0930DCAEF894D052E",1,"0198ecee-4b2e-7635-8ead-95a00ce83136","0198c47e-224f-7cc7-87e7-f5ab0011d1ce","2025-08-27_12h09.45.741",NA,NA,777.5119,777.5119,777.5119,777.8178,NA,NA,NA,NA,NA,NA,NA,TRUE,1,1.2812,774.529,777.5119,NA,NA,NA,NA,NA,90,26,0,79,79,72,1,2,80,"binary"
"B67F83AFF19D40C0930DCAEF894D052E",1,"0198ecee-4b2e-7635-8ead-95a00ce83136","0198c47e-224f-7cc7-87e7-f5ab0011d1ce","2025-08-27_12h09.45.741",NA,NA,780.8476,780.8476,780.8476,781.162,NA,NA,NA,NA,NA,NA,NA,TRUE,2,1.481,777.8191,780.8475,NA,NA,NA,NA,NA,25,33,0,80,80,33,1,2,81,"binary"
"B67F83AFF19D40C0930DCAEF894D052E",1,"0198ecee-4b2e-7635-8ead-95a00ce83136","0198c47e-224f-7cc7-87e7-f5ab0011d1ce","2025-08-27_12h09.45.741",NA,NA,784.1585,784.1585,784.1585,784.5605,NA,NA,NA,NA,NA,NA,NA,TRUE,1,1.3693,781.163,784.1585,NA,NA,NA,NA,NA,150,47,0,81,81,94,1,2,82,"binary"
"B67F83AFF19D40C0930DCAEF894D052E",1,"0198ecee-4b2e-7635-8ead-95a00ce83136","0198c47e-224f-7cc7-87e7-f5ab0011d1ce","2025-08-27_12h09.45.741",NA,NA,787.5826,787.5826,787.5827,787.8912,NA,NA,NA,NA,NA,NA,NA,TRUE,2,1.2675,784.5616,787.5826,NA,NA,NA,NA,NA,40,54,0,82,82,53,1,2,83,"binary"
"B67F83AFF19D40C0930DCAEF894D052E",1,"0198ecee-4b2e-7635-8ead-95a00ce83136","0198c47e-224f-7cc7-87e7-f5ab0011d1ce","2025-08-27_12h09.45.741",NA,NA,790.8387,790.8387,790.8387,791.2421,NA,NA,NA,NA,NA,NA,NA,TRUE,2,1.3671,787.8922,790.8385,NA,NA,NA,NA,NA,12,31,0,83,83,15,1,2,84,"binary"
"B67F83AFF19D40C0930DCAEF894D052E",1,"0198ecee-4b2e-7635-8ead-95a00ce83136","0198c47e-224f-7cc7-87e7-f5ab0011d1ce","2025-08-27_12h09.45.741",NA,NA,794.2772,794.2772,794.2772,794.5779,NA,NA,NA,NA,NA,NA,NA,TRUE,2,1.0747,791.2435,794.2772,NA,NA,NA,NA,NA,12,26,0,84,84,13,1,2,85,"binary"
"B67F83AFF19D40C0930DCAEF894D052E",1,"0198ecee-4b2e-7635-8ead-95a00ce83136","0198c47e-224f-7cc7-87e7-f5ab0011d1ce","2025-08-27_12h09.45.741",NA,NA,797.5898,797.5898,797.5899,797.9059,NA,NA,NA,NA,NA,NA,NA,TRUE,2,1.4743,794.5792,797.5897,NA,NA,NA,NA,NA,10,32,0,85,85,11,1,2,86,"binary"
"B67F83AFF19D40C0930DCAEF894D052E",1,"0198ecee-4b2e-7635-8ead-95a00ce83136","0198c47e-224f-7cc7-87e7-f5ab0011d1ce","2025-08-27_12h09.45.741",NA,NA,800.9196,800.9196,800.9196,801.3204,NA,NA,NA,NA,NA,NA,NA,TRUE,1,1.2876,797.9068,800.9195,NA,NA,NA,NA,NA,12,25,0,86,86,12,1,2,87,"binary"
"B67F83AFF19D40C0930DCAEF894D052E",1,"0198ecee-4b2e-7635-8ead-95a00ce83136","0198c47e-224f-7cc7-87e7-f5ab0011d1ce","2025-08-27_12h09.45.741",NA,NA,804.2575,804.2576,804.2576,804.6596,NA,NA,NA,NA,NA,NA,NA,TRUE,2,2.1074,801.3214,804.2574,NA,NA,NA,NA,NA,10,30,0,87,87,10,1,2,88,"binary"
"B67F83AFF19D40C0930DCAEF894D052E",1,"0198ecee-4b2e-7635-8ead-95a00ce83136","0198c47e-224f-7cc7-87e7-f5ab0011d1ce","2025-08-27_12h09.45.741",NA,NA,807.5923,807.5923,807.5923,808.0059,NA,NA,NA,NA,NA,NA,NA,TRUE,2,2.0031,804.6606,807.5923,NA,NA,NA,NA,NA,7,28,0,88,88,2,1,2,89,"binary"
"B67F83AFF19D40C0930DCAEF894D052E",1,"0198ecee-4b2e-7635-8ead-95a00ce83136","0198c47e-224f-7cc7-87e7-f5ab0011d1ce","2025-08-27_12h09.45.741",NA,NA,810.9727,810.9728,810.9728,811.3832,NA,NA,NA,NA,NA,NA,NA,TRUE,2,1.8303,808.0069,810.9727,NA,NA,NA,NA,NA,21,32,0,89,89,28,1,2,90,"binary"
"B67F83AFF19D40C0930DCAEF894D052E",1,"0198ecee-4b2e-7635-8ead-95a00ce83136","0198c47e-224f-7cc7-87e7-f5ab0011d1ce","2025-08-27_12h09.45.741",NA,NA,814.3172,814.3172,814.3172,814.7158,NA,NA,NA,NA,NA,NA,NA,TRUE,2,1.605,811.3845,814.317,NA,NA,NA,NA,NA,45,40,0,90,90,58,1,2,91,"binary"
"B67F83AFF19D40C0930DCAEF894D052E",1,"0198ecee-4b2e-7635-8ead-95a00ce83136","0198c47e-224f-7cc7-87e7-f5ab0011d1ce","2025-08-27_12h09.45.741",NA,NA,817.707,817.707,817.707,818.0135,NA,NA,NA,NA,NA,NA,NA,TRUE,1,1.1691,814.7172,817.7069,NA,NA,NA,NA,NA,200,28,0,91,91,103,1,2,92,"binary"
"B67F83AFF19D40C0930DCAEF894D052E",1,"0198ecee-4b2e-7635-8ead-95a00ce83136","0198c47e-224f-7cc7-87e7-f5ab0011d1ce","2025-08-27_12h09.45.741",NA,NA,821.0125,821.0125,821.0125,821.4372,NA,NA,NA,NA,NA,NA,NA,TRUE,1,1.3164,818.0145,821.0124,NA,NA,NA,NA,NA,200,47,0,92,92,106,1,2,93,"binary"
"B67F83AFF19D40C0930DCAEF894D052E",1,"0198ecee-4b2e-7635-8ead-95a00ce83136","0198c47e-224f-7cc7-87e7-f5ab0011d1ce","2025-08-27_12h09.45.741",NA,NA,824.3849,824.385,824.385,824.8023,NA,NA,NA,NA,NA,NA,NA,TRUE,2,1.3391,821.4382,824.3849,NA,NA,NA,NA,NA,40,40,0,93,93,51,1,2,94,"binary"
"B67F83AFF19D40C0930DCAEF894D052E",1,"0198ecee-4b2e-7635-8ead-95a00ce83136","0198c47e-224f-7cc7-87e7-f5ab0011d1ce","2025-08-27_12h09.45.741",NA,NA,827.749,827.749,827.749,828.0605,NA,NA,NA,NA,NA,NA,NA,TRUE,2,1.2985,824.8033,827.7489,NA,NA,NA,NA,NA,14,35,0,94,94,22,1,2,95,"binary"
"B67F83AFF19D40C0930DCAEF894D052E",1,"0198ecee-4b2e-7635-8ead-95a00ce83136","0198c47e-224f-7cc7-87e7-f5ab0011d1ce","2025-08-27_12h09.45.741",NA,NA,831.0658,831.0658,831.0658,831.4746,NA,NA,NA,NA,NA,NA,NA,TRUE,1,1.1549,828.0615,831.0657,NA,NA,NA,NA,NA,25,27,0,95,95,30,1,2,96,"binary"
"B67F83AFF19D40C0930DCAEF894D052E",1,"0198ecee-4b2e-7635-8ead-95a00ce83136","0198c47e-224f-7cc7-87e7-f5ab0011d1ce","2025-08-27_12h09.45.741",NA,NA,834.4711,834.4712,834.4712,834.7801,NA,NA,NA,NA,NA,NA,NA,TRUE,1,1.1689,831.4756,834.4711,NA,NA,NA,NA,NA,10,26,0,96,96,7,1,2,97,"binary"
"B67F83AFF19D40C0930DCAEF894D052E",1,"0198ecee-4b2e-7635-8ead-95a00ce83136","0198c47e-224f-7cc7-87e7-f5ab0011d1ce","2025-08-27_12h09.45.741",NA,NA,837.7294,837.7294,837.7294,838.1409,NA,NA,NA,NA,NA,NA,NA,TRUE,1,2.1237,834.7815,837.7294,NA,NA,NA,NA,NA,100,39,0,97,97,87,1,2,98,"binary"
"B67F83AFF19D40C0930DCAEF894D052E",1,"0198ecee-4b2e-7635-8ead-95a00ce83136","0198c47e-224f-7cc7-87e7-f5ab0011d1ce","2025-08-27_12h09.45.741",NA,NA,841.1054,841.1054,841.1054,841.5152,NA,NA,NA,NA,NA,NA,NA,TRUE,2,1.7986,838.1423,841.1054,NA,NA,NA,NA,NA,45,46,0,98,98,59,1,2,99,"binary"
"B67F83AFF19D40C0930DCAEF894D052E",1,"0198ecee-4b2e-7635-8ead-95a00ce83136","0198c47e-224f-7cc7-87e7-f5ab0011d1ce","2025-08-27_12h09.45.741",NA,NA,844.5388,844.5389,844.5389,844.8325,NA,NA,NA,NA,NA,NA,NA,TRUE,1,1.6866,841.5161,844.5388,NA,NA,NA,NA,NA,60,29,0,99,99,66,1,2,100,"binary"
"B67F83AFF19D40C0930DCAEF894D052E",1,"0198ecee-4b2e-7635-8ead-95a00ce83136","0198c47e-224f-7cc7-87e7-f5ab0011d1ce","2025-08-27_12h09.45.741",NA,NA,847.8765,847.8767,847.8767,848.1705,NA,NA,NA,NA,NA,NA,NA,TRUE,1,1.9573,844.8335,847.8764,NA,NA,NA,NA,NA,14,26,0,100,100,19,1,2,101,"binary"
"B67F83AFF19D40C0930DCAEF894D052E",1,"0198ecee-4b2e-7635-8ead-95a00ce83136","0198c47e-224f-7cc7-87e7-f5ab0011d1ce","2025-08-27_12h09.45.741",NA,NA,851.1989,851.199,851.199,851.5006,NA,NA,NA,NA,NA,NA,NA,TRUE,1,1.5698,848.1724,851.1988,NA,NA,NA,NA,NA,7,25,0,101,101,0,1,2,102,"binary"
"B67F83AFF19D40C0930DCAEF894D052E",1,"0198ecee-4b2e-7635-8ead-95a00ce83136","0198c47e-224f-7cc7-87e7-f5ab0011d1ce","2025-08-27_12h09.45.741",NA,NA,854.5481,854.5481,854.5481,854.9538,NA,NA,NA,NA,NA,NA,NA,TRUE,1,2.3143,851.5053,854.548,NA,NA,NA,NA,NA,40,27,0,102,102,48,1,2,103,"binary"
"B67F83AFF19D40C0930DCAEF894D052E",1,"0198ecee-4b2e-7635-8ead-95a00ce83136","0198c47e-224f-7cc7-87e7-f5ab0011d1ce","2025-08-27_12h09.45.741",NA,NA,857.8982,857.8982,857.8982,858.1976,NA,NA,NA,NA,NA,NA,NA,TRUE,1,2.0246,854.9548,857.8981,NA,NA,NA,NA,NA,90,33,0,103,103,74,1,2,104,"binary"
"B67F83AFF19D40C0930DCAEF894D052E",1,"0198ecee-4b2e-7635-8ead-95a00ce83136","0198c47e-224f-7cc7-87e7-f5ab0011d1ce","2025-08-27_12h09.45.741",NA,NA,861.2377,861.2377,861.2378,861.6348,NA,NA,NA,NA,NA,NA,NA,TRUE,2,1.781,858.1985,861.2376,NA,NA,NA,NA,NA,30,32,0,104,104,46,1,2,105,"binary"
"B67F83AFF19D40C0930DCAEF894D052E",1,"0198ecee-4b2e-7635-8ead-95a00ce83136","0198c47e-224f-7cc7-87e7-f5ab0011d1ce","2025-08-27_12h09.45.741",NA,NA,864.5949,864.5949,864.5949,864.8918,NA,NA,NA,NA,NA,NA,NA,TRUE,1,2.1319,861.6361,864.5948,NA,NA,NA,NA,NA,150,54,0,105,105,95,1,2,106,"binary"
"B67F83AFF19D40C0930DCAEF894D052E",1,"0198ecee-4b2e-7635-8ead-95a00ce83136","0198c47e-224f-7cc7-87e7-f5ab0011d1ce","2025-08-27_12h09.45.741",NA,NA,867.9831,867.9831,867.9831,868.3059,NA,NA,NA,NA,NA,NA,NA,TRUE,1,1.9332,864.8928,867.983,NA,NA,NA,NA,NA,10,25,0,106,106,6,1,2,107,"binary"
"B67F83AFF19D40C0930DCAEF894D052E",1,"0198ecee-4b2e-7635-8ead-95a00ce83136","0198c47e-224f-7cc7-87e7-f5ab0011d1ce","2025-08-27_12h09.45.741",NA,NA,871.2777,871.2778,871.2778,871.6118,NA,NA,NA,NA,NA,NA,NA,TRUE,1,2.1204,868.3073,871.2777,NA,NA,NA,NA,NA,60,33,0,107,107,67,1,2,108,"binary"
