"participant","session","assignmentId","projectId","date","practiceTrial.started","practiceTrial.stopped","tooLate.started","tooLate.stopped","blank.started","blank.stopped","trials_pract.thisRepN","trials_pract.thisTrialN","trials_pract.thisN","trials_pract.thisIndex","trials_pract.ran","delay_pract","amount_pract","responseMade","key","rt","trial.started","trial.stopped","trials.thisRepN","trials.thisTrialN","trials.thisN","trials.thisIndex","trials.ran","delay","amount","trials_2.thisRepN","trials_2.thisTrialN","trials_2.thisN","trials_2.thisIndex","trials_2.ran","block","trial","taskType"
"B82F4D1B45E841D4BB30D214369C533E",1,"0198f77c-9010-73da-936a-6591b0cfa55e","0198f767-55c9-7875-8d21-563b3c0b86ed","2025-08-29_16h20.20.932",42.1036,45.0938,45.0941,45.3423,45.3424,45.4453,0,0,0,3,1,3,27,FALSE,NA,NA,NA,NA,NA,NA,NA,NA,NA,NA,NA,NA,NA,NA,NA,NA,0,1,"binary"
"B82F4D1B45E841D4BB30D214369C533E",1,"0198f77c-9010-73da-936a-6591b0cfa55e","0198f767-55c9-7875-8d21-563b3c0b86ed","2025-08-29_16h20.20.932",45.4461,48.4452,48.4453,48.4453,48.4453,48.7907,0,1,1,0,1,7,30,TRUE,2,1.4531,NA,NA,NA,NA,NA,NA,NA,NA,NA,NA,NA,NA,NA,NA,0,2,"binary"
"B82F4D1B45E841D4BB30D214369C533E",1,"0198f77c-9010-73da-936a-6591b0cfa55e","0198f767-55c9-7875-8d21-563b3c0b86ed","2025-08-29_16h20.20.932",48.7915,51.7907,51.7908,51.7908,51.7908,52.1421,0,2,2,2,1,14,45,TRUE,2,1.4062,NA,NA,NA,NA,NA,NA,NA,NA,NA,NA,NA,NA,NA,NA,0,3,"binary"
"B82F4D1B45E841D4BB30D214369C533E",1,"0198f77c-9010-73da-936a-6591b0cfa55e","0198f767-55c9-7875-8d21-563b3c0b86ed","2025-08-29_16h20.20.932",52.1427,55.1422,55.1422,55.1422,55.1422,55.4936,0,3,3,1,1,100,50,TRUE,2,1.8116,NA,NA,NA,NA,NA,NA,NA,NA,NA,NA,NA,NA,NA,NA,0,4,"binary"
"B82F4D1B45E841D4BB30D214369C533E",1,"0198f77c-9010-73da-936a-6591b0cfa55e","0198f767-55c9-7875-8d21-563b3c0b86ed","2025-08-29_16h20.20.932",55.4942,58.4937,58.4937,58.4937,58.4938,58.8451,0,4,4,4,1,30,40,TRUE,2,1.4073,NA,NA,NA,NA,NA,NA,NA,NA,NA,NA,NA,NA,NA,NA,0,5,"binary"
"B82F4D1B45E841D4BB30D214369C533E",1,"0198f77c-9010-73da-936a-6591b0cfa55e","0198f767-55c9-7875-8d21-563b3c0b86ed","2025-08-29_16h20.20.932",NA,NA,86.4815,86.4816,86.4816,86.8329,NA,NA,NA,NA,NA,NA,NA,TRUE,2,1.4361,83.4898,86.4814,0,0,0,58,1,45,40,NA,NA,NA,NA,NA,1,1,"binary"
"B82F4D1B45E841D4BB30D214369C533E",1,"0198f77c-9010-73da-936a-6591b0cfa55e","0198f767-55c9-7875-8d21-563b3c0b86ed","2025-08-29_16h20.20.932",NA,NA,89.8328,89.8328,89.8328,90.1782,NA,NA,NA,NA,NA,NA,NA,TRUE,1,2.0456,86.8336,89.8328,0,1,1,98,1,180,35,NA,NA,NA,NA,NA,1,2,"binary"
"B82F4D1B45E841D4BB30D214369C533E",1,"0198f77c-9010-73da-936a-6591b0cfa55e","0198f767-55c9-7875-8d21-563b3c0b86ed","2025-08-29_16h20.20.932",NA,NA,93.1782,93.1783,93.1783,93.5298,NA,NA,NA,NA,NA,NA,NA,TRUE,1,1.5189,90.1789,93.1782,0,2,2,47,1,30,38,NA,NA,NA,NA,NA,1,3,"binary"
"B82F4D1B45E841D4BB30D214369C533E",1,"0198f77c-9010-73da-936a-6591b0cfa55e","0198f767-55c9-7875-8d21-563b3c0b86ed","2025-08-29_16h20.20.932",NA,NA,96.5298,96.5298,96.5298,96.8813,NA,NA,NA,NA,NA,NA,NA,TRUE,2,1.3364,93.5303,96.5297,0,3,3,4,1,7,32,NA,NA,NA,NA,NA,1,4,"binary"
"B82F4D1B45E841D4BB30D214369C533E",1,"0198f77c-9010-73da-936a-6591b0cfa55e","0198f767-55c9-7875-8d21-563b3c0b86ed","2025-08-29_16h20.20.932",NA,NA,99.8813,99.8813,99.8813,100.2328,NA,NA,NA,NA,NA,NA,NA,TRUE,1,1.135,96.882,99.8813,0,4,4,13,1,12,26,NA,NA,NA,NA,NA,1,5,"binary"
"B82F4D1B45E841D4BB30D214369C533E",1,"0198f77c-9010-73da-936a-6591b0cfa55e","0198f767-55c9-7875-8d21-563b3c0b86ed","2025-08-29_16h20.20.932",NA,NA,103.2327,103.2327,103.2327,103.5782,NA,NA,NA,NA,NA,NA,NA,TRUE,1,1.3153,100.2335,103.2327,0,5,5,73,1,90,30,NA,NA,NA,NA,NA,1,6,"binary"
"B82F4D1B45E841D4BB30D214369C533E",1,"0198f77c-9010-73da-936a-6591b0cfa55e","0198f767-55c9-7875-8d21-563b3c0b86ed","2025-08-29_16h20.20.932",NA,NA,106.5782,106.5782,106.5782,106.9296,NA,NA,NA,NA,NA,NA,NA,TRUE,1,1.2094,103.5786,106.5781,0,6,6,42,1,30,26,NA,NA,NA,NA,NA,1,7,"binary"
"B82F4D1B45E841D4BB30D214369C533E",1,"0198f77c-9010-73da-936a-6591b0cfa55e","0198f767-55c9-7875-8d21-563b3c0b86ed","2025-08-29_16h20.20.932",NA,NA,109.9297,109.9297,109.9297,110.2811,NA,NA,NA,NA,NA,NA,NA,TRUE,1,0.9362,106.9301,109.9296,0,7,7,84,1,100,26,NA,NA,NA,NA,NA,1,8,"binary"
"B82F4D1B45E841D4BB30D214369C533E",1,"0198f77c-9010-73da-936a-6591b0cfa55e","0198f767-55c9-7875-8d21-563b3c0b86ed","2025-08-29_16h20.20.932",NA,NA,113.2811,113.2811,113.2811,113.6326,NA,NA,NA,NA,NA,NA,NA,TRUE,1,1.2449,110.2817,113.2811,0,8,8,33,1,25,33,NA,NA,NA,NA,NA,1,9,"binary"
"B82F4D1B45E841D4BB30D214369C533E",1,"0198f77c-9010-73da-936a-6591b0cfa55e","0198f767-55c9-7875-8d21-563b3c0b86ed","2025-08-29_16h20.20.932",NA,NA,116.6327,116.6327,116.6327,116.978,NA,NA,NA,NA,NA,NA,NA,TRUE,1,0.9474,113.633,116.6326,0,9,9,7,1,10,26,NA,NA,NA,NA,NA,1,10,"binary"
"B82F4D1B45E841D4BB30D214369C533E",1,"0198f77c-9010-73da-936a-6591b0cfa55e","0198f767-55c9-7875-8d21-563b3c0b86ed","2025-08-29_16h20.20.932",NA,NA,119.978,119.9781,119.9781,120.3295,NA,NA,NA,NA,NA,NA,NA,TRUE,1,1.3361,116.9785,119.978,0,10,10,57,1,45,35,NA,NA,NA,NA,NA,1,11,"binary"
"B82F4D1B45E841D4BB30D214369C533E",1,"0198f77c-9010-73da-936a-6591b0cfa55e","0198f767-55c9-7875-8d21-563b3c0b86ed","2025-08-29_16h20.20.932",NA,NA,123.3295,123.3295,123.3295,123.681,NA,NA,NA,NA,NA,NA,NA,TRUE,1,1.1199,120.3301,123.3295,0,11,11,20,1,14,28,NA,NA,NA,NA,NA,1,12,"binary"
"B82F4D1B45E841D4BB30D214369C533E",1,"0198f77c-9010-73da-936a-6591b0cfa55e","0198f767-55c9-7875-8d21-563b3c0b86ed","2025-08-29_16h20.20.932",NA,NA,126.681,126.681,126.681,127.0325,NA,NA,NA,NA,NA,NA,NA,TRUE,1,1.0117,123.6814,126.681,0,12,12,70,1,60,47,NA,NA,NA,NA,NA,1,13,"binary"
"B82F4D1B45E841D4BB30D214369C533E",1,"0198f77c-9010-73da-936a-6591b0cfa55e","0198f767-55c9-7875-8d21-563b3c0b86ed","2025-08-29_16h20.20.932",NA,NA,130.0326,130.0326,130.0326,130.3779,NA,NA,NA,NA,NA,NA,NA,TRUE,1,0.6601,127.0331,130.0326,0,13,13,6,1,10,25,NA,NA,NA,NA,NA,1,14,"binary"
"B82F4D1B45E841D4BB30D214369C533E",1,"0198f77c-9010-73da-936a-6591b0cfa55e","0198f767-55c9-7875-8d21-563b3c0b86ed","2025-08-29_16h20.20.932",NA,NA,133.378,133.378,133.378,133.7294,NA,NA,NA,NA,NA,NA,NA,TRUE,1,0.691,130.3785,133.3779,0,14,14,80,1,95,35,NA,NA,NA,NA,NA,1,15,"binary"
"B82F4D1B45E841D4BB30D214369C533E",1,"0198f77c-9010-73da-936a-6591b0cfa55e","0198f767-55c9-7875-8d21-563b3c0b86ed","2025-08-29_16h20.20.932",NA,NA,136.7295,136.7295,136.7295,137.0809,NA,NA,NA,NA,NA,NA,NA,TRUE,1,0.9717,133.7299,136.7294,0,15,15,59,1,45,46,NA,NA,NA,NA,NA,1,16,"binary"
"B82F4D1B45E841D4BB30D214369C533E",1,"0198f77c-9010-73da-936a-6591b0cfa55e","0198f767-55c9-7875-8d21-563b3c0b86ed","2025-08-29_16h20.20.932",NA,NA,140.081,140.081,140.081,140.4325,NA,NA,NA,NA,NA,NA,NA,TRUE,1,0.9102,137.0814,140.0809,0,16,16,90,1,150,31,NA,NA,NA,NA,NA,1,17,"binary"
"B82F4D1B45E841D4BB30D214369C533E",1,"0198f77c-9010-73da-936a-6591b0cfa55e","0198f767-55c9-7875-8d21-563b3c0b86ed","2025-08-29_16h20.20.932",NA,NA,143.4324,143.4325,143.4325,143.7779,NA,NA,NA,NA,NA,NA,NA,TRUE,1,2.3684,140.433,143.4324,0,17,17,65,1,50,54,NA,NA,NA,NA,NA,1,18,"binary"
"B82F4D1B45E841D4BB30D214369C533E",1,"0198f77c-9010-73da-936a-6591b0cfa55e","0198f767-55c9-7875-8d21-563b3c0b86ed","2025-08-29_16h20.20.932",NA,NA,146.7779,146.7779,146.7779,147.1293,NA,NA,NA,NA,NA,NA,NA,TRUE,1,1.0706,143.7783,146.7779,0,18,18,45,1,30,30,NA,NA,NA,NA,NA,1,19,"binary"
"B82F4D1B45E841D4BB30D214369C533E",1,"0198f77c-9010-73da-936a-6591b0cfa55e","0198f767-55c9-7875-8d21-563b3c0b86ed","2025-08-29_16h20.20.932",NA,NA,150.1293,150.1293,150.1294,150.4809,NA,NA,NA,NA,NA,NA,NA,TRUE,1,1.3072,147.1299,150.1293,0,19,19,71,1,60,54,NA,NA,NA,NA,NA,1,20,"binary"
"B82F4D1B45E841D4BB30D214369C533E",1,"0198f77c-9010-73da-936a-6591b0cfa55e","0198f767-55c9-7875-8d21-563b3c0b86ed","2025-08-29_16h20.20.932",NA,NA,153.4809,153.4809,153.4809,153.8323,NA,NA,NA,NA,NA,NA,NA,TRUE,1,1.7697,150.4814,153.4808,0,20,20,38,1,28,32,NA,NA,NA,NA,NA,1,21,"binary"
"B82F4D1B45E841D4BB30D214369C533E",1,"0198f77c-9010-73da-936a-6591b0cfa55e","0198f767-55c9-7875-8d21-563b3c0b86ed","2025-08-29_16h20.20.932",NA,NA,156.8324,156.8324,156.8324,157.1777,NA,NA,NA,NA,NA,NA,NA,TRUE,2,0.9995,153.8327,156.8324,0,21,21,10,1,10,30,NA,NA,NA,NA,NA,1,22,"binary"
"B82F4D1B45E841D4BB30D214369C533E",1,"0198f77c-9010-73da-936a-6591b0cfa55e","0198f767-55c9-7875-8d21-563b3c0b86ed","2025-08-29_16h20.20.932",NA,NA,160.1778,160.1778,160.1778,160.5292,NA,NA,NA,NA,NA,NA,NA,TRUE,1,0.8972,157.1782,160.1777,0,22,22,67,1,60,33,NA,NA,NA,NA,NA,1,23,"binary"
"B82F4D1B45E841D4BB30D214369C533E",1,"0198f77c-9010-73da-936a-6591b0cfa55e","0198f767-55c9-7875-8d21-563b3c0b86ed","2025-08-29_16h20.20.932",NA,NA,163.5293,163.5293,163.5293,163.8807,NA,NA,NA,NA,NA,NA,NA,TRUE,1,0.7557,160.5297,163.5293,0,23,23,85,1,100,31,NA,NA,NA,NA,NA,1,24,"binary"
"B82F4D1B45E841D4BB30D214369C533E",1,"0198f77c-9010-73da-936a-6591b0cfa55e","0198f767-55c9-7875-8d21-563b3c0b86ed","2025-08-29_16h20.20.932",NA,NA,166.8807,166.8808,166.8808,167.2323,NA,NA,NA,NA,NA,NA,NA,TRUE,1,1.5417,163.8813,166.8807,0,24,24,40,1,28,39,NA,NA,NA,NA,NA,1,25,"binary"
"B82F4D1B45E841D4BB30D214369C533E",1,"0198f77c-9010-73da-936a-6591b0cfa55e","0198f767-55c9-7875-8d21-563b3c0b86ed","2025-08-29_16h20.20.932",NA,NA,170.2322,170.2323,170.2323,170.5777,NA,NA,NA,NA,NA,NA,NA,TRUE,1,1.1818,167.2328,170.2322,0,25,25,51,1,40,40,NA,NA,NA,NA,NA,1,26,"binary"
"B82F4D1B45E841D4BB30D214369C533E",1,"0198f77c-9010-73da-936a-6591b0cfa55e","0198f767-55c9-7875-8d21-563b3c0b86ed","2025-08-29_16h20.20.932",NA,NA,173.5777,173.5777,173.5777,173.9292,NA,NA,NA,NA,NA,NA,NA,TRUE,1,0.6633,170.5781,173.5777,0,26,26,102,1,200,26,NA,NA,NA,NA,NA,1,27,"binary"
"B82F4D1B45E841D4BB30D214369C533E",1,"0198f77c-9010-73da-936a-6591b0cfa55e","0198f767-55c9-7875-8d21-563b3c0b86ed","2025-08-29_16h20.20.932",NA,NA,176.9292,176.9292,176.9292,177.2806,NA,NA,NA,NA,NA,NA,NA,TRUE,1,1.1433,173.9296,176.9291,0,27,27,43,1,30,27,NA,NA,NA,NA,NA,1,28,"binary"
"B82F4D1B45E841D4BB30D214369C533E",1,"0198f77c-9010-73da-936a-6591b0cfa55e","0198f767-55c9-7875-8d21-563b3c0b86ed","2025-08-29_16h20.20.932",NA,NA,180.2807,180.2807,180.2807,180.6322,NA,NA,NA,NA,NA,NA,NA,TRUE,1,0.7171,177.2812,180.2807,0,28,28,100,1,180,46,NA,NA,NA,NA,NA,1,29,"binary"
"B82F4D1B45E841D4BB30D214369C533E",1,"0198f77c-9010-73da-936a-6591b0cfa55e","0198f767-55c9-7875-8d21-563b3c0b86ed","2025-08-29_16h20.20.932",NA,NA,183.6322,183.6322,183.6322,183.9775,NA,NA,NA,NA,NA,NA,NA,TRUE,1,0.8031,180.6326,183.6322,0,29,29,76,1,90,46,NA,NA,NA,NA,NA,1,30,"binary"
"B82F4D1B45E841D4BB30D214369C533E",1,"0198f77c-9010-73da-936a-6591b0cfa55e","0198f767-55c9-7875-8d21-563b3c0b86ed","2025-08-29_16h20.20.932",NA,NA,186.9776,186.9777,186.9777,187.3291,NA,NA,NA,NA,NA,NA,NA,TRUE,1,0.494,183.9781,186.9776,0,30,30,74,1,90,33,NA,NA,NA,NA,NA,1,31,"binary"
"B82F4D1B45E841D4BB30D214369C533E",1,"0198f77c-9010-73da-936a-6591b0cfa55e","0198f767-55c9-7875-8d21-563b3c0b86ed","2025-08-29_16h20.20.932",NA,NA,190.3291,190.3291,190.3291,190.6806,NA,NA,NA,NA,NA,NA,NA,TRUE,1,0.4868,187.3296,190.3291,0,31,31,72,1,90,26,NA,NA,NA,NA,NA,1,32,"binary"
"B82F4D1B45E841D4BB30D214369C533E",1,"0198f77c-9010-73da-936a-6591b0cfa55e","0198f767-55c9-7875-8d21-563b3c0b86ed","2025-08-29_16h20.20.932",NA,NA,193.6805,193.6805,193.6805,194.032,NA,NA,NA,NA,NA,NA,NA,TRUE,2,0.9791,190.6811,193.6805,0,32,32,5,1,7,35,NA,NA,NA,NA,NA,1,33,"binary"
"B82F4D1B45E841D4BB30D214369C533E",1,"0198f77c-9010-73da-936a-6591b0cfa55e","0198f767-55c9-7875-8d21-563b3c0b86ed","2025-08-29_16h20.20.932",NA,NA,197.0321,197.0321,197.0321,197.3775,NA,NA,NA,NA,NA,NA,NA,TRUE,1,0.6843,194.0325,197.0321,0,33,33,14,1,12,28,NA,NA,NA,NA,NA,1,34,"binary"
"B82F4D1B45E841D4BB30D214369C533E",1,"0198f77c-9010-73da-936a-6591b0cfa55e","0198f767-55c9-7875-8d21-563b3c0b86ed","2025-08-29_16h20.20.932",NA,NA,200.3775,200.3775,200.3775,200.729,NA,NA,NA,NA,NA,NA,NA,TRUE,1,1.0539,197.378,200.3775,0,34,34,9,1,10,29,NA,NA,NA,NA,NA,1,35,"binary"
"B82F4D1B45E841D4BB30D214369C533E",1,"0198f77c-9010-73da-936a-6591b0cfa55e","0198f767-55c9-7875-8d21-563b3c0b86ed","2025-08-29_16h20.20.932",NA,NA,203.729,203.729,203.729,204.0805,NA,NA,NA,NA,NA,NA,NA,TRUE,1,1.1847,200.7295,203.729,0,35,35,30,1,25,27,NA,NA,NA,NA,NA,1,36,"binary"
"B82F4D1B45E841D4BB30D214369C533E",1,"0198f77c-9010-73da-936a-6591b0cfa55e","0198f767-55c9-7875-8d21-563b3c0b86ed","2025-08-29_16h20.20.932",NA,NA,207.0805,207.0805,207.0805,207.432,NA,NA,NA,NA,NA,NA,NA,TRUE,1,1.5685,204.0811,207.0804,0,36,36,27,1,21,30,NA,NA,NA,NA,NA,1,37,"binary"
"B82F4D1B45E841D4BB30D214369C533E",1,"0198f77c-9010-73da-936a-6591b0cfa55e","0198f767-55c9-7875-8d21-563b3c0b86ed","2025-08-29_16h20.20.932",NA,NA,210.432,210.432,210.432,210.7774,NA,NA,NA,NA,NA,NA,NA,TRUE,1,0.9398,207.4325,210.4319,0,37,37,66,1,60,29,NA,NA,NA,NA,NA,1,38,"binary"
"B82F4D1B45E841D4BB30D214369C533E",1,"0198f77c-9010-73da-936a-6591b0cfa55e","0198f767-55c9-7875-8d21-563b3c0b86ed","2025-08-29_16h20.20.932",NA,NA,213.7774,213.7774,213.7774,214.1288,NA,NA,NA,NA,NA,NA,NA,TRUE,1,0.7041,210.7779,213.7774,0,38,38,78,1,95,31,NA,NA,NA,NA,NA,1,39,"binary"
"B82F4D1B45E841D4BB30D214369C533E",1,"0198f77c-9010-73da-936a-6591b0cfa55e","0198f767-55c9-7875-8d21-563b3c0b86ed","2025-08-29_16h20.20.932",NA,NA,217.1289,217.129,217.129,217.4804,NA,NA,NA,NA,NA,NA,NA,TRUE,1,1.1335,214.1293,217.1289,0,39,39,46,1,30,32,NA,NA,NA,NA,NA,1,40,"binary"
"B82F4D1B45E841D4BB30D214369C533E",1,"0198f77c-9010-73da-936a-6591b0cfa55e","0198f767-55c9-7875-8d21-563b3c0b86ed","2025-08-29_16h20.20.932",NA,NA,220.4804,220.4804,220.4804,220.8318,NA,NA,NA,NA,NA,NA,NA,TRUE,1,1.675,217.4808,220.4803,0,40,40,0,1,7,25,NA,NA,NA,NA,NA,1,41,"binary"
"B82F4D1B45E841D4BB30D214369C533E",1,"0198f77c-9010-73da-936a-6591b0cfa55e","0198f767-55c9-7875-8d21-563b3c0b86ed","2025-08-29_16h20.20.932",NA,NA,223.8319,223.8319,223.8319,224.1773,NA,NA,NA,NA,NA,NA,NA,TRUE,1,0.7928,220.8324,223.8318,0,41,41,36,1,28,26,NA,NA,NA,NA,NA,1,42,"binary"
"B82F4D1B45E841D4BB30D214369C533E",1,"0198f77c-9010-73da-936a-6591b0cfa55e","0198f767-55c9-7875-8d21-563b3c0b86ed","2025-08-29_16h20.20.932",NA,NA,227.1773,227.1774,227.1774,227.5288,NA,NA,NA,NA,NA,NA,NA,TRUE,1,1.2462,224.1778,227.1773,0,42,42,31,1,25,29,NA,NA,NA,NA,NA,1,43,"binary"
"B82F4D1B45E841D4BB30D214369C533E",1,"0198f77c-9010-73da-936a-6591b0cfa55e","0198f767-55c9-7875-8d21-563b3c0b86ed","2025-08-29_16h20.20.932",NA,NA,230.5289,230.5289,230.5289,230.8803,NA,NA,NA,NA,NA,NA,NA,TRUE,1,0.4849,227.5293,230.5288,0,43,43,52,1,40,47,NA,NA,NA,NA,NA,1,44,"binary"
"B82F4D1B45E841D4BB30D214369C533E",1,"0198f77c-9010-73da-936a-6591b0cfa55e","0198f767-55c9-7875-8d21-563b3c0b86ed","2025-08-29_16h20.20.932",NA,NA,233.8803,233.8803,233.8803,234.2317,NA,NA,NA,NA,NA,NA,NA,TRUE,1,0.4795,230.8808,233.8803,0,44,44,69,1,60,40,NA,NA,NA,NA,NA,1,45,"binary"
"B82F4D1B45E841D4BB30D214369C533E",1,"0198f77c-9010-73da-936a-6591b0cfa55e","0198f767-55c9-7875-8d21-563b3c0b86ed","2025-08-29_16h20.20.932",NA,NA,237.2318,237.2318,237.2318,237.5772,NA,NA,NA,NA,NA,NA,NA,TRUE,1,2.0126,234.2323,237.2318,0,45,45,23,1,14,39,NA,NA,NA,NA,NA,1,46,"binary"
"B82F4D1B45E841D4BB30D214369C533E",1,"0198f77c-9010-73da-936a-6591b0cfa55e","0198f767-55c9-7875-8d21-563b3c0b86ed","2025-08-29_16h20.20.932",NA,NA,240.5773,240.5773,240.5773,240.9287,NA,NA,NA,NA,NA,NA,NA,TRUE,1,1.2013,237.5777,240.5772,0,46,46,55,1,45,29,NA,NA,NA,NA,NA,1,47,"binary"
"B82F4D1B45E841D4BB30D214369C533E",1,"0198f77c-9010-73da-936a-6591b0cfa55e","0198f767-55c9-7875-8d21-563b3c0b86ed","2025-08-29_16h20.20.932",NA,NA,243.9288,243.9288,243.9288,244.2804,NA,NA,NA,NA,NA,NA,NA,TRUE,1,0.5261,240.9292,243.9287,0,47,47,54,1,45,26,NA,NA,NA,NA,NA,1,48,"binary"
"B82F4D1B45E841D4BB30D214369C533E",1,"0198f77c-9010-73da-936a-6591b0cfa55e","0198f767-55c9-7875-8d21-563b3c0b86ed","2025-08-29_16h20.20.932",NA,NA,247.2802,247.2802,247.2802,247.6317,NA,NA,NA,NA,NA,NA,NA,TRUE,1,0.5481,244.2809,247.2801,0,48,48,62,1,50,35,NA,NA,NA,NA,NA,1,49,"binary"
"B82F4D1B45E841D4BB30D214369C533E",1,"0198f77c-9010-73da-936a-6591b0cfa55e","0198f767-55c9-7875-8d21-563b3c0b86ed","2025-08-29_16h20.20.932",NA,NA,250.6317,250.6318,250.6318,250.9771,NA,NA,NA,NA,NA,NA,NA,TRUE,1,1.064,247.6322,250.6317,0,49,49,61,1,50,30,NA,NA,NA,NA,NA,1,50,"binary"
"B82F4D1B45E841D4BB30D214369C533E",1,"0198f77c-9010-73da-936a-6591b0cfa55e","0198f767-55c9-7875-8d21-563b3c0b86ed","2025-08-29_16h20.20.932",NA,NA,253.9772,253.9772,253.9772,254.3286,NA,NA,NA,NA,NA,NA,NA,TRUE,1,1.7491,250.9776,253.9771,0,50,50,53,1,40,54,NA,NA,NA,NA,NA,1,51,"binary"
"B82F4D1B45E841D4BB30D214369C533E",1,"0198f77c-9010-73da-936a-6591b0cfa55e","0198f767-55c9-7875-8d21-563b3c0b86ed","2025-08-29_16h20.20.932",NA,NA,257.3286,257.3286,257.3286,257.6801,NA,NA,NA,NA,NA,NA,NA,TRUE,1,1.3909,254.3291,257.3286,0,51,51,18,1,14,25,NA,NA,NA,NA,NA,1,52,"binary"
"B82F4D1B45E841D4BB30D214369C533E",1,"0198f77c-9010-73da-936a-6591b0cfa55e","0198f767-55c9-7875-8d21-563b3c0b86ed","2025-08-29_16h20.20.932",NA,NA,260.6801,260.6801,260.6801,261.0316,NA,NA,NA,NA,NA,NA,NA,TRUE,1,1.076,257.6806,260.68,0,52,52,82,1,95,47,NA,NA,NA,NA,NA,1,53,"binary"
"B82F4D1B45E841D4BB30D214369C533E",1,"0198f77c-9010-73da-936a-6591b0cfa55e","0198f767-55c9-7875-8d21-563b3c0b86ed","2025-08-29_16h20.20.932",NA,NA,264.0316,264.0316,264.0316,264.377,NA,NA,NA,NA,NA,NA,NA,TRUE,1,0.4774,261.0321,264.0316,0,53,53,56,1,45,31,NA,NA,NA,NA,NA,1,54,"binary"
"B82F4D1B45E841D4BB30D214369C533E",1,"0198f77c-9010-73da-936a-6591b0cfa55e","0198f767-55c9-7875-8d21-563b3c0b86ed","2025-08-29_16h20.20.932",NA,NA,267.3771,267.3771,267.3771,267.7285,NA,NA,NA,NA,NA,NA,NA,TRUE,1,0.6404,264.3775,267.377,0,54,54,41,1,28,46,NA,NA,NA,NA,NA,1,55,"binary"
"B82F4D1B45E841D4BB30D214369C533E",1,"0198f77c-9010-73da-936a-6591b0cfa55e","0198f767-55c9-7875-8d21-563b3c0b86ed","2025-08-29_16h20.20.932",NA,NA,270.7285,270.7285,270.7285,271.08,NA,NA,NA,NA,NA,NA,NA,TRUE,1,0.6606,267.729,270.7285,0,55,55,99,1,180,39,NA,NA,NA,NA,NA,1,56,"binary"
"B82F4D1B45E841D4BB30D214369C533E",1,"0198f77c-9010-73da-936a-6591b0cfa55e","0198f767-55c9-7875-8d21-563b3c0b86ed","2025-08-29_16h20.20.932",NA,NA,274.08,274.08,274.08,274.4315,NA,NA,NA,NA,NA,NA,NA,TRUE,1,0.9587,271.0805,274.08,0,56,56,1,1,7,26,NA,NA,NA,NA,NA,1,57,"binary"
"B82F4D1B45E841D4BB30D214369C533E",1,"0198f77c-9010-73da-936a-6591b0cfa55e","0198f767-55c9-7875-8d21-563b3c0b86ed","2025-08-29_16h20.20.932",NA,NA,277.4315,277.4315,277.4315,277.777,NA,NA,NA,NA,NA,NA,NA,TRUE,1,1.3601,274.432,277.4314,0,57,57,48,1,40,27,NA,NA,NA,NA,NA,1,58,"binary"
"B82F4D1B45E841D4BB30D214369C533E",1,"0198f77c-9010-73da-936a-6591b0cfa55e","0198f767-55c9-7875-8d21-563b3c0b86ed","2025-08-29_16h20.20.932",NA,NA,280.7769,280.7769,280.777,281.1284,NA,NA,NA,NA,NA,NA,NA,TRUE,1,0.6321,277.7775,280.7769,0,58,58,81,1,95,40,NA,NA,NA,NA,NA,1,59,"binary"
"B82F4D1B45E841D4BB30D214369C533E",1,"0198f77c-9010-73da-936a-6591b0cfa55e","0198f767-55c9-7875-8d21-563b3c0b86ed","2025-08-29_16h20.20.932",NA,NA,284.1285,284.1285,284.1285,284.4799,NA,NA,NA,NA,NA,NA,NA,TRUE,1,0.4509,281.1289,284.1284,0,59,59,88,1,100,46,NA,NA,NA,NA,NA,1,60,"binary"
"B82F4D1B45E841D4BB30D214369C533E",1,"0198f77c-9010-73da-936a-6591b0cfa55e","0198f767-55c9-7875-8d21-563b3c0b86ed","2025-08-29_16h20.20.932",NA,NA,287.4799,287.48,287.48,287.8314,NA,NA,NA,NA,NA,NA,NA,TRUE,1,0.7823,284.4804,287.4799,0,60,60,37,1,28,28,NA,NA,NA,NA,NA,1,61,"binary"
"B82F4D1B45E841D4BB30D214369C533E",1,"0198f77c-9010-73da-936a-6591b0cfa55e","0198f767-55c9-7875-8d21-563b3c0b86ed","2025-08-29_16h20.20.932",NA,NA,290.8314,290.8314,290.8314,291.1829,NA,NA,NA,NA,NA,NA,NA,TRUE,1,0.5874,287.8319,290.8314,0,61,61,107,1,200,54,NA,NA,NA,NA,NA,1,62,"binary"
"B82F4D1B45E841D4BB30D214369C533E",1,"0198f77c-9010-73da-936a-6591b0cfa55e","0198f767-55c9-7875-8d21-563b3c0b86ed","2025-08-29_16h20.20.932",NA,NA,294.1829,294.1829,294.1829,294.5283,NA,NA,NA,NA,NA,NA,NA,TRUE,1,2.9124,291.1834,294.1829,0,62,62,28,1,21,32,NA,NA,NA,NA,NA,1,63,"binary"
"B82F4D1B45E841D4BB30D214369C533E",1,"0198f77c-9010-73da-936a-6591b0cfa55e","0198f767-55c9-7875-8d21-563b3c0b86ed","2025-08-29_16h20.20.932",NA,NA,297.5283,297.5283,297.5283,297.8798,NA,NA,NA,NA,NA,NA,NA,TRUE,1,2.144,294.5287,297.5283,0,63,63,26,1,21,29,NA,NA,NA,NA,NA,1,64,"binary"
"B82F4D1B45E841D4BB30D214369C533E",1,"0198f77c-9010-73da-936a-6591b0cfa55e","0198f767-55c9-7875-8d21-563b3c0b86ed","2025-08-29_16h20.20.932",NA,NA,300.8798,300.8798,300.8798,301.2313,NA,NA,NA,NA,NA,NA,NA,TRUE,1,1.7175,297.8802,300.8797,0,64,64,2,1,7,28,NA,NA,NA,NA,NA,1,65,"binary"
"B82F4D1B45E841D4BB30D214369C533E",1,"0198f77c-9010-73da-936a-6591b0cfa55e","0198f767-55c9-7875-8d21-563b3c0b86ed","2025-08-29_16h20.20.932",NA,NA,304.2313,304.2313,304.2313,304.5828,NA,NA,NA,NA,NA,NA,NA,TRUE,2,2.0611,301.2317,304.2313,0,65,65,22,1,14,35,NA,NA,NA,NA,NA,1,66,"binary"
"B82F4D1B45E841D4BB30D214369C533E",1,"0198f77c-9010-73da-936a-6591b0cfa55e","0198f767-55c9-7875-8d21-563b3c0b86ed","2025-08-29_16h20.20.932",NA,NA,307.5828,307.5828,307.5828,307.9282,NA,NA,NA,NA,NA,NA,NA,TRUE,1,0.7699,304.5831,307.5828,0,66,66,91,1,150,33,NA,NA,NA,NA,NA,1,67,"binary"
"B82F4D1B45E841D4BB30D214369C533E",1,"0198f77c-9010-73da-936a-6591b0cfa55e","0198f767-55c9-7875-8d21-563b3c0b86ed","2025-08-29_16h20.20.932",NA,NA,310.9282,310.9283,310.9283,311.2796,NA,NA,NA,NA,NA,NA,NA,TRUE,1,0.9946,307.9288,310.9282,0,67,67,89,1,100,54,NA,NA,NA,NA,NA,1,68,"binary"
"B82F4D1B45E841D4BB30D214369C533E",1,"0198f77c-9010-73da-936a-6591b0cfa55e","0198f767-55c9-7875-8d21-563b3c0b86ed","2025-08-29_16h20.20.932",NA,NA,314.2797,314.2797,314.2797,314.6311,NA,NA,NA,NA,NA,NA,NA,TRUE,1,0.803,311.2802,314.2797,0,68,68,25,1,21,27,NA,NA,NA,NA,NA,1,69,"binary"
"B82F4D1B45E841D4BB30D214369C533E",1,"0198f77c-9010-73da-936a-6591b0cfa55e","0198f767-55c9-7875-8d21-563b3c0b86ed","2025-08-29_16h20.20.932",NA,NA,317.6311,317.6312,317.6312,317.9826,NA,NA,NA,NA,NA,NA,NA,TRUE,1,1.2486,314.6317,317.6311,0,69,69,87,1,100,39,NA,NA,NA,NA,NA,1,70,"binary"
"B82F4D1B45E841D4BB30D214369C533E",1,"0198f77c-9010-73da-936a-6591b0cfa55e","0198f767-55c9-7875-8d21-563b3c0b86ed","2025-08-29_16h20.20.932",NA,NA,320.9827,320.9827,320.9827,321.3281,NA,NA,NA,NA,NA,NA,NA,TRUE,2,1.6221,317.9831,320.9826,0,70,70,17,1,12,35,NA,NA,NA,NA,NA,1,71,"binary"
"B82F4D1B45E841D4BB30D214369C533E",1,"0198f77c-9010-73da-936a-6591b0cfa55e","0198f767-55c9-7875-8d21-563b3c0b86ed","2025-08-29_16h20.20.932",NA,NA,324.3281,324.3281,324.3281,324.6796,NA,NA,NA,NA,NA,NA,NA,TRUE,1,0.9858,321.3286,324.3281,0,71,71,34,1,25,35,NA,NA,NA,NA,NA,1,72,"binary"
"B82F4D1B45E841D4BB30D214369C533E",1,"0198f77c-9010-73da-936a-6591b0cfa55e","0198f767-55c9-7875-8d21-563b3c0b86ed","2025-08-29_16h20.20.932",NA,NA,327.6796,327.6796,327.6796,328.0311,NA,NA,NA,NA,NA,NA,NA,TRUE,2,2.4579,324.68,327.6795,0,72,72,21,1,14,32,NA,NA,NA,NA,NA,1,73,"binary"
"B82F4D1B45E841D4BB30D214369C533E",1,"0198f77c-9010-73da-936a-6591b0cfa55e","0198f767-55c9-7875-8d21-563b3c0b86ed","2025-08-29_16h20.20.932",NA,NA,331.0311,331.0311,331.0311,331.3825,NA,NA,NA,NA,NA,NA,NA,TRUE,1,0.5311,328.0316,331.031,0,73,73,49,1,40,33,NA,NA,NA,NA,NA,1,74,"binary"
"B82F4D1B45E841D4BB30D214369C533E",1,"0198f77c-9010-73da-936a-6591b0cfa55e","0198f767-55c9-7875-8d21-563b3c0b86ed","2025-08-29_16h20.20.932",NA,NA,334.3826,334.3826,334.3826,334.728,NA,NA,NA,NA,NA,NA,NA,TRUE,1,2.3176,331.3831,334.3825,0,74,74,35,1,25,46,NA,NA,NA,NA,NA,1,75,"binary"
"B82F4D1B45E841D4BB30D214369C533E",1,"0198f77c-9010-73da-936a-6591b0cfa55e","0198f767-55c9-7875-8d21-563b3c0b86ed","2025-08-29_16h20.20.932",NA,NA,337.728,337.728,337.728,338.0794,NA,NA,NA,NA,NA,NA,NA,TRUE,1,0.9744,334.7285,337.728,0,75,75,106,1,200,47,NA,NA,NA,NA,NA,1,76,"binary"
"B82F4D1B45E841D4BB30D214369C533E",1,"0198f77c-9010-73da-936a-6591b0cfa55e","0198f767-55c9-7875-8d21-563b3c0b86ed","2025-08-29_16h20.20.932",NA,NA,341.0795,341.0795,341.0795,341.431,NA,NA,NA,NA,NA,NA,NA,TRUE,1,1.0532,338.08,341.0794,0,76,76,8,1,10,27,NA,NA,NA,NA,NA,1,77,"binary"
"B82F4D1B45E841D4BB30D214369C533E",1,"0198f77c-9010-73da-936a-6591b0cfa55e","0198f767-55c9-7875-8d21-563b3c0b86ed","2025-08-29_16h20.20.932",NA,NA,344.431,344.431,344.431,344.7825,NA,NA,NA,NA,NA,NA,NA,TRUE,1,0.7088,341.4315,344.431,0,77,77,86,1,100,38,NA,NA,NA,NA,NA,1,78,"binary"
"B82F4D1B45E841D4BB30D214369C533E",1,"0198f77c-9010-73da-936a-6591b0cfa55e","0198f767-55c9-7875-8d21-563b3c0b86ed","2025-08-29_16h20.20.932",NA,NA,347.7825,347.7825,347.7825,348.1279,NA,NA,NA,NA,NA,NA,NA,TRUE,1,0.561,344.7829,347.7824,0,78,78,105,1,200,39,NA,NA,NA,NA,NA,1,79,"binary"
"B82F4D1B45E841D4BB30D214369C533E",1,"0198f77c-9010-73da-936a-6591b0cfa55e","0198f767-55c9-7875-8d21-563b3c0b86ed","2025-08-29_16h20.20.932",NA,NA,351.128,351.128,351.128,351.4794,NA,NA,NA,NA,NA,NA,NA,TRUE,1,0.4629,348.1284,351.1279,0,79,79,92,1,150,35,NA,NA,NA,NA,NA,1,80,"binary"
"B82F4D1B45E841D4BB30D214369C533E",1,"0198f77c-9010-73da-936a-6591b0cfa55e","0198f767-55c9-7875-8d21-563b3c0b86ed","2025-08-29_16h20.20.932",NA,NA,354.4794,354.4794,354.4794,354.8309,NA,NA,NA,NA,NA,NA,NA,TRUE,1,0.2737,351.4799,354.4793,0,80,80,75,1,90,40,NA,NA,NA,NA,NA,1,81,"binary"
"B82F4D1B45E841D4BB30D214369C533E",1,"0198f77c-9010-73da-936a-6591b0cfa55e","0198f767-55c9-7875-8d21-563b3c0b86ed","2025-08-29_16h20.20.932",NA,NA,357.8308,357.8309,357.8309,358.1823,NA,NA,NA,NA,NA,NA,NA,TRUE,1,0.3447,354.8314,357.8308,0,81,81,68,1,60,35,NA,NA,NA,NA,NA,1,82,"binary"
"B82F4D1B45E841D4BB30D214369C533E",1,"0198f77c-9010-73da-936a-6591b0cfa55e","0198f767-55c9-7875-8d21-563b3c0b86ed","2025-08-29_16h20.20.932",NA,NA,361.1824,361.1824,361.1824,361.5278,NA,NA,NA,NA,NA,NA,NA,TRUE,1,0.5208,358.1827,361.1823,0,82,82,19,1,14,26,NA,NA,NA,NA,NA,1,83,"binary"
"B82F4D1B45E841D4BB30D214369C533E",1,"0198f77c-9010-73da-936a-6591b0cfa55e","0198f767-55c9-7875-8d21-563b3c0b86ed","2025-08-29_16h20.20.932",NA,NA,364.5278,364.5278,364.5278,364.8793,NA,NA,NA,NA,NA,NA,NA,TRUE,1,0.4745,361.5282,364.5277,0,83,83,97,1,180,31,NA,NA,NA,NA,NA,1,84,"binary"
"B82F4D1B45E841D4BB30D214369C533E",1,"0198f77c-9010-73da-936a-6591b0cfa55e","0198f767-55c9-7875-8d21-563b3c0b86ed","2025-08-29_16h20.20.932",NA,NA,367.8792,367.8793,367.8793,368.2307,NA,NA,NA,NA,NA,NA,NA,TRUE,1,0.5885,364.8797,367.8792,0,84,84,64,1,50,46,NA,NA,NA,NA,NA,1,85,"binary"
"B82F4D1B45E841D4BB30D214369C533E",1,"0198f77c-9010-73da-936a-6591b0cfa55e","0198f767-55c9-7875-8d21-563b3c0b86ed","2025-08-29_16h20.20.932",NA,NA,371.2307,371.2307,371.2307,371.5822,NA,NA,NA,NA,NA,NA,NA,TRUE,1,2.602,368.2313,371.2307,0,85,85,16,1,12,33,NA,NA,NA,NA,NA,1,86,"binary"
"B82F4D1B45E841D4BB30D214369C533E",1,"0198f77c-9010-73da-936a-6591b0cfa55e","0198f767-55c9-7875-8d21-563b3c0b86ed","2025-08-29_16h20.20.932",NA,NA,374.5823,374.5823,374.5823,374.9276,NA,NA,NA,NA,NA,NA,NA,TRUE,1,1.17,371.5827,374.5822,0,86,86,60,1,50,27,NA,NA,NA,NA,NA,1,87,"binary"
"B82F4D1B45E841D4BB30D214369C533E",1,"0198f77c-9010-73da-936a-6591b0cfa55e","0198f767-55c9-7875-8d21-563b3c0b86ed","2025-08-29_16h20.20.932",NA,NA,377.9277,377.9277,377.9277,378.2791,NA,NA,NA,NA,NA,NA,NA,TRUE,1,0.8211,374.9282,377.9276,0,87,87,12,1,12,25,NA,NA,NA,NA,NA,1,88,"binary"
"B82F4D1B45E841D4BB30D214369C533E",1,"0198f77c-9010-73da-936a-6591b0cfa55e","0198f767-55c9-7875-8d21-563b3c0b86ed","2025-08-29_16h20.20.932",NA,NA,381.2792,381.2792,381.2792,381.6306,NA,NA,NA,NA,NA,NA,NA,TRUE,1,0.4121,378.2796,381.2791,0,88,88,101,1,180,54,NA,NA,NA,NA,NA,1,89,"binary"
"B82F4D1B45E841D4BB30D214369C533E",1,"0198f77c-9010-73da-936a-6591b0cfa55e","0198f767-55c9-7875-8d21-563b3c0b86ed","2025-08-29_16h20.20.932",NA,NA,384.6306,384.6306,384.6306,384.9821,NA,NA,NA,NA,NA,NA,NA,TRUE,1,0.4854,381.6311,384.6306,0,89,89,44,1,30,29,NA,NA,NA,NA,NA,1,90,"binary"
"B82F4D1B45E841D4BB30D214369C533E",1,"0198f77c-9010-73da-936a-6591b0cfa55e","0198f767-55c9-7875-8d21-563b3c0b86ed","2025-08-29_16h20.20.932",NA,NA,387.9821,387.9822,387.9822,388.3276,NA,NA,NA,NA,NA,NA,NA,TRUE,1,0.4765,384.9825,387.9821,0,90,90,83,1,95,54,NA,NA,NA,NA,NA,1,91,"binary"
"B82F4D1B45E841D4BB30D214369C533E",1,"0198f77c-9010-73da-936a-6591b0cfa55e","0198f767-55c9-7875-8d21-563b3c0b86ed","2025-08-29_16h20.20.932",NA,NA,391.3275,391.3275,391.3275,391.679,NA,NA,NA,NA,NA,NA,NA,TRUE,1,0.8608,388.328,391.3275,0,91,91,15,1,12,31,NA,NA,NA,NA,NA,1,92,"binary"
"B82F4D1B45E841D4BB30D214369C533E",1,"0198f77c-9010-73da-936a-6591b0cfa55e","0198f767-55c9-7875-8d21-563b3c0b86ed","2025-08-29_16h20.20.932",NA,NA,394.679,394.6791,394.6791,395.0305,NA,NA,NA,NA,NA,NA,NA,TRUE,1,0.749,391.6796,394.679,0,92,92,50,1,40,35,NA,NA,NA,NA,NA,1,93,"binary"
"B82F4D1B45E841D4BB30D214369C533E",1,"0198f77c-9010-73da-936a-6591b0cfa55e","0198f767-55c9-7875-8d21-563b3c0b86ed","2025-08-29_16h20.20.932",NA,NA,398.0305,398.0305,398.0305,398.382,NA,NA,NA,NA,NA,NA,NA,TRUE,1,0.2235,395.0309,398.0305,0,93,93,77,1,90,54,NA,NA,NA,NA,NA,1,94,"binary"
"B82F4D1B45E841D4BB30D214369C533E",1,"0198f77c-9010-73da-936a-6591b0cfa55e","0198f767-55c9-7875-8d21-563b3c0b86ed","2025-08-29_16h20.20.932",NA,NA,401.382,401.3821,401.3821,401.7274,NA,NA,NA,NA,NA,NA,NA,TRUE,1,0.5091,398.3824,401.382,0,94,94,104,1,200,35,NA,NA,NA,NA,NA,1,95,"binary"
"B82F4D1B45E841D4BB30D214369C533E",1,"0198f77c-9010-73da-936a-6591b0cfa55e","0198f767-55c9-7875-8d21-563b3c0b86ed","2025-08-29_16h20.20.932",NA,NA,404.7274,404.7275,404.7275,405.079,NA,NA,NA,NA,NA,NA,NA,TRUE,1,0.7617,401.7279,404.7274,0,95,95,96,1,180,27,NA,NA,NA,NA,NA,1,96,"binary"
"B82F4D1B45E841D4BB30D214369C533E",1,"0198f77c-9010-73da-936a-6591b0cfa55e","0198f767-55c9-7875-8d21-563b3c0b86ed","2025-08-29_16h20.20.932",NA,NA,408.079,408.079,408.079,408.4304,NA,NA,NA,NA,NA,NA,NA,TRUE,1,0.522,405.0793,408.0789,0,96,96,79,1,95,33,NA,NA,NA,NA,NA,1,97,"binary"
"B82F4D1B45E841D4BB30D214369C533E",1,"0198f77c-9010-73da-936a-6591b0cfa55e","0198f767-55c9-7875-8d21-563b3c0b86ed","2025-08-29_16h20.20.932",NA,NA,411.4304,411.4304,411.4304,411.7819,NA,NA,NA,NA,NA,NA,NA,TRUE,1,0.475,408.4308,411.4304,0,97,97,94,1,150,47,NA,NA,NA,NA,NA,1,98,"binary"
"B82F4D1B45E841D4BB30D214369C533E",1,"0198f77c-9010-73da-936a-6591b0cfa55e","0198f767-55c9-7875-8d21-563b3c0b86ed","2025-08-29_16h20.20.932",NA,NA,414.782,414.782,414.782,415.1274,NA,NA,NA,NA,NA,NA,NA,TRUE,1,0.3166,411.7824,414.7819,0,98,98,63,1,50,40,NA,NA,NA,NA,NA,1,99,"binary"
"B82F4D1B45E841D4BB30D214369C533E",1,"0198f77c-9010-73da-936a-6591b0cfa55e","0198f767-55c9-7875-8d21-563b3c0b86ed","2025-08-29_16h20.20.932",NA,NA,418.1273,418.1273,418.1273,418.4789,NA,NA,NA,NA,NA,NA,NA,TRUE,1,0.5172,415.1277,418.1273,0,99,99,95,1,150,54,NA,NA,NA,NA,NA,1,100,"binary"
"B82F4D1B45E841D4BB30D214369C533E",1,"0198f77c-9010-73da-936a-6591b0cfa55e","0198f767-55c9-7875-8d21-563b3c0b86ed","2025-08-29_16h20.20.932",NA,NA,421.4788,421.4789,421.4789,421.8303,NA,NA,NA,NA,NA,NA,NA,TRUE,1,1.0419,418.4793,421.4788,0,100,100,29,1,21,38,NA,NA,NA,NA,NA,1,101,"binary"
"B82F4D1B45E841D4BB30D214369C533E",1,"0198f77c-9010-73da-936a-6591b0cfa55e","0198f767-55c9-7875-8d21-563b3c0b86ed","2025-08-29_16h20.20.932",NA,NA,424.8303,424.8303,424.8303,425.1818,NA,NA,NA,NA,NA,NA,NA,TRUE,2,1.1218,421.8308,424.8303,0,101,101,3,1,7,30,NA,NA,NA,NA,NA,1,102,"binary"
"B82F4D1B45E841D4BB30D214369C533E",1,"0198f77c-9010-73da-936a-6591b0cfa55e","0198f767-55c9-7875-8d21-563b3c0b86ed","2025-08-29_16h20.20.932",NA,NA,428.1818,428.1818,428.1818,428.5274,NA,NA,NA,NA,NA,NA,NA,TRUE,1,0.7628,425.1822,428.1818,0,102,102,39,1,28,35,NA,NA,NA,NA,NA,1,103,"binary"
"B82F4D1B45E841D4BB30D214369C533E",1,"0198f77c-9010-73da-936a-6591b0cfa55e","0198f767-55c9-7875-8d21-563b3c0b86ed","2025-08-29_16h20.20.932",NA,NA,431.5272,431.5272,431.5272,431.8787,NA,NA,NA,NA,NA,NA,NA,TRUE,1,0.8876,428.5279,431.5272,0,103,103,24,1,21,26,NA,NA,NA,NA,NA,1,104,"binary"
"B82F4D1B45E841D4BB30D214369C533E",1,"0198f77c-9010-73da-936a-6591b0cfa55e","0198f767-55c9-7875-8d21-563b3c0b86ed","2025-08-29_16h20.20.932",NA,NA,434.8788,434.8788,434.8788,435.2302,NA,NA,NA,NA,NA,NA,NA,TRUE,1,1.1524,431.8793,434.8787,0,104,104,11,1,10,32,NA,NA,NA,NA,NA,1,105,"binary"
"B82F4D1B45E841D4BB30D214369C533E",1,"0198f77c-9010-73da-936a-6591b0cfa55e","0198f767-55c9-7875-8d21-563b3c0b86ed","2025-08-29_16h20.20.932",NA,NA,438.2302,438.2302,438.2302,438.5817,NA,NA,NA,NA,NA,NA,NA,TRUE,1,0.6012,435.2306,438.2302,0,105,105,93,1,150,40,NA,NA,NA,NA,NA,1,106,"binary"
"B82F4D1B45E841D4BB30D214369C533E",1,"0198f77c-9010-73da-936a-6591b0cfa55e","0198f767-55c9-7875-8d21-563b3c0b86ed","2025-08-29_16h20.20.932",NA,NA,441.5817,441.5817,441.5817,441.9271,NA,NA,NA,NA,NA,NA,NA,TRUE,1,0.9652,438.5821,441.5817,0,106,106,32,1,25,31,NA,NA,NA,NA,NA,1,107,"binary"
"B82F4D1B45E841D4BB30D214369C533E",1,"0198f77c-9010-73da-936a-6591b0cfa55e","0198f767-55c9-7875-8d21-563b3c0b86ed","2025-08-29_16h20.20.932",NA,NA,444.9271,444.9271,444.9272,445.2786,NA,NA,NA,NA,NA,NA,NA,TRUE,1,0.6001,441.9275,444.9271,0,107,107,103,1,200,28,NA,NA,NA,NA,NA,1,108,"binary"
"B82F4D1B45E841D4BB30D214369C533E",1,"0198f77c-9010-73da-936a-6591b0cfa55e","0198f767-55c9-7875-8d21-563b3c0b86ed","2025-08-29_16h20.20.932",NA,NA,451.6362,451.6362,451.6362,451.9877,NA,NA,NA,NA,NA,NA,NA,TRUE,2,1.3616,448.6429,451.6361,NA,NA,NA,NA,NA,7,35,0,0,0,5,1,2,1,"binary"
"B82F4D1B45E841D4BB30D214369C533E",1,"0198f77c-9010-73da-936a-6591b0cfa55e","0198f767-55c9-7875-8d21-563b3c0b86ed","2025-08-29_16h20.20.932",NA,NA,454.9876,454.9876,454.9876,455.3331,NA,NA,NA,NA,NA,NA,NA,TRUE,1,0.7493,451.9881,454.9876,NA,NA,NA,NA,NA,10,26,0,1,1,7,1,2,2,"binary"
"B82F4D1B45E841D4BB30D214369C533E",1,"0198f77c-9010-73da-936a-6591b0cfa55e","0198f767-55c9-7875-8d21-563b3c0b86ed","2025-08-29_16h20.20.932",NA,NA,458.3331,458.3331,458.3331,458.6846,NA,NA,NA,NA,NA,NA,NA,TRUE,1,0.8897,455.3335,458.3331,NA,NA,NA,NA,NA,7,28,0,2,2,2,1,2,3,"binary"
"B82F4D1B45E841D4BB30D214369C533E",1,"0198f77c-9010-73da-936a-6591b0cfa55e","0198f767-55c9-7875-8d21-563b3c0b86ed","2025-08-29_16h20.20.932",NA,NA,461.6846,461.6846,461.6846,462.036,NA,NA,NA,NA,NA,NA,NA,TRUE,1,0.8366,458.685,461.6846,NA,NA,NA,NA,NA,21,26,0,3,3,24,1,2,4,"binary"
"B82F4D1B45E841D4BB30D214369C533E",1,"0198f77c-9010-73da-936a-6591b0cfa55e","0198f767-55c9-7875-8d21-563b3c0b86ed","2025-08-29_16h20.20.932",NA,NA,465.0361,465.0361,465.0361,465.3875,NA,NA,NA,NA,NA,NA,NA,TRUE,1,0.6287,462.0365,465.036,NA,NA,NA,NA,NA,40,27,0,4,4,48,1,2,5,"binary"
"B82F4D1B45E841D4BB30D214369C533E",1,"0198f77c-9010-73da-936a-6591b0cfa55e","0198f767-55c9-7875-8d21-563b3c0b86ed","2025-08-29_16h20.20.932",NA,NA,468.3875,468.3875,468.3875,468.7329,NA,NA,NA,NA,NA,NA,NA,TRUE,1,1.5391,465.388,468.3875,NA,NA,NA,NA,NA,25,46,0,5,5,35,1,2,6,"binary"
"B82F4D1B45E841D4BB30D214369C533E",1,"0198f77c-9010-73da-936a-6591b0cfa55e","0198f767-55c9-7875-8d21-563b3c0b86ed","2025-08-29_16h20.20.932",NA,NA,471.733,471.733,471.733,472.0844,NA,NA,NA,NA,NA,NA,NA,TRUE,1,1.3516,468.7334,471.733,NA,NA,NA,NA,NA,14,28,0,6,6,20,1,2,7,"binary"
"B82F4D1B45E841D4BB30D214369C533E",1,"0198f77c-9010-73da-936a-6591b0cfa55e","0198f767-55c9-7875-8d21-563b3c0b86ed","2025-08-29_16h20.20.932",NA,NA,475.0845,475.0845,475.0845,475.4359,NA,NA,NA,NA,NA,NA,NA,TRUE,1,1.0796,472.0848,475.0844,NA,NA,NA,NA,NA,30,38,0,7,7,47,1,2,8,"binary"
"B82F4D1B45E841D4BB30D214369C533E",1,"0198f77c-9010-73da-936a-6591b0cfa55e","0198f767-55c9-7875-8d21-563b3c0b86ed","2025-08-29_16h20.20.932",NA,NA,478.436,478.436,478.436,478.7874,NA,NA,NA,NA,NA,NA,NA,TRUE,1,0.8247,475.4364,478.4359,NA,NA,NA,NA,NA,30,27,0,8,8,43,1,2,9,"binary"
"B82F4D1B45E841D4BB30D214369C533E",1,"0198f77c-9010-73da-936a-6591b0cfa55e","0198f767-55c9-7875-8d21-563b3c0b86ed","2025-08-29_16h20.20.932",NA,NA,481.7874,481.7874,481.7874,482.1328,NA,NA,NA,NA,NA,NA,NA,TRUE,1,0.7866,478.7879,481.7874,NA,NA,NA,NA,NA,150,33,0,9,9,91,1,2,10,"binary"
"B82F4D1B45E841D4BB30D214369C533E",1,"0198f77c-9010-73da-936a-6591b0cfa55e","0198f767-55c9-7875-8d21-563b3c0b86ed","2025-08-29_16h20.20.932",NA,NA,485.1328,485.1328,485.1328,485.4843,NA,NA,NA,NA,NA,NA,NA,TRUE,1,0.8589,482.1334,485.1328,NA,NA,NA,NA,NA,90,26,0,10,10,72,1,2,11,"binary"
"B82F4D1B45E841D4BB30D214369C533E",1,"0198f77c-9010-73da-936a-6591b0cfa55e","0198f767-55c9-7875-8d21-563b3c0b86ed","2025-08-29_16h20.20.932",NA,NA,488.4843,488.4843,488.4843,488.8358,NA,NA,NA,NA,NA,NA,NA,TRUE,1,1.3412,485.4847,488.4843,NA,NA,NA,NA,NA,30,32,0,11,11,46,1,2,12,"binary"
"B82F4D1B45E841D4BB30D214369C533E",1,"0198f77c-9010-73da-936a-6591b0cfa55e","0198f767-55c9-7875-8d21-563b3c0b86ed","2025-08-29_16h20.20.932",NA,NA,491.8359,491.8359,491.8359,492.1873,NA,NA,NA,NA,NA,NA,NA,TRUE,1,1.4814,488.8364,491.8358,NA,NA,NA,NA,NA,60,47,0,12,12,70,1,2,13,"binary"
"B82F4D1B45E841D4BB30D214369C533E",1,"0198f77c-9010-73da-936a-6591b0cfa55e","0198f767-55c9-7875-8d21-563b3c0b86ed","2025-08-29_16h20.20.932",NA,NA,495.1873,495.1873,495.1873,495.5327,NA,NA,NA,NA,NA,NA,NA,TRUE,1,1.0983,492.1877,495.1873,NA,NA,NA,NA,NA,45,26,0,13,13,54,1,2,14,"binary"
"B82F4D1B45E841D4BB30D214369C533E",1,"0198f77c-9010-73da-936a-6591b0cfa55e","0198f767-55c9-7875-8d21-563b3c0b86ed","2025-08-29_16h20.20.932",NA,NA,498.5327,498.5327,498.5327,498.8842,NA,NA,NA,NA,NA,NA,NA,TRUE,1,1.6927,495.5331,498.5326,NA,NA,NA,NA,NA,10,30,0,14,14,10,1,2,15,"binary"
"B82F4D1B45E841D4BB30D214369C533E",1,"0198f77c-9010-73da-936a-6591b0cfa55e","0198f767-55c9-7875-8d21-563b3c0b86ed","2025-08-29_16h20.20.932",NA,NA,501.8842,501.8842,501.8842,502.2357,NA,NA,NA,NA,NA,NA,NA,TRUE,1,1.6024,498.8847,501.8842,NA,NA,NA,NA,NA,150,35,0,15,15,92,1,2,16,"binary"
"B82F4D1B45E841D4BB30D214369C533E",1,"0198f77c-9010-73da-936a-6591b0cfa55e","0198f767-55c9-7875-8d21-563b3c0b86ed","2025-08-29_16h20.20.932",NA,NA,505.2357,505.2357,505.2357,505.5872,NA,NA,NA,NA,NA,NA,NA,TRUE,1,1.0672,502.2361,505.2356,NA,NA,NA,NA,NA,50,40,0,16,16,63,1,2,17,"binary"
"B82F4D1B45E841D4BB30D214369C533E",1,"0198f77c-9010-73da-936a-6591b0cfa55e","0198f767-55c9-7875-8d21-563b3c0b86ed","2025-08-29_16h20.20.932",NA,NA,508.5873,508.8356,508.8357,508.9326,NA,NA,NA,NA,NA,NA,NA,FALSE,NA,NA,505.5876,508.5872,NA,NA,NA,NA,NA,7,30,0,17,17,3,1,2,18,"binary"
"B82F4D1B45E841D4BB30D214369C533E",1,"0198f77c-9010-73da-936a-6591b0cfa55e","0198f767-55c9-7875-8d21-563b3c0b86ed","2025-08-29_16h20.20.932",NA,NA,511.9326,511.9326,511.9326,512.2841,NA,NA,NA,NA,NA,NA,NA,TRUE,1,1.298,508.9331,511.9326,NA,NA,NA,NA,NA,28,32,0,18,18,38,1,2,19,"binary"
"B82F4D1B45E841D4BB30D214369C533E",1,"0198f77c-9010-73da-936a-6591b0cfa55e","0198f767-55c9-7875-8d21-563b3c0b86ed","2025-08-29_16h20.20.932",NA,NA,515.2841,515.2841,515.2841,515.6356,NA,NA,NA,NA,NA,NA,NA,TRUE,1,1.058,512.2846,515.2841,NA,NA,NA,NA,NA,21,32,0,19,19,28,1,2,20,"binary"
"B82F4D1B45E841D4BB30D214369C533E",1,"0198f77c-9010-73da-936a-6591b0cfa55e","0198f767-55c9-7875-8d21-563b3c0b86ed","2025-08-29_16h20.20.932",NA,NA,518.6356,518.6356,518.6356,518.987,NA,NA,NA,NA,NA,NA,NA,TRUE,1,0.9598,515.6361,518.6355,NA,NA,NA,NA,NA,25,33,0,20,20,33,1,2,21,"binary"
"B82F4D1B45E841D4BB30D214369C533E",1,"0198f77c-9010-73da-936a-6591b0cfa55e","0198f767-55c9-7875-8d21-563b3c0b86ed","2025-08-29_16h20.20.932",NA,NA,521.9871,521.9871,521.9871,522.3325,NA,NA,NA,NA,NA,NA,NA,TRUE,1,1.0451,518.9876,521.987,NA,NA,NA,NA,NA,50,46,0,21,21,64,1,2,22,"binary"
"B82F4D1B45E841D4BB30D214369C533E",1,"0198f77c-9010-73da-936a-6591b0cfa55e","0198f767-55c9-7875-8d21-563b3c0b86ed","2025-08-29_16h20.20.932",NA,NA,525.3325,525.3325,525.3325,525.684,NA,NA,NA,NA,NA,NA,NA,TRUE,1,0.7266,522.3331,525.3325,NA,NA,NA,NA,NA,30,29,0,22,22,44,1,2,23,"binary"
"B82F4D1B45E841D4BB30D214369C533E",1,"0198f77c-9010-73da-936a-6591b0cfa55e","0198f767-55c9-7875-8d21-563b3c0b86ed","2025-08-29_16h20.20.932",NA,NA,528.684,528.684,528.684,529.0355,NA,NA,NA,NA,NA,NA,NA,TRUE,1,0.6207,525.6844,528.684,NA,NA,NA,NA,NA,100,26,0,23,23,84,1,2,24,"binary"
"B82F4D1B45E841D4BB30D214369C533E",1,"0198f77c-9010-73da-936a-6591b0cfa55e","0198f767-55c9-7875-8d21-563b3c0b86ed","2025-08-29_16h20.20.932",NA,NA,532.0355,532.0355,532.0355,532.387,NA,NA,NA,NA,NA,NA,NA,TRUE,1,0.5974,529.0361,532.0355,NA,NA,NA,NA,NA,12,25,0,24,24,12,1,2,25,"binary"
"B82F4D1B45E841D4BB30D214369C533E",1,"0198f77c-9010-73da-936a-6591b0cfa55e","0198f767-55c9-7875-8d21-563b3c0b86ed","2025-08-29_16h20.20.932",NA,NA,535.3869,535.387,535.387,535.7323,NA,NA,NA,NA,NA,NA,NA,TRUE,1,0.6724,532.3874,535.3869,NA,NA,NA,NA,NA,12,35,0,25,25,17,1,2,26,"binary"
"B82F4D1B45E841D4BB30D214369C533E",1,"0198f77c-9010-73da-936a-6591b0cfa55e","0198f767-55c9-7875-8d21-563b3c0b86ed","2025-08-29_16h20.20.932",NA,NA,538.7324,538.7324,538.7324,539.0838,NA,NA,NA,NA,NA,NA,NA,TRUE,1,0.5992,535.7328,538.7324,NA,NA,NA,NA,NA,200,28,0,26,26,103,1,2,27,"binary"
"B82F4D1B45E841D4BB30D214369C533E",1,"0198f77c-9010-73da-936a-6591b0cfa55e","0198f767-55c9-7875-8d21-563b3c0b86ed","2025-08-29_16h20.20.932",NA,NA,542.0839,542.0839,542.0839,542.4353,NA,NA,NA,NA,NA,NA,NA,TRUE,1,0.9303,539.0844,542.0838,NA,NA,NA,NA,NA,100,38,0,27,27,86,1,2,28,"binary"
"B82F4D1B45E841D4BB30D214369C533E",1,"0198f77c-9010-73da-936a-6591b0cfa55e","0198f767-55c9-7875-8d21-563b3c0b86ed","2025-08-29_16h20.20.932",NA,NA,545.4353,545.4354,545.4354,545.7868,NA,NA,NA,NA,NA,NA,NA,TRUE,1,0.8255,542.4359,545.4353,NA,NA,NA,NA,NA,21,29,0,28,28,26,1,2,29,"binary"
"B82F4D1B45E841D4BB30D214369C533E",1,"0198f77c-9010-73da-936a-6591b0cfa55e","0198f767-55c9-7875-8d21-563b3c0b86ed","2025-08-29_16h20.20.932",NA,NA,548.7868,548.7868,548.7868,549.1323,NA,NA,NA,NA,NA,NA,NA,TRUE,1,1.4947,545.7874,548.7868,NA,NA,NA,NA,NA,14,32,0,29,29,21,1,2,30,"binary"
"B82F4D1B45E841D4BB30D214369C533E",1,"0198f77c-9010-73da-936a-6591b0cfa55e","0198f767-55c9-7875-8d21-563b3c0b86ed","2025-08-29_16h20.20.932",NA,NA,552.1323,552.1323,552.1323,552.4837,NA,NA,NA,NA,NA,NA,NA,TRUE,1,1.3141,549.1328,552.1323,NA,NA,NA,NA,NA,12,33,0,30,30,16,1,2,31,"binary"
"B82F4D1B45E841D4BB30D214369C533E",1,"0198f77c-9010-73da-936a-6591b0cfa55e","0198f767-55c9-7875-8d21-563b3c0b86ed","2025-08-29_16h20.20.932",NA,NA,555.4837,555.4838,555.4838,555.8352,NA,NA,NA,NA,NA,NA,NA,TRUE,1,0.4337,552.4843,555.4837,NA,NA,NA,NA,NA,100,31,0,31,31,85,1,2,32,"binary"
"B82F4D1B45E841D4BB30D214369C533E",1,"0198f77c-9010-73da-936a-6591b0cfa55e","0198f767-55c9-7875-8d21-563b3c0b86ed","2025-08-29_16h20.20.932",NA,NA,558.8352,558.8352,558.8352,559.1867,NA,NA,NA,NA,NA,NA,NA,TRUE,1,0.68,555.8357,558.8352,NA,NA,NA,NA,NA,30,30,0,32,32,45,1,2,33,"binary"
"B82F4D1B45E841D4BB30D214369C533E",1,"0198f77c-9010-73da-936a-6591b0cfa55e","0198f767-55c9-7875-8d21-563b3c0b86ed","2025-08-29_16h20.20.932",NA,NA,562.1868,562.1868,562.1868,562.5322,NA,NA,NA,NA,NA,NA,NA,TRUE,2,1.3641,559.1873,562.1867,NA,NA,NA,NA,NA,10,32,0,33,33,11,1,2,34,"binary"
"B82F4D1B45E841D4BB30D214369C533E",1,"0198f77c-9010-73da-936a-6591b0cfa55e","0198f767-55c9-7875-8d21-563b3c0b86ed","2025-08-29_16h20.20.932",NA,NA,565.5322,565.5322,565.5322,565.8836,NA,NA,NA,NA,NA,NA,NA,TRUE,1,1.2154,562.5326,565.5322,NA,NA,NA,NA,NA,12,31,0,34,34,15,1,2,35,"binary"
"B82F4D1B45E841D4BB30D214369C533E",1,"0198f77c-9010-73da-936a-6591b0cfa55e","0198f767-55c9-7875-8d21-563b3c0b86ed","2025-08-29_16h20.20.932",NA,NA,568.8836,568.8836,568.8837,569.2351,NA,NA,NA,NA,NA,NA,NA,TRUE,1,0.9759,565.8841,568.8836,NA,NA,NA,NA,NA,28,35,0,35,35,39,1,2,36,"binary"
"B82F4D1B45E841D4BB30D214369C533E",1,"0198f77c-9010-73da-936a-6591b0cfa55e","0198f767-55c9-7875-8d21-563b3c0b86ed","2025-08-29_16h20.20.932",NA,NA,572.2352,572.2352,572.2352,572.5866,NA,NA,NA,NA,NA,NA,NA,TRUE,1,0.6801,569.2356,572.2351,NA,NA,NA,NA,NA,40,40,0,36,36,51,1,2,37,"binary"
"B82F4D1B45E841D4BB30D214369C533E",1,"0198f77c-9010-73da-936a-6591b0cfa55e","0198f767-55c9-7875-8d21-563b3c0b86ed","2025-08-29_16h20.20.932",NA,NA,575.5867,575.5867,575.5867,575.932,NA,NA,NA,NA,NA,NA,NA,TRUE,1,0.7539,572.5871,575.5866,NA,NA,NA,NA,NA,90,30,0,37,37,73,1,2,38,"binary"
"B82F4D1B45E841D4BB30D214369C533E",1,"0198f77c-9010-73da-936a-6591b0cfa55e","0198f767-55c9-7875-8d21-563b3c0b86ed","2025-08-29_16h20.20.932",NA,NA,578.9321,578.9321,578.9321,579.2835,NA,NA,NA,NA,NA,NA,NA,TRUE,1,0.8139,575.9326,578.9321,NA,NA,NA,NA,NA,30,26,0,38,38,42,1,2,39,"binary"
"B82F4D1B45E841D4BB30D214369C533E",1,"0198f77c-9010-73da-936a-6591b0cfa55e","0198f767-55c9-7875-8d21-563b3c0b86ed","2025-08-29_16h20.20.932",NA,NA,582.2836,582.2836,582.2836,582.635,NA,NA,NA,NA,NA,NA,NA,TRUE,1,0.5323,579.284,582.2836,NA,NA,NA,NA,NA,60,33,0,39,39,67,1,2,40,"binary"
"B82F4D1B45E841D4BB30D214369C533E",1,"0198f77c-9010-73da-936a-6591b0cfa55e","0198f767-55c9-7875-8d21-563b3c0b86ed","2025-08-29_16h20.20.932",NA,NA,585.635,585.635,585.635,585.9865,NA,NA,NA,NA,NA,NA,NA,TRUE,1,1.5498,582.6354,585.635,NA,NA,NA,NA,NA,10,29,0,40,40,9,1,2,41,"binary"
"B82F4D1B45E841D4BB30D214369C533E",1,"0198f77c-9010-73da-936a-6591b0cfa55e","0198f767-55c9-7875-8d21-563b3c0b86ed","2025-08-29_16h20.20.932",NA,NA,588.9865,588.9866,588.9866,589.3319,NA,NA,NA,NA,NA,NA,NA,TRUE,1,0.8345,585.9869,588.9865,NA,NA,NA,NA,NA,10,27,0,41,41,8,1,2,42,"binary"
"B82F4D1B45E841D4BB30D214369C533E",1,"0198f77c-9010-73da-936a-6591b0cfa55e","0198f767-55c9-7875-8d21-563b3c0b86ed","2025-08-29_16h20.20.932",NA,NA,592.3319,592.332,592.332,592.6834,NA,NA,NA,NA,NA,NA,NA,TRUE,1,0.5971,589.3324,592.3319,NA,NA,NA,NA,NA,90,46,0,42,42,76,1,2,43,"binary"
"B82F4D1B45E841D4BB30D214369C533E",1,"0198f77c-9010-73da-936a-6591b0cfa55e","0198f767-55c9-7875-8d21-563b3c0b86ed","2025-08-29_16h20.20.932",NA,NA,595.6835,595.6835,595.6835,596.0349,NA,NA,NA,NA,NA,NA,NA,TRUE,1,0.5544,592.6838,595.6834,NA,NA,NA,NA,NA,21,30,0,43,43,27,1,2,44,"binary"
"B82F4D1B45E841D4BB30D214369C533E",1,"0198f77c-9010-73da-936a-6591b0cfa55e","0198f767-55c9-7875-8d21-563b3c0b86ed","2025-08-29_16h20.20.932",NA,NA,599.0349,599.0349,599.0349,599.3864,NA,NA,NA,NA,NA,NA,NA,TRUE,1,0.5652,596.0353,599.0349,NA,NA,NA,NA,NA,28,26,0,44,44,36,1,2,45,"binary"
"B82F4D1B45E841D4BB30D214369C533E",1,"0198f77c-9010-73da-936a-6591b0cfa55e","0198f767-55c9-7875-8d21-563b3c0b86ed","2025-08-29_16h20.20.932",NA,NA,602.3864,602.3864,602.3864,602.7318,NA,NA,NA,NA,NA,NA,NA,TRUE,1,0.5915,599.3869,602.3864,NA,NA,NA,NA,NA,90,54,0,45,45,77,1,2,46,"binary"
"B82F4D1B45E841D4BB30D214369C533E",1,"0198f77c-9010-73da-936a-6591b0cfa55e","0198f767-55c9-7875-8d21-563b3c0b86ed","2025-08-29_16h20.20.932",NA,NA,605.7319,605.7319,605.7319,606.0834,NA,NA,NA,NA,NA,NA,NA,TRUE,1,0.7183,602.7322,605.7319,NA,NA,NA,NA,NA,45,31,0,46,46,56,1,2,47,"binary"
"B82F4D1B45E841D4BB30D214369C533E",1,"0198f77c-9010-73da-936a-6591b0cfa55e","0198f767-55c9-7875-8d21-563b3c0b86ed","2025-08-29_16h20.20.932",NA,NA,609.0834,609.0834,609.0834,609.4348,NA,NA,NA,NA,NA,NA,NA,TRUE,1,0.645,606.0839,609.0834,NA,NA,NA,NA,NA,150,40,0,47,47,93,1,2,48,"binary"
"B82F4D1B45E841D4BB30D214369C533E",1,"0198f77c-9010-73da-936a-6591b0cfa55e","0198f767-55c9-7875-8d21-563b3c0b86ed","2025-08-29_16h20.20.932",NA,NA,612.4348,612.4348,612.4348,612.7863,NA,NA,NA,NA,NA,NA,NA,TRUE,2,1.3976,609.4354,612.4348,NA,NA,NA,NA,NA,7,32,0,48,48,4,1,2,49,"binary"
"B82F4D1B45E841D4BB30D214369C533E",1,"0198f77c-9010-73da-936a-6591b0cfa55e","0198f767-55c9-7875-8d21-563b3c0b86ed","2025-08-29_16h20.20.932",NA,NA,615.7863,615.7863,615.7863,616.1317,NA,NA,NA,NA,NA,NA,NA,TRUE,1,0.7806,612.7868,615.7863,NA,NA,NA,NA,NA,200,26,0,49,49,102,1,2,50,"binary"
"B82F4D1B45E841D4BB30D214369C533E",1,"0198f77c-9010-73da-936a-6591b0cfa55e","0198f767-55c9-7875-8d21-563b3c0b86ed","2025-08-29_16h20.20.932",NA,NA,619.1378,619.1378,619.1378,619.4832,NA,NA,NA,NA,NA,NA,NA,TRUE,1,1.6248,616.1321,619.1377,NA,NA,NA,NA,NA,28,39,0,50,50,40,1,2,51,"binary"
"B82F4D1B45E841D4BB30D214369C533E",1,"0198f77c-9010-73da-936a-6591b0cfa55e","0198f767-55c9-7875-8d21-563b3c0b86ed","2025-08-29_16h20.20.932",NA,NA,622.4832,622.4832,622.4832,622.8347,NA,NA,NA,NA,NA,NA,NA,TRUE,1,0.9618,619.4837,622.4832,NA,NA,NA,NA,NA,180,31,0,51,51,97,1,2,52,"binary"
"B82F4D1B45E841D4BB30D214369C533E",1,"0198f77c-9010-73da-936a-6591b0cfa55e","0198f767-55c9-7875-8d21-563b3c0b86ed","2025-08-29_16h20.20.932",NA,NA,625.8347,625.8348,625.8348,626.1862,NA,NA,NA,NA,NA,NA,NA,TRUE,1,0.4929,622.8352,625.8347,NA,NA,NA,NA,NA,150,54,0,52,52,95,1,2,53,"binary"
"B82F4D1B45E841D4BB30D214369C533E",1,"0198f77c-9010-73da-936a-6591b0cfa55e","0198f767-55c9-7875-8d21-563b3c0b86ed","2025-08-29_16h20.20.932",NA,NA,629.1862,629.1862,629.1862,629.5376,NA,NA,NA,NA,NA,NA,NA,TRUE,1,0.5891,626.1867,629.1862,NA,NA,NA,NA,NA,60,29,0,53,53,66,1,2,54,"binary"
"B82F4D1B45E841D4BB30D214369C533E",1,"0198f77c-9010-73da-936a-6591b0cfa55e","0198f767-55c9-7875-8d21-563b3c0b86ed","2025-08-29_16h20.20.932",NA,NA,632.5377,632.5377,632.5377,632.8831,NA,NA,NA,NA,NA,NA,NA,TRUE,1,1.5332,629.5382,632.5376,NA,NA,NA,NA,NA,25,31,0,54,54,32,1,2,55,"binary"
"B82F4D1B45E841D4BB30D214369C533E",1,"0198f77c-9010-73da-936a-6591b0cfa55e","0198f767-55c9-7875-8d21-563b3c0b86ed","2025-08-29_16h20.20.932",NA,NA,635.8831,635.8831,635.8831,636.2346,NA,NA,NA,NA,NA,NA,NA,TRUE,2,1.6218,632.8835,635.8831,NA,NA,NA,NA,NA,14,39,0,55,55,23,1,2,56,"binary"
"B82F4D1B45E841D4BB30D214369C533E",1,"0198f77c-9010-73da-936a-6591b0cfa55e","0198f767-55c9-7875-8d21-563b3c0b86ed","2025-08-29_16h20.20.932",NA,NA,639.2346,639.2346,639.2346,639.586,NA,NA,NA,NA,NA,NA,NA,TRUE,1,1.6381,636.2351,639.2346,NA,NA,NA,NA,NA,12,28,0,56,56,14,1,2,57,"binary"
"B82F4D1B45E841D4BB30D214369C533E",1,"0198f77c-9010-73da-936a-6591b0cfa55e","0198f767-55c9-7875-8d21-563b3c0b86ed","2025-08-29_16h20.20.932",NA,NA,642.5861,642.5862,642.5862,642.9375,NA,NA,NA,NA,NA,NA,NA,TRUE,1,1.7201,639.5864,642.5861,NA,NA,NA,NA,NA,25,29,0,57,57,31,1,2,58,"binary"
"B82F4D1B45E841D4BB30D214369C533E",1,"0198f77c-9010-73da-936a-6591b0cfa55e","0198f767-55c9-7875-8d21-563b3c0b86ed","2025-08-29_16h20.20.932",NA,NA,645.9376,645.9376,645.9376,646.283,NA,NA,NA,NA,NA,NA,NA,TRUE,1,1.4465,642.9381,645.9376,NA,NA,NA,NA,NA,95,54,0,58,58,83,1,2,59,"binary"
"B82F4D1B45E841D4BB30D214369C533E",1,"0198f77c-9010-73da-936a-6591b0cfa55e","0198f767-55c9-7875-8d21-563b3c0b86ed","2025-08-29_16h20.20.932",NA,NA,649.283,649.283,649.283,649.6345,NA,NA,NA,NA,NA,NA,NA,TRUE,1,0.9472,646.2835,649.283,NA,NA,NA,NA,NA,100,39,0,59,59,87,1,2,60,"binary"
"B82F4D1B45E841D4BB30D214369C533E",1,"0198f77c-9010-73da-936a-6591b0cfa55e","0198f767-55c9-7875-8d21-563b3c0b86ed","2025-08-29_16h20.20.932",NA,NA,652.6345,652.6345,652.6345,652.986,NA,NA,NA,NA,NA,NA,NA,TRUE,1,0.8897,649.635,652.6345,NA,NA,NA,NA,NA,21,27,0,60,60,25,1,2,61,"binary"
"B82F4D1B45E841D4BB30D214369C533E",1,"0198f77c-9010-73da-936a-6591b0cfa55e","0198f767-55c9-7875-8d21-563b3c0b86ed","2025-08-29_16h20.20.932",NA,NA,655.986,655.986,655.986,656.3375,NA,NA,NA,NA,NA,NA,NA,TRUE,1,1.2824,652.9864,655.986,NA,NA,NA,NA,NA,40,35,0,61,61,50,1,2,62,"binary"
"B82F4D1B45E841D4BB30D214369C533E",1,"0198f77c-9010-73da-936a-6591b0cfa55e","0198f767-55c9-7875-8d21-563b3c0b86ed","2025-08-29_16h20.20.932",NA,NA,659.3375,659.3375,659.3375,659.6829,NA,NA,NA,NA,NA,NA,NA,TRUE,1,1.3366,656.3379,659.3374,NA,NA,NA,NA,NA,200,47,0,62,62,106,1,2,63,"binary"
"B82F4D1B45E841D4BB30D214369C533E",1,"0198f77c-9010-73da-936a-6591b0cfa55e","0198f767-55c9-7875-8d21-563b3c0b86ed","2025-08-29_16h20.20.932",NA,NA,662.6829,662.6829,662.6829,663.0344,NA,NA,NA,NA,NA,NA,NA,TRUE,1,0.8934,659.6834,662.6829,NA,NA,NA,NA,NA,50,27,0,63,63,60,1,2,64,"binary"
"B82F4D1B45E841D4BB30D214369C533E",1,"0198f77c-9010-73da-936a-6591b0cfa55e","0198f767-55c9-7875-8d21-563b3c0b86ed","2025-08-29_16h20.20.932",NA,NA,666.0344,666.0344,666.0344,666.3859,NA,NA,NA,NA,NA,NA,NA,TRUE,1,0.8453,663.0348,666.0344,NA,NA,NA,NA,NA,50,54,0,64,64,65,1,2,65,"binary"
"B82F4D1B45E841D4BB30D214369C533E",1,"0198f77c-9010-73da-936a-6591b0cfa55e","0198f767-55c9-7875-8d21-563b3c0b86ed","2025-08-29_16h20.20.932",NA,NA,669.3859,669.3859,669.3859,669.7373,NA,NA,NA,NA,NA,NA,NA,TRUE,1,0.844,666.3862,669.3859,NA,NA,NA,NA,NA,45,46,0,65,65,59,1,2,66,"binary"
"B82F4D1B45E841D4BB30D214369C533E",1,"0198f77c-9010-73da-936a-6591b0cfa55e","0198f767-55c9-7875-8d21-563b3c0b86ed","2025-08-29_16h20.20.932",NA,NA,672.7374,672.7374,672.7374,673.0828,NA,NA,NA,NA,NA,NA,NA,TRUE,1,0.6183,669.7379,672.7374,NA,NA,NA,NA,NA,95,40,0,66,66,81,1,2,67,"binary"
"B82F4D1B45E841D4BB30D214369C533E",1,"0198f77c-9010-73da-936a-6591b0cfa55e","0198f767-55c9-7875-8d21-563b3c0b86ed","2025-08-29_16h20.20.932",NA,NA,676.0828,676.0828,676.0828,676.4343,NA,NA,NA,NA,NA,NA,NA,TRUE,1,1.2671,673.0833,676.0828,NA,NA,NA,NA,NA,10,25,0,67,67,6,1,2,68,"binary"
"B82F4D1B45E841D4BB30D214369C533E",1,"0198f77c-9010-73da-936a-6591b0cfa55e","0198f767-55c9-7875-8d21-563b3c0b86ed","2025-08-29_16h20.20.932",NA,NA,679.4343,679.4344,679.4344,679.7858,NA,NA,NA,NA,NA,NA,NA,TRUE,1,1.891,676.4347,679.4343,NA,NA,NA,NA,NA,21,38,0,68,68,29,1,2,69,"binary"
"B82F4D1B45E841D4BB30D214369C533E",1,"0198f77c-9010-73da-936a-6591b0cfa55e","0198f767-55c9-7875-8d21-563b3c0b86ed","2025-08-29_16h20.20.932",NA,NA,682.786,682.786,682.786,683.1373,NA,NA,NA,NA,NA,NA,NA,TRUE,1,1.2111,679.7863,682.7859,NA,NA,NA,NA,NA,180,54,0,69,69,101,1,2,70,"binary"
"B82F4D1B45E841D4BB30D214369C533E",1,"0198f77c-9010-73da-936a-6591b0cfa55e","0198f767-55c9-7875-8d21-563b3c0b86ed","2025-08-29_16h20.20.932",NA,NA,686.1373,686.1373,686.1373,686.4827,NA,NA,NA,NA,NA,NA,NA,TRUE,1,0.4474,683.1379,686.1373,NA,NA,NA,NA,NA,180,35,0,70,70,98,1,2,71,"binary"
"B82F4D1B45E841D4BB30D214369C533E",1,"0198f77c-9010-73da-936a-6591b0cfa55e","0198f767-55c9-7875-8d21-563b3c0b86ed","2025-08-29_16h20.20.932",NA,NA,689.4827,689.4827,689.4827,689.8342,NA,NA,NA,NA,NA,NA,NA,TRUE,1,0.3234,686.4831,689.4827,NA,NA,NA,NA,NA,95,47,0,71,71,82,1,2,72,"binary"
"B82F4D1B45E841D4BB30D214369C533E",1,"0198f77c-9010-73da-936a-6591b0cfa55e","0198f767-55c9-7875-8d21-563b3c0b86ed","2025-08-29_16h20.20.932",NA,NA,692.8343,692.8343,692.8343,693.1857,NA,NA,NA,NA,NA,NA,NA,TRUE,1,0.5295,689.8347,692.8341,NA,NA,NA,NA,NA,200,35,0,72,72,104,1,2,73,"binary"
"B82F4D1B45E841D4BB30D214369C533E",1,"0198f77c-9010-73da-936a-6591b0cfa55e","0198f767-55c9-7875-8d21-563b3c0b86ed","2025-08-29_16h20.20.932",NA,NA,696.1857,696.1857,696.1857,696.5371,NA,NA,NA,NA,NA,NA,NA,TRUE,1,0.6349,693.1862,696.1857,NA,NA,NA,NA,NA,50,30,0,73,73,61,1,2,74,"binary"
"B82F4D1B45E841D4BB30D214369C533E",1,"0198f77c-9010-73da-936a-6591b0cfa55e","0198f767-55c9-7875-8d21-563b3c0b86ed","2025-08-29_16h20.20.932",NA,NA,699.5371,699.5371,699.5371,699.8826,NA,NA,NA,NA,NA,NA,NA,TRUE,1,0.4231,696.5376,699.5371,NA,NA,NA,NA,NA,25,27,0,74,74,30,1,2,75,"binary"
"B82F4D1B45E841D4BB30D214369C533E",1,"0198f77c-9010-73da-936a-6591b0cfa55e","0198f767-55c9-7875-8d21-563b3c0b86ed","2025-08-29_16h20.20.932",NA,NA,702.8826,702.8826,702.8826,703.2341,NA,NA,NA,NA,NA,NA,NA,TRUE,1,0.5372,699.8831,702.8825,NA,NA,NA,NA,NA,60,54,0,75,75,71,1,2,76,"binary"
"B82F4D1B45E841D4BB30D214369C533E",1,"0198f77c-9010-73da-936a-6591b0cfa55e","0198f767-55c9-7875-8d21-563b3c0b86ed","2025-08-29_16h20.20.932",NA,NA,706.2341,706.2341,706.2341,706.5856,NA,NA,NA,NA,NA,NA,NA,TRUE,1,1.0616,703.2344,706.234,NA,NA,NA,NA,NA,60,35,0,76,76,68,1,2,77,"binary"
"B82F4D1B45E841D4BB30D214369C533E",1,"0198f77c-9010-73da-936a-6591b0cfa55e","0198f767-55c9-7875-8d21-563b3c0b86ed","2025-08-29_16h20.20.932",NA,NA,709.5856,709.5856,709.5856,709.9371,NA,NA,NA,NA,NA,NA,NA,TRUE,1,0.5091,706.586,709.5855,NA,NA,NA,NA,NA,90,33,0,77,77,74,1,2,78,"binary"
"B82F4D1B45E841D4BB30D214369C533E",1,"0198f77c-9010-73da-936a-6591b0cfa55e","0198f767-55c9-7875-8d21-563b3c0b86ed","2025-08-29_16h20.20.932",NA,NA,712.937,712.937,712.9371,713.2825,NA,NA,NA,NA,NA,NA,NA,TRUE,1,0.4565,709.9375,712.937,NA,NA,NA,NA,NA,100,54,0,78,78,89,1,2,79,"binary"
"B82F4D1B45E841D4BB30D214369C533E",1,"0198f77c-9010-73da-936a-6591b0cfa55e","0198f767-55c9-7875-8d21-563b3c0b86ed","2025-08-29_16h20.20.932",NA,NA,716.2825,716.2825,716.2825,716.6339,NA,NA,NA,NA,NA,NA,NA,TRUE,1,0.6047,713.2829,716.2825,NA,NA,NA,NA,NA,95,35,0,79,79,80,1,2,80,"binary"
"B82F4D1B45E841D4BB30D214369C533E",1,"0198f77c-9010-73da-936a-6591b0cfa55e","0198f767-55c9-7875-8d21-563b3c0b86ed","2025-08-29_16h20.20.932",NA,NA,719.634,719.634,719.634,719.9854,NA,NA,NA,NA,NA,NA,NA,TRUE,2,1.5841,716.6344,719.6339,NA,NA,NA,NA,NA,14,35,0,80,80,22,1,2,81,"binary"
"B82F4D1B45E841D4BB30D214369C533E",1,"0198f77c-9010-73da-936a-6591b0cfa55e","0198f767-55c9-7875-8d21-563b3c0b86ed","2025-08-29_16h20.20.932",NA,NA,722.9855,722.9855,722.9855,723.337,NA,NA,NA,NA,NA,NA,NA,TRUE,1,2.0558,719.9861,722.9855,NA,NA,NA,NA,NA,180,39,0,81,81,99,1,2,82,"binary"
"B82F4D1B45E841D4BB30D214369C533E",1,"0198f77c-9010-73da-936a-6591b0cfa55e","0198f767-55c9-7875-8d21-563b3c0b86ed","2025-08-29_16h20.20.932",NA,NA,726.337,726.337,726.337,726.6824,NA,NA,NA,NA,NA,NA,NA,TRUE,1,1.1712,723.3374,726.3369,NA,NA,NA,NA,NA,7,26,0,82,82,1,1,2,83,"binary"
"B82F4D1B45E841D4BB30D214369C533E",1,"0198f77c-9010-73da-936a-6591b0cfa55e","0198f767-55c9-7875-8d21-563b3c0b86ed","2025-08-29_16h20.20.932",NA,NA,729.6824,729.6824,729.6824,730.0338,NA,NA,NA,NA,NA,NA,NA,TRUE,1,0.8313,726.6828,729.6824,NA,NA,NA,NA,NA,12,26,0,83,83,13,1,2,84,"binary"
"B82F4D1B45E841D4BB30D214369C533E",1,"0198f77c-9010-73da-936a-6591b0cfa55e","0198f767-55c9-7875-8d21-563b3c0b86ed","2025-08-29_16h20.20.932",NA,NA,733.0338,733.0338,733.0338,733.3854,NA,NA,NA,NA,NA,NA,NA,TRUE,1,0.6,730.0344,733.0338,NA,NA,NA,NA,NA,40,47,0,84,84,52,1,2,85,"binary"
"B82F4D1B45E841D4BB30D214369C533E",1,"0198f77c-9010-73da-936a-6591b0cfa55e","0198f767-55c9-7875-8d21-563b3c0b86ed","2025-08-29_16h20.20.932",NA,NA,736.3854,736.3854,736.3854,736.7368,NA,NA,NA,NA,NA,NA,NA,TRUE,1,0.9362,733.3858,736.3854,NA,NA,NA,NA,NA,40,33,0,85,85,49,1,2,86,"binary"
"B82F4D1B45E841D4BB30D214369C533E",1,"0198f77c-9010-73da-936a-6591b0cfa55e","0198f767-55c9-7875-8d21-563b3c0b86ed","2025-08-29_16h20.20.932",NA,NA,739.7368,739.7368,739.7368,740.0823,NA,NA,NA,NA,NA,NA,NA,TRUE,1,0.4477,736.7372,739.7368,NA,NA,NA,NA,NA,45,40,0,86,86,58,1,2,87,"binary"
"B82F4D1B45E841D4BB30D214369C533E",1,"0198f77c-9010-73da-936a-6591b0cfa55e","0198f767-55c9-7875-8d21-563b3c0b86ed","2025-08-29_16h20.20.932",NA,NA,743.0823,743.0823,743.0823,743.4338,NA,NA,NA,NA,NA,NA,NA,TRUE,1,0.4089,740.0827,743.0823,NA,NA,NA,NA,NA,28,46,0,87,87,41,1,2,88,"binary"
"B82F4D1B45E841D4BB30D214369C533E",1,"0198f77c-9010-73da-936a-6591b0cfa55e","0198f767-55c9-7875-8d21-563b3c0b86ed","2025-08-29_16h20.20.932",NA,NA,746.4338,746.4338,746.4338,746.7852,NA,NA,NA,NA,NA,NA,NA,TRUE,1,0.6722,743.4342,746.4337,NA,NA,NA,NA,NA,28,28,0,88,88,37,1,2,89,"binary"
"B82F4D1B45E841D4BB30D214369C533E",1,"0198f77c-9010-73da-936a-6591b0cfa55e","0198f767-55c9-7875-8d21-563b3c0b86ed","2025-08-29_16h20.20.932",NA,NA,749.7853,749.7853,749.7853,750.1367,NA,NA,NA,NA,NA,NA,NA,TRUE,1,0.4457,746.7856,749.7852,NA,NA,NA,NA,NA,150,31,0,89,89,90,1,2,90,"binary"
"B82F4D1B45E841D4BB30D214369C533E",1,"0198f77c-9010-73da-936a-6591b0cfa55e","0198f767-55c9-7875-8d21-563b3c0b86ed","2025-08-29_16h20.20.932",NA,NA,753.1368,753.1368,753.1368,753.4821,NA,NA,NA,NA,NA,NA,NA,TRUE,1,0.6444,750.1371,753.1367,NA,NA,NA,NA,NA,60,40,0,90,90,69,1,2,91,"binary"
"B82F4D1B45E841D4BB30D214369C533E",1,"0198f77c-9010-73da-936a-6591b0cfa55e","0198f767-55c9-7875-8d21-563b3c0b86ed","2025-08-29_16h20.20.932",NA,NA,756.4821,756.4821,756.4821,756.8336,NA,NA,NA,NA,NA,NA,NA,TRUE,1,0.5546,753.4826,756.4821,NA,NA,NA,NA,NA,45,35,0,91,91,57,1,2,92,"binary"
"B82F4D1B45E841D4BB30D214369C533E",1,"0198f77c-9010-73da-936a-6591b0cfa55e","0198f767-55c9-7875-8d21-563b3c0b86ed","2025-08-29_16h20.20.932",NA,NA,759.8337,759.8337,759.8337,760.1851,NA,NA,NA,NA,NA,NA,NA,TRUE,1,0.4567,756.834,759.8336,NA,NA,NA,NA,NA,180,46,0,92,92,100,1,2,93,"binary"
"B82F4D1B45E841D4BB30D214369C533E",1,"0198f77c-9010-73da-936a-6591b0cfa55e","0198f767-55c9-7875-8d21-563b3c0b86ed","2025-08-29_16h20.20.932",NA,NA,763.1851,763.1851,763.1851,763.5366,NA,NA,NA,NA,NA,NA,NA,TRUE,1,0.5335,760.1856,763.1851,NA,NA,NA,NA,NA,40,54,0,93,93,53,1,2,94,"binary"
"B82F4D1B45E841D4BB30D214369C533E",1,"0198f77c-9010-73da-936a-6591b0cfa55e","0198f767-55c9-7875-8d21-563b3c0b86ed","2025-08-29_16h20.20.932",NA,NA,766.5366,766.5366,766.5366,766.882,NA,NA,NA,NA,NA,NA,NA,TRUE,1,1.1009,763.537,766.5366,NA,NA,NA,NA,NA,14,26,0,94,94,19,1,2,95,"binary"
"B82F4D1B45E841D4BB30D214369C533E",1,"0198f77c-9010-73da-936a-6591b0cfa55e","0198f767-55c9-7875-8d21-563b3c0b86ed","2025-08-29_16h20.20.932",NA,NA,769.8821,769.8821,769.8821,770.2335,NA,NA,NA,NA,NA,NA,NA,TRUE,1,1.3747,766.8824,769.882,NA,NA,NA,NA,NA,95,31,0,95,95,78,1,2,96,"binary"
"B82F4D1B45E841D4BB30D214369C533E",1,"0198f77c-9010-73da-936a-6591b0cfa55e","0198f767-55c9-7875-8d21-563b3c0b86ed","2025-08-29_16h20.20.932",NA,NA,773.2335,773.2335,773.2335,773.585,NA,NA,NA,NA,NA,NA,NA,TRUE,1,0.9121,770.234,773.2335,NA,NA,NA,NA,NA,45,29,0,96,96,55,1,2,97,"binary"
"B82F4D1B45E841D4BB30D214369C533E",1,"0198f77c-9010-73da-936a-6591b0cfa55e","0198f767-55c9-7875-8d21-563b3c0b86ed","2025-08-29_16h20.20.932",NA,NA,776.585,776.585,776.585,776.9365,NA,NA,NA,NA,NA,NA,NA,TRUE,1,0.6121,773.5854,776.5849,NA,NA,NA,NA,NA,100,46,0,97,97,88,1,2,98,"binary"
"B82F4D1B45E841D4BB30D214369C533E",1,"0198f77c-9010-73da-936a-6591b0cfa55e","0198f767-55c9-7875-8d21-563b3c0b86ed","2025-08-29_16h20.20.932",NA,NA,779.9365,779.9365,779.9365,780.282,NA,NA,NA,NA,NA,NA,NA,TRUE,1,0.5436,776.937,779.9365,NA,NA,NA,NA,NA,180,27,0,98,98,96,1,2,99,"binary"
"B82F4D1B45E841D4BB30D214369C533E",1,"0198f77c-9010-73da-936a-6591b0cfa55e","0198f767-55c9-7875-8d21-563b3c0b86ed","2025-08-29_16h20.20.932",NA,NA,783.2819,783.2819,783.2819,783.6334,NA,NA,NA,NA,NA,NA,NA,TRUE,1,1.3051,780.2823,783.2819,NA,NA,NA,NA,NA,25,35,0,99,99,34,1,2,100,"binary"
"B82F4D1B45E841D4BB30D214369C533E",1,"0198f77c-9010-73da-936a-6591b0cfa55e","0198f767-55c9-7875-8d21-563b3c0b86ed","2025-08-29_16h20.20.932",NA,NA,786.6335,786.6335,786.6335,786.9849,NA,NA,NA,NA,NA,NA,NA,TRUE,1,1.3897,783.6338,786.6334,NA,NA,NA,NA,NA,14,25,0,100,100,18,1,2,101,"binary"
"B82F4D1B45E841D4BB30D214369C533E",1,"0198f77c-9010-73da-936a-6591b0cfa55e","0198f767-55c9-7875-8d21-563b3c0b86ed","2025-08-29_16h20.20.932",NA,NA,789.985,789.985,789.985,790.3364,NA,NA,NA,NA,NA,NA,NA,TRUE,1,1.3006,786.9853,789.9849,NA,NA,NA,NA,NA,7,25,0,101,101,0,1,2,102,"binary"
"B82F4D1B45E841D4BB30D214369C533E",1,"0198f77c-9010-73da-936a-6591b0cfa55e","0198f767-55c9-7875-8d21-563b3c0b86ed","2025-08-29_16h20.20.932",NA,NA,793.3364,793.3364,793.3364,793.6818,NA,NA,NA,NA,NA,NA,NA,TRUE,1,0.6703,790.3369,793.3364,NA,NA,NA,NA,NA,95,33,0,102,102,79,1,2,103,"binary"
"B82F4D1B45E841D4BB30D214369C533E",1,"0198f77c-9010-73da-936a-6591b0cfa55e","0198f767-55c9-7875-8d21-563b3c0b86ed","2025-08-29_16h20.20.932",NA,NA,796.6819,796.6819,796.6819,797.0332,NA,NA,NA,NA,NA,NA,NA,TRUE,1,1.1718,793.6823,796.6818,NA,NA,NA,NA,NA,50,35,0,103,103,62,1,2,104,"binary"
"B82F4D1B45E841D4BB30D214369C533E",1,"0198f77c-9010-73da-936a-6591b0cfa55e","0198f767-55c9-7875-8d21-563b3c0b86ed","2025-08-29_16h20.20.932",NA,NA,800.0333,800.0333,800.0333,800.3848,NA,NA,NA,NA,NA,NA,NA,TRUE,1,1.6783,797.0337,800.0333,NA,NA,NA,NA,NA,90,40,0,104,104,75,1,2,105,"binary"
"B82F4D1B45E841D4BB30D214369C533E",1,"0198f77c-9010-73da-936a-6591b0cfa55e","0198f767-55c9-7875-8d21-563b3c0b86ed","2025-08-29_16h20.20.932",NA,NA,803.3848,803.3848,803.3848,803.7363,NA,NA,NA,NA,NA,NA,NA,TRUE,1,0.7311,800.3852,803.3848,NA,NA,NA,NA,NA,200,39,0,105,105,105,1,2,106,"binary"
"B82F4D1B45E841D4BB30D214369C533E",1,"0198f77c-9010-73da-936a-6591b0cfa55e","0198f767-55c9-7875-8d21-563b3c0b86ed","2025-08-29_16h20.20.932",NA,NA,806.7362,806.7362,806.7363,807.0878,NA,NA,NA,NA,NA,NA,NA,TRUE,1,0.5288,803.7367,806.7362,NA,NA,NA,NA,NA,150,47,0,106,106,94,1,2,107,"binary"
"B82F4D1B45E841D4BB30D214369C533E",1,"0198f77c-9010-73da-936a-6591b0cfa55e","0198f767-55c9-7875-8d21-563b3c0b86ed","2025-08-29_16h20.20.932",NA,NA,810.0817,810.0817,810.0817,810.4332,NA,NA,NA,NA,NA,NA,NA,TRUE,1,0.6261,807.0882,810.0817,NA,NA,NA,NA,NA,200,54,0,107,107,107,1,2,108,"binary"
