"participant","session","assignmentId","projectId","date","practiceTrial.started","practiceTrial.stopped","tooLate.started","tooLate.stopped","blank.started","blank.stopped","trials_pract.thisRepN","trials_pract.thisTrialN","trials_pract.thisN","trials_pract.thisIndex","trials_pract.ran","delay_pract","amount_pract","responseMade","key","rt","trial.started","trial.stopped","trials.thisRepN","trials.thisTrialN","trials.thisN","trials.thisIndex","trials.ran","delay","amount","trials_2.thisRepN","trials_2.thisTrialN","trials_2.thisN","trials_2.thisIndex","trials_2.ran","block","trial","taskType"
"BA3FE08EE94F4F7B96DE578050CB81DE",1,"01990a9f-1d7e-7dcc-b85f-ac9366f1ff98","01990a83-7673-7c0c-a792-bbd8fbbaf673","2025-09-02_07h56.26.744",56.853,59.847,59.848,59.853,59.853,60.155,0,0,0,3,1,3,27,TRUE,1,1.289,NA,NA,NA,NA,NA,NA,NA,NA,NA,NA,NA,NA,NA,NA,0,1,"binary"
"BA3FE08EE94F4F7B96DE578050CB81DE",1,"01990a9f-1d7e-7dcc-b85f-ac9366f1ff98","01990a83-7673-7c0c-a792-bbd8fbbaf673","2025-09-02_07h56.26.744",60.158,63.184,63.184,63.184,63.184,63.479,0,1,1,1,1,100,50,TRUE,1,0.676,NA,NA,NA,NA,NA,NA,NA,NA,NA,NA,NA,NA,NA,NA,0,2,"binary"
"BA3FE08EE94F4F7B96DE578050CB81DE",1,"01990a9f-1d7e-7dcc-b85f-ac9366f1ff98","01990a83-7673-7c0c-a792-bbd8fbbaf673","2025-09-02_07h56.26.744",63.481,66.437,66.437,66.437,66.437,66.918,0,2,2,2,1,14,45,TRUE,1,1.523,NA,NA,NA,NA,NA,NA,NA,NA,NA,NA,NA,NA,NA,NA,0,3,"binary"
"BA3FE08EE94F4F7B96DE578050CB81DE",1,"01990a9f-1d7e-7dcc-b85f-ac9366f1ff98","01990a83-7673-7c0c-a792-bbd8fbbaf673","2025-09-02_07h56.26.744",66.926,69.799,69.8,69.8,69.8,70.133,0,3,3,4,1,30,40,TRUE,1,0.822,NA,NA,NA,NA,NA,NA,NA,NA,NA,NA,NA,NA,NA,NA,0,4,"binary"
"BA3FE08EE94F4F7B96DE578050CB81DE",1,"01990a9f-1d7e-7dcc-b85f-ac9366f1ff98","01990a83-7673-7c0c-a792-bbd8fbbaf673","2025-09-02_07h56.26.744",70.136,73.193,73.193,73.193,73.193,73.494,0,4,4,0,1,7,30,TRUE,1,0.513,NA,NA,NA,NA,NA,NA,NA,NA,NA,NA,NA,NA,NA,NA,0,5,"binary"
"BA3FE08EE94F4F7B96DE578050CB81DE",1,"01990a9f-1d7e-7dcc-b85f-ac9366f1ff98","01990a83-7673-7c0c-a792-bbd8fbbaf673","2025-09-02_07h56.26.744",NA,NA,174.592,174.592,174.592,174.956,NA,NA,NA,NA,NA,NA,NA,TRUE,1,1.605,171.716,174.592,0,0,0,16,1,12,33,NA,NA,NA,NA,NA,1,1,"binary"
"BA3FE08EE94F4F7B96DE578050CB81DE",1,"01990a9f-1d7e-7dcc-b85f-ac9366f1ff98","01990a83-7673-7c0c-a792-bbd8fbbaf673","2025-09-02_07h56.26.744",NA,NA,177.971,177.971,177.971,178.361,NA,NA,NA,NA,NA,NA,NA,TRUE,1,2.761,174.959,177.971,0,1,1,11,1,10,32,NA,NA,NA,NA,NA,1,2,"binary"
"BA3FE08EE94F4F7B96DE578050CB81DE",1,"01990a9f-1d7e-7dcc-b85f-ac9366f1ff98","01990a83-7673-7c0c-a792-bbd8fbbaf673","2025-09-02_07h56.26.744",NA,NA,181.36,181.36,181.36,181.71,NA,NA,NA,NA,NA,NA,NA,TRUE,1,0.651,178.37,181.36,0,2,2,9,1,10,29,NA,NA,NA,NA,NA,1,3,"binary"
"BA3FE08EE94F4F7B96DE578050CB81DE",1,"01990a9f-1d7e-7dcc-b85f-ac9366f1ff98","01990a83-7673-7c0c-a792-bbd8fbbaf673","2025-09-02_07h56.26.744",NA,NA,184.755,184.755,184.755,185.019,NA,NA,NA,NA,NA,NA,NA,TRUE,1,0.004,181.713,184.755,0,3,3,23,1,14,39,NA,NA,NA,NA,NA,1,4,"binary"
"BA3FE08EE94F4F7B96DE578050CB81DE",1,"01990a9f-1d7e-7dcc-b85f-ac9366f1ff98","01990a83-7673-7c0c-a792-bbd8fbbaf673","2025-09-02_07h56.26.744",NA,NA,188.109,188.11,188.11,188.349,NA,NA,NA,NA,NA,NA,NA,TRUE,1,0.541,185.032,188.109,0,4,4,96,1,180,27,NA,NA,NA,NA,NA,1,5,"binary"
"BA3FE08EE94F4F7B96DE578050CB81DE",1,"01990a9f-1d7e-7dcc-b85f-ac9366f1ff98","01990a83-7673-7c0c-a792-bbd8fbbaf673","2025-09-02_07h56.26.744",NA,NA,191.442,191.442,191.442,191.689,NA,NA,NA,NA,NA,NA,NA,TRUE,1,0.414,188.351,191.441,0,5,5,49,1,40,33,NA,NA,NA,NA,NA,1,6,"binary"
"BA3FE08EE94F4F7B96DE578050CB81DE",1,"01990a9f-1d7e-7dcc-b85f-ac9366f1ff98","01990a83-7673-7c0c-a792-bbd8fbbaf673","2025-09-02_07h56.26.744",NA,NA,194.759,194.759,194.759,195.117,NA,NA,NA,NA,NA,NA,NA,TRUE,1,0.505,191.698,194.759,0,6,6,14,1,12,28,NA,NA,NA,NA,NA,1,7,"binary"
"BA3FE08EE94F4F7B96DE578050CB81DE",1,"01990a9f-1d7e-7dcc-b85f-ac9366f1ff98","01990a83-7673-7c0c-a792-bbd8fbbaf673","2025-09-02_07h56.26.744",NA,NA,198.131,198.131,198.131,198.5,NA,NA,NA,NA,NA,NA,NA,TRUE,1,0.777,195.12,198.131,0,7,7,36,1,28,26,NA,NA,NA,NA,NA,1,8,"binary"
"BA3FE08EE94F4F7B96DE578050CB81DE",1,"01990a9f-1d7e-7dcc-b85f-ac9366f1ff98","01990a83-7673-7c0c-a792-bbd8fbbaf673","2025-09-02_07h56.26.744",NA,NA,201.39,201.39,201.39,201.756,NA,NA,NA,NA,NA,NA,NA,TRUE,1,0.726,198.511,201.39,0,8,8,1,1,7,26,NA,NA,NA,NA,NA,1,9,"binary"
"BA3FE08EE94F4F7B96DE578050CB81DE",1,"01990a9f-1d7e-7dcc-b85f-ac9366f1ff98","01990a83-7673-7c0c-a792-bbd8fbbaf673","2025-09-02_07h56.26.744",NA,NA,204.866,204.866,204.866,205.101,NA,NA,NA,NA,NA,NA,NA,TRUE,1,0.508,201.758,204.865,0,9,9,15,1,12,31,NA,NA,NA,NA,NA,1,10,"binary"
"BA3FE08EE94F4F7B96DE578050CB81DE",1,"01990a9f-1d7e-7dcc-b85f-ac9366f1ff98","01990a83-7673-7c0c-a792-bbd8fbbaf673","2025-09-02_07h56.26.744",NA,NA,208.17,208.17,208.17,208.544,NA,NA,NA,NA,NA,NA,NA,TRUE,1,0.277,205.103,208.17,0,10,10,24,1,21,26,NA,NA,NA,NA,NA,1,11,"binary"
"BA3FE08EE94F4F7B96DE578050CB81DE",1,"01990a9f-1d7e-7dcc-b85f-ac9366f1ff98","01990a83-7673-7c0c-a792-bbd8fbbaf673","2025-09-02_07h56.26.744",NA,NA,211.476,211.476,211.476,211.829,NA,NA,NA,NA,NA,NA,NA,TRUE,1,0.662,208.547,211.475,0,11,11,48,1,40,27,NA,NA,NA,NA,NA,1,12,"binary"
"BA3FE08EE94F4F7B96DE578050CB81DE",1,"01990a9f-1d7e-7dcc-b85f-ac9366f1ff98","01990a83-7673-7c0c-a792-bbd8fbbaf673","2025-09-02_07h56.26.744",NA,NA,214.863,214.863,214.863,215.239,NA,NA,NA,NA,NA,NA,NA,TRUE,1,0.523,211.837,214.862,0,12,12,104,1,200,35,NA,NA,NA,NA,NA,1,13,"binary"
"BA3FE08EE94F4F7B96DE578050CB81DE",1,"01990a9f-1d7e-7dcc-b85f-ac9366f1ff98","01990a83-7673-7c0c-a792-bbd8fbbaf673","2025-09-02_07h56.26.744",NA,NA,218.207,218.207,218.207,218.566,NA,NA,NA,NA,NA,NA,NA,TRUE,1,0.954,215.248,218.206,0,13,13,57,1,45,35,NA,NA,NA,NA,NA,1,14,"binary"
"BA3FE08EE94F4F7B96DE578050CB81DE",1,"01990a9f-1d7e-7dcc-b85f-ac9366f1ff98","01990a83-7673-7c0c-a792-bbd8fbbaf673","2025-09-02_07h56.26.744",NA,NA,221.608,221.608,221.608,221.852,NA,NA,NA,NA,NA,NA,NA,TRUE,1,0.661,218.568,221.608,0,14,14,93,1,150,40,NA,NA,NA,NA,NA,1,15,"binary"
"BA3FE08EE94F4F7B96DE578050CB81DE",1,"01990a9f-1d7e-7dcc-b85f-ac9366f1ff98","01990a83-7673-7c0c-a792-bbd8fbbaf673","2025-09-02_07h56.26.744",NA,NA,224.953,224.953,224.953,225.204,NA,NA,NA,NA,NA,NA,NA,TRUE,1,1.479,221.861,224.952,0,15,15,38,1,28,32,NA,NA,NA,NA,NA,1,16,"binary"
"BA3FE08EE94F4F7B96DE578050CB81DE",1,"01990a9f-1d7e-7dcc-b85f-ac9366f1ff98","01990a83-7673-7c0c-a792-bbd8fbbaf673","2025-09-02_07h56.26.744",NA,NA,228.261,228.261,228.261,228.632,NA,NA,NA,NA,NA,NA,NA,TRUE,1,0.007,225.206,228.261,0,16,16,88,1,100,46,NA,NA,NA,NA,NA,1,17,"binary"
"BA3FE08EE94F4F7B96DE578050CB81DE",1,"01990a9f-1d7e-7dcc-b85f-ac9366f1ff98","01990a83-7673-7c0c-a792-bbd8fbbaf673","2025-09-02_07h56.26.744",NA,NA,231.637,231.637,231.637,231.913,NA,NA,NA,NA,NA,NA,NA,TRUE,1,2.491,228.644,231.637,0,17,17,47,1,30,38,NA,NA,NA,NA,NA,1,18,"binary"
"BA3FE08EE94F4F7B96DE578050CB81DE",1,"01990a9f-1d7e-7dcc-b85f-ac9366f1ff98","01990a83-7673-7c0c-a792-bbd8fbbaf673","2025-09-02_07h56.26.744",NA,NA,234.895,235.269,235.269,235.269,NA,NA,NA,NA,NA,NA,NA,FALSE,NA,NA,231.916,234.894,0,18,18,26,1,21,29,NA,NA,NA,NA,NA,1,19,"binary"
"BA3FE08EE94F4F7B96DE578050CB81DE",1,"01990a9f-1d7e-7dcc-b85f-ac9366f1ff98","01990a83-7673-7c0c-a792-bbd8fbbaf673","2025-09-02_07h56.26.744",NA,NA,238.252,238.252,238.252,238.619,NA,NA,NA,NA,NA,NA,NA,TRUE,1,0.133,235.278,238.252,0,19,19,60,1,50,27,NA,NA,NA,NA,NA,1,20,"binary"
"BA3FE08EE94F4F7B96DE578050CB81DE",1,"01990a9f-1d7e-7dcc-b85f-ac9366f1ff98","01990a83-7673-7c0c-a792-bbd8fbbaf673","2025-09-02_07h56.26.744",NA,NA,241.708,241.708,241.708,241.95,NA,NA,NA,NA,NA,NA,NA,TRUE,1,0.537,238.621,241.707,0,20,20,91,1,150,33,NA,NA,NA,NA,NA,1,21,"binary"
"BA3FE08EE94F4F7B96DE578050CB81DE",1,"01990a9f-1d7e-7dcc-b85f-ac9366f1ff98","01990a83-7673-7c0c-a792-bbd8fbbaf673","2025-09-02_07h56.26.744",NA,NA,245.013,245.013,245.013,245.368,NA,NA,NA,NA,NA,NA,NA,TRUE,1,0.922,241.959,245.012,0,21,21,52,1,40,47,NA,NA,NA,NA,NA,1,22,"binary"
"BA3FE08EE94F4F7B96DE578050CB81DE",1,"01990a9f-1d7e-7dcc-b85f-ac9366f1ff98","01990a83-7673-7c0c-a792-bbd8fbbaf673","2025-09-02_07h56.26.744",NA,NA,248.375,248.625,248.625,248.744,NA,NA,NA,NA,NA,NA,NA,FALSE,NA,NA,245.371,248.375,0,22,22,78,1,95,31,NA,NA,NA,NA,NA,1,23,"binary"
"BA3FE08EE94F4F7B96DE578050CB81DE",1,"01990a9f-1d7e-7dcc-b85f-ac9366f1ff98","01990a83-7673-7c0c-a792-bbd8fbbaf673","2025-09-02_07h56.26.744",NA,NA,251.653,251.653,251.653,252.017,NA,NA,NA,NA,NA,NA,NA,TRUE,1,1.155,248.753,251.653,0,23,23,63,1,50,40,NA,NA,NA,NA,NA,1,24,"binary"
"BA3FE08EE94F4F7B96DE578050CB81DE",1,"01990a9f-1d7e-7dcc-b85f-ac9366f1ff98","01990a83-7673-7c0c-a792-bbd8fbbaf673","2025-09-02_07h56.26.744",NA,NA,255.096,255.096,255.096,255.463,NA,NA,NA,NA,NA,NA,NA,TRUE,1,1.063,252.018,255.095,0,24,24,33,1,25,33,NA,NA,NA,NA,NA,1,25,"binary"
"BA3FE08EE94F4F7B96DE578050CB81DE",1,"01990a9f-1d7e-7dcc-b85f-ac9366f1ff98","01990a83-7673-7c0c-a792-bbd8fbbaf673","2025-09-02_07h56.26.744",NA,NA,258.366,258.62,258.62,258.742,NA,NA,NA,NA,NA,NA,NA,FALSE,NA,NA,255.473,258.366,0,25,25,55,1,45,29,NA,NA,NA,NA,NA,1,26,"binary"
"BA3FE08EE94F4F7B96DE578050CB81DE",1,"01990a9f-1d7e-7dcc-b85f-ac9366f1ff98","01990a83-7673-7c0c-a792-bbd8fbbaf673","2025-09-02_07h56.26.744",NA,NA,261.732,261.732,261.732,262.076,NA,NA,NA,NA,NA,NA,NA,TRUE,1,1.466,258.751,261.731,0,26,26,85,1,100,31,NA,NA,NA,NA,NA,1,27,"binary"
"BA3FE08EE94F4F7B96DE578050CB81DE",1,"01990a9f-1d7e-7dcc-b85f-ac9366f1ff98","01990a83-7673-7c0c-a792-bbd8fbbaf673","2025-09-02_07h56.26.744",NA,NA,265.114,265.114,265.114,265.488,NA,NA,NA,NA,NA,NA,NA,TRUE,1,2.414,262.077,265.114,0,27,27,99,1,180,39,NA,NA,NA,NA,NA,1,28,"binary"
"BA3FE08EE94F4F7B96DE578050CB81DE",1,"01990a9f-1d7e-7dcc-b85f-ac9366f1ff98","01990a83-7673-7c0c-a792-bbd8fbbaf673","2025-09-02_07h56.26.744",NA,NA,268.477,268.477,268.477,268.841,NA,NA,NA,NA,NA,NA,NA,TRUE,1,0.434,265.497,268.477,0,28,28,89,1,100,54,NA,NA,NA,NA,NA,1,29,"binary"
"BA3FE08EE94F4F7B96DE578050CB81DE",1,"01990a9f-1d7e-7dcc-b85f-ac9366f1ff98","01990a83-7673-7c0c-a792-bbd8fbbaf673","2025-09-02_07h56.26.744",NA,NA,271.786,271.786,271.786,272.159,NA,NA,NA,NA,NA,NA,NA,TRUE,1,0.686,268.844,271.786,0,29,29,46,1,30,32,NA,NA,NA,NA,NA,1,30,"binary"
"BA3FE08EE94F4F7B96DE578050CB81DE",1,"01990a9f-1d7e-7dcc-b85f-ac9366f1ff98","01990a83-7673-7c0c-a792-bbd8fbbaf673","2025-09-02_07h56.26.744",NA,NA,275.18,275.18,275.18,275.469,NA,NA,NA,NA,NA,NA,NA,TRUE,1,0.649,272.168,275.18,0,30,30,22,1,14,35,NA,NA,NA,NA,NA,1,31,"binary"
"BA3FE08EE94F4F7B96DE578050CB81DE",1,"01990a9f-1d7e-7dcc-b85f-ac9366f1ff98","01990a83-7673-7c0c-a792-bbd8fbbaf673","2025-09-02_07h56.26.744",NA,NA,278.461,278.461,278.461,278.86,NA,NA,NA,NA,NA,NA,NA,TRUE,1,0.95,275.471,278.46,0,31,31,90,1,150,31,NA,NA,NA,NA,NA,1,32,"binary"
"BA3FE08EE94F4F7B96DE578050CB81DE",1,"01990a9f-1d7e-7dcc-b85f-ac9366f1ff98","01990a83-7673-7c0c-a792-bbd8fbbaf673","2025-09-02_07h56.26.744",NA,NA,281.907,281.907,281.907,282.151,NA,NA,NA,NA,NA,NA,NA,TRUE,1,1.28,278.87,281.906,0,32,32,59,1,45,46,NA,NA,NA,NA,NA,1,33,"binary"
"BA3FE08EE94F4F7B96DE578050CB81DE",1,"01990a9f-1d7e-7dcc-b85f-ac9366f1ff98","01990a83-7673-7c0c-a792-bbd8fbbaf673","2025-09-02_07h56.26.744",NA,NA,285.162,285.162,285.162,285.524,NA,NA,NA,NA,NA,NA,NA,TRUE,1,0.571,282.154,285.162,0,33,33,64,1,50,46,NA,NA,NA,NA,NA,1,34,"binary"
"BA3FE08EE94F4F7B96DE578050CB81DE",1,"01990a9f-1d7e-7dcc-b85f-ac9366f1ff98","01990a83-7673-7c0c-a792-bbd8fbbaf673","2025-09-02_07h56.26.744",NA,NA,288.507,288.507,288.507,288.905,NA,NA,NA,NA,NA,NA,NA,TRUE,1,1.945,285.533,288.506,0,34,34,0,1,7,25,NA,NA,NA,NA,NA,1,35,"binary"
"BA3FE08EE94F4F7B96DE578050CB81DE",1,"01990a9f-1d7e-7dcc-b85f-ac9366f1ff98","01990a83-7673-7c0c-a792-bbd8fbbaf673","2025-09-02_07h56.26.744",NA,NA,291.916,291.916,291.916,292.189,NA,NA,NA,NA,NA,NA,NA,TRUE,1,0.514,288.907,291.915,0,35,35,106,1,200,47,NA,NA,NA,NA,NA,1,36,"binary"
"BA3FE08EE94F4F7B96DE578050CB81DE",1,"01990a9f-1d7e-7dcc-b85f-ac9366f1ff98","01990a83-7673-7c0c-a792-bbd8fbbaf673","2025-09-02_07h56.26.744",NA,NA,295.261,295.261,295.261,295.626,NA,NA,NA,NA,NA,NA,NA,TRUE,1,1.107,292.198,295.261,0,36,36,68,1,60,35,NA,NA,NA,NA,NA,1,37,"binary"
"BA3FE08EE94F4F7B96DE578050CB81DE",1,"01990a9f-1d7e-7dcc-b85f-ac9366f1ff98","01990a83-7673-7c0c-a792-bbd8fbbaf673","2025-09-02_07h56.26.744",NA,NA,298.68,298.68,298.68,298.917,NA,NA,NA,NA,NA,NA,NA,TRUE,1,0.831,295.629,298.68,0,37,37,21,1,14,32,NA,NA,NA,NA,NA,1,38,"binary"
"BA3FE08EE94F4F7B96DE578050CB81DE",1,"01990a9f-1d7e-7dcc-b85f-ac9366f1ff98","01990a83-7673-7c0c-a792-bbd8fbbaf673","2025-09-02_07h56.26.744",NA,NA,302.013,302.013,302.013,302.257,NA,NA,NA,NA,NA,NA,NA,TRUE,1,0.789,298.927,302.013,0,38,38,73,1,90,30,NA,NA,NA,NA,NA,1,39,"binary"
"BA3FE08EE94F4F7B96DE578050CB81DE",1,"01990a9f-1d7e-7dcc-b85f-ac9366f1ff98","01990a83-7673-7c0c-a792-bbd8fbbaf673","2025-09-02_07h56.26.744",NA,NA,305.32,305.321,305.321,305.688,NA,NA,NA,NA,NA,NA,NA,TRUE,1,0.793,302.266,305.32,0,39,39,69,1,60,40,NA,NA,NA,NA,NA,1,40,"binary"
"BA3FE08EE94F4F7B96DE578050CB81DE",1,"01990a9f-1d7e-7dcc-b85f-ac9366f1ff98","01990a83-7673-7c0c-a792-bbd8fbbaf673","2025-09-02_07h56.26.744",NA,NA,308.719,308.719,308.719,308.98,NA,NA,NA,NA,NA,NA,NA,TRUE,1,0.81,305.69,308.718,0,40,40,34,1,25,35,NA,NA,NA,NA,NA,1,41,"binary"
"BA3FE08EE94F4F7B96DE578050CB81DE",1,"01990a9f-1d7e-7dcc-b85f-ac9366f1ff98","01990a83-7673-7c0c-a792-bbd8fbbaf673","2025-09-02_07h56.26.744",NA,NA,311.953,311.953,311.953,312.317,NA,NA,NA,NA,NA,NA,NA,TRUE,1,0.901,308.992,311.953,0,41,41,4,1,7,32,NA,NA,NA,NA,NA,1,42,"binary"
"BA3FE08EE94F4F7B96DE578050CB81DE",1,"01990a9f-1d7e-7dcc-b85f-ac9366f1ff98","01990a83-7673-7c0c-a792-bbd8fbbaf673","2025-09-02_07h56.26.744",NA,NA,315.384,315.384,315.384,315.752,NA,NA,NA,NA,NA,NA,NA,TRUE,1,0.51,312.319,315.383,0,42,42,40,1,28,39,NA,NA,NA,NA,NA,1,43,"binary"
"BA3FE08EE94F4F7B96DE578050CB81DE",1,"01990a9f-1d7e-7dcc-b85f-ac9366f1ff98","01990a83-7673-7c0c-a792-bbd8fbbaf673","2025-09-02_07h56.26.744",NA,NA,318.654,318.654,318.654,319.032,NA,NA,NA,NA,NA,NA,NA,TRUE,1,0.641,315.761,318.654,0,43,43,42,1,30,26,NA,NA,NA,NA,NA,1,44,"binary"
"BA3FE08EE94F4F7B96DE578050CB81DE",1,"01990a9f-1d7e-7dcc-b85f-ac9366f1ff98","01990a83-7673-7c0c-a792-bbd8fbbaf673","2025-09-02_07h56.26.744",NA,NA,322.035,322.316,322.316,322.445,NA,NA,NA,NA,NA,NA,NA,FALSE,NA,NA,319.034,322.035,0,44,44,86,1,100,38,NA,NA,NA,NA,NA,1,45,"binary"
"BA3FE08EE94F4F7B96DE578050CB81DE",1,"01990a9f-1d7e-7dcc-b85f-ac9366f1ff98","01990a83-7673-7c0c-a792-bbd8fbbaf673","2025-09-02_07h56.26.744",NA,NA,325.445,325.445,325.445,325.81,NA,NA,NA,NA,NA,NA,NA,TRUE,1,1.756,322.454,325.445,0,45,45,70,1,60,47,NA,NA,NA,NA,NA,1,46,"binary"
"BA3FE08EE94F4F7B96DE578050CB81DE",1,"01990a9f-1d7e-7dcc-b85f-ac9366f1ff98","01990a83-7673-7c0c-a792-bbd8fbbaf673","2025-09-02_07h56.26.744",NA,NA,328.693,328.693,328.693,329.06,NA,NA,NA,NA,NA,NA,NA,TRUE,1,1.68,325.812,328.692,0,46,46,31,1,25,29,NA,NA,NA,NA,NA,1,47,"binary"
"BA3FE08EE94F4F7B96DE578050CB81DE",1,"01990a9f-1d7e-7dcc-b85f-ac9366f1ff98","01990a83-7673-7c0c-a792-bbd8fbbaf673","2025-09-02_07h56.26.744",NA,NA,332.051,332.051,332.051,332.427,NA,NA,NA,NA,NA,NA,NA,TRUE,1,1.739,329.07,332.051,0,47,47,53,1,40,54,NA,NA,NA,NA,NA,1,48,"binary"
"BA3FE08EE94F4F7B96DE578050CB81DE",1,"01990a9f-1d7e-7dcc-b85f-ac9366f1ff98","01990a83-7673-7c0c-a792-bbd8fbbaf673","2025-09-02_07h56.26.744",NA,NA,335.406,335.406,335.406,335.789,NA,NA,NA,NA,NA,NA,NA,TRUE,1,0.553,332.429,335.405,0,48,48,25,1,21,27,NA,NA,NA,NA,NA,1,49,"binary"
"BA3FE08EE94F4F7B96DE578050CB81DE",1,"01990a9f-1d7e-7dcc-b85f-ac9366f1ff98","01990a83-7673-7c0c-a792-bbd8fbbaf673","2025-09-02_07h56.26.744",NA,NA,338.823,338.823,338.823,339.195,NA,NA,NA,NA,NA,NA,NA,TRUE,1,0.406,335.798,338.822,0,49,49,79,1,95,33,NA,NA,NA,NA,NA,1,50,"binary"
"BA3FE08EE94F4F7B96DE578050CB81DE",1,"01990a9f-1d7e-7dcc-b85f-ac9366f1ff98","01990a83-7673-7c0c-a792-bbd8fbbaf673","2025-09-02_07h56.26.744",NA,NA,342.136,342.137,342.137,342.516,NA,NA,NA,NA,NA,NA,NA,TRUE,1,0.007,339.203,342.136,0,50,50,10,1,10,30,NA,NA,NA,NA,NA,1,51,"binary"
"BA3FE08EE94F4F7B96DE578050CB81DE",1,"01990a9f-1d7e-7dcc-b85f-ac9366f1ff98","01990a83-7673-7c0c-a792-bbd8fbbaf673","2025-09-02_07h56.26.744",NA,NA,345.483,345.483,345.483,345.856,NA,NA,NA,NA,NA,NA,NA,TRUE,1,0.997,342.517,345.483,0,51,51,41,1,28,46,NA,NA,NA,NA,NA,1,52,"binary"
"BA3FE08EE94F4F7B96DE578050CB81DE",1,"01990a9f-1d7e-7dcc-b85f-ac9366f1ff98","01990a83-7673-7c0c-a792-bbd8fbbaf673","2025-09-02_07h56.26.744",NA,NA,348.811,348.811,348.811,349.18,NA,NA,NA,NA,NA,NA,NA,TRUE,1,0.664,345.867,348.811,0,52,52,67,1,60,33,NA,NA,NA,NA,NA,1,53,"binary"
"BA3FE08EE94F4F7B96DE578050CB81DE",1,"01990a9f-1d7e-7dcc-b85f-ac9366f1ff98","01990a83-7673-7c0c-a792-bbd8fbbaf673","2025-09-02_07h56.26.744",NA,NA,352.209,352.447,352.447,352.563,NA,NA,NA,NA,NA,NA,NA,FALSE,NA,NA,349.182,352.208,0,53,53,84,1,100,26,NA,NA,NA,NA,NA,1,54,"binary"
"BA3FE08EE94F4F7B96DE578050CB81DE",1,"01990a9f-1d7e-7dcc-b85f-ac9366f1ff98","01990a83-7673-7c0c-a792-bbd8fbbaf673","2025-09-02_07h56.26.744",NA,NA,355.614,355.614,355.614,355.861,NA,NA,NA,NA,NA,NA,NA,TRUE,1,2.266,352.572,355.613,0,54,54,8,1,10,27,NA,NA,NA,NA,NA,1,55,"binary"
"BA3FE08EE94F4F7B96DE578050CB81DE",1,"01990a9f-1d7e-7dcc-b85f-ac9366f1ff98","01990a83-7673-7c0c-a792-bbd8fbbaf673","2025-09-02_07h56.26.744",NA,NA,358.88,359.12,359.12,359.238,NA,NA,NA,NA,NA,NA,NA,FALSE,NA,NA,355.863,358.879,0,55,55,35,1,25,46,NA,NA,NA,NA,NA,1,56,"binary"
"BA3FE08EE94F4F7B96DE578050CB81DE",1,"01990a9f-1d7e-7dcc-b85f-ac9366f1ff98","01990a83-7673-7c0c-a792-bbd8fbbaf673","2025-09-02_07h56.26.744",NA,NA,362.246,362.246,362.247,362.649,NA,NA,NA,NA,NA,NA,NA,TRUE,1,0.407,359.247,362.246,0,56,56,50,1,40,35,NA,NA,NA,NA,NA,1,57,"binary"
"BA3FE08EE94F4F7B96DE578050CB81DE",1,"01990a9f-1d7e-7dcc-b85f-ac9366f1ff98","01990a83-7673-7c0c-a792-bbd8fbbaf673","2025-09-02_07h56.26.744",NA,NA,365.618,365.618,365.618,365.996,NA,NA,NA,NA,NA,NA,NA,TRUE,1,1.778,362.652,365.617,0,57,57,72,1,90,26,NA,NA,NA,NA,NA,1,58,"binary"
"BA3FE08EE94F4F7B96DE578050CB81DE",1,"01990a9f-1d7e-7dcc-b85f-ac9366f1ff98","01990a83-7673-7c0c-a792-bbd8fbbaf673","2025-09-02_07h56.26.744",NA,NA,368.921,368.921,368.921,369.313,NA,NA,NA,NA,NA,NA,NA,TRUE,1,0.694,366.008,368.921,0,58,58,65,1,50,54,NA,NA,NA,NA,NA,1,59,"binary"
"BA3FE08EE94F4F7B96DE578050CB81DE",1,"01990a9f-1d7e-7dcc-b85f-ac9366f1ff98","01990a83-7673-7c0c-a792-bbd8fbbaf673","2025-09-02_07h56.26.744",NA,NA,372.351,372.351,372.351,372.597,NA,NA,NA,NA,NA,NA,NA,TRUE,1,0.526,369.315,372.35,0,59,59,61,1,50,30,NA,NA,NA,NA,NA,1,60,"binary"
"BA3FE08EE94F4F7B96DE578050CB81DE",1,"01990a9f-1d7e-7dcc-b85f-ac9366f1ff98","01990a83-7673-7c0c-a792-bbd8fbbaf673","2025-09-02_07h56.26.744",NA,NA,375.713,375.713,375.713,375.962,NA,NA,NA,NA,NA,NA,NA,TRUE,1,0.553,372.606,375.713,0,60,60,37,1,28,28,NA,NA,NA,NA,NA,1,61,"binary"
"BA3FE08EE94F4F7B96DE578050CB81DE",1,"01990a9f-1d7e-7dcc-b85f-ac9366f1ff98","01990a83-7673-7c0c-a792-bbd8fbbaf673","2025-09-02_07h56.26.744",NA,NA,378.949,378.949,378.949,379.318,NA,NA,NA,NA,NA,NA,NA,TRUE,1,0.501,375.964,378.948,0,61,61,32,1,25,31,NA,NA,NA,NA,NA,1,62,"binary"
"BA3FE08EE94F4F7B96DE578050CB81DE",1,"01990a9f-1d7e-7dcc-b85f-ac9366f1ff98","01990a83-7673-7c0c-a792-bbd8fbbaf673","2025-09-02_07h56.26.744",NA,NA,382.39,382.391,382.391,382.661,NA,NA,NA,NA,NA,NA,NA,TRUE,1,0.135,379.327,382.39,0,62,62,28,1,21,32,NA,NA,NA,NA,NA,1,63,"binary"
"BA3FE08EE94F4F7B96DE578050CB81DE",1,"01990a9f-1d7e-7dcc-b85f-ac9366f1ff98","01990a83-7673-7c0c-a792-bbd8fbbaf673","2025-09-02_07h56.26.744",NA,NA,385.739,385.74,385.74,386.109,NA,NA,NA,NA,NA,NA,NA,TRUE,1,1.563,382.67,385.739,0,63,63,62,1,50,35,NA,NA,NA,NA,NA,1,64,"binary"
"BA3FE08EE94F4F7B96DE578050CB81DE",1,"01990a9f-1d7e-7dcc-b85f-ac9366f1ff98","01990a83-7673-7c0c-a792-bbd8fbbaf673","2025-09-02_07h56.26.744",NA,NA,389.041,389.041,389.041,389.403,NA,NA,NA,NA,NA,NA,NA,TRUE,1,0.407,386.111,389.04,0,64,64,74,1,90,33,NA,NA,NA,NA,NA,1,65,"binary"
"BA3FE08EE94F4F7B96DE578050CB81DE",1,"01990a9f-1d7e-7dcc-b85f-ac9366f1ff98","01990a83-7673-7c0c-a792-bbd8fbbaf673","2025-09-02_07h56.26.744",NA,NA,392.445,392.445,392.445,392.803,NA,NA,NA,NA,NA,NA,NA,TRUE,1,0.536,389.411,392.444,0,65,65,20,1,14,28,NA,NA,NA,NA,NA,1,66,"binary"
"BA3FE08EE94F4F7B96DE578050CB81DE",1,"01990a9f-1d7e-7dcc-b85f-ac9366f1ff98","01990a83-7673-7c0c-a792-bbd8fbbaf673","2025-09-02_07h56.26.744",NA,NA,395.762,395.762,395.762,396.115,NA,NA,NA,NA,NA,NA,NA,TRUE,1,0.787,392.805,395.761,0,66,66,6,1,10,25,NA,NA,NA,NA,NA,1,67,"binary"
"BA3FE08EE94F4F7B96DE578050CB81DE",1,"01990a9f-1d7e-7dcc-b85f-ac9366f1ff98","01990a83-7673-7c0c-a792-bbd8fbbaf673","2025-09-02_07h56.26.744",NA,NA,399.107,399.108,399.108,399.497,NA,NA,NA,NA,NA,NA,NA,TRUE,1,0.53,396.123,399.107,0,67,67,29,1,21,38,NA,NA,NA,NA,NA,1,68,"binary"
"BA3FE08EE94F4F7B96DE578050CB81DE",1,"01990a9f-1d7e-7dcc-b85f-ac9366f1ff98","01990a83-7673-7c0c-a792-bbd8fbbaf673","2025-09-02_07h56.26.744",NA,NA,402.481,402.481,402.481,402.856,NA,NA,NA,NA,NA,NA,NA,TRUE,1,0.651,399.499,402.48,0,68,68,19,1,14,26,NA,NA,NA,NA,NA,1,69,"binary"
"BA3FE08EE94F4F7B96DE578050CB81DE",1,"01990a9f-1d7e-7dcc-b85f-ac9366f1ff98","01990a83-7673-7c0c-a792-bbd8fbbaf673","2025-09-02_07h56.26.744",NA,NA,405.789,405.789,405.789,406.168,NA,NA,NA,NA,NA,NA,NA,TRUE,1,0.775,402.866,405.788,0,69,69,103,1,200,28,NA,NA,NA,NA,NA,1,70,"binary"
"BA3FE08EE94F4F7B96DE578050CB81DE",1,"01990a9f-1d7e-7dcc-b85f-ac9366f1ff98","01990a83-7673-7c0c-a792-bbd8fbbaf673","2025-09-02_07h56.26.744",NA,NA,409.142,409.142,409.142,409.509,NA,NA,NA,NA,NA,NA,NA,TRUE,1,0.766,406.17,409.141,0,70,70,45,1,30,30,NA,NA,NA,NA,NA,1,71,"binary"
"BA3FE08EE94F4F7B96DE578050CB81DE",1,"01990a9f-1d7e-7dcc-b85f-ac9366f1ff98","01990a83-7673-7c0c-a792-bbd8fbbaf673","2025-09-02_07h56.26.744",NA,NA,412.444,412.444,412.444,412.826,NA,NA,NA,NA,NA,NA,NA,TRUE,1,0.685,409.518,412.443,0,71,71,77,1,90,54,NA,NA,NA,NA,NA,1,72,"binary"
"BA3FE08EE94F4F7B96DE578050CB81DE",1,"01990a9f-1d7e-7dcc-b85f-ac9366f1ff98","01990a83-7673-7c0c-a792-bbd8fbbaf673","2025-09-02_07h56.26.744",NA,NA,415.888,415.889,415.889,416.188,NA,NA,NA,NA,NA,NA,NA,TRUE,1,0.538,412.828,415.888,0,72,72,105,1,200,39,NA,NA,NA,NA,NA,1,73,"binary"
"BA3FE08EE94F4F7B96DE578050CB81DE",1,"01990a9f-1d7e-7dcc-b85f-ac9366f1ff98","01990a83-7673-7c0c-a792-bbd8fbbaf673","2025-09-02_07h56.26.744",NA,NA,419.182,419.182,419.182,419.561,NA,NA,NA,NA,NA,NA,NA,TRUE,1,0.682,416.197,419.182,0,73,73,76,1,90,46,NA,NA,NA,NA,NA,1,74,"binary"
"BA3FE08EE94F4F7B96DE578050CB81DE",1,"01990a9f-1d7e-7dcc-b85f-ac9366f1ff98","01990a83-7673-7c0c-a792-bbd8fbbaf673","2025-09-02_07h56.26.744",NA,NA,422.62,422.62,422.62,422.874,NA,NA,NA,NA,NA,NA,NA,TRUE,1,0.52,419.57,422.619,0,74,74,7,1,10,26,NA,NA,NA,NA,NA,1,75,"binary"
"BA3FE08EE94F4F7B96DE578050CB81DE",1,"01990a9f-1d7e-7dcc-b85f-ac9366f1ff98","01990a83-7673-7c0c-a792-bbd8fbbaf673","2025-09-02_07h56.26.744",NA,NA,425.85,425.85,425.85,426.226,NA,NA,NA,NA,NA,NA,NA,TRUE,1,0.668,422.876,425.85,0,75,75,44,1,30,29,NA,NA,NA,NA,NA,1,76,"binary"
"BA3FE08EE94F4F7B96DE578050CB81DE",1,"01990a9f-1d7e-7dcc-b85f-ac9366f1ff98","01990a83-7673-7c0c-a792-bbd8fbbaf673","2025-09-02_07h56.26.744",NA,NA,429.309,429.309,429.309,429.572,NA,NA,NA,NA,NA,NA,NA,TRUE,1,0.668,426.235,429.308,0,76,76,12,1,12,25,NA,NA,NA,NA,NA,1,77,"binary"
"BA3FE08EE94F4F7B96DE578050CB81DE",1,"01990a9f-1d7e-7dcc-b85f-ac9366f1ff98","01990a83-7673-7c0c-a792-bbd8fbbaf673","2025-09-02_07h56.26.744",NA,NA,432.569,432.57,432.57,432.955,NA,NA,NA,NA,NA,NA,NA,TRUE,1,0.539,429.575,432.569,0,77,77,87,1,100,39,NA,NA,NA,NA,NA,1,78,"binary"
"BA3FE08EE94F4F7B96DE578050CB81DE",1,"01990a9f-1d7e-7dcc-b85f-ac9366f1ff98","01990a83-7673-7c0c-a792-bbd8fbbaf673","2025-09-02_07h56.26.744",NA,NA,435.913,435.913,435.913,436.28,NA,NA,NA,NA,NA,NA,NA,TRUE,1,0.648,432.964,435.913,0,78,78,83,1,95,54,NA,NA,NA,NA,NA,1,79,"binary"
"BA3FE08EE94F4F7B96DE578050CB81DE",1,"01990a9f-1d7e-7dcc-b85f-ac9366f1ff98","01990a83-7673-7c0c-a792-bbd8fbbaf673","2025-09-02_07h56.26.744",NA,NA,439.31,439.31,439.31,439.672,NA,NA,NA,NA,NA,NA,NA,TRUE,1,0.559,436.282,439.31,0,79,79,92,1,150,35,NA,NA,NA,NA,NA,1,80,"binary"
"BA3FE08EE94F4F7B96DE578050CB81DE",1,"01990a9f-1d7e-7dcc-b85f-ac9366f1ff98","01990a83-7673-7c0c-a792-bbd8fbbaf673","2025-09-02_07h56.26.744",NA,NA,442.648,442.648,442.648,443.037,NA,NA,NA,NA,NA,NA,NA,TRUE,1,0.726,439.682,442.648,0,80,80,2,1,7,28,NA,NA,NA,NA,NA,1,81,"binary"
"BA3FE08EE94F4F7B96DE578050CB81DE",1,"01990a9f-1d7e-7dcc-b85f-ac9366f1ff98","01990a83-7673-7c0c-a792-bbd8fbbaf673","2025-09-02_07h56.26.744",NA,NA,445.953,445.953,445.953,446.343,NA,NA,NA,NA,NA,NA,NA,TRUE,1,0.773,443.038,445.953,0,81,81,51,1,40,40,NA,NA,NA,NA,NA,1,82,"binary"
"BA3FE08EE94F4F7B96DE578050CB81DE",1,"01990a9f-1d7e-7dcc-b85f-ac9366f1ff98","01990a83-7673-7c0c-a792-bbd8fbbaf673","2025-09-02_07h56.26.744",NA,NA,449.298,449.298,449.298,449.653,NA,NA,NA,NA,NA,NA,NA,TRUE,1,1.027,446.351,449.297,0,82,82,18,1,14,25,NA,NA,NA,NA,NA,1,83,"binary"
"BA3FE08EE94F4F7B96DE578050CB81DE",1,"01990a9f-1d7e-7dcc-b85f-ac9366f1ff98","01990a83-7673-7c0c-a792-bbd8fbbaf673","2025-09-02_07h56.26.744",NA,NA,452.702,452.702,452.702,453.077,NA,NA,NA,NA,NA,NA,NA,TRUE,1,0.769,449.655,452.701,0,83,83,71,1,60,54,NA,NA,NA,NA,NA,1,84,"binary"
"BA3FE08EE94F4F7B96DE578050CB81DE",1,"01990a9f-1d7e-7dcc-b85f-ac9366f1ff98","01990a83-7673-7c0c-a792-bbd8fbbaf673","2025-09-02_07h56.26.744",NA,NA,456.034,456.034,456.035,456.404,NA,NA,NA,NA,NA,NA,NA,TRUE,1,0.521,453.087,456.029,0,84,84,66,1,60,29,NA,NA,NA,NA,NA,1,85,"binary"
"BA3FE08EE94F4F7B96DE578050CB81DE",1,"01990a9f-1d7e-7dcc-b85f-ac9366f1ff98","01990a83-7673-7c0c-a792-bbd8fbbaf673","2025-09-02_07h56.26.744",NA,NA,459.44,459.44,459.44,459.803,NA,NA,NA,NA,NA,NA,NA,TRUE,1,0.661,456.407,459.44,0,85,85,30,1,25,27,NA,NA,NA,NA,NA,1,86,"binary"
"BA3FE08EE94F4F7B96DE578050CB81DE",1,"01990a9f-1d7e-7dcc-b85f-ac9366f1ff98","01990a83-7673-7c0c-a792-bbd8fbbaf673","2025-09-02_07h56.26.744",NA,NA,462.719,462.72,462.72,463.107,NA,NA,NA,NA,NA,NA,NA,TRUE,1,0.656,459.812,462.719,0,86,86,81,1,95,40,NA,NA,NA,NA,NA,1,87,"binary"
"BA3FE08EE94F4F7B96DE578050CB81DE",1,"01990a9f-1d7e-7dcc-b85f-ac9366f1ff98","01990a83-7673-7c0c-a792-bbd8fbbaf673","2025-09-02_07h56.26.744",NA,NA,466.15,466.151,466.151,466.518,NA,NA,NA,NA,NA,NA,NA,TRUE,1,0.809,463.11,466.15,0,87,87,54,1,45,26,NA,NA,NA,NA,NA,1,88,"binary"
"BA3FE08EE94F4F7B96DE578050CB81DE",1,"01990a9f-1d7e-7dcc-b85f-ac9366f1ff98","01990a83-7673-7c0c-a792-bbd8fbbaf673","2025-09-02_07h56.26.744",NA,NA,469.496,469.497,469.497,469.759,NA,NA,NA,NA,NA,NA,NA,TRUE,1,0.669,466.527,469.496,0,88,88,75,1,90,40,NA,NA,NA,NA,NA,1,89,"binary"
"BA3FE08EE94F4F7B96DE578050CB81DE",1,"01990a9f-1d7e-7dcc-b85f-ac9366f1ff98","01990a83-7673-7c0c-a792-bbd8fbbaf673","2025-09-02_07h56.26.744",NA,NA,472.853,472.853,472.853,473.121,NA,NA,NA,NA,NA,NA,NA,TRUE,1,0.778,469.761,472.853,0,89,89,101,1,180,54,NA,NA,NA,NA,NA,1,90,"binary"
"BA3FE08EE94F4F7B96DE578050CB81DE",1,"01990a9f-1d7e-7dcc-b85f-ac9366f1ff98","01990a83-7673-7c0c-a792-bbd8fbbaf673","2025-09-02_07h56.26.744",NA,NA,476.132,476.132,476.132,476.521,NA,NA,NA,NA,NA,NA,NA,TRUE,1,0.933,473.13,476.132,0,90,90,107,1,200,54,NA,NA,NA,NA,NA,1,91,"binary"
"BA3FE08EE94F4F7B96DE578050CB81DE",1,"01990a9f-1d7e-7dcc-b85f-ac9366f1ff98","01990a83-7673-7c0c-a792-bbd8fbbaf673","2025-09-02_07h56.26.744",NA,NA,479.553,479.553,479.553,479.915,NA,NA,NA,NA,NA,NA,NA,TRUE,1,0.515,476.53,479.553,0,91,91,82,1,95,47,NA,NA,NA,NA,NA,1,92,"binary"
"BA3FE08EE94F4F7B96DE578050CB81DE",1,"01990a9f-1d7e-7dcc-b85f-ac9366f1ff98","01990a83-7673-7c0c-a792-bbd8fbbaf673","2025-09-02_07h56.26.744",NA,NA,482.807,482.807,482.807,483.188,NA,NA,NA,NA,NA,NA,NA,TRUE,1,0.639,479.918,482.806,0,92,92,58,1,45,40,NA,NA,NA,NA,NA,1,93,"binary"
"BA3FE08EE94F4F7B96DE578050CB81DE",1,"01990a9f-1d7e-7dcc-b85f-ac9366f1ff98","01990a83-7673-7c0c-a792-bbd8fbbaf673","2025-09-02_07h56.26.744",NA,NA,486.168,486.168,486.168,486.541,NA,NA,NA,NA,NA,NA,NA,TRUE,1,0.548,483.198,486.168,0,93,93,80,1,95,35,NA,NA,NA,NA,NA,1,94,"binary"
"BA3FE08EE94F4F7B96DE578050CB81DE",1,"01990a9f-1d7e-7dcc-b85f-ac9366f1ff98","01990a83-7673-7c0c-a792-bbd8fbbaf673","2025-09-02_07h56.26.744",NA,NA,489.573,489.573,489.573,489.944,NA,NA,NA,NA,NA,NA,NA,TRUE,1,0.51,486.543,489.573,0,94,94,94,1,150,47,NA,NA,NA,NA,NA,1,95,"binary"
"BA3FE08EE94F4F7B96DE578050CB81DE",1,"01990a9f-1d7e-7dcc-b85f-ac9366f1ff98","01990a83-7673-7c0c-a792-bbd8fbbaf673","2025-09-02_07h56.26.744",NA,NA,492.91,492.91,492.91,493.286,NA,NA,NA,NA,NA,NA,NA,TRUE,1,0.71,489.952,492.909,0,95,95,102,1,200,26,NA,NA,NA,NA,NA,1,96,"binary"
"BA3FE08EE94F4F7B96DE578050CB81DE",1,"01990a9f-1d7e-7dcc-b85f-ac9366f1ff98","01990a83-7673-7c0c-a792-bbd8fbbaf673","2025-09-02_07h56.26.744",NA,NA,496.279,496.279,496.279,496.554,NA,NA,NA,NA,NA,NA,NA,TRUE,1,0.769,493.289,496.278,0,96,96,5,1,7,35,NA,NA,NA,NA,NA,1,97,"binary"
"BA3FE08EE94F4F7B96DE578050CB81DE",1,"01990a9f-1d7e-7dcc-b85f-ac9366f1ff98","01990a83-7673-7c0c-a792-bbd8fbbaf673","2025-09-02_07h56.26.744",NA,NA,499.636,499.636,499.636,499.918,NA,NA,NA,NA,NA,NA,NA,TRUE,1,0.673,496.564,499.635,0,97,97,43,1,30,27,NA,NA,NA,NA,NA,1,98,"binary"
"BA3FE08EE94F4F7B96DE578050CB81DE",1,"01990a9f-1d7e-7dcc-b85f-ac9366f1ff98","01990a83-7673-7c0c-a792-bbd8fbbaf673","2025-09-02_07h56.26.744",NA,NA,502.985,502.985,502.985,503.364,NA,NA,NA,NA,NA,NA,NA,TRUE,1,0.792,499.921,502.984,0,98,98,97,1,180,31,NA,NA,NA,NA,NA,1,99,"binary"
"BA3FE08EE94F4F7B96DE578050CB81DE",1,"01990a9f-1d7e-7dcc-b85f-ac9366f1ff98","01990a83-7673-7c0c-a792-bbd8fbbaf673","2025-09-02_07h56.26.744",NA,NA,506.322,506.322,506.322,506.707,NA,NA,NA,NA,NA,NA,NA,TRUE,1,0.536,503.373,506.321,0,99,99,56,1,45,31,NA,NA,NA,NA,NA,1,100,"binary"
"BA3FE08EE94F4F7B96DE578050CB81DE",1,"01990a9f-1d7e-7dcc-b85f-ac9366f1ff98","01990a83-7673-7c0c-a792-bbd8fbbaf673","2025-09-02_07h56.26.744",NA,NA,509.661,509.661,509.661,510.023,NA,NA,NA,NA,NA,NA,NA,TRUE,1,0.663,506.717,509.66,0,100,100,17,1,12,35,NA,NA,NA,NA,NA,1,101,"binary"
"BA3FE08EE94F4F7B96DE578050CB81DE",1,"01990a9f-1d7e-7dcc-b85f-ac9366f1ff98","01990a83-7673-7c0c-a792-bbd8fbbaf673","2025-09-02_07h56.26.744",NA,NA,512.938,512.938,512.938,513.306,NA,NA,NA,NA,NA,NA,NA,TRUE,1,0.642,510.025,512.938,0,101,101,3,1,7,30,NA,NA,NA,NA,NA,1,102,"binary"
"BA3FE08EE94F4F7B96DE578050CB81DE",1,"01990a9f-1d7e-7dcc-b85f-ac9366f1ff98","01990a83-7673-7c0c-a792-bbd8fbbaf673","2025-09-02_07h56.26.744",NA,NA,516.345,516.345,516.345,516.706,NA,NA,NA,NA,NA,NA,NA,TRUE,1,0.14,513.315,516.344,0,102,102,95,1,150,54,NA,NA,NA,NA,NA,1,103,"binary"
"BA3FE08EE94F4F7B96DE578050CB81DE",1,"01990a9f-1d7e-7dcc-b85f-ac9366f1ff98","01990a83-7673-7c0c-a792-bbd8fbbaf673","2025-09-02_07h56.26.744",NA,NA,519.736,519.737,519.737,520.109,NA,NA,NA,NA,NA,NA,NA,TRUE,1,0.427,516.708,519.736,0,103,103,27,1,21,30,NA,NA,NA,NA,NA,1,104,"binary"
"BA3FE08EE94F4F7B96DE578050CB81DE",1,"01990a9f-1d7e-7dcc-b85f-ac9366f1ff98","01990a83-7673-7c0c-a792-bbd8fbbaf673","2025-09-02_07h56.26.744",NA,NA,523.051,523.051,523.051,523.431,NA,NA,NA,NA,NA,NA,NA,TRUE,1,1.671,520.118,523.051,0,104,104,100,1,180,46,NA,NA,NA,NA,NA,1,105,"binary"
"BA3FE08EE94F4F7B96DE578050CB81DE",1,"01990a9f-1d7e-7dcc-b85f-ac9366f1ff98","01990a83-7673-7c0c-a792-bbd8fbbaf673","2025-09-02_07h56.26.744",NA,NA,526.376,526.377,526.377,526.74,NA,NA,NA,NA,NA,NA,NA,TRUE,1,1.319,523.433,526.376,0,105,105,39,1,28,35,NA,NA,NA,NA,NA,1,106,"binary"
"BA3FE08EE94F4F7B96DE578050CB81DE",1,"01990a9f-1d7e-7dcc-b85f-ac9366f1ff98","01990a83-7673-7c0c-a792-bbd8fbbaf673","2025-09-02_07h56.26.744",NA,NA,529.732,529.732,529.732,530.105,NA,NA,NA,NA,NA,NA,NA,TRUE,1,0.689,526.749,529.732,0,106,106,13,1,12,26,NA,NA,NA,NA,NA,1,107,"binary"
"BA3FE08EE94F4F7B96DE578050CB81DE",1,"01990a9f-1d7e-7dcc-b85f-ac9366f1ff98","01990a83-7673-7c0c-a792-bbd8fbbaf673","2025-09-02_07h56.26.744",NA,NA,533.173,533.173,533.173,533.424,NA,NA,NA,NA,NA,NA,NA,TRUE,1,0.522,530.108,533.173,0,107,107,98,1,180,35,NA,NA,NA,NA,NA,1,108,"binary"
"BA3FE08EE94F4F7B96DE578050CB81DE",1,"01990a9f-1d7e-7dcc-b85f-ac9366f1ff98","01990a83-7673-7c0c-a792-bbd8fbbaf673","2025-09-02_07h56.26.744",NA,NA,544.685,544.685,544.685,545.04,NA,NA,NA,NA,NA,NA,NA,TRUE,1,1.025,541.684,544.685,NA,NA,NA,NA,NA,28,39,0,0,0,40,1,2,1,"binary"
"BA3FE08EE94F4F7B96DE578050CB81DE",1,"01990a9f-1d7e-7dcc-b85f-ac9366f1ff98","01990a83-7673-7c0c-a792-bbd8fbbaf673","2025-09-02_07h56.26.744",NA,NA,547.987,547.987,547.987,548.345,NA,NA,NA,NA,NA,NA,NA,TRUE,1,0.63,545.049,547.986,NA,NA,NA,NA,NA,100,31,0,1,1,85,1,2,2,"binary"
"BA3FE08EE94F4F7B96DE578050CB81DE",1,"01990a9f-1d7e-7dcc-b85f-ac9366f1ff98","01990a83-7673-7c0c-a792-bbd8fbbaf673","2025-09-02_07h56.26.744",NA,NA,551.304,551.304,551.304,551.657,NA,NA,NA,NA,NA,NA,NA,TRUE,1,0.513,548.352,551.304,NA,NA,NA,NA,NA,21,38,0,2,2,29,1,2,3,"binary"
"BA3FE08EE94F4F7B96DE578050CB81DE",1,"01990a9f-1d7e-7dcc-b85f-ac9366f1ff98","01990a83-7673-7c0c-a792-bbd8fbbaf673","2025-09-02_07h56.26.744",NA,NA,554.66,554.66,554.66,555.035,NA,NA,NA,NA,NA,NA,NA,TRUE,1,1.487,551.658,554.66,NA,NA,NA,NA,NA,10,32,0,3,3,11,1,2,4,"binary"
"BA3FE08EE94F4F7B96DE578050CB81DE",1,"01990a9f-1d7e-7dcc-b85f-ac9366f1ff98","01990a83-7673-7c0c-a792-bbd8fbbaf673","2025-09-02_07h56.26.744",NA,NA,558.1,558.1,558.1,558.351,NA,NA,NA,NA,NA,NA,NA,TRUE,1,0.81,555.043,558.099,NA,NA,NA,NA,NA,50,54,0,4,4,65,1,2,5,"binary"
"BA3FE08EE94F4F7B96DE578050CB81DE",1,"01990a9f-1d7e-7dcc-b85f-ac9366f1ff98","01990a83-7673-7c0c-a792-bbd8fbbaf673","2025-09-02_07h56.26.744",NA,NA,561.379,561.379,561.379,561.73,NA,NA,NA,NA,NA,NA,NA,TRUE,1,0.96,558.353,561.378,NA,NA,NA,NA,NA,14,25,0,5,5,18,1,2,6,"binary"
"BA3FE08EE94F4F7B96DE578050CB81DE",1,"01990a9f-1d7e-7dcc-b85f-ac9366f1ff98","01990a83-7673-7c0c-a792-bbd8fbbaf673","2025-09-02_07h56.26.744",NA,NA,564.758,564.758,564.758,565.113,NA,NA,NA,NA,NA,NA,NA,TRUE,1,0.785,561.74,564.758,NA,NA,NA,NA,NA,60,33,0,6,6,67,1,2,7,"binary"
"BA3FE08EE94F4F7B96DE578050CB81DE",1,"01990a9f-1d7e-7dcc-b85f-ac9366f1ff98","01990a83-7673-7c0c-a792-bbd8fbbaf673","2025-09-02_07h56.26.744",NA,NA,568.043,568.043,568.043,568.402,NA,NA,NA,NA,NA,NA,NA,TRUE,1,0.481,565.114,568.043,NA,NA,NA,NA,NA,7,32,0,7,7,4,1,2,8,"binary"
"BA3FE08EE94F4F7B96DE578050CB81DE",1,"01990a9f-1d7e-7dcc-b85f-ac9366f1ff98","01990a83-7673-7c0c-a792-bbd8fbbaf673","2025-09-02_07h56.26.744",NA,NA,571.397,571.397,571.397,571.755,NA,NA,NA,NA,NA,NA,NA,TRUE,1,0.628,568.411,571.396,NA,NA,NA,NA,NA,90,40,0,8,8,75,1,2,9,"binary"
"BA3FE08EE94F4F7B96DE578050CB81DE",1,"01990a9f-1d7e-7dcc-b85f-ac9366f1ff98","01990a83-7673-7c0c-a792-bbd8fbbaf673","2025-09-02_07h56.26.744",NA,NA,574.798,574.798,574.798,575.185,NA,NA,NA,NA,NA,NA,NA,TRUE,1,2.787,571.757,574.797,NA,NA,NA,NA,NA,45,26,0,9,9,54,1,2,10,"binary"
"BA3FE08EE94F4F7B96DE578050CB81DE",1,"01990a9f-1d7e-7dcc-b85f-ac9366f1ff98","01990a83-7673-7c0c-a792-bbd8fbbaf673","2025-09-02_07h56.26.744",NA,NA,578.096,578.096,578.096,578.458,NA,NA,NA,NA,NA,NA,NA,TRUE,1,1.107,575.195,578.096,NA,NA,NA,NA,NA,180,54,0,10,10,101,1,2,11,"binary"
"BA3FE08EE94F4F7B96DE578050CB81DE",1,"01990a9f-1d7e-7dcc-b85f-ac9366f1ff98","01990a83-7673-7c0c-a792-bbd8fbbaf673","2025-09-02_07h56.26.744",NA,NA,581.476,581.476,581.476,581.83,NA,NA,NA,NA,NA,NA,NA,TRUE,1,0.522,578.467,581.476,NA,NA,NA,NA,NA,21,27,0,11,11,25,1,2,12,"binary"
"BA3FE08EE94F4F7B96DE578050CB81DE",1,"01990a9f-1d7e-7dcc-b85f-ac9366f1ff98","01990a83-7673-7c0c-a792-bbd8fbbaf673","2025-09-02_07h56.26.744",NA,NA,584.891,584.891,584.891,585.132,NA,NA,NA,NA,NA,NA,NA,TRUE,1,0.777,581.831,584.891,NA,NA,NA,NA,NA,150,54,0,12,12,95,1,2,13,"binary"
"BA3FE08EE94F4F7B96DE578050CB81DE",1,"01990a9f-1d7e-7dcc-b85f-ac9366f1ff98","01990a83-7673-7c0c-a792-bbd8fbbaf673","2025-09-02_07h56.26.744",NA,NA,588.127,588.127,588.127,588.502,NA,NA,NA,NA,NA,NA,NA,TRUE,1,0.656,585.142,588.127,NA,NA,NA,NA,NA,200,28,0,13,13,103,1,2,14,"binary"
"BA3FE08EE94F4F7B96DE578050CB81DE",1,"01990a9f-1d7e-7dcc-b85f-ac9366f1ff98","01990a83-7673-7c0c-a792-bbd8fbbaf673","2025-09-02_07h56.26.744",NA,NA,591.553,591.553,591.553,591.917,NA,NA,NA,NA,NA,NA,NA,TRUE,1,0.655,588.504,591.553,NA,NA,NA,NA,NA,180,31,0,14,14,97,1,2,15,"binary"
"BA3FE08EE94F4F7B96DE578050CB81DE",1,"01990a9f-1d7e-7dcc-b85f-ac9366f1ff98","01990a83-7673-7c0c-a792-bbd8fbbaf673","2025-09-02_07h56.26.744",NA,NA,594.899,594.899,594.899,595.263,NA,NA,NA,NA,NA,NA,NA,TRUE,1,0.686,591.925,594.898,NA,NA,NA,NA,NA,180,35,0,15,15,98,1,2,16,"binary"
"BA3FE08EE94F4F7B96DE578050CB81DE",1,"01990a9f-1d7e-7dcc-b85f-ac9366f1ff98","01990a83-7673-7c0c-a792-bbd8fbbaf673","2025-09-02_07h56.26.744",NA,NA,598.235,598.235,598.235,598.626,NA,NA,NA,NA,NA,NA,NA,TRUE,1,1.767,595.265,598.235,NA,NA,NA,NA,NA,40,40,0,16,16,51,1,2,17,"binary"
"BA3FE08EE94F4F7B96DE578050CB81DE",1,"01990a9f-1d7e-7dcc-b85f-ac9366f1ff98","01990a83-7673-7c0c-a792-bbd8fbbaf673","2025-09-02_07h56.26.744",NA,NA,601.638,601.772,601.772,601.894,NA,NA,NA,NA,NA,NA,NA,FALSE,NA,NA,598.634,601.638,NA,NA,NA,NA,NA,25,46,0,17,17,35,1,2,18,"binary"
"BA3FE08EE94F4F7B96DE578050CB81DE",1,"01990a9f-1d7e-7dcc-b85f-ac9366f1ff98","01990a83-7673-7c0c-a792-bbd8fbbaf673","2025-09-02_07h56.26.744",NA,NA,604.961,605.223,605.223,605.223,NA,NA,NA,NA,NA,NA,NA,FALSE,NA,NA,601.897,604.961,NA,NA,NA,NA,NA,200,26,0,18,18,102,1,2,19,"binary"
"BA3FE08EE94F4F7B96DE578050CB81DE",1,"01990a9f-1d7e-7dcc-b85f-ac9366f1ff98","01990a83-7673-7c0c-a792-bbd8fbbaf673","2025-09-02_07h56.26.744",NA,NA,608.285,608.536,608.536,608.654,NA,NA,NA,NA,NA,NA,NA,FALSE,NA,NA,605.233,608.284,NA,NA,NA,NA,NA,12,26,0,19,19,13,1,2,20,"binary"
"BA3FE08EE94F4F7B96DE578050CB81DE",1,"01990a9f-1d7e-7dcc-b85f-ac9366f1ff98","01990a83-7673-7c0c-a792-bbd8fbbaf673","2025-09-02_07h56.26.744",NA,NA,611.592,611.837,611.837,611.96,NA,NA,NA,NA,NA,NA,NA,FALSE,NA,NA,608.656,611.592,NA,NA,NA,NA,NA,60,40,0,20,20,69,1,2,21,"binary"
"BA3FE08EE94F4F7B96DE578050CB81DE",1,"01990a9f-1d7e-7dcc-b85f-ac9366f1ff98","01990a83-7673-7c0c-a792-bbd8fbbaf673","2025-09-02_07h56.26.744",NA,NA,615.01,615.268,615.268,615.389,NA,NA,NA,NA,NA,NA,NA,FALSE,NA,NA,611.97,615.01,NA,NA,NA,NA,NA,28,26,0,21,21,36,1,2,22,"binary"
"BA3FE08EE94F4F7B96DE578050CB81DE",1,"01990a9f-1d7e-7dcc-b85f-ac9366f1ff98","01990a83-7673-7c0c-a792-bbd8fbbaf673","2025-09-02_07h56.26.744",NA,NA,618.299,618.559,618.559,618.68,NA,NA,NA,NA,NA,NA,NA,FALSE,NA,NA,615.397,618.299,NA,NA,NA,NA,NA,90,54,0,22,22,77,1,2,23,"binary"
"BA3FE08EE94F4F7B96DE578050CB81DE",1,"01990a9f-1d7e-7dcc-b85f-ac9366f1ff98","01990a83-7673-7c0c-a792-bbd8fbbaf673","2025-09-02_07h56.26.744",NA,NA,621.653,621.909,621.909,622.039,NA,NA,NA,NA,NA,NA,NA,FALSE,NA,NA,618.682,621.653,NA,NA,NA,NA,NA,180,46,0,23,23,100,1,2,24,"binary"
"BA3FE08EE94F4F7B96DE578050CB81DE",1,"01990a9f-1d7e-7dcc-b85f-ac9366f1ff98","01990a83-7673-7c0c-a792-bbd8fbbaf673","2025-09-02_07h56.26.744",NA,NA,625.002,625.257,625.257,625.379,NA,NA,NA,NA,NA,NA,NA,FALSE,NA,NA,622.048,625.002,NA,NA,NA,NA,NA,12,35,0,24,24,17,1,2,25,"binary"
"BA3FE08EE94F4F7B96DE578050CB81DE",1,"01990a9f-1d7e-7dcc-b85f-ac9366f1ff98","01990a83-7673-7c0c-a792-bbd8fbbaf673","2025-09-02_07h56.26.744",NA,NA,628.354,628.599,628.599,628.734,NA,NA,NA,NA,NA,NA,NA,FALSE,NA,NA,625.381,628.354,NA,NA,NA,NA,NA,28,35,0,25,25,39,1,2,26,"binary"
"BA3FE08EE94F4F7B96DE578050CB81DE",1,"01990a9f-1d7e-7dcc-b85f-ac9366f1ff98","01990a83-7673-7c0c-a792-bbd8fbbaf673","2025-09-02_07h56.26.744",NA,NA,631.769,631.769,631.769,632.119,NA,NA,NA,NA,NA,NA,NA,TRUE,1,0.537,628.743,631.769,NA,NA,NA,NA,NA,25,27,0,26,26,30,1,2,27,"binary"
"BA3FE08EE94F4F7B96DE578050CB81DE",1,"01990a9f-1d7e-7dcc-b85f-ac9366f1ff98","01990a83-7673-7c0c-a792-bbd8fbbaf673","2025-09-02_07h56.26.744",NA,NA,635.09,635.09,635.09,635.481,NA,NA,NA,NA,NA,NA,NA,TRUE,1,0.501,632.121,635.089,NA,NA,NA,NA,NA,100,46,0,27,27,88,1,2,28,"binary"
"BA3FE08EE94F4F7B96DE578050CB81DE",1,"01990a9f-1d7e-7dcc-b85f-ac9366f1ff98","01990a83-7673-7c0c-a792-bbd8fbbaf673","2025-09-02_07h56.26.744",NA,NA,638.498,638.498,638.498,638.75,NA,NA,NA,NA,NA,NA,NA,TRUE,1,0.842,635.495,638.498,NA,NA,NA,NA,NA,45,40,0,28,28,58,1,2,29,"binary"
"BA3FE08EE94F4F7B96DE578050CB81DE",1,"01990a9f-1d7e-7dcc-b85f-ac9366f1ff98","01990a83-7673-7c0c-a792-bbd8fbbaf673","2025-09-02_07h56.26.744",NA,NA,641.836,641.836,641.836,642.082,NA,NA,NA,NA,NA,NA,NA,TRUE,1,0.523,638.752,641.836,NA,NA,NA,NA,NA,12,31,0,29,29,15,1,2,30,"binary"
"BA3FE08EE94F4F7B96DE578050CB81DE",1,"01990a9f-1d7e-7dcc-b85f-ac9366f1ff98","01990a83-7673-7c0c-a792-bbd8fbbaf673","2025-09-02_07h56.26.744",NA,NA,645.139,645.139,645.139,645.493,NA,NA,NA,NA,NA,NA,NA,TRUE,1,0.009,642.091,645.139,NA,NA,NA,NA,NA,50,27,0,30,30,60,1,2,31,"binary"
"BA3FE08EE94F4F7B96DE578050CB81DE",1,"01990a9f-1d7e-7dcc-b85f-ac9366f1ff98","01990a83-7673-7c0c-a792-bbd8fbbaf673","2025-09-02_07h56.26.744",NA,NA,648.511,648.511,648.511,648.893,NA,NA,NA,NA,NA,NA,NA,TRUE,1,0.96,645.495,648.51,NA,NA,NA,NA,NA,28,28,0,31,31,37,1,2,32,"binary"
"BA3FE08EE94F4F7B96DE578050CB81DE",1,"01990a9f-1d7e-7dcc-b85f-ac9366f1ff98","01990a83-7673-7c0c-a792-bbd8fbbaf673","2025-09-02_07h56.26.744",NA,NA,651.89,651.89,651.89,652.148,NA,NA,NA,NA,NA,NA,NA,TRUE,1,0.406,648.904,651.89,NA,NA,NA,NA,NA,95,35,0,32,32,80,1,2,33,"binary"
"BA3FE08EE94F4F7B96DE578050CB81DE",1,"01990a9f-1d7e-7dcc-b85f-ac9366f1ff98","01990a83-7673-7c0c-a792-bbd8fbbaf673","2025-09-02_07h56.26.744",NA,NA,655.236,655.236,655.236,655.601,NA,NA,NA,NA,NA,NA,NA,TRUE,1,2.859,652.15,655.236,NA,NA,NA,NA,NA,45,46,0,33,33,59,1,2,34,"binary"
"BA3FE08EE94F4F7B96DE578050CB81DE",1,"01990a9f-1d7e-7dcc-b85f-ac9366f1ff98","01990a83-7673-7c0c-a792-bbd8fbbaf673","2025-09-02_07h56.26.744",NA,NA,658.537,658.537,658.537,658.902,NA,NA,NA,NA,NA,NA,NA,TRUE,1,0.781,655.609,658.536,NA,NA,NA,NA,NA,25,33,0,34,34,33,1,2,35,"binary"
"BA3FE08EE94F4F7B96DE578050CB81DE",1,"01990a9f-1d7e-7dcc-b85f-ac9366f1ff98","01990a83-7673-7c0c-a792-bbd8fbbaf673","2025-09-02_07h56.26.744",NA,NA,661.862,661.862,661.862,662.233,NA,NA,NA,NA,NA,NA,NA,TRUE,1,0.543,658.905,661.862,NA,NA,NA,NA,NA,14,32,0,35,35,21,1,2,36,"binary"
"BA3FE08EE94F4F7B96DE578050CB81DE",1,"01990a9f-1d7e-7dcc-b85f-ac9366f1ff98","01990a83-7673-7c0c-a792-bbd8fbbaf673","2025-09-02_07h56.26.744",NA,NA,665.29,665.29,665.29,665.553,NA,NA,NA,NA,NA,NA,NA,TRUE,1,0.519,662.242,665.29,NA,NA,NA,NA,NA,45,29,0,36,36,55,1,2,37,"binary"
"BA3FE08EE94F4F7B96DE578050CB81DE",1,"01990a9f-1d7e-7dcc-b85f-ac9366f1ff98","01990a83-7673-7c0c-a792-bbd8fbbaf673","2025-09-02_07h56.26.744",NA,NA,668.564,668.564,668.564,668.93,NA,NA,NA,NA,NA,NA,NA,TRUE,1,0.429,665.555,668.563,NA,NA,NA,NA,NA,95,31,0,37,37,78,1,2,38,"binary"
"BA3FE08EE94F4F7B96DE578050CB81DE",1,"01990a9f-1d7e-7dcc-b85f-ac9366f1ff98","01990a83-7673-7c0c-a792-bbd8fbbaf673","2025-09-02_07h56.26.744",NA,NA,671.919,671.919,671.919,672.289,NA,NA,NA,NA,NA,NA,NA,TRUE,1,0.641,668.939,671.919,NA,NA,NA,NA,NA,10,29,0,38,38,9,1,2,39,"binary"
"BA3FE08EE94F4F7B96DE578050CB81DE",1,"01990a9f-1d7e-7dcc-b85f-ac9366f1ff98","01990a83-7673-7c0c-a792-bbd8fbbaf673","2025-09-02_07h56.26.744",NA,NA,675.238,675.238,675.238,675.636,NA,NA,NA,NA,NA,NA,NA,TRUE,1,0.131,672.291,675.238,NA,NA,NA,NA,NA,95,40,0,39,39,81,1,2,40,"binary"
"BA3FE08EE94F4F7B96DE578050CB81DE",1,"01990a9f-1d7e-7dcc-b85f-ac9366f1ff98","01990a83-7673-7c0c-a792-bbd8fbbaf673","2025-09-02_07h56.26.744",NA,NA,678.61,678.61,678.61,678.966,NA,NA,NA,NA,NA,NA,NA,TRUE,1,0.555,675.645,678.61,NA,NA,NA,NA,NA,180,39,0,40,40,99,1,2,41,"binary"
"BA3FE08EE94F4F7B96DE578050CB81DE",1,"01990a9f-1d7e-7dcc-b85f-ac9366f1ff98","01990a83-7673-7c0c-a792-bbd8fbbaf673","2025-09-02_07h56.26.744",NA,NA,682.036,682.036,682.037,682.288,NA,NA,NA,NA,NA,NA,NA,TRUE,1,0.514,678.968,682.036,NA,NA,NA,NA,NA,21,29,0,41,41,26,1,2,42,"binary"
"BA3FE08EE94F4F7B96DE578050CB81DE",1,"01990a9f-1d7e-7dcc-b85f-ac9366f1ff98","01990a83-7673-7c0c-a792-bbd8fbbaf673","2025-09-02_07h56.26.744",NA,NA,685.32,685.321,685.321,685.691,NA,NA,NA,NA,NA,NA,NA,TRUE,1,0.676,682.299,685.32,NA,NA,NA,NA,NA,30,26,0,42,42,42,1,2,43,"binary"
"BA3FE08EE94F4F7B96DE578050CB81DE",1,"01990a9f-1d7e-7dcc-b85f-ac9366f1ff98","01990a83-7673-7c0c-a792-bbd8fbbaf673","2025-09-02_07h56.26.744",NA,NA,688.667,688.667,688.667,689.038,NA,NA,NA,NA,NA,NA,NA,TRUE,1,0.407,685.692,688.667,NA,NA,NA,NA,NA,150,31,0,43,43,90,1,2,44,"binary"
"BA3FE08EE94F4F7B96DE578050CB81DE",1,"01990a9f-1d7e-7dcc-b85f-ac9366f1ff98","01990a83-7673-7c0c-a792-bbd8fbbaf673","2025-09-02_07h56.26.744",NA,NA,692.061,692.061,692.061,692.427,NA,NA,NA,NA,NA,NA,NA,TRUE,1,0.005,689.047,692.06,NA,NA,NA,NA,NA,12,33,0,44,44,16,1,2,45,"binary"
"BA3FE08EE94F4F7B96DE578050CB81DE",1,"01990a9f-1d7e-7dcc-b85f-ac9366f1ff98","01990a83-7673-7c0c-a792-bbd8fbbaf673","2025-09-02_07h56.26.744",NA,NA,695.401,695.401,695.401,695.772,NA,NA,NA,NA,NA,NA,NA,TRUE,1,0.979,692.436,695.401,NA,NA,NA,NA,NA,60,29,0,45,45,66,1,2,46,"binary"
"BA3FE08EE94F4F7B96DE578050CB81DE",1,"01990a9f-1d7e-7dcc-b85f-ac9366f1ff98","01990a83-7673-7c0c-a792-bbd8fbbaf673","2025-09-02_07h56.26.744",NA,NA,698.772,698.772,698.772,699.12,NA,NA,NA,NA,NA,NA,NA,TRUE,1,0.667,695.774,698.772,NA,NA,NA,NA,NA,60,35,0,46,46,68,1,2,47,"binary"
"BA3FE08EE94F4F7B96DE578050CB81DE",1,"01990a9f-1d7e-7dcc-b85f-ac9366f1ff98","01990a83-7673-7c0c-a792-bbd8fbbaf673","2025-09-02_07h56.26.744",NA,NA,702.032,702.032,702.032,702.398,NA,NA,NA,NA,NA,NA,NA,TRUE,1,0.635,699.131,702.032,NA,NA,NA,NA,NA,30,30,0,47,47,45,1,2,48,"binary"
"BA3FE08EE94F4F7B96DE578050CB81DE",1,"01990a9f-1d7e-7dcc-b85f-ac9366f1ff98","01990a83-7673-7c0c-a792-bbd8fbbaf673","2025-09-02_07h56.26.744",NA,NA,705.457,705.457,705.457,705.818,NA,NA,NA,NA,NA,NA,NA,TRUE,1,0.255,702.401,705.457,NA,NA,NA,NA,NA,21,32,0,48,48,28,1,2,49,"binary"
"BA3FE08EE94F4F7B96DE578050CB81DE",1,"01990a9f-1d7e-7dcc-b85f-ac9366f1ff98","01990a83-7673-7c0c-a792-bbd8fbbaf673","2025-09-02_07h56.26.744",NA,NA,708.798,708.798,708.798,709.18,NA,NA,NA,NA,NA,NA,NA,TRUE,1,0.642,705.826,708.798,NA,NA,NA,NA,NA,150,40,0,49,49,93,1,2,50,"binary"
"BA3FE08EE94F4F7B96DE578050CB81DE",1,"01990a9f-1d7e-7dcc-b85f-ac9366f1ff98","01990a83-7673-7c0c-a792-bbd8fbbaf673","2025-09-02_07h56.26.744",NA,NA,712.205,712.205,712.205,712.44,NA,NA,NA,NA,NA,NA,NA,TRUE,1,0.261,709.182,712.205,NA,NA,NA,NA,NA,45,31,0,50,50,56,1,2,51,"binary"
"BA3FE08EE94F4F7B96DE578050CB81DE",1,"01990a9f-1d7e-7dcc-b85f-ac9366f1ff98","01990a83-7673-7c0c-a792-bbd8fbbaf673","2025-09-02_07h56.26.744",NA,NA,715.488,715.488,715.488,715.872,NA,NA,NA,NA,NA,NA,NA,TRUE,1,0.413,712.45,715.488,NA,NA,NA,NA,NA,40,33,0,51,51,49,1,2,52,"binary"
"BA3FE08EE94F4F7B96DE578050CB81DE",1,"01990a9f-1d7e-7dcc-b85f-ac9366f1ff98","01990a83-7673-7c0c-a792-bbd8fbbaf673","2025-09-02_07h56.26.744",NA,NA,718.829,718.829,718.829,719.21,NA,NA,NA,NA,NA,NA,NA,TRUE,1,0.542,715.874,718.828,NA,NA,NA,NA,NA,10,26,0,52,52,7,1,2,53,"binary"
"BA3FE08EE94F4F7B96DE578050CB81DE",1,"01990a9f-1d7e-7dcc-b85f-ac9366f1ff98","01990a83-7673-7c0c-a792-bbd8fbbaf673","2025-09-02_07h56.26.744",NA,NA,722.199,722.199,722.199,722.55,NA,NA,NA,NA,NA,NA,NA,TRUE,1,0.272,719.219,722.199,NA,NA,NA,NA,NA,7,35,0,53,53,5,1,2,54,"binary"
"BA3FE08EE94F4F7B96DE578050CB81DE",1,"01990a9f-1d7e-7dcc-b85f-ac9366f1ff98","01990a83-7673-7c0c-a792-bbd8fbbaf673","2025-09-02_07h56.26.744",NA,NA,725.548,725.548,725.548,725.909,NA,NA,NA,NA,NA,NA,NA,TRUE,1,0.26,722.559,725.548,NA,NA,NA,NA,NA,14,26,0,54,54,19,1,2,55,"binary"
"BA3FE08EE94F4F7B96DE578050CB81DE",1,"01990a9f-1d7e-7dcc-b85f-ac9366f1ff98","01990a83-7673-7c0c-a792-bbd8fbbaf673","2025-09-02_07h56.26.744",NA,NA,728.9,728.9,728.9,729.268,NA,NA,NA,NA,NA,NA,NA,TRUE,1,0.515,725.912,728.9,NA,NA,NA,NA,NA,21,26,0,55,55,24,1,2,56,"binary"
"BA3FE08EE94F4F7B96DE578050CB81DE",1,"01990a9f-1d7e-7dcc-b85f-ac9366f1ff98","01990a83-7673-7c0c-a792-bbd8fbbaf673","2025-09-02_07h56.26.744",NA,NA,732.297,732.297,732.297,732.54,NA,NA,NA,NA,NA,NA,NA,TRUE,1,0.421,729.277,732.297,NA,NA,NA,NA,NA,30,29,0,56,56,44,1,2,57,"binary"
"BA3FE08EE94F4F7B96DE578050CB81DE",1,"01990a9f-1d7e-7dcc-b85f-ac9366f1ff98","01990a83-7673-7c0c-a792-bbd8fbbaf673","2025-09-02_07h56.26.744",NA,NA,735.605,735.606,735.606,735.956,NA,NA,NA,NA,NA,NA,NA,TRUE,1,0.668,732.542,735.605,NA,NA,NA,NA,NA,200,54,0,57,57,107,1,2,58,"binary"
"BA3FE08EE94F4F7B96DE578050CB81DE",1,"01990a9f-1d7e-7dcc-b85f-ac9366f1ff98","01990a83-7673-7c0c-a792-bbd8fbbaf673","2025-09-02_07h56.26.744",NA,NA,738.951,738.951,738.951,739.315,NA,NA,NA,NA,NA,NA,NA,TRUE,1,0.505,735.965,738.95,NA,NA,NA,NA,NA,150,47,0,58,58,94,1,2,59,"binary"
"BA3FE08EE94F4F7B96DE578050CB81DE",1,"01990a9f-1d7e-7dcc-b85f-ac9366f1ff98","01990a83-7673-7c0c-a792-bbd8fbbaf673","2025-09-02_07h56.26.744",NA,NA,742.294,742.294,742.294,742.655,NA,NA,NA,NA,NA,NA,NA,TRUE,1,0.519,739.317,742.293,NA,NA,NA,NA,NA,60,54,0,59,59,71,1,2,60,"binary"
"BA3FE08EE94F4F7B96DE578050CB81DE",1,"01990a9f-1d7e-7dcc-b85f-ac9366f1ff98","01990a83-7673-7c0c-a792-bbd8fbbaf673","2025-09-02_07h56.26.744",NA,NA,745.61,745.61,745.61,745.968,NA,NA,NA,NA,NA,NA,NA,TRUE,1,0.529,742.664,745.609,NA,NA,NA,NA,NA,14,28,0,60,60,20,1,2,61,"binary"
"BA3FE08EE94F4F7B96DE578050CB81DE",1,"01990a9f-1d7e-7dcc-b85f-ac9366f1ff98","01990a83-7673-7c0c-a792-bbd8fbbaf673","2025-09-02_07h56.26.744",NA,NA,748.962,748.962,748.962,749.316,NA,NA,NA,NA,NA,NA,NA,TRUE,1,0.131,745.969,748.962,NA,NA,NA,NA,NA,100,39,0,61,61,87,1,2,62,"binary"
"BA3FE08EE94F4F7B96DE578050CB81DE",1,"01990a9f-1d7e-7dcc-b85f-ac9366f1ff98","01990a83-7673-7c0c-a792-bbd8fbbaf673","2025-09-02_07h56.26.744",NA,NA,752.338,752.338,752.338,752.685,NA,NA,NA,NA,NA,NA,NA,TRUE,1,0.264,749.326,752.338,NA,NA,NA,NA,NA,7,28,0,62,62,2,1,2,63,"binary"
"BA3FE08EE94F4F7B96DE578050CB81DE",1,"01990a9f-1d7e-7dcc-b85f-ac9366f1ff98","01990a83-7673-7c0c-a792-bbd8fbbaf673","2025-09-02_07h56.26.744",NA,NA,755.699,755.699,755.699,756.081,NA,NA,NA,NA,NA,NA,NA,TRUE,1,0.253,752.687,755.699,NA,NA,NA,NA,NA,60,47,0,63,63,70,1,2,64,"binary"
"BA3FE08EE94F4F7B96DE578050CB81DE",1,"01990a9f-1d7e-7dcc-b85f-ac9366f1ff98","01990a83-7673-7c0c-a792-bbd8fbbaf673","2025-09-02_07h56.26.744",NA,NA,759.052,759.052,759.052,759.415,NA,NA,NA,NA,NA,NA,NA,TRUE,1,0.662,756.089,759.052,NA,NA,NA,NA,NA,40,27,0,64,64,48,1,2,65,"binary"
"BA3FE08EE94F4F7B96DE578050CB81DE",1,"01990a9f-1d7e-7dcc-b85f-ac9366f1ff98","01990a83-7673-7c0c-a792-bbd8fbbaf673","2025-09-02_07h56.26.744",NA,NA,762.332,762.332,762.332,762.735,NA,NA,NA,NA,NA,NA,NA,TRUE,1,0.258,759.424,762.331,NA,NA,NA,NA,NA,200,47,0,65,65,106,1,2,66,"binary"
"BA3FE08EE94F4F7B96DE578050CB81DE",1,"01990a9f-1d7e-7dcc-b85f-ac9366f1ff98","01990a83-7673-7c0c-a792-bbd8fbbaf673","2025-09-02_07h56.26.744",NA,NA,765.735,765.735,765.735,766.096,NA,NA,NA,NA,NA,NA,NA,TRUE,1,0.525,762.737,765.735,NA,NA,NA,NA,NA,10,27,0,66,66,8,1,2,67,"binary"
"BA3FE08EE94F4F7B96DE578050CB81DE",1,"01990a9f-1d7e-7dcc-b85f-ac9366f1ff98","01990a83-7673-7c0c-a792-bbd8fbbaf673","2025-09-02_07h56.26.744",NA,NA,769.132,769.132,769.132,769.378,NA,NA,NA,NA,NA,NA,NA,TRUE,1,0.005,766.105,769.131,NA,NA,NA,NA,NA,50,35,0,67,67,62,1,2,68,"binary"
"BA3FE08EE94F4F7B96DE578050CB81DE",1,"01990a9f-1d7e-7dcc-b85f-ac9366f1ff98","01990a83-7673-7c0c-a792-bbd8fbbaf673","2025-09-02_07h56.26.744",NA,NA,772.475,772.475,772.475,772.832,NA,NA,NA,NA,NA,NA,NA,TRUE,1,0.514,769.38,772.474,NA,NA,NA,NA,NA,14,39,0,68,68,23,1,2,69,"binary"
"BA3FE08EE94F4F7B96DE578050CB81DE",1,"01990a9f-1d7e-7dcc-b85f-ac9366f1ff98","01990a83-7673-7c0c-a792-bbd8fbbaf673","2025-09-02_07h56.26.744",NA,NA,775.758,775.758,775.758,776.136,NA,NA,NA,NA,NA,NA,NA,TRUE,1,1.051,772.84,775.758,NA,NA,NA,NA,NA,25,29,0,69,69,31,1,2,70,"binary"
"BA3FE08EE94F4F7B96DE578050CB81DE",1,"01990a9f-1d7e-7dcc-b85f-ac9366f1ff98","01990a83-7673-7c0c-a792-bbd8fbbaf673","2025-09-02_07h56.26.744",NA,NA,779.098,779.098,779.098,779.458,NA,NA,NA,NA,NA,NA,NA,TRUE,1,0.514,776.141,779.098,NA,NA,NA,NA,NA,7,26,0,70,70,1,1,2,71,"binary"
"BA3FE08EE94F4F7B96DE578050CB81DE",1,"01990a9f-1d7e-7dcc-b85f-ac9366f1ff98","01990a83-7673-7c0c-a792-bbd8fbbaf673","2025-09-02_07h56.26.744",NA,NA,782.429,782.429,782.429,782.786,NA,NA,NA,NA,NA,NA,NA,TRUE,1,0.274,779.467,782.429,NA,NA,NA,NA,NA,50,40,0,71,71,63,1,2,72,"binary"
"BA3FE08EE94F4F7B96DE578050CB81DE",1,"01990a9f-1d7e-7dcc-b85f-ac9366f1ff98","01990a83-7673-7c0c-a792-bbd8fbbaf673","2025-09-02_07h56.26.744",NA,NA,785.863,785.863,785.863,786.253,NA,NA,NA,NA,NA,NA,NA,TRUE,1,0.532,782.787,785.863,NA,NA,NA,NA,NA,50,46,0,72,72,64,1,2,73,"binary"
"BA3FE08EE94F4F7B96DE578050CB81DE",1,"01990a9f-1d7e-7dcc-b85f-ac9366f1ff98","01990a83-7673-7c0c-a792-bbd8fbbaf673","2025-09-02_07h56.26.744",NA,NA,789.262,789.262,789.262,789.499,NA,NA,NA,NA,NA,NA,NA,TRUE,1,0.004,786.263,789.261,NA,NA,NA,NA,NA,30,38,0,73,73,47,1,2,74,"binary"
"BA3FE08EE94F4F7B96DE578050CB81DE",1,"01990a9f-1d7e-7dcc-b85f-ac9366f1ff98","01990a83-7673-7c0c-a792-bbd8fbbaf673","2025-09-02_07h56.26.744",NA,NA,792.57,792.57,792.57,792.973,NA,NA,NA,NA,NA,NA,NA,TRUE,1,0.553,789.501,792.57,NA,NA,NA,NA,NA,180,27,0,74,74,96,1,2,75,"binary"
"BA3FE08EE94F4F7B96DE578050CB81DE",1,"01990a9f-1d7e-7dcc-b85f-ac9366f1ff98","01990a83-7673-7c0c-a792-bbd8fbbaf673","2025-09-02_07h56.26.744",NA,NA,795.859,795.859,795.859,796.231,NA,NA,NA,NA,NA,NA,NA,TRUE,1,0.283,792.982,795.858,NA,NA,NA,NA,NA,28,32,0,75,75,38,1,2,76,"binary"
"BA3FE08EE94F4F7B96DE578050CB81DE",1,"01990a9f-1d7e-7dcc-b85f-ac9366f1ff98","01990a83-7673-7c0c-a792-bbd8fbbaf673","2025-09-02_07h56.26.744",NA,NA,799.21,799.21,799.21,799.561,NA,NA,NA,NA,NA,NA,NA,TRUE,1,0.269,796.233,799.209,NA,NA,NA,NA,NA,7,25,0,76,76,0,1,2,77,"binary"
"BA3FE08EE94F4F7B96DE578050CB81DE",1,"01990a9f-1d7e-7dcc-b85f-ac9366f1ff98","01990a83-7673-7c0c-a792-bbd8fbbaf673","2025-09-02_07h56.26.744",NA,NA,802.605,802.605,802.605,802.964,NA,NA,NA,NA,NA,NA,NA,TRUE,1,1.93,799.57,802.605,NA,NA,NA,NA,NA,50,30,0,77,77,61,1,2,78,"binary"
"BA3FE08EE94F4F7B96DE578050CB81DE",1,"01990a9f-1d7e-7dcc-b85f-ac9366f1ff98","01990a83-7673-7c0c-a792-bbd8fbbaf673","2025-09-02_07h56.26.744",NA,NA,805.921,805.921,805.921,806.286,NA,NA,NA,NA,NA,NA,NA,TRUE,1,0.637,802.973,805.92,NA,NA,NA,NA,NA,14,35,0,78,78,22,1,2,79,"binary"
"BA3FE08EE94F4F7B96DE578050CB81DE",1,"01990a9f-1d7e-7dcc-b85f-ac9366f1ff98","01990a83-7673-7c0c-a792-bbd8fbbaf673","2025-09-02_07h56.26.744",NA,NA,809.34,809.34,809.34,809.586,NA,NA,NA,NA,NA,NA,NA,TRUE,1,0.555,806.288,809.34,NA,NA,NA,NA,NA,150,33,0,79,79,91,1,2,80,"binary"
"BA3FE08EE94F4F7B96DE578050CB81DE",1,"01990a9f-1d7e-7dcc-b85f-ac9366f1ff98","01990a83-7673-7c0c-a792-bbd8fbbaf673","2025-09-02_07h56.26.744",NA,NA,812.704,812.704,812.704,812.947,NA,NA,NA,NA,NA,NA,NA,TRUE,1,0.399,809.594,812.703,NA,NA,NA,NA,NA,30,32,0,80,80,46,1,2,81,"binary"
"BA3FE08EE94F4F7B96DE578050CB81DE",1,"01990a9f-1d7e-7dcc-b85f-ac9366f1ff98","01990a83-7673-7c0c-a792-bbd8fbbaf673","2025-09-02_07h56.26.744",NA,NA,816.036,816.036,816.036,816.283,NA,NA,NA,NA,NA,NA,NA,TRUE,1,0.534,812.949,816.035,NA,NA,NA,NA,NA,100,54,0,81,81,89,1,2,82,"binary"
"BA3FE08EE94F4F7B96DE578050CB81DE",1,"01990a9f-1d7e-7dcc-b85f-ac9366f1ff98","01990a83-7673-7c0c-a792-bbd8fbbaf673","2025-09-02_07h56.26.744",NA,NA,819.383,819.383,819.383,819.73,NA,NA,NA,NA,NA,NA,NA,TRUE,1,0.522,816.292,819.383,NA,NA,NA,NA,NA,10,30,0,82,82,10,1,2,83,"binary"
"BA3FE08EE94F4F7B96DE578050CB81DE",1,"01990a9f-1d7e-7dcc-b85f-ac9366f1ff98","01990a83-7673-7c0c-a792-bbd8fbbaf673","2025-09-02_07h56.26.744",NA,NA,822.75,822.75,822.75,823.006,NA,NA,NA,NA,NA,NA,NA,TRUE,1,0.652,819.732,822.749,NA,NA,NA,NA,NA,10,25,0,83,83,6,1,2,84,"binary"
"BA3FE08EE94F4F7B96DE578050CB81DE",1,"01990a9f-1d7e-7dcc-b85f-ac9366f1ff98","01990a83-7673-7c0c-a792-bbd8fbbaf673","2025-09-02_07h56.26.744",NA,NA,826.047,826.048,826.048,826.402,NA,NA,NA,NA,NA,NA,NA,TRUE,1,0.632,823.015,826.047,NA,NA,NA,NA,NA,90,26,0,84,84,72,1,2,85,"binary"
"BA3FE08EE94F4F7B96DE578050CB81DE",1,"01990a9f-1d7e-7dcc-b85f-ac9366f1ff98","01990a83-7673-7c0c-a792-bbd8fbbaf673","2025-09-02_07h56.26.744",NA,NA,829.361,829.361,829.361,829.729,NA,NA,NA,NA,NA,NA,NA,TRUE,1,1.568,826.402,829.36,NA,NA,NA,NA,NA,25,35,0,85,85,34,1,2,86,"binary"
"BA3FE08EE94F4F7B96DE578050CB81DE",1,"01990a9f-1d7e-7dcc-b85f-ac9366f1ff98","01990a83-7673-7c0c-a792-bbd8fbbaf673","2025-09-02_07h56.26.744",NA,NA,832.776,832.776,832.776,833.036,NA,NA,NA,NA,NA,NA,NA,TRUE,1,1.045,829.738,832.776,NA,NA,NA,NA,NA,7,30,0,86,86,3,1,2,87,"binary"
"BA3FE08EE94F4F7B96DE578050CB81DE",1,"01990a9f-1d7e-7dcc-b85f-ac9366f1ff98","01990a83-7673-7c0c-a792-bbd8fbbaf673","2025-09-02_07h56.26.744",NA,NA,836.075,836.075,836.075,836.429,NA,NA,NA,NA,NA,NA,NA,TRUE,1,0.139,833.045,836.075,NA,NA,NA,NA,NA,90,30,0,87,87,73,1,2,88,"binary"
"BA3FE08EE94F4F7B96DE578050CB81DE",1,"01990a9f-1d7e-7dcc-b85f-ac9366f1ff98","01990a83-7673-7c0c-a792-bbd8fbbaf673","2025-09-02_07h56.26.744",NA,NA,839.464,839.464,839.464,839.819,NA,NA,NA,NA,NA,NA,NA,TRUE,1,0.145,836.432,839.463,NA,NA,NA,NA,NA,200,35,0,88,88,104,1,2,89,"binary"
"BA3FE08EE94F4F7B96DE578050CB81DE",1,"01990a9f-1d7e-7dcc-b85f-ac9366f1ff98","01990a83-7673-7c0c-a792-bbd8fbbaf673","2025-09-02_07h56.26.744",NA,NA,842.374,842.374,842.374,843.203,NA,NA,NA,NA,NA,NA,NA,TRUE,1,0.811,839.828,842.374,NA,NA,NA,NA,NA,12,25,0,89,89,12,1,2,90,"binary"
"BA3FE08EE94F4F7B96DE578050CB81DE",1,"01990a9f-1d7e-7dcc-b85f-ac9366f1ff98","01990a83-7673-7c0c-a792-bbd8fbbaf673","2025-09-02_07h56.26.744",NA,NA,846.149,846.149,846.149,846.508,NA,NA,NA,NA,NA,NA,NA,TRUE,1,0.697,843.206,846.148,NA,NA,NA,NA,NA,40,47,0,90,90,52,1,2,91,"binary"
"BA3FE08EE94F4F7B96DE578050CB81DE",1,"01990a9f-1d7e-7dcc-b85f-ac9366f1ff98","01990a83-7673-7c0c-a792-bbd8fbbaf673","2025-09-02_07h56.26.744",NA,NA,849.514,849.514,849.514,849.885,NA,NA,NA,NA,NA,NA,NA,TRUE,1,2.744,846.517,849.514,NA,NA,NA,NA,NA,21,30,0,91,91,27,1,2,92,"binary"
"BA3FE08EE94F4F7B96DE578050CB81DE",1,"01990a9f-1d7e-7dcc-b85f-ac9366f1ff98","01990a83-7673-7c0c-a792-bbd8fbbaf673","2025-09-02_07h56.26.744",NA,NA,852.799,852.799,852.799,853.166,NA,NA,NA,NA,NA,NA,NA,TRUE,1,0.8,849.887,852.799,NA,NA,NA,NA,NA,95,54,0,92,92,83,1,2,93,"binary"
"BA3FE08EE94F4F7B96DE578050CB81DE",1,"01990a9f-1d7e-7dcc-b85f-ac9366f1ff98","01990a83-7673-7c0c-a792-bbd8fbbaf673","2025-09-02_07h56.26.744",NA,NA,856.164,856.164,856.164,856.53,NA,NA,NA,NA,NA,NA,NA,TRUE,1,0.131,853.174,856.163,NA,NA,NA,NA,NA,90,33,0,93,93,74,1,2,94,"binary"
"BA3FE08EE94F4F7B96DE578050CB81DE",1,"01990a9f-1d7e-7dcc-b85f-ac9366f1ff98","01990a83-7673-7c0c-a792-bbd8fbbaf673","2025-09-02_07h56.26.744",NA,NA,859.585,859.585,859.585,859.944,NA,NA,NA,NA,NA,NA,NA,TRUE,1,0.555,856.531,859.584,NA,NA,NA,NA,NA,200,39,0,94,94,105,1,2,95,"binary"
"BA3FE08EE94F4F7B96DE578050CB81DE",1,"01990a9f-1d7e-7dcc-b85f-ac9366f1ff98","01990a83-7673-7c0c-a792-bbd8fbbaf673","2025-09-02_07h56.26.744",NA,NA,862.865,862.865,862.865,863.233,NA,NA,NA,NA,NA,NA,NA,TRUE,1,0.786,859.953,862.865,NA,NA,NA,NA,NA,40,54,0,95,95,53,1,2,96,"binary"
"BA3FE08EE94F4F7B96DE578050CB81DE",1,"01990a9f-1d7e-7dcc-b85f-ac9366f1ff98","01990a83-7673-7c0c-a792-bbd8fbbaf673","2025-09-02_07h56.26.744",NA,NA,866.25,866.251,866.251,866.608,NA,NA,NA,NA,NA,NA,NA,TRUE,1,1.15,863.241,866.25,NA,NA,NA,NA,NA,12,28,0,96,96,14,1,2,97,"binary"
"BA3FE08EE94F4F7B96DE578050CB81DE",1,"01990a9f-1d7e-7dcc-b85f-ac9366f1ff98","01990a83-7673-7c0c-a792-bbd8fbbaf673","2025-09-02_07h56.26.744",NA,NA,869.626,869.626,869.626,869.984,NA,NA,NA,NA,NA,NA,NA,TRUE,1,0.261,866.61,869.626,NA,NA,NA,NA,NA,30,27,0,97,97,43,1,2,98,"binary"
"BA3FE08EE94F4F7B96DE578050CB81DE",1,"01990a9f-1d7e-7dcc-b85f-ac9366f1ff98","01990a83-7673-7c0c-a792-bbd8fbbaf673","2025-09-02_07h56.26.744",NA,NA,872.973,872.974,872.974,873.346,NA,NA,NA,NA,NA,NA,NA,TRUE,1,2.767,869.994,872.973,NA,NA,NA,NA,NA,100,38,0,98,98,86,1,2,99,"binary"
"BA3FE08EE94F4F7B96DE578050CB81DE",1,"01990a9f-1d7e-7dcc-b85f-ac9366f1ff98","01990a83-7673-7c0c-a792-bbd8fbbaf673","2025-09-02_07h56.26.744",NA,NA,876.279,876.531,876.531,876.645,NA,NA,NA,NA,NA,NA,NA,FALSE,NA,NA,873.349,876.278,NA,NA,NA,NA,NA,90,46,0,99,99,76,1,2,100,"binary"
"BA3FE08EE94F4F7B96DE578050CB81DE",1,"01990a9f-1d7e-7dcc-b85f-ac9366f1ff98","01990a83-7673-7c0c-a792-bbd8fbbaf673","2025-09-02_07h56.26.744",NA,NA,879.614,879.614,879.614,879.98,NA,NA,NA,NA,NA,NA,NA,TRUE,1,1.884,876.654,879.614,NA,NA,NA,NA,NA,95,47,0,100,100,82,1,2,101,"binary"
"BA3FE08EE94F4F7B96DE578050CB81DE",1,"01990a9f-1d7e-7dcc-b85f-ac9366f1ff98","01990a83-7673-7c0c-a792-bbd8fbbaf673","2025-09-02_07h56.26.744",NA,NA,883.021,883.021,883.021,883.377,NA,NA,NA,NA,NA,NA,NA,TRUE,1,1.016,879.982,883.02,NA,NA,NA,NA,NA,150,35,0,101,101,92,1,2,102,"binary"
"BA3FE08EE94F4F7B96DE578050CB81DE",1,"01990a9f-1d7e-7dcc-b85f-ac9366f1ff98","01990a83-7673-7c0c-a792-bbd8fbbaf673","2025-09-02_07h56.26.744",NA,NA,886.355,886.355,886.355,886.719,NA,NA,NA,NA,NA,NA,NA,TRUE,1,0.635,883.386,886.355,NA,NA,NA,NA,NA,100,26,0,102,102,84,1,2,103,"binary"
"BA3FE08EE94F4F7B96DE578050CB81DE",1,"01990a9f-1d7e-7dcc-b85f-ac9366f1ff98","01990a83-7673-7c0c-a792-bbd8fbbaf673","2025-09-02_07h56.26.744",NA,NA,889.66,889.66,889.66,890.032,NA,NA,NA,NA,NA,NA,NA,TRUE,1,0.829,886.722,889.659,NA,NA,NA,NA,NA,28,46,0,103,103,41,1,2,104,"binary"
"BA3FE08EE94F4F7B96DE578050CB81DE",1,"01990a9f-1d7e-7dcc-b85f-ac9366f1ff98","01990a83-7673-7c0c-a792-bbd8fbbaf673","2025-09-02_07h56.26.744",NA,NA,893.002,893.002,893.002,893.377,NA,NA,NA,NA,NA,NA,NA,TRUE,1,0.786,890.041,893.001,NA,NA,NA,NA,NA,25,31,0,104,104,32,1,2,105,"binary"
"BA3FE08EE94F4F7B96DE578050CB81DE",1,"01990a9f-1d7e-7dcc-b85f-ac9366f1ff98","01990a83-7673-7c0c-a792-bbd8fbbaf673","2025-09-02_07h56.26.744",NA,NA,896.398,896.398,896.398,896.782,NA,NA,NA,NA,NA,NA,NA,TRUE,1,0.67,893.379,896.398,NA,NA,NA,NA,NA,45,35,0,105,105,57,1,2,106,"binary"
"BA3FE08EE94F4F7B96DE578050CB81DE",1,"01990a9f-1d7e-7dcc-b85f-ac9366f1ff98","01990a83-7673-7c0c-a792-bbd8fbbaf673","2025-09-02_07h56.26.744",NA,NA,899.744,899.745,899.745,900.12,NA,NA,NA,NA,NA,NA,NA,TRUE,1,0.915,896.791,899.744,NA,NA,NA,NA,NA,40,35,0,106,106,50,1,2,107,"binary"
"BA3FE08EE94F4F7B96DE578050CB81DE",1,"01990a9f-1d7e-7dcc-b85f-ac9366f1ff98","01990a83-7673-7c0c-a792-bbd8fbbaf673","2025-09-02_07h56.26.744",NA,NA,903.07,903.07,903.07,903.42,NA,NA,NA,NA,NA,NA,NA,TRUE,1,0.651,900.123,903.07,NA,NA,NA,NA,NA,95,33,0,107,107,79,1,2,108,"binary"
