"participant","session","assignmentId","projectId","date","practiceTrial.started","practiceTrial.stopped","tooLate.started","tooLate.stopped","blank.started","blank.stopped","trials_pract.thisRepN","trials_pract.thisTrialN","trials_pract.thisN","trials_pract.thisIndex","trials_pract.ran","delay_pract","amount_pract","responseMade","key","rt","trial.started","trial.stopped","trials.thisRepN","trials.thisTrialN","trials.thisN","trials.thisIndex","trials.ran","delay","amount","trials_2.thisRepN","trials_2.thisTrialN","trials_2.thisN","trials_2.thisIndex","trials_2.ran","block","trial","taskType"
"BC0F43D6FC06459BAE13994AA4B77FA5",1,"01990a98-88e3-7cbe-8fd7-e9827715b262","01990a83-7673-7c0c-a792-bbd8fbbaf673","2025-09-02_03h24.22.331",28.2425,31.2221,31.2234,31.2348,31.2348,31.572,0,0,0,1,1,100,50,TRUE,2,2.1615,NA,NA,NA,NA,NA,NA,NA,NA,NA,NA,NA,NA,NA,NA,0,1,"binary"
"BC0F43D6FC06459BAE13994AA4B77FA5",1,"01990a98-88e3-7cbe-8fd7-e9827715b262","01990a83-7673-7c0c-a792-bbd8fbbaf673","2025-09-02_03h24.22.331",31.5752,34.5715,34.5717,34.5718,34.5718,34.9225,0,1,1,0,1,7,30,TRUE,2,2.0646,NA,NA,NA,NA,NA,NA,NA,NA,NA,NA,NA,NA,NA,NA,0,2,"binary"
"BC0F43D6FC06459BAE13994AA4B77FA5",1,"01990a98-88e3-7cbe-8fd7-e9827715b262","01990a83-7673-7c0c-a792-bbd8fbbaf673","2025-09-02_03h24.22.331",34.925,37.9226,37.9229,37.9231,37.9233,38.2718,0,2,2,4,1,30,40,TRUE,2,1.5938,NA,NA,NA,NA,NA,NA,NA,NA,NA,NA,NA,NA,NA,NA,0,3,"binary"
"BC0F43D6FC06459BAE13994AA4B77FA5",1,"01990a98-88e3-7cbe-8fd7-e9827715b262","01990a83-7673-7c0c-a792-bbd8fbbaf673","2025-09-02_03h24.22.331",38.2749,41.2725,41.2726,41.2728,41.2728,41.6212,0,3,3,3,1,3,27,TRUE,1,1.8305,NA,NA,NA,NA,NA,NA,NA,NA,NA,NA,NA,NA,NA,NA,0,4,"binary"
"BC0F43D6FC06459BAE13994AA4B77FA5",1,"01990a98-88e3-7cbe-8fd7-e9827715b262","01990a83-7673-7c0c-a792-bbd8fbbaf673","2025-09-02_03h24.22.331",41.6235,44.6219,44.6221,44.6222,44.6222,44.9711,0,4,4,2,1,14,45,TRUE,2,0.9847,NA,NA,NA,NA,NA,NA,NA,NA,NA,NA,NA,NA,NA,NA,0,5,"binary"
"BC0F43D6FC06459BAE13994AA4B77FA5",1,"01990a98-88e3-7cbe-8fd7-e9827715b262","01990a83-7673-7c0c-a792-bbd8fbbaf673","2025-09-02_03h24.22.331",NA,NA,65.9389,65.9393,65.9395,66.2881,NA,NA,NA,NA,NA,NA,NA,TRUE,1,2.5061,62.9578,65.9382,0,0,0,61,1,50,30,NA,NA,NA,NA,NA,1,1,"binary"
"BC0F43D6FC06459BAE13994AA4B77FA5",1,"01990a98-88e3-7cbe-8fd7-e9827715b262","01990a83-7673-7c0c-a792-bbd8fbbaf673","2025-09-02_03h24.22.331",NA,NA,69.288,69.5377,69.5378,69.6372,NA,NA,NA,NA,NA,NA,NA,FALSE,NA,NA,66.2907,69.2879,0,1,1,67,1,60,33,NA,NA,NA,NA,NA,1,2,"binary"
"BC0F43D6FC06459BAE13994AA4B77FA5",1,"01990a98-88e3-7cbe-8fd7-e9827715b262","01990a83-7673-7c0c-a792-bbd8fbbaf673","2025-09-02_03h24.22.331",NA,NA,72.6379,72.6379,72.638,72.9867,NA,NA,NA,NA,NA,NA,NA,TRUE,1,1.3327,69.6394,72.6377,0,2,2,102,1,200,26,NA,NA,NA,NA,NA,1,3,"binary"
"BC0F43D6FC06459BAE13994AA4B77FA5",1,"01990a98-88e3-7cbe-8fd7-e9827715b262","01990a83-7673-7c0c-a792-bbd8fbbaf673","2025-09-02_03h24.22.331",NA,NA,75.9869,75.987,75.987,76.3375,NA,NA,NA,NA,NA,NA,NA,TRUE,2,1.0631,72.9886,75.9868,0,3,3,29,1,21,38,NA,NA,NA,NA,NA,1,4,"binary"
"BC0F43D6FC06459BAE13994AA4B77FA5",1,"01990a98-88e3-7cbe-8fd7-e9827715b262","01990a83-7673-7c0c-a792-bbd8fbbaf673","2025-09-02_03h24.22.331",NA,NA,79.3376,79.3376,79.3377,79.6873,NA,NA,NA,NA,NA,NA,NA,TRUE,2,0.9115,76.3399,79.3374,0,4,4,40,1,28,39,NA,NA,NA,NA,NA,1,5,"binary"
"BC0F43D6FC06459BAE13994AA4B77FA5",1,"01990a98-88e3-7cbe-8fd7-e9827715b262","01990a83-7673-7c0c-a792-bbd8fbbaf673","2025-09-02_03h24.22.331",NA,NA,82.6874,82.6874,82.6875,83.0362,NA,NA,NA,NA,NA,NA,NA,TRUE,1,1.2894,79.6896,82.6872,0,5,5,44,1,30,29,NA,NA,NA,NA,NA,1,6,"binary"
"BC0F43D6FC06459BAE13994AA4B77FA5",1,"01990a98-88e3-7cbe-8fd7-e9827715b262","01990a83-7673-7c0c-a792-bbd8fbbaf673","2025-09-02_03h24.22.331",NA,NA,86.0371,86.0372,86.0372,86.3871,NA,NA,NA,NA,NA,NA,NA,TRUE,1,1.5044,83.0383,86.0369,0,6,6,92,1,150,35,NA,NA,NA,NA,NA,1,7,"binary"
"BC0F43D6FC06459BAE13994AA4B77FA5",1,"01990a98-88e3-7cbe-8fd7-e9827715b262","01990a83-7673-7c0c-a792-bbd8fbbaf673","2025-09-02_03h24.22.331",NA,NA,89.3865,89.3866,89.3866,89.7368,NA,NA,NA,NA,NA,NA,NA,TRUE,1,0.9481,86.3894,89.3863,0,7,7,31,1,25,29,NA,NA,NA,NA,NA,1,8,"binary"
"BC0F43D6FC06459BAE13994AA4B77FA5",1,"01990a98-88e3-7cbe-8fd7-e9827715b262","01990a83-7673-7c0c-a792-bbd8fbbaf673","2025-09-02_03h24.22.331",NA,NA,92.737,92.7371,92.7371,93.0869,NA,NA,NA,NA,NA,NA,NA,TRUE,2,0.7574,89.7389,92.7368,0,8,8,70,1,60,47,NA,NA,NA,NA,NA,1,9,"binary"
"BC0F43D6FC06459BAE13994AA4B77FA5",1,"01990a98-88e3-7cbe-8fd7-e9827715b262","01990a83-7673-7c0c-a792-bbd8fbbaf673","2025-09-02_03h24.22.331",NA,NA,96.0871,96.0871,96.0872,96.4359,NA,NA,NA,NA,NA,NA,NA,TRUE,2,0.9111,93.0892,96.0869,0,9,9,76,1,90,46,NA,NA,NA,NA,NA,1,10,"binary"
"BC0F43D6FC06459BAE13994AA4B77FA5",1,"01990a98-88e3-7cbe-8fd7-e9827715b262","01990a83-7673-7c0c-a792-bbd8fbbaf673","2025-09-02_03h24.22.331",NA,NA,99.4358,99.4359,99.4359,99.7865,NA,NA,NA,NA,NA,NA,NA,TRUE,2,1.2711,96.4377,99.4356,0,10,10,81,1,95,40,NA,NA,NA,NA,NA,1,11,"binary"
"BC0F43D6FC06459BAE13994AA4B77FA5",1,"01990a98-88e3-7cbe-8fd7-e9827715b262","01990a83-7673-7c0c-a792-bbd8fbbaf673","2025-09-02_03h24.22.331",NA,NA,102.7866,102.7866,102.7866,103.1364,NA,NA,NA,NA,NA,NA,NA,TRUE,1,0.8565,99.7888,102.7864,0,11,11,66,1,60,29,NA,NA,NA,NA,NA,1,12,"binary"
"BC0F43D6FC06459BAE13994AA4B77FA5",1,"01990a98-88e3-7cbe-8fd7-e9827715b262","01990a83-7673-7c0c-a792-bbd8fbbaf673","2025-09-02_03h24.22.331",NA,NA,106.1365,106.1366,106.1366,106.4853,NA,NA,NA,NA,NA,NA,NA,TRUE,2,1.5415,103.1383,106.1363,0,12,12,50,1,40,35,NA,NA,NA,NA,NA,1,13,"binary"
"BC0F43D6FC06459BAE13994AA4B77FA5",1,"01990a98-88e3-7cbe-8fd7-e9827715b262","01990a83-7673-7c0c-a792-bbd8fbbaf673","2025-09-02_03h24.22.331",NA,NA,109.4863,109.4864,109.4864,109.8361,NA,NA,NA,NA,NA,NA,NA,TRUE,1,0.7077,106.4874,109.4862,0,13,13,8,1,10,27,NA,NA,NA,NA,NA,1,14,"binary"
"BC0F43D6FC06459BAE13994AA4B77FA5",1,"01990a98-88e3-7cbe-8fd7-e9827715b262","01990a83-7673-7c0c-a792-bbd8fbbaf673","2025-09-02_03h24.22.331",NA,NA,112.8352,112.8352,112.8353,113.186,NA,NA,NA,NA,NA,NA,NA,TRUE,2,0.5742,109.8382,112.8351,0,14,14,86,1,100,38,NA,NA,NA,NA,NA,1,15,"binary"
"BC0F43D6FC06459BAE13994AA4B77FA5",1,"01990a98-88e3-7cbe-8fd7-e9827715b262","01990a83-7673-7c0c-a792-bbd8fbbaf673","2025-09-02_03h24.22.331",NA,NA,116.1861,116.1861,116.1861,116.5358,NA,NA,NA,NA,NA,NA,NA,TRUE,2,0.8838,113.1883,116.1859,0,15,15,101,1,180,54,NA,NA,NA,NA,NA,1,16,"binary"
"BC0F43D6FC06459BAE13994AA4B77FA5",1,"01990a98-88e3-7cbe-8fd7-e9827715b262","01990a83-7673-7c0c-a792-bbd8fbbaf673","2025-09-02_03h24.22.331",NA,NA,119.536,119.5361,119.5361,119.8857,NA,NA,NA,NA,NA,NA,NA,TRUE,1,1.1766,116.5374,119.5358,0,16,16,20,1,14,28,NA,NA,NA,NA,NA,1,17,"binary"
"BC0F43D6FC06459BAE13994AA4B77FA5",1,"01990a98-88e3-7cbe-8fd7-e9827715b262","01990a83-7673-7c0c-a792-bbd8fbbaf673","2025-09-02_03h24.22.331",NA,NA,122.8859,122.8859,122.8859,123.2352,NA,NA,NA,NA,NA,NA,NA,TRUE,1,0.8004,119.8879,122.8857,0,17,17,104,1,200,35,NA,NA,NA,NA,NA,1,18,"binary"
"BC0F43D6FC06459BAE13994AA4B77FA5",1,"01990a98-88e3-7cbe-8fd7-e9827715b262","01990a83-7673-7c0c-a792-bbd8fbbaf673","2025-09-02_03h24.22.331",NA,NA,126.2357,126.2357,126.2359,126.5854,NA,NA,NA,NA,NA,NA,NA,TRUE,1,0.9091,123.2375,126.2355,0,18,18,103,1,200,28,NA,NA,NA,NA,NA,1,19,"binary"
"BC0F43D6FC06459BAE13994AA4B77FA5",1,"01990a98-88e3-7cbe-8fd7-e9827715b262","01990a83-7673-7c0c-a792-bbd8fbbaf673","2025-09-02_03h24.22.331",NA,NA,129.5856,129.5856,129.5857,129.9354,NA,NA,NA,NA,NA,NA,NA,TRUE,1,1.0075,126.5875,129.5854,0,19,19,1,1,7,26,NA,NA,NA,NA,NA,1,20,"binary"
"BC0F43D6FC06459BAE13994AA4B77FA5",1,"01990a98-88e3-7cbe-8fd7-e9827715b262","01990a83-7673-7c0c-a792-bbd8fbbaf673","2025-09-02_03h24.22.331",NA,NA,132.9355,132.9355,132.9355,133.2842,NA,NA,NA,NA,NA,NA,NA,TRUE,1,0.9669,129.9375,132.9352,0,20,20,19,1,14,26,NA,NA,NA,NA,NA,1,21,"binary"
"BC0F43D6FC06459BAE13994AA4B77FA5",1,"01990a98-88e3-7cbe-8fd7-e9827715b262","01990a83-7673-7c0c-a792-bbd8fbbaf673","2025-09-02_03h24.22.331",NA,NA,136.2854,136.2854,136.2854,136.635,NA,NA,NA,NA,NA,NA,NA,TRUE,1,0.7179,133.2865,136.2853,0,21,21,25,1,21,27,NA,NA,NA,NA,NA,1,22,"binary"
"BC0F43D6FC06459BAE13994AA4B77FA5",1,"01990a98-88e3-7cbe-8fd7-e9827715b262","01990a83-7673-7c0c-a792-bbd8fbbaf673","2025-09-02_03h24.22.331",NA,NA,139.6342,139.6342,139.6343,139.9839,NA,NA,NA,NA,NA,NA,NA,TRUE,1,0.6597,136.6371,139.6339,0,22,22,3,1,7,30,NA,NA,NA,NA,NA,1,23,"binary"
"BC0F43D6FC06459BAE13994AA4B77FA5",1,"01990a98-88e3-7cbe-8fd7-e9827715b262","01990a83-7673-7c0c-a792-bbd8fbbaf673","2025-09-02_03h24.22.331",NA,NA,142.985,142.985,142.985,143.3348,NA,NA,NA,NA,NA,NA,NA,TRUE,1,0.7845,139.9856,142.9848,0,23,23,33,1,25,33,NA,NA,NA,NA,NA,1,24,"binary"
"BC0F43D6FC06459BAE13994AA4B77FA5",1,"01990a98-88e3-7cbe-8fd7-e9827715b262","01990a83-7673-7c0c-a792-bbd8fbbaf673","2025-09-02_03h24.22.331",NA,NA,146.3341,146.3341,146.3341,146.6847,NA,NA,NA,NA,NA,NA,NA,TRUE,2,1.1107,143.3368,146.334,0,24,24,95,1,150,54,NA,NA,NA,NA,NA,1,25,"binary"
"BC0F43D6FC06459BAE13994AA4B77FA5",1,"01990a98-88e3-7cbe-8fd7-e9827715b262","01990a83-7673-7c0c-a792-bbd8fbbaf673","2025-09-02_03h24.22.331",NA,NA,149.6838,149.6838,149.6838,150.0336,NA,NA,NA,NA,NA,NA,NA,TRUE,1,1.2173,146.6867,149.6836,0,25,25,87,1,100,39,NA,NA,NA,NA,NA,1,26,"binary"
"BC0F43D6FC06459BAE13994AA4B77FA5",1,"01990a98-88e3-7cbe-8fd7-e9827715b262","01990a83-7673-7c0c-a792-bbd8fbbaf673","2025-09-02_03h24.22.331",NA,NA,153.0346,153.0346,153.0346,153.3844,NA,NA,NA,NA,NA,NA,NA,TRUE,2,1.1954,150.0353,153.0344,0,26,26,11,1,10,32,NA,NA,NA,NA,NA,1,27,"binary"
"BC0F43D6FC06459BAE13994AA4B77FA5",1,"01990a98-88e3-7cbe-8fd7-e9827715b262","01990a83-7673-7c0c-a792-bbd8fbbaf673","2025-09-02_03h24.22.331",NA,NA,156.3845,156.3845,156.3845,156.7343,NA,NA,NA,NA,NA,NA,NA,TRUE,2,0.9583,153.3864,156.3842,0,27,27,71,1,60,54,NA,NA,NA,NA,NA,1,28,"binary"
"BC0F43D6FC06459BAE13994AA4B77FA5",1,"01990a98-88e3-7cbe-8fd7-e9827715b262","01990a83-7673-7c0c-a792-bbd8fbbaf673","2025-09-02_03h24.22.331",NA,NA,159.7343,159.7344,159.7345,160.0841,NA,NA,NA,NA,NA,NA,NA,TRUE,1,0.9006,156.7364,159.7341,0,28,28,55,1,45,29,NA,NA,NA,NA,NA,1,29,"binary"
"BC0F43D6FC06459BAE13994AA4B77FA5",1,"01990a98-88e3-7cbe-8fd7-e9827715b262","01990a83-7673-7c0c-a792-bbd8fbbaf673","2025-09-02_03h24.22.331",NA,NA,163.0843,163.0843,163.0844,163.4339,NA,NA,NA,NA,NA,NA,NA,TRUE,2,1.211,160.0862,163.0841,0,29,29,88,1,100,46,NA,NA,NA,NA,NA,1,30,"binary"
"BC0F43D6FC06459BAE13994AA4B77FA5",1,"01990a98-88e3-7cbe-8fd7-e9827715b262","01990a83-7673-7c0c-a792-bbd8fbbaf673","2025-09-02_03h24.22.331",NA,NA,166.4341,166.4341,166.4341,166.7829,NA,NA,NA,NA,NA,NA,NA,TRUE,1,0.7778,163.436,166.4339,0,30,30,17,1,12,35,NA,NA,NA,NA,NA,1,31,"binary"
"BC0F43D6FC06459BAE13994AA4B77FA5",1,"01990a98-88e3-7cbe-8fd7-e9827715b262","01990a83-7673-7c0c-a792-bbd8fbbaf673","2025-09-02_03h24.22.331",NA,NA,169.784,169.784,169.784,170.1337,NA,NA,NA,NA,NA,NA,NA,TRUE,1,0.877,166.7843,169.7837,0,31,31,90,1,150,31,NA,NA,NA,NA,NA,1,32,"binary"
"BC0F43D6FC06459BAE13994AA4B77FA5",1,"01990a98-88e3-7cbe-8fd7-e9827715b262","01990a83-7673-7c0c-a792-bbd8fbbaf673","2025-09-02_03h24.22.331",NA,NA,173.1339,173.1339,173.1339,173.4836,NA,NA,NA,NA,NA,NA,NA,TRUE,1,1.068,170.1358,173.1337,0,32,32,63,1,50,40,NA,NA,NA,NA,NA,1,33,"binary"
"BC0F43D6FC06459BAE13994AA4B77FA5",1,"01990a98-88e3-7cbe-8fd7-e9827715b262","01990a83-7673-7c0c-a792-bbd8fbbaf673","2025-09-02_03h24.22.331",NA,NA,176.4837,176.4838,176.4838,176.8328,NA,NA,NA,NA,NA,NA,NA,TRUE,1,0.695,173.4857,176.4835,0,33,33,15,1,12,31,NA,NA,NA,NA,NA,1,34,"binary"
"BC0F43D6FC06459BAE13994AA4B77FA5",1,"01990a98-88e3-7cbe-8fd7-e9827715b262","01990a83-7673-7c0c-a792-bbd8fbbaf673","2025-09-02_03h24.22.331",NA,NA,179.8328,179.8328,179.8328,180.1833,NA,NA,NA,NA,NA,NA,NA,TRUE,1,0.6839,176.8346,179.8326,0,34,34,58,1,45,40,NA,NA,NA,NA,NA,1,35,"binary"
"BC0F43D6FC06459BAE13994AA4B77FA5",1,"01990a98-88e3-7cbe-8fd7-e9827715b262","01990a83-7673-7c0c-a792-bbd8fbbaf673","2025-09-02_03h24.22.331",NA,NA,183.1828,183.1829,183.1829,183.5331,NA,NA,NA,NA,NA,NA,NA,TRUE,1,0.7996,180.186,183.1826,0,35,35,75,1,90,40,NA,NA,NA,NA,NA,1,36,"binary"
"BC0F43D6FC06459BAE13994AA4B77FA5",1,"01990a98-88e3-7cbe-8fd7-e9827715b262","01990a83-7673-7c0c-a792-bbd8fbbaf673","2025-09-02_03h24.22.331",NA,NA,186.5332,186.5333,186.5333,186.883,NA,NA,NA,NA,NA,NA,NA,TRUE,1,1.0686,183.5353,186.533,0,36,36,57,1,45,35,NA,NA,NA,NA,NA,1,37,"binary"
"BC0F43D6FC06459BAE13994AA4B77FA5",1,"01990a98-88e3-7cbe-8fd7-e9827715b262","01990a83-7673-7c0c-a792-bbd8fbbaf673","2025-09-02_03h24.22.331",NA,NA,189.8831,189.8832,189.8833,190.2329,NA,NA,NA,NA,NA,NA,NA,TRUE,1,1.3265,186.8851,189.8829,0,37,37,97,1,180,31,NA,NA,NA,NA,NA,1,38,"binary"
"BC0F43D6FC06459BAE13994AA4B77FA5",1,"01990a98-88e3-7cbe-8fd7-e9827715b262","01990a83-7673-7c0c-a792-bbd8fbbaf673","2025-09-02_03h24.22.331",NA,NA,193.233,193.233,193.233,193.5828,NA,NA,NA,NA,NA,NA,NA,TRUE,1,0.9006,190.2353,193.2328,0,38,38,79,1,95,33,NA,NA,NA,NA,NA,1,39,"binary"
"BC0F43D6FC06459BAE13994AA4B77FA5",1,"01990a98-88e3-7cbe-8fd7-e9827715b262","01990a83-7673-7c0c-a792-bbd8fbbaf673","2025-09-02_03h24.22.331",NA,NA,196.5829,196.5829,196.5829,196.9326,NA,NA,NA,NA,NA,NA,NA,TRUE,1,1.0767,193.5848,196.5827,0,39,39,32,1,25,31,NA,NA,NA,NA,NA,1,40,"binary"
"BC0F43D6FC06459BAE13994AA4B77FA5",1,"01990a98-88e3-7cbe-8fd7-e9827715b262","01990a83-7673-7c0c-a792-bbd8fbbaf673","2025-09-02_03h24.22.331",NA,NA,199.9327,199.9327,199.9327,200.2815,NA,NA,NA,NA,NA,NA,NA,TRUE,1,0.9584,196.9347,199.9326,0,40,40,54,1,45,26,NA,NA,NA,NA,NA,1,41,"binary"
"BC0F43D6FC06459BAE13994AA4B77FA5",1,"01990a98-88e3-7cbe-8fd7-e9827715b262","01990a83-7673-7c0c-a792-bbd8fbbaf673","2025-09-02_03h24.22.331",NA,NA,203.2826,203.2826,203.2827,203.6324,NA,NA,NA,NA,NA,NA,NA,TRUE,1,1.3204,200.2836,203.2824,0,41,41,23,1,14,39,NA,NA,NA,NA,NA,1,42,"binary"
"BC0F43D6FC06459BAE13994AA4B77FA5",1,"01990a98-88e3-7cbe-8fd7-e9827715b262","01990a83-7673-7c0c-a792-bbd8fbbaf673","2025-09-02_03h24.22.331",NA,NA,206.6315,206.6316,206.6316,206.9821,NA,NA,NA,NA,NA,NA,NA,TRUE,2,1.1175,203.6344,206.6313,0,42,42,53,1,40,54,NA,NA,NA,NA,NA,1,43,"binary"
"BC0F43D6FC06459BAE13994AA4B77FA5",1,"01990a98-88e3-7cbe-8fd7-e9827715b262","01990a83-7673-7c0c-a792-bbd8fbbaf673","2025-09-02_03h24.22.331",NA,NA,209.9823,209.9824,209.9824,210.3312,NA,NA,NA,NA,NA,NA,NA,TRUE,1,0.6807,206.9831,209.9821,0,43,43,60,1,50,27,NA,NA,NA,NA,NA,1,44,"binary"
"BC0F43D6FC06459BAE13994AA4B77FA5",1,"01990a98-88e3-7cbe-8fd7-e9827715b262","01990a83-7673-7c0c-a792-bbd8fbbaf673","2025-09-02_03h24.22.331",NA,NA,213.3312,213.3313,213.3313,213.682,NA,NA,NA,NA,NA,NA,NA,TRUE,1,0.759,210.3334,213.3311,0,44,44,65,1,50,54,NA,NA,NA,NA,NA,1,45,"binary"
"BC0F43D6FC06459BAE13994AA4B77FA5",1,"01990a98-88e3-7cbe-8fd7-e9827715b262","01990a83-7673-7c0c-a792-bbd8fbbaf673","2025-09-02_03h24.22.331",NA,NA,216.6821,216.6821,216.6822,217.0318,NA,NA,NA,NA,NA,NA,NA,TRUE,1,0.638,213.684,216.6819,0,45,45,5,1,7,35,NA,NA,NA,NA,NA,1,46,"binary"
"BC0F43D6FC06459BAE13994AA4B77FA5",1,"01990a98-88e3-7cbe-8fd7-e9827715b262","01990a83-7673-7c0c-a792-bbd8fbbaf673","2025-09-02_03h24.22.331",NA,NA,220.032,220.032,220.0321,220.3817,NA,NA,NA,NA,NA,NA,NA,TRUE,1,1.0012,217.0339,220.0318,0,46,46,43,1,30,27,NA,NA,NA,NA,NA,1,47,"binary"
"BC0F43D6FC06459BAE13994AA4B77FA5",1,"01990a98-88e3-7cbe-8fd7-e9827715b262","01990a83-7673-7c0c-a792-bbd8fbbaf673","2025-09-02_03h24.22.331",NA,NA,223.3808,223.3809,223.3809,223.7312,NA,NA,NA,NA,NA,NA,NA,TRUE,1,0.7289,220.3838,223.3807,0,47,47,2,1,7,28,NA,NA,NA,NA,NA,1,48,"binary"
"BC0F43D6FC06459BAE13994AA4B77FA5",1,"01990a98-88e3-7cbe-8fd7-e9827715b262","01990a83-7673-7c0c-a792-bbd8fbbaf673","2025-09-02_03h24.22.331",NA,NA,226.7316,226.7317,226.7317,227.0814,NA,NA,NA,NA,NA,NA,NA,TRUE,1,1.2003,223.7332,226.7315,0,48,48,91,1,150,33,NA,NA,NA,NA,NA,1,49,"binary"
"BC0F43D6FC06459BAE13994AA4B77FA5",1,"01990a98-88e3-7cbe-8fd7-e9827715b262","01990a83-7673-7c0c-a792-bbd8fbbaf673","2025-09-02_03h24.22.331",NA,NA,230.0815,230.0816,230.0816,230.4312,NA,NA,NA,NA,NA,NA,NA,TRUE,1,0.9426,227.0835,230.0814,0,49,49,51,1,40,40,NA,NA,NA,NA,NA,1,50,"binary"
"BC0F43D6FC06459BAE13994AA4B77FA5",1,"01990a98-88e3-7cbe-8fd7-e9827715b262","01990a83-7673-7c0c-a792-bbd8fbbaf673","2025-09-02_03h24.22.331",NA,NA,233.4304,233.4305,233.4305,233.7812,NA,NA,NA,NA,NA,NA,NA,TRUE,1,0.7421,230.4335,233.4302,0,50,50,78,1,95,31,NA,NA,NA,NA,NA,1,51,"binary"
"BC0F43D6FC06459BAE13994AA4B77FA5",1,"01990a98-88e3-7cbe-8fd7-e9827715b262","01990a83-7673-7c0c-a792-bbd8fbbaf673","2025-09-02_03h24.22.331",NA,NA,236.7813,236.7813,236.7814,237.1301,NA,NA,NA,NA,NA,NA,NA,TRUE,1,0.7168,233.7832,236.7811,0,51,51,49,1,40,33,NA,NA,NA,NA,NA,1,52,"binary"
"BC0F43D6FC06459BAE13994AA4B77FA5",1,"01990a98-88e3-7cbe-8fd7-e9827715b262","01990a83-7673-7c0c-a792-bbd8fbbaf673","2025-09-02_03h24.22.331",NA,NA,240.1312,240.1313,240.1313,240.4809,NA,NA,NA,NA,NA,NA,NA,TRUE,1,0.6173,237.1321,240.131,0,52,52,46,1,30,32,NA,NA,NA,NA,NA,1,53,"binary"
"BC0F43D6FC06459BAE13994AA4B77FA5",1,"01990a98-88e3-7cbe-8fd7-e9827715b262","01990a83-7673-7c0c-a792-bbd8fbbaf673","2025-09-02_03h24.22.331",NA,NA,243.481,243.481,243.4811,243.8299,NA,NA,NA,NA,NA,NA,NA,TRUE,1,0.7002,240.4829,243.4808,0,53,53,39,1,28,35,NA,NA,NA,NA,NA,1,54,"binary"
"BC0F43D6FC06459BAE13994AA4B77FA5",1,"01990a98-88e3-7cbe-8fd7-e9827715b262","01990a83-7673-7c0c-a792-bbd8fbbaf673","2025-09-02_03h24.22.331",NA,NA,246.8309,246.8309,246.831,247.1806,NA,NA,NA,NA,NA,NA,NA,TRUE,1,0.7776,243.832,246.8307,0,54,54,24,1,21,26,NA,NA,NA,NA,NA,1,55,"binary"
"BC0F43D6FC06459BAE13994AA4B77FA5",1,"01990a98-88e3-7cbe-8fd7-e9827715b262","01990a83-7673-7c0c-a792-bbd8fbbaf673","2025-09-02_03h24.22.331",NA,NA,250.1807,250.1808,250.1808,250.5305,NA,NA,NA,NA,NA,NA,NA,TRUE,1,0.5876,247.1828,250.1806,0,55,55,9,1,10,29,NA,NA,NA,NA,NA,1,56,"binary"
"BC0F43D6FC06459BAE13994AA4B77FA5",1,"01990a98-88e3-7cbe-8fd7-e9827715b262","01990a83-7673-7c0c-a792-bbd8fbbaf673","2025-09-02_03h24.22.331",NA,NA,253.5301,253.5302,253.5302,253.8794,NA,NA,NA,NA,NA,NA,NA,TRUE,2,0.9349,250.5327,253.5299,0,56,56,52,1,40,47,NA,NA,NA,NA,NA,1,57,"binary"
"BC0F43D6FC06459BAE13994AA4B77FA5",1,"01990a98-88e3-7cbe-8fd7-e9827715b262","01990a83-7673-7c0c-a792-bbd8fbbaf673","2025-09-02_03h24.22.331",NA,NA,256.8805,256.8805,256.8806,257.2302,NA,NA,NA,NA,NA,NA,NA,TRUE,1,0.8921,253.8815,256.8802,0,57,57,96,1,180,27,NA,NA,NA,NA,NA,1,58,"binary"
"BC0F43D6FC06459BAE13994AA4B77FA5",1,"01990a98-88e3-7cbe-8fd7-e9827715b262","01990a83-7673-7c0c-a792-bbd8fbbaf673","2025-09-02_03h24.22.331",NA,NA,260.2305,260.2305,260.2306,260.5791,NA,NA,NA,NA,NA,NA,NA,TRUE,1,0.7176,257.2325,260.2302,0,58,58,69,1,60,40,NA,NA,NA,NA,NA,1,59,"binary"
"BC0F43D6FC06459BAE13994AA4B77FA5",1,"01990a98-88e3-7cbe-8fd7-e9827715b262","01990a83-7673-7c0c-a792-bbd8fbbaf673","2025-09-02_03h24.22.331",NA,NA,263.58,263.5801,263.5801,263.93,NA,NA,NA,NA,NA,NA,NA,TRUE,1,0.8343,260.5812,263.5798,0,59,59,106,1,200,47,NA,NA,NA,NA,NA,1,60,"binary"
"BC0F43D6FC06459BAE13994AA4B77FA5",1,"01990a98-88e3-7cbe-8fd7-e9827715b262","01990a83-7673-7c0c-a792-bbd8fbbaf673","2025-09-02_03h24.22.331",NA,NA,266.93,266.9301,266.9301,267.2795,NA,NA,NA,NA,NA,NA,NA,TRUE,1,1.0003,263.9322,266.9299,0,60,60,6,1,10,25,NA,NA,NA,NA,NA,1,61,"binary"
"BC0F43D6FC06459BAE13994AA4B77FA5",1,"01990a98-88e3-7cbe-8fd7-e9827715b262","01990a83-7673-7c0c-a792-bbd8fbbaf673","2025-09-02_03h24.22.331",NA,NA,270.2799,270.28,270.28,270.6287,NA,NA,NA,NA,NA,NA,NA,TRUE,2,1.0502,267.2816,270.2798,0,61,61,59,1,45,46,NA,NA,NA,NA,NA,1,62,"binary"
"BC0F43D6FC06459BAE13994AA4B77FA5",1,"01990a98-88e3-7cbe-8fd7-e9827715b262","01990a83-7673-7c0c-a792-bbd8fbbaf673","2025-09-02_03h24.22.331",NA,NA,273.6298,273.6299,273.6299,273.9796,NA,NA,NA,NA,NA,NA,NA,TRUE,2,1.3339,270.63,273.6296,0,62,62,35,1,25,46,NA,NA,NA,NA,NA,1,63,"binary"
"BC0F43D6FC06459BAE13994AA4B77FA5",1,"01990a98-88e3-7cbe-8fd7-e9827715b262","01990a83-7673-7c0c-a792-bbd8fbbaf673","2025-09-02_03h24.22.331",NA,NA,276.9796,276.9796,276.9796,277.3286,NA,NA,NA,NA,NA,NA,NA,TRUE,1,0.785,273.9816,276.9793,0,63,63,30,1,25,27,NA,NA,NA,NA,NA,1,64,"binary"
"BC0F43D6FC06459BAE13994AA4B77FA5",1,"01990a98-88e3-7cbe-8fd7-e9827715b262","01990a83-7673-7c0c-a792-bbd8fbbaf673","2025-09-02_03h24.22.331",NA,NA,280.3296,280.3297,280.3297,280.6783,NA,NA,NA,NA,NA,NA,NA,TRUE,1,0.8541,277.3307,280.3294,0,64,64,27,1,21,30,NA,NA,NA,NA,NA,1,65,"binary"
"BC0F43D6FC06459BAE13994AA4B77FA5",1,"01990a98-88e3-7cbe-8fd7-e9827715b262","01990a83-7673-7c0c-a792-bbd8fbbaf673","2025-09-02_03h24.22.331",NA,NA,283.6794,283.6795,283.6795,284.0292,NA,NA,NA,NA,NA,NA,NA,TRUE,1,1.1011,280.6797,283.6792,0,65,65,107,1,200,54,NA,NA,NA,NA,NA,1,66,"binary"
"BC0F43D6FC06459BAE13994AA4B77FA5",1,"01990a98-88e3-7cbe-8fd7-e9827715b262","01990a83-7673-7c0c-a792-bbd8fbbaf673","2025-09-02_03h24.22.331",NA,NA,287.0293,287.0293,287.0293,287.379,NA,NA,NA,NA,NA,NA,NA,TRUE,2,1.3853,284.0312,287.029,0,66,66,83,1,95,54,NA,NA,NA,NA,NA,1,67,"binary"
"BC0F43D6FC06459BAE13994AA4B77FA5",1,"01990a98-88e3-7cbe-8fd7-e9827715b262","01990a83-7673-7c0c-a792-bbd8fbbaf673","2025-09-02_03h24.22.331",NA,NA,290.3781,290.3781,290.3781,290.7279,NA,NA,NA,NA,NA,NA,NA,TRUE,1,0.7509,287.3811,290.3779,0,67,67,13,1,12,26,NA,NA,NA,NA,NA,1,68,"binary"
"BC0F43D6FC06459BAE13994AA4B77FA5",1,"01990a98-88e3-7cbe-8fd7-e9827715b262","01990a83-7673-7c0c-a792-bbd8fbbaf673","2025-09-02_03h24.22.331",NA,NA,293.729,293.729,293.7291,294.0788,NA,NA,NA,NA,NA,NA,NA,TRUE,1,0.7845,290.73,293.7288,0,68,68,4,1,7,32,NA,NA,NA,NA,NA,1,69,"binary"
"BC0F43D6FC06459BAE13994AA4B77FA5",1,"01990a98-88e3-7cbe-8fd7-e9827715b262","01990a83-7673-7c0c-a792-bbd8fbbaf673","2025-09-02_03h24.22.331",NA,NA,297.0779,297.0779,297.0779,297.4286,NA,NA,NA,NA,NA,NA,NA,TRUE,1,0.951,294.0808,297.0777,0,69,69,98,1,180,35,NA,NA,NA,NA,NA,1,70,"binary"
"BC0F43D6FC06459BAE13994AA4B77FA5",1,"01990a98-88e3-7cbe-8fd7-e9827715b262","01990a83-7673-7c0c-a792-bbd8fbbaf673","2025-09-02_03h24.22.331",NA,NA,300.4288,300.4289,300.4289,300.7786,NA,NA,NA,NA,NA,NA,NA,TRUE,1,0.6675,297.4307,300.4286,0,70,70,7,1,10,26,NA,NA,NA,NA,NA,1,71,"binary"
"BC0F43D6FC06459BAE13994AA4B77FA5",1,"01990a98-88e3-7cbe-8fd7-e9827715b262","01990a83-7673-7c0c-a792-bbd8fbbaf673","2025-09-02_03h24.22.331",NA,NA,303.7776,303.7777,303.7777,304.1283,NA,NA,NA,NA,NA,NA,NA,TRUE,1,0.7008,300.7806,303.7775,0,71,71,48,1,40,27,NA,NA,NA,NA,NA,1,72,"binary"
"BC0F43D6FC06459BAE13994AA4B77FA5",1,"01990a98-88e3-7cbe-8fd7-e9827715b262","01990a83-7673-7c0c-a792-bbd8fbbaf673","2025-09-02_03h24.22.331",NA,NA,307.1285,307.1285,307.1285,307.4775,NA,NA,NA,NA,NA,NA,NA,TRUE,1,0.6679,304.1306,307.1283,0,72,72,62,1,50,35,NA,NA,NA,NA,NA,1,73,"binary"
"BC0F43D6FC06459BAE13994AA4B77FA5",1,"01990a98-88e3-7cbe-8fd7-e9827715b262","01990a83-7673-7c0c-a792-bbd8fbbaf673","2025-09-02_03h24.22.331",NA,NA,310.4778,310.4778,310.4778,310.8272,NA,NA,NA,NA,NA,NA,NA,TRUE,1,0.8725,307.4795,310.4777,0,73,73,38,1,28,32,NA,NA,NA,NA,NA,1,74,"binary"
"BC0F43D6FC06459BAE13994AA4B77FA5",1,"01990a98-88e3-7cbe-8fd7-e9827715b262","01990a83-7673-7c0c-a792-bbd8fbbaf673","2025-09-02_03h24.22.331",NA,NA,313.8274,313.8274,313.8274,314.1779,NA,NA,NA,NA,NA,NA,NA,TRUE,1,0.9877,310.8292,313.8272,0,74,74,18,1,14,25,NA,NA,NA,NA,NA,1,75,"binary"
"BC0F43D6FC06459BAE13994AA4B77FA5",1,"01990a98-88e3-7cbe-8fd7-e9827715b262","01990a83-7673-7c0c-a792-bbd8fbbaf673","2025-09-02_03h24.22.331",NA,NA,317.1779,317.178,317.178,317.5278,NA,NA,NA,NA,NA,NA,NA,TRUE,2,1.1037,314.18,317.1777,0,75,75,77,1,90,54,NA,NA,NA,NA,NA,1,76,"binary"
"BC0F43D6FC06459BAE13994AA4B77FA5",1,"01990a98-88e3-7cbe-8fd7-e9827715b262","01990a83-7673-7c0c-a792-bbd8fbbaf673","2025-09-02_03h24.22.331",NA,NA,320.5279,320.5279,320.528,320.8777,NA,NA,NA,NA,NA,NA,NA,TRUE,2,1.2848,317.5299,320.5277,0,76,76,64,1,50,46,NA,NA,NA,NA,NA,1,77,"binary"
"BC0F43D6FC06459BAE13994AA4B77FA5",1,"01990a98-88e3-7cbe-8fd7-e9827715b262","01990a83-7673-7c0c-a792-bbd8fbbaf673","2025-09-02_03h24.22.331",NA,NA,323.8777,323.8777,323.8777,324.2274,NA,NA,NA,NA,NA,NA,NA,TRUE,1,1.067,320.8792,323.8775,0,77,77,14,1,12,28,NA,NA,NA,NA,NA,1,78,"binary"
"BC0F43D6FC06459BAE13994AA4B77FA5",1,"01990a98-88e3-7cbe-8fd7-e9827715b262","01990a83-7673-7c0c-a792-bbd8fbbaf673","2025-09-02_03h24.22.331",NA,NA,327.2276,327.2276,327.2277,327.5774,NA,NA,NA,NA,NA,NA,NA,TRUE,2,1.0694,324.2295,327.2274,0,78,78,21,1,14,32,NA,NA,NA,NA,NA,1,79,"binary"
"BC0F43D6FC06459BAE13994AA4B77FA5",1,"01990a98-88e3-7cbe-8fd7-e9827715b262","01990a83-7673-7c0c-a792-bbd8fbbaf673","2025-09-02_03h24.22.331",NA,NA,330.5774,330.5774,330.5775,330.9273,NA,NA,NA,NA,NA,NA,NA,TRUE,1,1.3174,327.5794,330.5772,0,79,79,26,1,21,29,NA,NA,NA,NA,NA,1,80,"binary"
"BC0F43D6FC06459BAE13994AA4B77FA5",1,"01990a98-88e3-7cbe-8fd7-e9827715b262","01990a83-7673-7c0c-a792-bbd8fbbaf673","2025-09-02_03h24.22.331",NA,NA,333.944,333.9441,333.9441,334.2772,NA,NA,NA,NA,NA,NA,NA,TRUE,1,0.8379,330.9293,333.9439,0,80,80,36,1,28,26,NA,NA,NA,NA,NA,1,81,"binary"
"BC0F43D6FC06459BAE13994AA4B77FA5",1,"01990a98-88e3-7cbe-8fd7-e9827715b262","01990a83-7673-7c0c-a792-bbd8fbbaf673","2025-09-02_03h24.22.331",NA,NA,337.294,337.2941,337.2941,337.6271,NA,NA,NA,NA,NA,NA,NA,TRUE,2,1.3335,334.2793,337.2938,0,81,81,89,1,100,54,NA,NA,NA,NA,NA,1,82,"binary"
"BC0F43D6FC06459BAE13994AA4B77FA5",1,"01990a98-88e3-7cbe-8fd7-e9827715b262","01990a83-7673-7c0c-a792-bbd8fbbaf673","2025-09-02_03h24.22.331",NA,NA,340.6264,340.6265,340.6265,340.9769,NA,NA,NA,NA,NA,NA,NA,TRUE,2,2.1147,337.6293,340.6262,0,82,82,28,1,21,32,NA,NA,NA,NA,NA,1,83,"binary"
"BC0F43D6FC06459BAE13994AA4B77FA5",1,"01990a98-88e3-7cbe-8fd7-e9827715b262","01990a83-7673-7c0c-a792-bbd8fbbaf673","2025-09-02_03h24.22.331",NA,NA,343.9929,343.9929,343.9929,344.3267,NA,NA,NA,NA,NA,NA,NA,TRUE,1,1.8695,340.9787,343.9928,0,83,83,56,1,45,31,NA,NA,NA,NA,NA,1,84,"binary"
"BC0F43D6FC06459BAE13994AA4B77FA5",1,"01990a98-88e3-7cbe-8fd7-e9827715b262","01990a83-7673-7c0c-a792-bbd8fbbaf673","2025-09-02_03h24.22.331",NA,NA,347.3268,347.3268,347.3269,347.6767,NA,NA,NA,NA,NA,NA,NA,TRUE,1,1.0365,344.3286,347.3268,0,84,84,84,1,100,26,NA,NA,NA,NA,NA,1,85,"binary"
"BC0F43D6FC06459BAE13994AA4B77FA5",1,"01990a98-88e3-7cbe-8fd7-e9827715b262","01990a83-7673-7c0c-a792-bbd8fbbaf673","2025-09-02_03h24.22.331",NA,NA,350.6767,350.6767,350.6768,351.0264,NA,NA,NA,NA,NA,NA,NA,TRUE,2,1.7664,347.6783,350.6765,0,85,85,41,1,28,46,NA,NA,NA,NA,NA,1,86,"binary"
"BC0F43D6FC06459BAE13994AA4B77FA5",1,"01990a98-88e3-7cbe-8fd7-e9827715b262","01990a83-7673-7c0c-a792-bbd8fbbaf673","2025-09-02_03h24.22.331",NA,NA,354.0263,354.0263,354.0263,354.3764,NA,NA,NA,NA,NA,NA,NA,TRUE,1,1.533,351.0284,354.0261,0,86,86,74,1,90,33,NA,NA,NA,NA,NA,1,87,"binary"
"BC0F43D6FC06459BAE13994AA4B77FA5",1,"01990a98-88e3-7cbe-8fd7-e9827715b262","01990a83-7673-7c0c-a792-bbd8fbbaf673","2025-09-02_03h24.22.331",NA,NA,357.3763,357.3763,357.3763,357.7427,NA,NA,NA,NA,NA,NA,NA,TRUE,2,1.2706,354.3783,357.3761,0,87,87,10,1,10,30,NA,NA,NA,NA,NA,1,88,"binary"
"BC0F43D6FC06459BAE13994AA4B77FA5",1,"01990a98-88e3-7cbe-8fd7-e9827715b262","01990a83-7673-7c0c-a792-bbd8fbbaf673","2025-09-02_03h24.22.331",NA,NA,360.7263,360.7264,360.7264,361.0927,NA,NA,NA,NA,NA,NA,NA,TRUE,2,1.6632,357.7446,360.7261,0,88,88,34,1,25,35,NA,NA,NA,NA,NA,1,89,"binary"
"BC0F43D6FC06459BAE13994AA4B77FA5",1,"01990a98-88e3-7cbe-8fd7-e9827715b262","01990a83-7673-7c0c-a792-bbd8fbbaf673","2025-09-02_03h24.22.331",NA,NA,364.0919,364.0919,364.092,364.4259,NA,NA,NA,NA,NA,NA,NA,TRUE,1,1.1218,361.0946,364.0917,0,89,89,93,1,150,40,NA,NA,NA,NA,NA,1,90,"binary"
"BC0F43D6FC06459BAE13994AA4B77FA5",1,"01990a98-88e3-7cbe-8fd7-e9827715b262","01990a83-7673-7c0c-a792-bbd8fbbaf673","2025-09-02_03h24.22.331",NA,NA,367.4428,367.4429,367.4429,367.7756,NA,NA,NA,NA,NA,NA,NA,TRUE,1,0.8066,364.4279,367.4427,0,90,90,12,1,12,25,NA,NA,NA,NA,NA,1,91,"binary"
"BC0F43D6FC06459BAE13994AA4B77FA5",1,"01990a98-88e3-7cbe-8fd7-e9827715b262","01990a83-7673-7c0c-a792-bbd8fbbaf673","2025-09-02_03h24.22.331",NA,NA,370.7928,370.7928,370.7929,371.1414,NA,NA,NA,NA,NA,NA,NA,TRUE,1,1.152,367.7776,370.7925,0,91,91,105,1,200,39,NA,NA,NA,NA,NA,1,92,"binary"
"BC0F43D6FC06459BAE13994AA4B77FA5",1,"01990a98-88e3-7cbe-8fd7-e9827715b262","01990a83-7673-7c0c-a792-bbd8fbbaf673","2025-09-02_03h24.22.331",NA,NA,374.1423,374.1423,374.1423,374.4925,NA,NA,NA,NA,NA,NA,NA,TRUE,1,0.7578,371.1438,374.1421,0,92,92,72,1,90,26,NA,NA,NA,NA,NA,1,93,"binary"
"BC0F43D6FC06459BAE13994AA4B77FA5",1,"01990a98-88e3-7cbe-8fd7-e9827715b262","01990a83-7673-7c0c-a792-bbd8fbbaf673","2025-09-02_03h24.22.331",NA,NA,377.4927,377.4928,377.4928,377.8411,NA,NA,NA,NA,NA,NA,NA,TRUE,1,1.2404,374.4946,377.4924,0,93,93,47,1,30,38,NA,NA,NA,NA,NA,1,94,"binary"
"BC0F43D6FC06459BAE13994AA4B77FA5",1,"01990a98-88e3-7cbe-8fd7-e9827715b262","01990a83-7673-7c0c-a792-bbd8fbbaf673","2025-09-02_03h24.22.331",NA,NA,380.8258,380.8259,380.8259,381.1911,NA,NA,NA,NA,NA,NA,NA,TRUE,2,1.2084,377.8437,380.8254,0,94,94,16,1,12,33,NA,NA,NA,NA,NA,1,95,"binary"
"BC0F43D6FC06459BAE13994AA4B77FA5",1,"01990a98-88e3-7cbe-8fd7-e9827715b262","01990a83-7673-7c0c-a792-bbd8fbbaf673","2025-09-02_03h24.22.331",NA,NA,384.1921,384.1922,384.1922,384.5417,NA,NA,NA,NA,NA,NA,NA,TRUE,1,1.0596,381.1939,384.1919,0,95,95,99,1,180,39,NA,NA,NA,NA,NA,1,96,"binary"
"BC0F43D6FC06459BAE13994AA4B77FA5",1,"01990a98-88e3-7cbe-8fd7-e9827715b262","01990a83-7673-7c0c-a792-bbd8fbbaf673","2025-09-02_03h24.22.331",NA,NA,387.5419,387.5422,387.5423,387.8911,NA,NA,NA,NA,NA,NA,NA,TRUE,1,1.0581,384.5441,387.5417,0,96,96,73,1,90,30,NA,NA,NA,NA,NA,1,97,"binary"
"BC0F43D6FC06459BAE13994AA4B77FA5",1,"01990a98-88e3-7cbe-8fd7-e9827715b262","01990a83-7673-7c0c-a792-bbd8fbbaf673","2025-09-02_03h24.22.331",NA,NA,390.8919,390.892,390.8921,391.2406,NA,NA,NA,NA,NA,NA,NA,TRUE,2,1.3238,387.8938,390.8916,0,97,97,22,1,14,35,NA,NA,NA,NA,NA,1,98,"binary"
"BC0F43D6FC06459BAE13994AA4B77FA5",1,"01990a98-88e3-7cbe-8fd7-e9827715b262","01990a83-7673-7c0c-a792-bbd8fbbaf673","2025-09-02_03h24.22.331",NA,NA,394.2407,394.2408,394.2408,394.5914,NA,NA,NA,NA,NA,NA,NA,TRUE,1,1.464,391.2433,394.2405,0,98,98,0,1,7,25,NA,NA,NA,NA,NA,1,99,"binary"
"BC0F43D6FC06459BAE13994AA4B77FA5",1,"01990a98-88e3-7cbe-8fd7-e9827715b262","01990a83-7673-7c0c-a792-bbd8fbbaf673","2025-09-02_03h24.22.331",NA,NA,397.5915,397.5917,397.5917,397.9412,NA,NA,NA,NA,NA,NA,NA,TRUE,1,1.0414,394.5939,397.5914,0,99,99,100,1,180,46,NA,NA,NA,NA,NA,1,100,"binary"
"BC0F43D6FC06459BAE13994AA4B77FA5",1,"01990a98-88e3-7cbe-8fd7-e9827715b262","01990a83-7673-7c0c-a792-bbd8fbbaf673","2025-09-02_03h24.22.331",NA,NA,400.9414,400.9415,400.9415,401.2912,NA,NA,NA,NA,NA,NA,NA,TRUE,1,0.9316,397.9437,400.9412,0,100,100,85,1,100,31,NA,NA,NA,NA,NA,1,101,"binary"
"BC0F43D6FC06459BAE13994AA4B77FA5",1,"01990a98-88e3-7cbe-8fd7-e9827715b262","01990a83-7673-7c0c-a792-bbd8fbbaf673","2025-09-02_03h24.22.331",NA,NA,404.2915,404.2916,404.2916,404.641,NA,NA,NA,NA,NA,NA,NA,TRUE,2,0.9996,401.2938,404.2913,0,101,101,68,1,60,35,NA,NA,NA,NA,NA,1,102,"binary"
"BC0F43D6FC06459BAE13994AA4B77FA5",1,"01990a98-88e3-7cbe-8fd7-e9827715b262","01990a83-7673-7c0c-a792-bbd8fbbaf673","2025-09-02_03h24.22.331",NA,NA,407.6401,407.6402,407.6402,407.9906,NA,NA,NA,NA,NA,NA,NA,TRUE,1,0.876,404.6437,407.6399,0,102,102,37,1,28,28,NA,NA,NA,NA,NA,1,103,"binary"
"BC0F43D6FC06459BAE13994AA4B77FA5",1,"01990a98-88e3-7cbe-8fd7-e9827715b262","01990a83-7673-7c0c-a792-bbd8fbbaf673","2025-09-02_03h24.22.331",NA,NA,410.9907,410.9907,410.9907,411.3408,NA,NA,NA,NA,NA,NA,NA,TRUE,1,0.7151,407.992,410.9905,0,103,103,82,1,95,47,NA,NA,NA,NA,NA,1,104,"binary"
"BC0F43D6FC06459BAE13994AA4B77FA5",1,"01990a98-88e3-7cbe-8fd7-e9827715b262","01990a83-7673-7c0c-a792-bbd8fbbaf673","2025-09-02_03h24.22.331",NA,NA,414.3409,414.341,414.341,414.6906,NA,NA,NA,NA,NA,NA,NA,TRUE,1,0.7245,411.3431,414.3407,0,104,104,94,1,150,47,NA,NA,NA,NA,NA,1,105,"binary"
"BC0F43D6FC06459BAE13994AA4B77FA5",1,"01990a98-88e3-7cbe-8fd7-e9827715b262","01990a83-7673-7c0c-a792-bbd8fbbaf673","2025-09-02_03h24.22.331",NA,NA,417.6908,417.691,417.691,418.0405,NA,NA,NA,NA,NA,NA,NA,TRUE,1,0.896,414.6932,417.6905,0,105,105,42,1,30,26,NA,NA,NA,NA,NA,1,106,"binary"
"BC0F43D6FC06459BAE13994AA4B77FA5",1,"01990a98-88e3-7cbe-8fd7-e9827715b262","01990a83-7673-7c0c-a792-bbd8fbbaf673","2025-09-02_03h24.22.331",NA,NA,421.0406,421.0407,421.0407,421.3903,NA,NA,NA,NA,NA,NA,NA,TRUE,1,0.6324,418.0431,421.0403,0,106,106,45,1,30,30,NA,NA,NA,NA,NA,1,107,"binary"
"BC0F43D6FC06459BAE13994AA4B77FA5",1,"01990a98-88e3-7cbe-8fd7-e9827715b262","01990a83-7673-7c0c-a792-bbd8fbbaf673","2025-09-02_03h24.22.331",NA,NA,424.3904,424.3905,424.3905,424.7392,NA,NA,NA,NA,NA,NA,NA,TRUE,1,0.8608,421.3931,424.3902,0,107,107,80,1,95,35,NA,NA,NA,NA,NA,1,108,"binary"
"BC0F43D6FC06459BAE13994AA4B77FA5",1,"01990a98-88e3-7cbe-8fd7-e9827715b262","01990a83-7673-7c0c-a792-bbd8fbbaf673","2025-09-02_03h24.22.331",NA,NA,431.2892,431.2893,431.2893,431.6399,NA,NA,NA,NA,NA,NA,NA,TRUE,1,0.9672,428.3024,431.289,NA,NA,NA,NA,NA,95,47,0,0,0,82,1,2,1,"binary"
"BC0F43D6FC06459BAE13994AA4B77FA5",1,"01990a98-88e3-7cbe-8fd7-e9827715b262","01990a83-7673-7c0c-a792-bbd8fbbaf673","2025-09-02_03h24.22.331",NA,NA,434.639,434.6391,434.6391,434.9899,NA,NA,NA,NA,NA,NA,NA,TRUE,1,0.9093,431.6426,434.6389,NA,NA,NA,NA,NA,25,29,0,1,1,31,1,2,2,"binary"
"BC0F43D6FC06459BAE13994AA4B77FA5",1,"01990a98-88e3-7cbe-8fd7-e9827715b262","01990a83-7673-7c0c-a792-bbd8fbbaf673","2025-09-02_03h24.22.331",NA,NA,437.9898,437.9898,437.9898,438.3397,NA,NA,NA,NA,NA,NA,NA,TRUE,1,1.5823,434.9917,437.9896,NA,NA,NA,NA,NA,50,40,0,2,2,63,1,2,3,"binary"
"BC0F43D6FC06459BAE13994AA4B77FA5",1,"01990a98-88e3-7cbe-8fd7-e9827715b262","01990a83-7673-7c0c-a792-bbd8fbbaf673","2025-09-02_03h24.22.331",NA,NA,441.3397,441.3397,441.3397,441.6885,NA,NA,NA,NA,NA,NA,NA,TRUE,1,1.1294,438.342,441.3395,NA,NA,NA,NA,NA,90,46,0,3,3,76,1,2,4,"binary"
"BC0F43D6FC06459BAE13994AA4B77FA5",1,"01990a98-88e3-7cbe-8fd7-e9827715b262","01990a83-7673-7c0c-a792-bbd8fbbaf673","2025-09-02_03h24.22.331",NA,NA,444.6897,444.6897,444.6897,445.0384,NA,NA,NA,NA,NA,NA,NA,TRUE,1,1.0937,441.691,444.6894,NA,NA,NA,NA,NA,150,35,0,4,4,92,1,2,5,"binary"
"BC0F43D6FC06459BAE13994AA4B77FA5",1,"01990a98-88e3-7cbe-8fd7-e9827715b262","01990a83-7673-7c0c-a792-bbd8fbbaf673","2025-09-02_03h24.22.331",NA,NA,448.0384,448.0385,448.0385,448.3893,NA,NA,NA,NA,NA,NA,NA,TRUE,1,2.1127,445.041,448.0383,NA,NA,NA,NA,NA,14,35,0,5,5,22,1,2,6,"binary"
"BC0F43D6FC06459BAE13994AA4B77FA5",1,"01990a98-88e3-7cbe-8fd7-e9827715b262","01990a83-7673-7c0c-a792-bbd8fbbaf673","2025-09-02_03h24.22.331",NA,NA,451.3893,451.3893,451.3893,451.7391,NA,NA,NA,NA,NA,NA,NA,TRUE,1,1.4558,448.3916,451.3891,NA,NA,NA,NA,NA,60,29,0,6,6,66,1,2,7,"binary"
"BC0F43D6FC06459BAE13994AA4B77FA5",1,"01990a98-88e3-7cbe-8fd7-e9827715b262","01990a83-7673-7c0c-a792-bbd8fbbaf673","2025-09-02_03h24.22.331",NA,NA,454.7394,454.7395,454.7395,455.0891,NA,NA,NA,NA,NA,NA,NA,TRUE,1,0.7783,451.7413,454.7392,NA,NA,NA,NA,NA,180,35,0,7,7,98,1,2,8,"binary"
"BC0F43D6FC06459BAE13994AA4B77FA5",1,"01990a98-88e3-7cbe-8fd7-e9827715b262","01990a83-7673-7c0c-a792-bbd8fbbaf673","2025-09-02_03h24.22.331",NA,NA,458.089,458.0892,458.0892,458.4389,NA,NA,NA,NA,NA,NA,NA,TRUE,1,0.7412,455.0912,458.0889,NA,NA,NA,NA,NA,45,29,0,8,8,55,1,2,9,"binary"
"BC0F43D6FC06459BAE13994AA4B77FA5",1,"01990a98-88e3-7cbe-8fd7-e9827715b262","01990a83-7673-7c0c-a792-bbd8fbbaf673","2025-09-02_03h24.22.331",NA,NA,461.4391,461.4391,461.4392,461.7888,NA,NA,NA,NA,NA,NA,NA,TRUE,1,0.6903,458.4411,461.4388,NA,NA,NA,NA,NA,100,46,0,9,9,88,1,2,10,"binary"
"BC0F43D6FC06459BAE13994AA4B77FA5",1,"01990a98-88e3-7cbe-8fd7-e9827715b262","01990a83-7673-7c0c-a792-bbd8fbbaf673","2025-09-02_03h24.22.331",NA,NA,464.7878,464.7878,464.7879,465.1385,NA,NA,NA,NA,NA,NA,NA,TRUE,1,1.2753,461.7911,464.7876,NA,NA,NA,NA,NA,50,30,0,10,10,61,1,2,11,"binary"
"BC0F43D6FC06459BAE13994AA4B77FA5",1,"01990a98-88e3-7cbe-8fd7-e9827715b262","01990a83-7673-7c0c-a792-bbd8fbbaf673","2025-09-02_03h24.22.331",NA,NA,468.1387,468.1388,468.1388,468.4875,NA,NA,NA,NA,NA,NA,NA,TRUE,1,1.3272,465.1409,468.1385,NA,NA,NA,NA,NA,14,28,0,11,11,20,1,2,12,"binary"
"BC0F43D6FC06459BAE13994AA4B77FA5",1,"01990a98-88e3-7cbe-8fd7-e9827715b262","01990a83-7673-7c0c-a792-bbd8fbbaf673","2025-09-02_03h24.22.331",NA,NA,471.4885,471.4885,471.4886,471.8383,NA,NA,NA,NA,NA,NA,NA,TRUE,2,1.4423,468.4898,471.4884,NA,NA,NA,NA,NA,30,38,0,12,12,47,1,2,13,"binary"
"BC0F43D6FC06459BAE13994AA4B77FA5",1,"01990a98-88e3-7cbe-8fd7-e9827715b262","01990a83-7673-7c0c-a792-bbd8fbbaf673","2025-09-02_03h24.22.331",NA,NA,474.8384,474.8385,474.8385,475.1883,NA,NA,NA,NA,NA,NA,NA,TRUE,2,0.9536,471.8405,474.8383,NA,NA,NA,NA,NA,21,38,0,13,13,29,1,2,14,"binary"
"BC0F43D6FC06459BAE13994AA4B77FA5",1,"01990a98-88e3-7cbe-8fd7-e9827715b262","01990a83-7673-7c0c-a792-bbd8fbbaf673","2025-09-02_03h24.22.331",NA,NA,478.1882,478.1882,478.1883,478.5381,NA,NA,NA,NA,NA,NA,NA,TRUE,1,1.0949,475.1906,478.1881,NA,NA,NA,NA,NA,180,54,0,14,14,101,1,2,15,"binary"
"BC0F43D6FC06459BAE13994AA4B77FA5",1,"01990a98-88e3-7cbe-8fd7-e9827715b262","01990a83-7673-7c0c-a792-bbd8fbbaf673","2025-09-02_03h24.22.331",NA,NA,481.538,481.538,481.5381,481.8878,NA,NA,NA,NA,NA,NA,NA,TRUE,1,0.7544,478.5404,481.5379,NA,NA,NA,NA,NA,28,26,0,15,15,36,1,2,16,"binary"
"BC0F43D6FC06459BAE13994AA4B77FA5",1,"01990a98-88e3-7cbe-8fd7-e9827715b262","01990a83-7673-7c0c-a792-bbd8fbbaf673","2025-09-02_03h24.22.331",NA,NA,484.888,484.888,484.8881,485.2374,NA,NA,NA,NA,NA,NA,NA,TRUE,1,1.4352,481.8899,484.8878,NA,NA,NA,NA,NA,12,25,0,16,16,12,1,2,17,"binary"
"BC0F43D6FC06459BAE13994AA4B77FA5",1,"01990a98-88e3-7cbe-8fd7-e9827715b262","01990a83-7673-7c0c-a792-bbd8fbbaf673","2025-09-02_03h24.22.331",NA,NA,488.2378,488.2379,488.2379,488.5876,NA,NA,NA,NA,NA,NA,NA,TRUE,2,2.1844,485.2391,488.2377,NA,NA,NA,NA,NA,28,35,0,17,17,39,1,2,18,"binary"
"BC0F43D6FC06459BAE13994AA4B77FA5",1,"01990a98-88e3-7cbe-8fd7-e9827715b262","01990a83-7673-7c0c-a792-bbd8fbbaf673","2025-09-02_03h24.22.331",NA,NA,491.5875,491.5876,491.5876,491.9375,NA,NA,NA,NA,NA,NA,NA,TRUE,1,1.7731,488.5899,491.5873,NA,NA,NA,NA,NA,90,30,0,18,18,73,1,2,19,"binary"
"BC0F43D6FC06459BAE13994AA4B77FA5",1,"01990a98-88e3-7cbe-8fd7-e9827715b262","01990a83-7673-7c0c-a792-bbd8fbbaf673","2025-09-02_03h24.22.331",NA,NA,494.9375,494.9376,494.9376,495.2874,NA,NA,NA,NA,NA,NA,NA,TRUE,1,0.7441,491.94,494.9374,NA,NA,NA,NA,NA,30,26,0,19,19,42,1,2,20,"binary"
"BC0F43D6FC06459BAE13994AA4B77FA5",1,"01990a98-88e3-7cbe-8fd7-e9827715b262","01990a83-7673-7c0c-a792-bbd8fbbaf673","2025-09-02_03h24.22.331",NA,NA,498.2876,498.2877,498.2877,498.6372,NA,NA,NA,NA,NA,NA,NA,TRUE,1,0.7677,495.2896,498.2873,NA,NA,NA,NA,NA,21,27,0,20,20,25,1,2,21,"binary"
"BC0F43D6FC06459BAE13994AA4B77FA5",1,"01990a98-88e3-7cbe-8fd7-e9827715b262","01990a83-7673-7c0c-a792-bbd8fbbaf673","2025-09-02_03h24.22.331",NA,NA,501.6373,501.6373,501.6374,501.9872,NA,NA,NA,NA,NA,NA,NA,TRUE,1,0.9367,498.6395,501.6372,NA,NA,NA,NA,NA,40,35,0,21,21,50,1,2,22,"binary"
"BC0F43D6FC06459BAE13994AA4B77FA5",1,"01990a98-88e3-7cbe-8fd7-e9827715b262","01990a83-7673-7c0c-a792-bbd8fbbaf673","2025-09-02_03h24.22.331",NA,NA,504.9872,504.9872,504.9873,505.337,NA,NA,NA,NA,NA,NA,NA,TRUE,1,1.7431,501.9895,504.987,NA,NA,NA,NA,NA,95,40,0,22,22,81,1,2,23,"binary"
"BC0F43D6FC06459BAE13994AA4B77FA5",1,"01990a98-88e3-7cbe-8fd7-e9827715b262","01990a83-7673-7c0c-a792-bbd8fbbaf673","2025-09-02_03h24.22.331",NA,NA,508.336,508.336,508.3361,508.6867,NA,NA,NA,NA,NA,NA,NA,TRUE,1,2.7932,505.3394,508.3358,NA,NA,NA,NA,NA,7,28,0,23,23,2,1,2,24,"binary"
"BC0F43D6FC06459BAE13994AA4B77FA5",1,"01990a98-88e3-7cbe-8fd7-e9827715b262","01990a83-7673-7c0c-a792-bbd8fbbaf673","2025-09-02_03h24.22.331",NA,NA,511.686,511.686,511.6861,512.0357,NA,NA,NA,NA,NA,NA,NA,TRUE,2,2.9158,508.689,511.6858,NA,NA,NA,NA,NA,100,38,0,24,24,86,1,2,25,"binary"
"BC0F43D6FC06459BAE13994AA4B77FA5",1,"01990a98-88e3-7cbe-8fd7-e9827715b262","01990a83-7673-7c0c-a792-bbd8fbbaf673","2025-09-02_03h24.22.331",NA,NA,515.037,515.2866,515.2866,515.3856,NA,NA,NA,NA,NA,NA,NA,FALSE,NA,NA,512.0382,515.0367,NA,NA,NA,NA,NA,30,27,0,25,25,43,1,2,26,"binary"
"BC0F43D6FC06459BAE13994AA4B77FA5",1,"01990a98-88e3-7cbe-8fd7-e9827715b262","01990a83-7673-7c0c-a792-bbd8fbbaf673","2025-09-02_03h24.22.331",NA,NA,518.386,518.386,518.386,518.7366,NA,NA,NA,NA,NA,NA,NA,TRUE,2,1.0409,515.3879,518.3858,NA,NA,NA,NA,NA,150,31,0,26,26,90,1,2,27,"binary"
"BC0F43D6FC06459BAE13994AA4B77FA5",1,"01990a98-88e3-7cbe-8fd7-e9827715b262","01990a83-7673-7c0c-a792-bbd8fbbaf673","2025-09-02_03h24.22.331",NA,NA,521.7366,521.7366,521.7366,522.0863,NA,NA,NA,NA,NA,NA,NA,TRUE,1,0.8512,518.7388,521.7364,NA,NA,NA,NA,NA,45,31,0,27,27,56,1,2,28,"binary"
"BC0F43D6FC06459BAE13994AA4B77FA5",1,"01990a98-88e3-7cbe-8fd7-e9827715b262","01990a83-7673-7c0c-a792-bbd8fbbaf673","2025-09-02_03h24.22.331",NA,NA,525.0865,525.0865,525.0865,525.4353,NA,NA,NA,NA,NA,NA,NA,TRUE,1,0.9405,522.0886,525.0863,NA,NA,NA,NA,NA,30,32,0,28,28,46,1,2,29,"binary"
"BC0F43D6FC06459BAE13994AA4B77FA5",1,"01990a98-88e3-7cbe-8fd7-e9827715b262","01990a83-7673-7c0c-a792-bbd8fbbaf673","2025-09-02_03h24.22.331",NA,NA,528.4363,528.4363,528.4363,528.786,NA,NA,NA,NA,NA,NA,NA,TRUE,1,1.1248,525.4375,528.4361,NA,NA,NA,NA,NA,200,28,0,29,29,103,1,2,30,"binary"
"BC0F43D6FC06459BAE13994AA4B77FA5",1,"01990a98-88e3-7cbe-8fd7-e9827715b262","01990a83-7673-7c0c-a792-bbd8fbbaf673","2025-09-02_03h24.22.331",NA,NA,531.7861,531.7861,531.7861,532.1359,NA,NA,NA,NA,NA,NA,NA,TRUE,1,1.1865,528.7883,531.7859,NA,NA,NA,NA,NA,50,54,0,30,30,65,1,2,31,"binary"
"BC0F43D6FC06459BAE13994AA4B77FA5",1,"01990a98-88e3-7cbe-8fd7-e9827715b262","01990a83-7673-7c0c-a792-bbd8fbbaf673","2025-09-02_03h24.22.331",NA,NA,535.135,535.1351,535.1351,535.4848,NA,NA,NA,NA,NA,NA,NA,TRUE,1,1.1121,532.1382,535.1348,NA,NA,NA,NA,NA,14,25,0,31,31,18,1,2,32,"binary"
"BC0F43D6FC06459BAE13994AA4B77FA5",1,"01990a98-88e3-7cbe-8fd7-e9827715b262","01990a83-7673-7c0c-a792-bbd8fbbaf673","2025-09-02_03h24.22.331",NA,NA,538.4858,538.4859,538.4859,538.8346,NA,NA,NA,NA,NA,NA,NA,TRUE,1,1.083,535.4868,538.4857,NA,NA,NA,NA,NA,14,39,0,32,32,23,1,2,33,"binary"
"BC0F43D6FC06459BAE13994AA4B77FA5",1,"01990a98-88e3-7cbe-8fd7-e9827715b262","01990a83-7673-7c0c-a792-bbd8fbbaf673","2025-09-02_03h24.22.331",NA,NA,541.8356,541.8356,541.8356,542.1856,NA,NA,NA,NA,NA,NA,NA,TRUE,1,1.5396,538.8372,541.8355,NA,NA,NA,NA,NA,60,35,0,33,33,68,1,2,34,"binary"
"BC0F43D6FC06459BAE13994AA4B77FA5",1,"01990a98-88e3-7cbe-8fd7-e9827715b262","01990a83-7673-7c0c-a792-bbd8fbbaf673","2025-09-02_03h24.22.331",NA,NA,545.1846,545.1847,545.1847,545.5353,NA,NA,NA,NA,NA,NA,NA,TRUE,1,1.4209,542.187,545.1845,NA,NA,NA,NA,NA,200,35,0,34,34,104,1,2,35,"binary"
"BC0F43D6FC06459BAE13994AA4B77FA5",1,"01990a98-88e3-7cbe-8fd7-e9827715b262","01990a83-7673-7c0c-a792-bbd8fbbaf673","2025-09-02_03h24.22.331",NA,NA,548.5354,548.5355,548.5355,548.8852,NA,NA,NA,NA,NA,NA,NA,TRUE,1,1.436,545.5376,548.5353,NA,NA,NA,NA,NA,10,26,0,35,35,7,1,2,36,"binary"
"BC0F43D6FC06459BAE13994AA4B77FA5",1,"01990a98-88e3-7cbe-8fd7-e9827715b262","01990a83-7673-7c0c-a792-bbd8fbbaf673","2025-09-02_03h24.22.331",NA,NA,551.8853,551.8853,551.8853,552.235,NA,NA,NA,NA,NA,NA,NA,TRUE,1,1.5738,548.8873,551.8851,NA,NA,NA,NA,NA,14,26,0,36,36,19,1,2,37,"binary"
"BC0F43D6FC06459BAE13994AA4B77FA5",1,"01990a98-88e3-7cbe-8fd7-e9827715b262","01990a83-7673-7c0c-a792-bbd8fbbaf673","2025-09-02_03h24.22.331",NA,NA,555.2352,555.2352,555.2352,555.5849,NA,NA,NA,NA,NA,NA,NA,TRUE,1,2.2671,552.2372,555.235,NA,NA,NA,NA,NA,40,40,0,37,37,51,1,2,38,"binary"
"BC0F43D6FC06459BAE13994AA4B77FA5",1,"01990a98-88e3-7cbe-8fd7-e9827715b262","01990a83-7673-7c0c-a792-bbd8fbbaf673","2025-09-02_03h24.22.331",NA,NA,558.585,558.585,558.585,558.9348,NA,NA,NA,NA,NA,NA,NA,TRUE,1,2.7947,555.587,558.5849,NA,NA,NA,NA,NA,95,54,0,38,38,83,1,2,39,"binary"
"BC0F43D6FC06459BAE13994AA4B77FA5",1,"01990a98-88e3-7cbe-8fd7-e9827715b262","01990a83-7673-7c0c-a792-bbd8fbbaf673","2025-09-02_03h24.22.331",NA,NA,561.9349,561.9349,561.935,562.2847,NA,NA,NA,NA,NA,NA,NA,TRUE,1,2.2099,558.9369,561.9347,NA,NA,NA,NA,NA,180,39,0,39,39,99,1,2,40,"binary"
"BC0F43D6FC06459BAE13994AA4B77FA5",1,"01990a98-88e3-7cbe-8fd7-e9827715b262","01990a83-7673-7c0c-a792-bbd8fbbaf673","2025-09-02_03h24.22.331",NA,NA,565.2848,565.2848,565.2849,565.6336,NA,NA,NA,NA,NA,NA,NA,TRUE,1,1.6742,562.2867,565.2847,NA,NA,NA,NA,NA,180,27,0,40,40,96,1,2,41,"binary"
"BC0F43D6FC06459BAE13994AA4B77FA5",1,"01990a98-88e3-7cbe-8fd7-e9827715b262","01990a83-7673-7c0c-a792-bbd8fbbaf673","2025-09-02_03h24.22.331",NA,NA,568.6346,568.6347,568.6347,568.9844,NA,NA,NA,NA,NA,NA,NA,TRUE,1,1.3384,565.6356,568.6345,NA,NA,NA,NA,NA,7,25,0,41,41,0,1,2,42,"binary"
"BC0F43D6FC06459BAE13994AA4B77FA5",1,"01990a98-88e3-7cbe-8fd7-e9827715b262","01990a83-7673-7c0c-a792-bbd8fbbaf673","2025-09-02_03h24.22.331",NA,NA,571.9845,571.9845,571.9845,572.3343,NA,NA,NA,NA,NA,NA,NA,TRUE,1,0.7115,568.9861,571.9843,NA,NA,NA,NA,NA,21,26,0,42,42,24,1,2,43,"binary"
"BC0F43D6FC06459BAE13994AA4B77FA5",1,"01990a98-88e3-7cbe-8fd7-e9827715b262","01990a83-7673-7c0c-a792-bbd8fbbaf673","2025-09-02_03h24.22.331",NA,NA,575.3343,575.3343,575.3343,575.6843,NA,NA,NA,NA,NA,NA,NA,TRUE,1,0.645,572.3364,575.3341,NA,NA,NA,NA,NA,45,26,0,43,43,54,1,2,44,"binary"
"BC0F43D6FC06459BAE13994AA4B77FA5",1,"01990a98-88e3-7cbe-8fd7-e9827715b262","01990a83-7673-7c0c-a792-bbd8fbbaf673","2025-09-02_03h24.22.331",NA,NA,578.684,578.6841,578.6841,579.0339,NA,NA,NA,NA,NA,NA,NA,TRUE,1,0.7403,575.6864,578.684,NA,NA,NA,NA,NA,10,29,0,44,44,9,1,2,45,"binary"
"BC0F43D6FC06459BAE13994AA4B77FA5",1,"01990a98-88e3-7cbe-8fd7-e9827715b262","01990a83-7673-7c0c-a792-bbd8fbbaf673","2025-09-02_03h24.22.331",NA,NA,582.034,582.0341,582.0341,582.3839,NA,NA,NA,NA,NA,NA,NA,TRUE,1,1.5097,579.0345,582.0339,NA,NA,NA,NA,NA,150,47,0,45,45,94,1,2,46,"binary"
"BC0F43D6FC06459BAE13994AA4B77FA5",1,"01990a98-88e3-7cbe-8fd7-e9827715b262","01990a83-7673-7c0c-a792-bbd8fbbaf673","2025-09-02_03h24.22.331",NA,NA,585.383,585.383,585.383,585.7327,NA,NA,NA,NA,NA,NA,NA,TRUE,1,1.6255,582.3859,585.3827,NA,NA,NA,NA,NA,100,54,0,46,46,89,1,2,47,"binary"
"BC0F43D6FC06459BAE13994AA4B77FA5",1,"01990a98-88e3-7cbe-8fd7-e9827715b262","01990a83-7673-7c0c-a792-bbd8fbbaf673","2025-09-02_03h24.22.331",NA,NA,588.7338,588.9837,588.9837,589.0836,NA,NA,NA,NA,NA,NA,NA,FALSE,NA,NA,585.7347,588.7336,NA,NA,NA,NA,NA,50,35,0,47,47,62,1,2,48,"binary"
"BC0F43D6FC06459BAE13994AA4B77FA5",1,"01990a98-88e3-7cbe-8fd7-e9827715b262","01990a83-7673-7c0c-a792-bbd8fbbaf673","2025-09-02_03h24.22.331",NA,NA,592.0827,592.0827,592.0827,592.4335,NA,NA,NA,NA,NA,NA,NA,TRUE,2,1.3677,589.0851,592.0825,NA,NA,NA,NA,NA,12,33,0,48,48,16,1,2,49,"binary"
"BC0F43D6FC06459BAE13994AA4B77FA5",1,"01990a98-88e3-7cbe-8fd7-e9827715b262","01990a83-7673-7c0c-a792-bbd8fbbaf673","2025-09-02_03h24.22.331",NA,NA,595.4327,595.4327,595.4327,595.7833,NA,NA,NA,NA,NA,NA,NA,TRUE,2,1.0176,592.4354,595.4325,NA,NA,NA,NA,NA,12,35,0,49,49,17,1,2,50,"binary"
"BC0F43D6FC06459BAE13994AA4B77FA5",1,"01990a98-88e3-7cbe-8fd7-e9827715b262","01990a83-7673-7c0c-a792-bbd8fbbaf673","2025-09-02_03h24.22.331",NA,NA,598.7835,598.7835,598.7836,599.1332,NA,NA,NA,NA,NA,NA,NA,TRUE,2,1.5716,595.7851,598.7832,NA,NA,NA,NA,NA,40,33,0,50,50,49,1,2,51,"binary"
"BC0F43D6FC06459BAE13994AA4B77FA5",1,"01990a98-88e3-7cbe-8fd7-e9827715b262","01990a83-7673-7c0c-a792-bbd8fbbaf673","2025-09-02_03h24.22.331",NA,NA,602.1332,602.1333,602.1333,602.483,NA,NA,NA,NA,NA,NA,NA,TRUE,1,1.3076,599.1352,602.1331,NA,NA,NA,NA,NA,25,31,0,51,51,32,1,2,52,"binary"
"BC0F43D6FC06459BAE13994AA4B77FA5",1,"01990a98-88e3-7cbe-8fd7-e9827715b262","01990a83-7673-7c0c-a792-bbd8fbbaf673","2025-09-02_03h24.22.331",NA,NA,605.4831,605.4831,605.4831,605.8329,NA,NA,NA,NA,NA,NA,NA,TRUE,2,1.5167,602.4855,605.4829,NA,NA,NA,NA,NA,60,54,0,52,52,71,1,2,53,"binary"
"BC0F43D6FC06459BAE13994AA4B77FA5",1,"01990a98-88e3-7cbe-8fd7-e9827715b262","01990a83-7673-7c0c-a792-bbd8fbbaf673","2025-09-02_03h24.22.331",NA,NA,608.8326,608.8326,608.8326,609.1819,NA,NA,NA,NA,NA,NA,NA,TRUE,1,1.491,605.8349,608.8325,NA,NA,NA,NA,NA,150,40,0,53,53,93,1,2,54,"binary"
"BC0F43D6FC06459BAE13994AA4B77FA5",1,"01990a98-88e3-7cbe-8fd7-e9827715b262","01990a83-7673-7c0c-a792-bbd8fbbaf673","2025-09-02_03h24.22.331",NA,NA,612.1829,612.1829,612.183,612.5326,NA,NA,NA,NA,NA,NA,NA,TRUE,1,1.867,609.1842,612.1827,NA,NA,NA,NA,NA,200,26,0,54,54,102,1,2,55,"binary"
"BC0F43D6FC06459BAE13994AA4B77FA5",1,"01990a98-88e3-7cbe-8fd7-e9827715b262","01990a83-7673-7c0c-a792-bbd8fbbaf673","2025-09-02_03h24.22.331",NA,NA,615.5327,615.5328,615.5328,615.8825,NA,NA,NA,NA,NA,NA,NA,TRUE,2,1.7936,612.5349,615.5326,NA,NA,NA,NA,NA,12,28,0,55,55,14,1,2,56,"binary"
"BC0F43D6FC06459BAE13994AA4B77FA5",1,"01990a98-88e3-7cbe-8fd7-e9827715b262","01990a83-7673-7c0c-a792-bbd8fbbaf673","2025-09-02_03h24.22.331",NA,NA,618.8827,618.8827,618.8827,619.2313,NA,NA,NA,NA,NA,NA,NA,TRUE,1,1.2836,615.8846,618.8825,NA,NA,NA,NA,NA,150,33,0,56,56,91,1,2,57,"binary"
"BC0F43D6FC06459BAE13994AA4B77FA5",1,"01990a98-88e3-7cbe-8fd7-e9827715b262","01990a83-7673-7c0c-a792-bbd8fbbaf673","2025-09-02_03h24.22.331",NA,NA,622.2326,622.2327,622.2327,622.5813,NA,NA,NA,NA,NA,NA,NA,TRUE,1,1.0933,619.2335,622.2324,NA,NA,NA,NA,NA,200,47,0,57,57,106,1,2,58,"binary"
"BC0F43D6FC06459BAE13994AA4B77FA5",1,"01990a98-88e3-7cbe-8fd7-e9827715b262","01990a83-7673-7c0c-a792-bbd8fbbaf673","2025-09-02_03h24.22.331",NA,NA,625.5814,625.5815,625.5815,625.9321,NA,NA,NA,NA,NA,NA,NA,TRUE,2,1.4027,622.5836,625.5812,NA,NA,NA,NA,NA,12,31,0,58,58,15,1,2,59,"binary"
"BC0F43D6FC06459BAE13994AA4B77FA5",1,"01990a98-88e3-7cbe-8fd7-e9827715b262","01990a83-7673-7c0c-a792-bbd8fbbaf673","2025-09-02_03h24.22.331",NA,NA,628.9319,628.932,628.932,629.2822,NA,NA,NA,NA,NA,NA,NA,TRUE,1,1.5116,625.9341,628.9317,NA,NA,NA,NA,NA,40,27,0,59,59,48,1,2,60,"binary"
"BC0F43D6FC06459BAE13994AA4B77FA5",1,"01990a98-88e3-7cbe-8fd7-e9827715b262","01990a83-7673-7c0c-a792-bbd8fbbaf673","2025-09-02_03h24.22.331",NA,NA,632.282,632.2821,632.2821,632.6319,NA,NA,NA,NA,NA,NA,NA,TRUE,1,1.5621,629.2841,632.2819,NA,NA,NA,NA,NA,7,26,0,60,60,1,1,2,61,"binary"
"BC0F43D6FC06459BAE13994AA4B77FA5",1,"01990a98-88e3-7cbe-8fd7-e9827715b262","01990a83-7673-7c0c-a792-bbd8fbbaf673","2025-09-02_03h24.22.331",NA,NA,635.6319,635.632,635.632,635.9817,NA,NA,NA,NA,NA,NA,NA,TRUE,1,1.8276,632.6339,635.6318,NA,NA,NA,NA,NA,200,39,0,61,61,105,1,2,62,"binary"
"BC0F43D6FC06459BAE13994AA4B77FA5",1,"01990a98-88e3-7cbe-8fd7-e9827715b262","01990a83-7673-7c0c-a792-bbd8fbbaf673","2025-09-02_03h24.22.331",NA,NA,638.9816,638.9816,638.9816,639.3315,NA,NA,NA,NA,NA,NA,NA,TRUE,1,2.0273,635.9838,638.9815,NA,NA,NA,NA,NA,50,27,0,62,62,60,1,2,63,"binary"
"BC0F43D6FC06459BAE13994AA4B77FA5",1,"01990a98-88e3-7cbe-8fd7-e9827715b262","01990a83-7673-7c0c-a792-bbd8fbbaf673","2025-09-02_03h24.22.331",NA,NA,642.3308,642.3308,642.3308,642.6805,NA,NA,NA,NA,NA,NA,NA,TRUE,1,0.7676,639.3332,642.3306,NA,NA,NA,NA,NA,25,27,0,63,63,30,1,2,64,"binary"
"BC0F43D6FC06459BAE13994AA4B77FA5",1,"01990a98-88e3-7cbe-8fd7-e9827715b262","01990a83-7673-7c0c-a792-bbd8fbbaf673","2025-09-02_03h24.22.331",NA,NA,645.6815,645.6815,645.6816,646.0313,NA,NA,NA,NA,NA,NA,NA,TRUE,1,1.4118,642.6825,645.6813,NA,NA,NA,NA,NA,45,35,0,64,64,57,1,2,65,"binary"
"BC0F43D6FC06459BAE13994AA4B77FA5",1,"01990a98-88e3-7cbe-8fd7-e9827715b262","01990a83-7673-7c0c-a792-bbd8fbbaf673","2025-09-02_03h24.22.331",NA,NA,649.0314,649.0315,649.0315,649.3811,NA,NA,NA,NA,NA,NA,NA,TRUE,1,1.5173,646.033,649.0312,NA,NA,NA,NA,NA,90,40,0,65,65,75,1,2,66,"binary"
"BC0F43D6FC06459BAE13994AA4B77FA5",1,"01990a98-88e3-7cbe-8fd7-e9827715b262","01990a83-7673-7c0c-a792-bbd8fbbaf673","2025-09-02_03h24.22.331",NA,NA,652.3803,652.3804,652.3804,652.7302,NA,NA,NA,NA,NA,NA,NA,TRUE,2,1.6178,649.3834,652.3801,NA,NA,NA,NA,NA,40,47,0,66,66,52,1,2,67,"binary"
"BC0F43D6FC06459BAE13994AA4B77FA5",1,"01990a98-88e3-7cbe-8fd7-e9827715b262","01990a83-7673-7c0c-a792-bbd8fbbaf673","2025-09-02_03h24.22.331",NA,NA,655.7301,655.7303,655.7303,656.0809,NA,NA,NA,NA,NA,NA,NA,TRUE,2,2.6289,652.7323,655.73,NA,NA,NA,NA,NA,60,40,0,67,67,69,1,2,68,"binary"
"BC0F43D6FC06459BAE13994AA4B77FA5",1,"01990a98-88e3-7cbe-8fd7-e9827715b262","01990a83-7673-7c0c-a792-bbd8fbbaf673","2025-09-02_03h24.22.331",NA,NA,659.0802,659.3308,659.3308,659.4307,NA,NA,NA,NA,NA,NA,NA,FALSE,NA,NA,656.0829,659.08,NA,NA,NA,NA,NA,7,32,0,68,68,4,1,2,69,"binary"
"BC0F43D6FC06459BAE13994AA4B77FA5",1,"01990a98-88e3-7cbe-8fd7-e9827715b262","01990a83-7673-7c0c-a792-bbd8fbbaf673","2025-09-02_03h24.22.331",NA,NA,662.43,662.4301,662.4301,662.7807,NA,NA,NA,NA,NA,NA,NA,TRUE,1,1.3174,659.4329,662.4299,NA,NA,NA,NA,NA,28,28,0,69,69,37,1,2,70,"binary"
"BC0F43D6FC06459BAE13994AA4B77FA5",1,"01990a98-88e3-7cbe-8fd7-e9827715b262","01990a83-7673-7c0c-a792-bbd8fbbaf673","2025-09-02_03h24.22.331",NA,NA,665.7808,665.7808,665.7808,666.1296,NA,NA,NA,NA,NA,NA,NA,TRUE,2,1.8105,662.7827,665.7806,NA,NA,NA,NA,NA,60,47,0,70,70,70,1,2,71,"binary"
"BC0F43D6FC06459BAE13994AA4B77FA5",1,"01990a98-88e3-7cbe-8fd7-e9827715b262","01990a83-7673-7c0c-a792-bbd8fbbaf673","2025-09-02_03h24.22.331",NA,NA,669.1304,669.1304,669.1304,669.4804,NA,NA,NA,NA,NA,NA,NA,TRUE,1,1.5335,666.1318,669.1302,NA,NA,NA,NA,NA,180,46,0,71,71,100,1,2,72,"binary"
"BC0F43D6FC06459BAE13994AA4B77FA5",1,"01990a98-88e3-7cbe-8fd7-e9827715b262","01990a83-7673-7c0c-a792-bbd8fbbaf673","2025-09-02_03h24.22.331",NA,NA,672.4805,672.4805,672.4806,672.8303,NA,NA,NA,NA,NA,NA,NA,TRUE,2,1.9118,669.4826,672.4802,NA,NA,NA,NA,NA,10,30,0,72,72,10,1,2,73,"binary"
"BC0F43D6FC06459BAE13994AA4B77FA5",1,"01990a98-88e3-7cbe-8fd7-e9827715b262","01990a83-7673-7c0c-a792-bbd8fbbaf673","2025-09-02_03h24.22.331",NA,NA,675.8303,675.8304,675.8304,676.1801,NA,NA,NA,NA,NA,NA,NA,TRUE,1,0.7783,672.8325,675.8301,NA,NA,NA,NA,NA,100,26,0,73,73,84,1,2,74,"binary"
"BC0F43D6FC06459BAE13994AA4B77FA5",1,"01990a98-88e3-7cbe-8fd7-e9827715b262","01990a83-7673-7c0c-a792-bbd8fbbaf673","2025-09-02_03h24.22.331",NA,NA,679.1802,679.1802,679.1802,679.529,NA,NA,NA,NA,NA,NA,NA,TRUE,2,1.1616,676.1822,679.18,NA,NA,NA,NA,NA,25,35,0,74,74,34,1,2,75,"binary"
"BC0F43D6FC06459BAE13994AA4B77FA5",1,"01990a98-88e3-7cbe-8fd7-e9827715b262","01990a83-7673-7c0c-a792-bbd8fbbaf673","2025-09-02_03h24.22.331",NA,NA,682.5301,682.5301,682.5302,682.8789,NA,NA,NA,NA,NA,NA,NA,TRUE,2,2.9132,679.5312,682.5299,NA,NA,NA,NA,NA,28,39,0,75,75,40,1,2,76,"binary"
"BC0F43D6FC06459BAE13994AA4B77FA5",1,"01990a98-88e3-7cbe-8fd7-e9827715b262","01990a83-7673-7c0c-a792-bbd8fbbaf673","2025-09-02_03h24.22.331",NA,NA,685.88,685.88,685.88,686.2297,NA,NA,NA,NA,NA,NA,NA,TRUE,1,1.4333,682.881,685.8798,NA,NA,NA,NA,NA,100,31,0,76,76,85,1,2,77,"binary"
"BC0F43D6FC06459BAE13994AA4B77FA5",1,"01990a98-88e3-7cbe-8fd7-e9827715b262","01990a83-7673-7c0c-a792-bbd8fbbaf673","2025-09-02_03h24.22.331",NA,NA,689.2299,689.23,689.23,689.5787,NA,NA,NA,NA,NA,NA,NA,TRUE,1,2.1165,686.2318,689.2298,NA,NA,NA,NA,NA,12,26,0,77,77,13,1,2,78,"binary"
"BC0F43D6FC06459BAE13994AA4B77FA5",1,"01990a98-88e3-7cbe-8fd7-e9827715b262","01990a83-7673-7c0c-a792-bbd8fbbaf673","2025-09-02_03h24.22.331",NA,NA,692.5796,692.5796,692.5797,692.9295,NA,NA,NA,NA,NA,NA,NA,TRUE,1,1.0195,689.5808,692.5795,NA,NA,NA,NA,NA,200,54,0,78,78,107,1,2,79,"binary"
"BC0F43D6FC06459BAE13994AA4B77FA5",1,"01990a98-88e3-7cbe-8fd7-e9827715b262","01990a83-7673-7c0c-a792-bbd8fbbaf673","2025-09-02_03h24.22.331",NA,NA,695.9295,695.9296,695.9296,696.2793,NA,NA,NA,NA,NA,NA,NA,TRUE,1,1.7674,692.9317,695.9293,NA,NA,NA,NA,NA,90,33,0,79,79,74,1,2,80,"binary"
"BC0F43D6FC06459BAE13994AA4B77FA5",1,"01990a98-88e3-7cbe-8fd7-e9827715b262","01990a83-7673-7c0c-a792-bbd8fbbaf673","2025-09-02_03h24.22.331",NA,NA,699.279,699.279,699.279,699.6282,NA,NA,NA,NA,NA,NA,NA,TRUE,1,0.7653,696.2813,699.2789,NA,NA,NA,NA,NA,95,31,0,80,80,78,1,2,81,"binary"
"BC0F43D6FC06459BAE13994AA4B77FA5",1,"01990a98-88e3-7cbe-8fd7-e9827715b262","01990a83-7673-7c0c-a792-bbd8fbbaf673","2025-09-02_03h24.22.331",NA,NA,702.6293,702.6294,702.6294,702.9791,NA,NA,NA,NA,NA,NA,NA,TRUE,2,1.0507,699.6304,702.6291,NA,NA,NA,NA,NA,40,54,0,81,81,53,1,2,82,"binary"
"BC0F43D6FC06459BAE13994AA4B77FA5",1,"01990a98-88e3-7cbe-8fd7-e9827715b262","01990a83-7673-7c0c-a792-bbd8fbbaf673","2025-09-02_03h24.22.331",NA,NA,705.9958,705.9959,705.996,706.3455,NA,NA,NA,NA,NA,NA,NA,TRUE,1,1.9679,702.981,705.9957,NA,NA,NA,NA,NA,21,32,0,82,82,28,1,2,83,"binary"
"BC0F43D6FC06459BAE13994AA4B77FA5",1,"01990a98-88e3-7cbe-8fd7-e9827715b262","01990a83-7673-7c0c-a792-bbd8fbbaf673","2025-09-02_03h24.22.331",NA,NA,709.3289,709.329,709.329,709.6782,NA,NA,NA,NA,NA,NA,NA,TRUE,1,1.5394,706.3477,709.3288,NA,NA,NA,NA,NA,150,54,0,83,83,95,1,2,84,"binary"
"BC0F43D6FC06459BAE13994AA4B77FA5",1,"01990a98-88e3-7cbe-8fd7-e9827715b262","01990a83-7673-7c0c-a792-bbd8fbbaf673","2025-09-02_03h24.22.331",NA,NA,712.6956,712.6957,712.6957,713.0454,NA,NA,NA,NA,NA,NA,NA,TRUE,1,1.8335,709.6801,712.6954,NA,NA,NA,NA,NA,95,35,0,84,84,80,1,2,85,"binary"
"BC0F43D6FC06459BAE13994AA4B77FA5",1,"01990a98-88e3-7cbe-8fd7-e9827715b262","01990a83-7673-7c0c-a792-bbd8fbbaf673","2025-09-02_03h24.22.331",NA,NA,716.0454,716.0455,716.0455,716.3785,NA,NA,NA,NA,NA,NA,NA,TRUE,2,2.755,713.0475,716.0452,NA,NA,NA,NA,NA,10,27,0,85,85,8,1,2,86,"binary"
"BC0F43D6FC06459BAE13994AA4B77FA5",1,"01990a98-88e3-7cbe-8fd7-e9827715b262","01990a83-7673-7c0c-a792-bbd8fbbaf673","2025-09-02_03h24.22.331",NA,NA,719.3785,719.3786,719.3786,719.7284,NA,NA,NA,NA,NA,NA,NA,TRUE,2,1.0174,716.3806,719.3783,NA,NA,NA,NA,NA,14,32,0,86,86,21,1,2,87,"binary"
"BC0F43D6FC06459BAE13994AA4B77FA5",1,"01990a98-88e3-7cbe-8fd7-e9827715b262","01990a83-7673-7c0c-a792-bbd8fbbaf673","2025-09-02_03h24.22.331",NA,NA,722.7452,722.7452,722.7453,723.0782,NA,NA,NA,NA,NA,NA,NA,TRUE,1,0.6996,719.7305,722.745,NA,NA,NA,NA,NA,100,39,0,87,87,87,1,2,88,"binary"
"BC0F43D6FC06459BAE13994AA4B77FA5",1,"01990a98-88e3-7cbe-8fd7-e9827715b262","01990a83-7673-7c0c-a792-bbd8fbbaf673","2025-09-02_03h24.22.331",NA,NA,726.0949,726.095,726.0951,726.4439,NA,NA,NA,NA,NA,NA,NA,TRUE,1,0.9702,723.0803,726.0947,NA,NA,NA,NA,NA,30,29,0,88,88,44,1,2,89,"binary"
"BC0F43D6FC06459BAE13994AA4B77FA5",1,"01990a98-88e3-7cbe-8fd7-e9827715b262","01990a83-7673-7c0c-a792-bbd8fbbaf673","2025-09-02_03h24.22.331",NA,NA,729.4449,729.4449,729.4449,729.7946,NA,NA,NA,NA,NA,NA,NA,TRUE,1,1.507,726.446,729.4446,NA,NA,NA,NA,NA,60,33,0,89,89,67,1,2,90,"binary"
"BC0F43D6FC06459BAE13994AA4B77FA5",1,"01990a98-88e3-7cbe-8fd7-e9827715b262","01990a83-7673-7c0c-a792-bbd8fbbaf673","2025-09-02_03h24.22.331",NA,NA,732.794,732.794,732.794,733.1435,NA,NA,NA,NA,NA,NA,NA,TRUE,1,1.1582,729.7968,732.7938,NA,NA,NA,NA,NA,21,29,0,90,90,26,1,2,91,"binary"
"BC0F43D6FC06459BAE13994AA4B77FA5",1,"01990a98-88e3-7cbe-8fd7-e9827715b262","01990a83-7673-7c0c-a792-bbd8fbbaf673","2025-09-02_03h24.22.331",NA,NA,736.1446,736.1446,736.1446,736.4944,NA,NA,NA,NA,NA,NA,NA,TRUE,1,1.1566,733.1457,736.1444,NA,NA,NA,NA,NA,10,25,0,91,91,6,1,2,92,"binary"
"BC0F43D6FC06459BAE13994AA4B77FA5",1,"01990a98-88e3-7cbe-8fd7-e9827715b262","01990a83-7673-7c0c-a792-bbd8fbbaf673","2025-09-02_03h24.22.331",NA,NA,739.4945,739.4947,739.4947,739.8442,NA,NA,NA,NA,NA,NA,NA,TRUE,1,2.5427,736.4966,739.4943,NA,NA,NA,NA,NA,25,33,0,92,92,33,1,2,93,"binary"
"BC0F43D6FC06459BAE13994AA4B77FA5",1,"01990a98-88e3-7cbe-8fd7-e9827715b262","01990a83-7673-7c0c-a792-bbd8fbbaf673","2025-09-02_03h24.22.331",NA,NA,742.8444,742.8445,742.8445,743.1942,NA,NA,NA,NA,NA,NA,NA,TRUE,2,1.6733,739.8465,742.8441,NA,NA,NA,NA,NA,7,35,0,93,93,5,1,2,94,"binary"
"BC0F43D6FC06459BAE13994AA4B77FA5",1,"01990a98-88e3-7cbe-8fd7-e9827715b262","01990a83-7673-7c0c-a792-bbd8fbbaf673","2025-09-02_03h24.22.331",NA,NA,746.1942,746.1943,746.1943,746.544,NA,NA,NA,NA,NA,NA,NA,TRUE,1,1.1883,743.196,746.1941,NA,NA,NA,NA,NA,21,30,0,94,94,27,1,2,95,"binary"
"BC0F43D6FC06459BAE13994AA4B77FA5",1,"01990a98-88e3-7cbe-8fd7-e9827715b262","01990a83-7673-7c0c-a792-bbd8fbbaf673","2025-09-02_03h24.22.331",NA,NA,749.5442,749.5442,749.5443,749.8929,NA,NA,NA,NA,NA,NA,NA,TRUE,2,1.8731,746.546,749.5439,NA,NA,NA,NA,NA,45,46,0,95,95,59,1,2,96,"binary"
"BC0F43D6FC06459BAE13994AA4B77FA5",1,"01990a98-88e3-7cbe-8fd7-e9827715b262","01990a83-7673-7c0c-a792-bbd8fbbaf673","2025-09-02_03h24.22.331",NA,NA,752.894,752.894,752.894,753.2437,NA,NA,NA,NA,NA,NA,NA,TRUE,2,1.0284,749.8951,752.8938,NA,NA,NA,NA,NA,25,46,0,96,96,35,1,2,97,"binary"
"BC0F43D6FC06459BAE13994AA4B77FA5",1,"01990a98-88e3-7cbe-8fd7-e9827715b262","01990a83-7673-7c0c-a792-bbd8fbbaf673","2025-09-02_03h24.22.331",NA,NA,756.2435,756.2435,756.2435,756.5936,NA,NA,NA,NA,NA,NA,NA,TRUE,1,1.9395,753.2458,756.2433,NA,NA,NA,NA,NA,28,32,0,97,97,38,1,2,98,"binary"
"BC0F43D6FC06459BAE13994AA4B77FA5",1,"01990a98-88e3-7cbe-8fd7-e9827715b262","01990a83-7673-7c0c-a792-bbd8fbbaf673","2025-09-02_03h24.22.331",NA,NA,759.5926,759.5927,759.5927,759.9424,NA,NA,NA,NA,NA,NA,NA,TRUE,1,2.2102,756.5957,759.5924,NA,NA,NA,NA,NA,10,32,0,98,98,11,1,2,99,"binary"
"BC0F43D6FC06459BAE13994AA4B77FA5",1,"01990a98-88e3-7cbe-8fd7-e9827715b262","01990a83-7673-7c0c-a792-bbd8fbbaf673","2025-09-02_03h24.22.331",NA,NA,762.9436,762.9438,762.9438,763.2933,NA,NA,NA,NA,NA,NA,NA,TRUE,1,0.7928,759.9445,762.9434,NA,NA,NA,NA,NA,90,26,0,99,99,72,1,2,100,"binary"
"BC0F43D6FC06459BAE13994AA4B77FA5",1,"01990a98-88e3-7cbe-8fd7-e9827715b262","01990a83-7673-7c0c-a792-bbd8fbbaf673","2025-09-02_03h24.22.331",NA,NA,766.2932,766.2932,766.2932,766.6427,NA,NA,NA,NA,NA,NA,NA,TRUE,2,0.8209,763.2955,766.293,NA,NA,NA,NA,NA,7,30,0,100,100,3,1,2,101,"binary"
"BC0F43D6FC06459BAE13994AA4B77FA5",1,"01990a98-88e3-7cbe-8fd7-e9827715b262","01990a83-7673-7c0c-a792-bbd8fbbaf673","2025-09-02_03h24.22.331",NA,NA,769.6423,769.6424,769.6424,769.9931,NA,NA,NA,NA,NA,NA,NA,TRUE,2,1.1222,766.6448,769.6422,NA,NA,NA,NA,NA,45,40,0,101,101,58,1,2,102,"binary"
"BC0F43D6FC06459BAE13994AA4B77FA5",1,"01990a98-88e3-7cbe-8fd7-e9827715b262","01990a83-7673-7c0c-a792-bbd8fbbaf673","2025-09-02_03h24.22.331",NA,NA,772.9929,772.993,772.993,773.342,NA,NA,NA,NA,NA,NA,NA,TRUE,2,1.8544,769.9952,772.9929,NA,NA,NA,NA,NA,50,46,0,102,102,64,1,2,103,"binary"
"BC0F43D6FC06459BAE13994AA4B77FA5",1,"01990a98-88e3-7cbe-8fd7-e9827715b262","01990a83-7673-7c0c-a792-bbd8fbbaf673","2025-09-02_03h24.22.331",NA,NA,776.3423,776.3424,776.3425,776.6919,NA,NA,NA,NA,NA,NA,NA,TRUE,1,2.6221,773.3442,776.3422,NA,NA,NA,NA,NA,95,33,0,103,103,79,1,2,104,"binary"
"BC0F43D6FC06459BAE13994AA4B77FA5",1,"01990a98-88e3-7cbe-8fd7-e9827715b262","01990a83-7673-7c0c-a792-bbd8fbbaf673","2025-09-02_03h24.22.331",NA,NA,779.6928,779.9425,779.9426,780.0425,NA,NA,NA,NA,NA,NA,NA,FALSE,NA,NA,776.694,779.6926,NA,NA,NA,NA,NA,90,54,0,104,104,77,1,2,105,"binary"
"BC0F43D6FC06459BAE13994AA4B77FA5",1,"01990a98-88e3-7cbe-8fd7-e9827715b262","01990a83-7673-7c0c-a792-bbd8fbbaf673","2025-09-02_03h24.22.331",NA,NA,783.0428,783.0428,783.0428,783.3926,NA,NA,NA,NA,NA,NA,NA,TRUE,2,0.9137,780.0444,783.0426,NA,NA,NA,NA,NA,180,31,0,105,105,97,1,2,106,"binary"
"BC0F43D6FC06459BAE13994AA4B77FA5",1,"01990a98-88e3-7cbe-8fd7-e9827715b262","01990a83-7673-7c0c-a792-bbd8fbbaf673","2025-09-02_03h24.22.331",NA,NA,786.3925,786.3926,786.3927,786.7423,NA,NA,NA,NA,NA,NA,NA,TRUE,2,1.0286,783.3948,786.3923,NA,NA,NA,NA,NA,30,30,0,106,106,45,1,2,107,"binary"
"BC0F43D6FC06459BAE13994AA4B77FA5",1,"01990a98-88e3-7cbe-8fd7-e9827715b262","01990a83-7673-7c0c-a792-bbd8fbbaf673","2025-09-02_03h24.22.331",NA,NA,789.7415,789.7415,789.7415,790.0922,NA,NA,NA,NA,NA,NA,NA,TRUE,2,1.3722,786.7442,789.7413,NA,NA,NA,NA,NA,28,46,0,107,107,41,1,2,108,"binary"
