"participant","session","assignmentId","projectId","date","practiceTrial.started","practiceTrial.stopped","tooLate.started","tooLate.stopped","blank.started","blank.stopped","trials_pract.thisRepN","trials_pract.thisTrialN","trials_pract.thisN","trials_pract.thisIndex","trials_pract.ran","delay_pract","amount_pract","responseMade","key","rt","trial.started","trial.stopped","trials.thisRepN","trials.thisTrialN","trials.thisN","trials.thisIndex","trials.ran","delay","amount","trials_2.thisRepN","trials_2.thisTrialN","trials_2.thisN","trials_2.thisIndex","trials_2.ran","block","trial","taskType"
"BFAADA1212E844E4ACB3C27FE819CCF2",1,"0198f77c-045c-7b3b-a706-a26482575d9b","0198f767-55c9-7875-8d21-563b3c0b86ed","2025-08-29_16h21.50.296",28.424,31.4128,31.4132,31.6612,31.6613,31.7585,0,0,0,1,1,100,50,FALSE,NA,NA,NA,NA,NA,NA,NA,NA,NA,NA,NA,NA,NA,NA,NA,NA,0,1,"binary"
"BFAADA1212E844E4ACB3C27FE819CCF2",1,"0198f77c-045c-7b3b-a706-a26482575d9b","0198f767-55c9-7875-8d21-563b3c0b86ed","2025-08-29_16h21.50.296",31.7604,34.7583,34.7586,35.0083,35.0083,35.1126,0,1,1,4,1,30,40,FALSE,NA,NA,NA,NA,NA,NA,NA,NA,NA,NA,NA,NA,NA,NA,NA,NA,0,2,"binary"
"BFAADA1212E844E4ACB3C27FE819CCF2",1,"0198f77c-045c-7b3b-a706-a26482575d9b","0198f767-55c9-7875-8d21-563b3c0b86ed","2025-08-29_16h21.50.296",35.1139,38.1072,38.1073,38.1073,38.1073,38.4598,0,2,2,3,1,3,27,TRUE,1,1.6393,NA,NA,NA,NA,NA,NA,NA,NA,NA,NA,NA,NA,NA,NA,0,3,"binary"
"BFAADA1212E844E4ACB3C27FE819CCF2",1,"0198f77c-045c-7b3b-a706-a26482575d9b","0198f767-55c9-7875-8d21-563b3c0b86ed","2025-08-29_16h21.50.296",38.4611,41.4595,41.4596,41.4596,41.4597,41.8066,0,3,3,0,1,7,30,TRUE,2,1.7598,NA,NA,NA,NA,NA,NA,NA,NA,NA,NA,NA,NA,NA,NA,0,4,"binary"
"BFAADA1212E844E4ACB3C27FE819CCF2",1,"0198f77c-045c-7b3b-a706-a26482575d9b","0198f767-55c9-7875-8d21-563b3c0b86ed","2025-08-29_16h21.50.296",41.8081,44.8087,44.8088,44.8088,44.8089,45.1607,0,4,4,2,1,14,45,TRUE,2,1.245,NA,NA,NA,NA,NA,NA,NA,NA,NA,NA,NA,NA,NA,NA,0,5,"binary"
"BFAADA1212E844E4ACB3C27FE819CCF2",1,"0198f77c-045c-7b3b-a706-a26482575d9b","0198f767-55c9-7875-8d21-563b3c0b86ed","2025-08-29_16h21.50.296",NA,NA,72.341,72.3411,72.3412,72.6884,NA,NA,NA,NA,NA,NA,NA,TRUE,1,2.1371,69.354,72.3408,0,0,0,90,1,150,31,NA,NA,NA,NA,NA,1,1,"binary"
"BFAADA1212E844E4ACB3C27FE819CCF2",1,"0198f77c-045c-7b3b-a706-a26482575d9b","0198f767-55c9-7875-8d21-563b3c0b86ed","2025-08-29_16h21.50.296",NA,NA,75.6884,75.6886,75.6886,76.0436,NA,NA,NA,NA,NA,NA,NA,TRUE,1,2.0262,72.6896,75.6883,0,1,1,57,1,45,35,NA,NA,NA,NA,NA,1,2,"binary"
"BFAADA1212E844E4ACB3C27FE819CCF2",1,"0198f77c-045c-7b3b-a706-a26482575d9b","0198f767-55c9-7875-8d21-563b3c0b86ed","2025-08-29_16h21.50.296",NA,NA,79.0359,79.0359,79.0359,79.3893,NA,NA,NA,NA,NA,NA,NA,TRUE,2,2.4754,76.0444,79.0357,0,2,2,11,1,10,32,NA,NA,NA,NA,NA,1,3,"binary"
"BFAADA1212E844E4ACB3C27FE819CCF2",1,"0198f77c-045c-7b3b-a706-a26482575d9b","0198f767-55c9-7875-8d21-563b3c0b86ed","2025-08-29_16h21.50.296",NA,NA,82.3897,82.3898,82.3898,82.7362,NA,NA,NA,NA,NA,NA,NA,TRUE,1,1.5774,79.3903,82.3895,0,3,3,48,1,40,27,NA,NA,NA,NA,NA,1,4,"binary"
"BFAADA1212E844E4ACB3C27FE819CCF2",1,"0198f77c-045c-7b3b-a706-a26482575d9b","0198f767-55c9-7875-8d21-563b3c0b86ed","2025-08-29_16h21.50.296",NA,NA,85.7365,85.7366,85.7366,86.0903,NA,NA,NA,NA,NA,NA,NA,TRUE,1,0.9106,82.7373,85.7364,0,4,4,1,1,7,26,NA,NA,NA,NA,NA,1,5,"binary"
"BFAADA1212E844E4ACB3C27FE819CCF2",1,"0198f77c-045c-7b3b-a706-a26482575d9b","0198f767-55c9-7875-8d21-563b3c0b86ed","2025-08-29_16h21.50.296",NA,NA,89.0904,89.0904,89.0904,89.4378,NA,NA,NA,NA,NA,NA,NA,TRUE,2,1.7528,86.0915,89.0902,0,5,5,82,1,95,47,NA,NA,NA,NA,NA,1,6,"binary"
"BFAADA1212E844E4ACB3C27FE819CCF2",1,"0198f77c-045c-7b3b-a706-a26482575d9b","0198f767-55c9-7875-8d21-563b3c0b86ed","2025-08-29_16h21.50.296",NA,NA,92.4378,92.4378,92.4378,92.7918,NA,NA,NA,NA,NA,NA,NA,TRUE,1,0.7348,89.4395,92.4376,0,6,6,96,1,180,27,NA,NA,NA,NA,NA,1,7,"binary"
"BFAADA1212E844E4ACB3C27FE819CCF2",1,"0198f77c-045c-7b3b-a706-a26482575d9b","0198f767-55c9-7875-8d21-563b3c0b86ed","2025-08-29_16h21.50.296",NA,NA,95.7916,95.7917,95.7918,96.1393,NA,NA,NA,NA,NA,NA,NA,TRUE,1,1.5296,92.793,95.7915,0,7,7,19,1,14,26,NA,NA,NA,NA,NA,1,8,"binary"
"BFAADA1212E844E4ACB3C27FE819CCF2",1,"0198f77c-045c-7b3b-a706-a26482575d9b","0198f767-55c9-7875-8d21-563b3c0b86ed","2025-08-29_16h21.50.296",NA,NA,99.1392,99.1392,99.1392,99.4863,NA,NA,NA,NA,NA,NA,NA,TRUE,1,1.4079,96.1406,99.1391,0,8,8,60,1,50,27,NA,NA,NA,NA,NA,1,9,"binary"
"BFAADA1212E844E4ACB3C27FE819CCF2",1,"0198f77c-045c-7b3b-a706-a26482575d9b","0198f767-55c9-7875-8d21-563b3c0b86ed","2025-08-29_16h21.50.296",NA,NA,102.4873,102.4873,102.4873,102.84,NA,NA,NA,NA,NA,NA,NA,TRUE,2,1.3701,99.4879,102.4872,0,9,9,65,1,50,54,NA,NA,NA,NA,NA,1,10,"binary"
"BFAADA1212E844E4ACB3C27FE819CCF2",1,"0198f77c-045c-7b3b-a706-a26482575d9b","0198f767-55c9-7875-8d21-563b3c0b86ed","2025-08-29_16h21.50.296",NA,NA,105.8403,105.8403,105.8403,106.1881,NA,NA,NA,NA,NA,NA,NA,TRUE,2,0.9586,102.8412,105.8402,0,10,10,64,1,50,46,NA,NA,NA,NA,NA,1,11,"binary"
"BFAADA1212E844E4ACB3C27FE819CCF2",1,"0198f77c-045c-7b3b-a706-a26482575d9b","0198f767-55c9-7875-8d21-563b3c0b86ed","2025-08-29_16h21.50.296",NA,NA,109.1871,109.1871,109.1871,109.5418,NA,NA,NA,NA,NA,NA,NA,TRUE,1,1.2278,106.1896,109.1869,0,11,11,12,1,12,25,NA,NA,NA,NA,NA,1,12,"binary"
"BFAADA1212E844E4ACB3C27FE819CCF2",1,"0198f77c-045c-7b3b-a706-a26482575d9b","0198f767-55c9-7875-8d21-563b3c0b86ed","2025-08-29_16h21.50.296",NA,NA,112.5415,112.5416,112.5416,112.8886,NA,NA,NA,NA,NA,NA,NA,TRUE,1,1.1649,109.5428,112.5414,0,12,12,24,1,21,26,NA,NA,NA,NA,NA,1,13,"binary"
"BFAADA1212E844E4ACB3C27FE819CCF2",1,"0198f77c-045c-7b3b-a706-a26482575d9b","0198f767-55c9-7875-8d21-563b3c0b86ed","2025-08-29_16h21.50.296",NA,NA,115.8886,115.8887,115.8887,116.2356,NA,NA,NA,NA,NA,NA,NA,TRUE,2,1.2758,112.8897,115.8886,0,13,13,27,1,21,30,NA,NA,NA,NA,NA,1,14,"binary"
"BFAADA1212E844E4ACB3C27FE819CCF2",1,"0198f77c-045c-7b3b-a706-a26482575d9b","0198f767-55c9-7875-8d21-563b3c0b86ed","2025-08-29_16h21.50.296",NA,NA,119.243,119.243,119.2432,119.5899,NA,NA,NA,NA,NA,NA,NA,TRUE,1,1.0833,116.2367,119.2429,0,14,14,73,1,90,30,NA,NA,NA,NA,NA,1,15,"binary"
"BFAADA1212E844E4ACB3C27FE819CCF2",1,"0198f77c-045c-7b3b-a706-a26482575d9b","0198f767-55c9-7875-8d21-563b3c0b86ed","2025-08-29_16h21.50.296",NA,NA,122.5896,122.5896,122.5896,122.9369,NA,NA,NA,NA,NA,NA,NA,TRUE,2,1.086,119.5908,122.5894,0,15,15,3,1,7,30,NA,NA,NA,NA,NA,1,16,"binary"
"BFAADA1212E844E4ACB3C27FE819CCF2",1,"0198f77c-045c-7b3b-a706-a26482575d9b","0198f767-55c9-7875-8d21-563b3c0b86ed","2025-08-29_16h21.50.296",NA,NA,125.9368,125.9368,125.9369,126.2907,NA,NA,NA,NA,NA,NA,NA,TRUE,1,1.2577,122.938,125.9366,0,16,16,79,1,95,33,NA,NA,NA,NA,NA,1,17,"binary"
"BFAADA1212E844E4ACB3C27FE819CCF2",1,"0198f77c-045c-7b3b-a706-a26482575d9b","0198f767-55c9-7875-8d21-563b3c0b86ed","2025-08-29_16h21.50.296",NA,NA,129.2911,129.2911,129.2911,129.6381,NA,NA,NA,NA,NA,NA,NA,TRUE,1,1.2792,126.2919,129.291,0,17,17,13,1,12,26,NA,NA,NA,NA,NA,1,18,"binary"
"BFAADA1212E844E4ACB3C27FE819CCF2",1,"0198f77c-045c-7b3b-a706-a26482575d9b","0198f767-55c9-7875-8d21-563b3c0b86ed","2025-08-29_16h21.50.296",NA,NA,132.6379,132.6379,132.6379,132.9861,NA,NA,NA,NA,NA,NA,NA,TRUE,1,2.5024,129.639,132.6378,0,18,18,105,1,200,39,NA,NA,NA,NA,NA,1,19,"binary"
"BFAADA1212E844E4ACB3C27FE819CCF2",1,"0198f77c-045c-7b3b-a706-a26482575d9b","0198f767-55c9-7875-8d21-563b3c0b86ed","2025-08-29_16h21.50.296",NA,NA,135.9924,135.9924,135.9924,136.3391,NA,NA,NA,NA,NA,NA,NA,TRUE,1,1.9287,132.987,135.9921,0,19,19,66,1,60,29,NA,NA,NA,NA,NA,1,20,"binary"
"BFAADA1212E844E4ACB3C27FE819CCF2",1,"0198f77c-045c-7b3b-a706-a26482575d9b","0198f767-55c9-7875-8d21-563b3c0b86ed","2025-08-29_16h21.50.296",NA,NA,139.3397,139.3397,139.3397,139.6867,NA,NA,NA,NA,NA,NA,NA,TRUE,2,1.1613,136.3402,139.3397,0,20,20,70,1,60,47,NA,NA,NA,NA,NA,1,21,"binary"
"BFAADA1212E844E4ACB3C27FE819CCF2",1,"0198f77c-045c-7b3b-a706-a26482575d9b","0198f767-55c9-7875-8d21-563b3c0b86ed","2025-08-29_16h21.50.296",NA,NA,142.6871,142.6871,142.6872,143.0411,NA,NA,NA,NA,NA,NA,NA,TRUE,2,1.4709,139.6878,142.6869,0,21,21,83,1,95,54,NA,NA,NA,NA,NA,1,22,"binary"
"BFAADA1212E844E4ACB3C27FE819CCF2",1,"0198f77c-045c-7b3b-a706-a26482575d9b","0198f767-55c9-7875-8d21-563b3c0b86ed","2025-08-29_16h21.50.296",NA,NA,146.0413,146.0413,146.0413,146.3879,NA,NA,NA,NA,NA,NA,NA,TRUE,2,2.0168,143.0422,146.0411,0,22,22,106,1,200,47,NA,NA,NA,NA,NA,1,23,"binary"
"BFAADA1212E844E4ACB3C27FE819CCF2",1,"0198f77c-045c-7b3b-a706-a26482575d9b","0198f767-55c9-7875-8d21-563b3c0b86ed","2025-08-29_16h21.50.296",NA,NA,149.3883,149.3883,149.3883,149.7418,NA,NA,NA,NA,NA,NA,NA,TRUE,2,2.1456,146.3894,149.3881,0,23,23,68,1,60,35,NA,NA,NA,NA,NA,1,24,"binary"
"BFAADA1212E844E4ACB3C27FE819CCF2",1,"0198f77c-045c-7b3b-a706-a26482575d9b","0198f767-55c9-7875-8d21-563b3c0b86ed","2025-08-29_16h21.50.296",NA,NA,152.742,152.742,152.742,153.0891,NA,NA,NA,NA,NA,NA,NA,TRUE,2,0.8942,149.7428,152.7419,0,24,24,17,1,12,35,NA,NA,NA,NA,NA,1,25,"binary"
"BFAADA1212E844E4ACB3C27FE819CCF2",1,"0198f77c-045c-7b3b-a706-a26482575d9b","0198f767-55c9-7875-8d21-563b3c0b86ed","2025-08-29_16h21.50.296",NA,NA,156.0889,156.089,156.089,156.4358,NA,NA,NA,NA,NA,NA,NA,TRUE,2,2.0417,153.0906,156.0888,0,25,25,99,1,180,39,NA,NA,NA,NA,NA,1,26,"binary"
"BFAADA1212E844E4ACB3C27FE819CCF2",1,"0198f77c-045c-7b3b-a706-a26482575d9b","0198f767-55c9-7875-8d21-563b3c0b86ed","2025-08-29_16h21.50.296",NA,NA,159.4366,159.4366,159.4367,159.7899,NA,NA,NA,NA,NA,NA,NA,TRUE,1,0.9049,156.4369,159.4362,0,26,26,2,1,7,28,NA,NA,NA,NA,NA,1,27,"binary"
"BFAADA1212E844E4ACB3C27FE819CCF2",1,"0198f77c-045c-7b3b-a706-a26482575d9b","0198f767-55c9-7875-8d21-563b3c0b86ed","2025-08-29_16h21.50.296",NA,NA,162.79,162.79,162.79,163.1371,NA,NA,NA,NA,NA,NA,NA,TRUE,1,1.7623,159.7908,162.7899,0,27,27,91,1,150,33,NA,NA,NA,NA,NA,1,28,"binary"
"BFAADA1212E844E4ACB3C27FE819CCF2",1,"0198f77c-045c-7b3b-a706-a26482575d9b","0198f767-55c9-7875-8d21-563b3c0b86ed","2025-08-29_16h21.50.296",NA,NA,166.1373,166.1373,166.1373,166.4915,NA,NA,NA,NA,NA,NA,NA,TRUE,2,1.1558,163.1386,166.1371,0,28,28,5,1,7,35,NA,NA,NA,NA,NA,1,29,"binary"
"BFAADA1212E844E4ACB3C27FE819CCF2",1,"0198f77c-045c-7b3b-a706-a26482575d9b","0198f767-55c9-7875-8d21-563b3c0b86ed","2025-08-29_16h21.50.296",NA,NA,169.4865,169.4865,169.4865,169.8406,NA,NA,NA,NA,NA,NA,NA,TRUE,2,1.0322,166.4926,169.4864,0,29,29,69,1,60,40,NA,NA,NA,NA,NA,1,30,"binary"
"BFAADA1212E844E4ACB3C27FE819CCF2",1,"0198f77c-045c-7b3b-a706-a26482575d9b","0198f767-55c9-7875-8d21-563b3c0b86ed","2025-08-29_16h21.50.296",NA,NA,172.8408,172.8409,172.8409,173.187,NA,NA,NA,NA,NA,NA,NA,TRUE,1,1.1044,169.8415,172.8407,0,30,30,6,1,10,25,NA,NA,NA,NA,NA,1,31,"binary"
"BFAADA1212E844E4ACB3C27FE819CCF2",1,"0198f77c-045c-7b3b-a706-a26482575d9b","0198f767-55c9-7875-8d21-563b3c0b86ed","2025-08-29_16h21.50.296",NA,NA,176.1872,176.1872,176.1872,176.5413,NA,NA,NA,NA,NA,NA,NA,TRUE,2,1.32,173.1879,176.187,0,31,31,28,1,21,32,NA,NA,NA,NA,NA,1,32,"binary"
"BFAADA1212E844E4ACB3C27FE819CCF2",1,"0198f77c-045c-7b3b-a706-a26482575d9b","0198f767-55c9-7875-8d21-563b3c0b86ed","2025-08-29_16h21.50.296",NA,NA,179.542,179.5421,179.5421,179.8891,NA,NA,NA,NA,NA,NA,NA,TRUE,2,0.8475,176.5421,179.542,0,32,32,75,1,90,40,NA,NA,NA,NA,NA,1,33,"binary"
"BFAADA1212E844E4ACB3C27FE819CCF2",1,"0198f77c-045c-7b3b-a706-a26482575d9b","0198f767-55c9-7875-8d21-563b3c0b86ed","2025-08-29_16h21.50.296",NA,NA,182.8886,182.8886,182.8886,183.2424,NA,NA,NA,NA,NA,NA,NA,TRUE,1,1.5833,179.8898,182.8884,0,33,33,4,1,7,32,NA,NA,NA,NA,NA,1,34,"binary"
"BFAADA1212E844E4ACB3C27FE819CCF2",1,"0198f77c-045c-7b3b-a706-a26482575d9b","0198f767-55c9-7875-8d21-563b3c0b86ed","2025-08-29_16h21.50.296",NA,NA,186.2425,186.2426,186.2426,186.5898,NA,NA,NA,NA,NA,NA,NA,TRUE,1,1.0212,183.2432,186.2424,0,34,34,84,1,100,26,NA,NA,NA,NA,NA,1,35,"binary"
"BFAADA1212E844E4ACB3C27FE819CCF2",1,"0198f77c-045c-7b3b-a706-a26482575d9b","0198f767-55c9-7875-8d21-563b3c0b86ed","2025-08-29_16h21.50.296",NA,NA,189.5897,189.5897,189.5897,189.9397,NA,NA,NA,NA,NA,NA,NA,TRUE,1,1.0323,186.5908,189.5896,0,35,35,7,1,10,26,NA,NA,NA,NA,NA,1,36,"binary"
"BFAADA1212E844E4ACB3C27FE819CCF2",1,"0198f77c-045c-7b3b-a706-a26482575d9b","0198f767-55c9-7875-8d21-563b3c0b86ed","2025-08-29_16h21.50.296",NA,NA,192.9372,192.9372,192.9372,193.2915,NA,NA,NA,NA,NA,NA,NA,TRUE,2,0.9515,189.9405,192.9372,0,36,36,59,1,45,46,NA,NA,NA,NA,NA,1,37,"binary"
"BFAADA1212E844E4ACB3C27FE819CCF2",1,"0198f77c-045c-7b3b-a706-a26482575d9b","0198f767-55c9-7875-8d21-563b3c0b86ed","2025-08-29_16h21.50.296",NA,NA,196.2914,196.2914,196.2914,196.6384,NA,NA,NA,NA,NA,NA,NA,TRUE,1,1.1388,193.2923,196.2912,0,37,37,54,1,45,26,NA,NA,NA,NA,NA,1,38,"binary"
"BFAADA1212E844E4ACB3C27FE819CCF2",1,"0198f77c-045c-7b3b-a706-a26482575d9b","0198f767-55c9-7875-8d21-563b3c0b86ed","2025-08-29_16h21.50.296",NA,NA,199.6383,199.6383,199.6383,199.9946,NA,NA,NA,NA,NA,NA,NA,TRUE,2,1.2822,196.6393,199.6382,0,38,38,46,1,30,32,NA,NA,NA,NA,NA,1,39,"binary"
"BFAADA1212E844E4ACB3C27FE819CCF2",1,"0198f77c-045c-7b3b-a706-a26482575d9b","0198f767-55c9-7875-8d21-563b3c0b86ed","2025-08-29_16h21.50.296",NA,NA,202.986,202.9861,202.9861,203.3397,NA,NA,NA,NA,NA,NA,NA,TRUE,2,0.9921,199.9954,202.9859,0,39,39,41,1,28,46,NA,NA,NA,NA,NA,1,40,"binary"
"BFAADA1212E844E4ACB3C27FE819CCF2",1,"0198f77c-045c-7b3b-a706-a26482575d9b","0198f767-55c9-7875-8d21-563b3c0b86ed","2025-08-29_16h21.50.296",NA,NA,206.3394,206.3394,206.3394,206.6863,NA,NA,NA,NA,NA,NA,NA,TRUE,2,1.4301,203.3404,206.3393,0,40,40,76,1,90,46,NA,NA,NA,NA,NA,1,41,"binary"
"BFAADA1212E844E4ACB3C27FE819CCF2",1,"0198f77c-045c-7b3b-a706-a26482575d9b","0198f767-55c9-7875-8d21-563b3c0b86ed","2025-08-29_16h21.50.296",NA,NA,209.6864,209.6864,209.6864,210.0405,NA,NA,NA,NA,NA,NA,NA,TRUE,2,2.0072,206.6872,209.6863,0,41,41,22,1,14,35,NA,NA,NA,NA,NA,1,42,"binary"
"BFAADA1212E844E4ACB3C27FE819CCF2",1,"0198f77c-045c-7b3b-a706-a26482575d9b","0198f767-55c9-7875-8d21-563b3c0b86ed","2025-08-29_16h21.50.296",NA,NA,213.0413,213.0413,213.0413,213.3901,NA,NA,NA,NA,NA,NA,NA,TRUE,1,0.9037,210.0412,213.0411,0,42,42,43,1,30,27,NA,NA,NA,NA,NA,1,43,"binary"
"BFAADA1212E844E4ACB3C27FE819CCF2",1,"0198f77c-045c-7b3b-a706-a26482575d9b","0198f767-55c9-7875-8d21-563b3c0b86ed","2025-08-29_16h21.50.296",NA,NA,216.3889,216.3889,216.389,216.7416,NA,NA,NA,NA,NA,NA,NA,TRUE,1,0.6084,213.3911,216.3889,0,43,43,36,1,28,26,NA,NA,NA,NA,NA,1,44,"binary"
"BFAADA1212E844E4ACB3C27FE819CCF2",1,"0198f77c-045c-7b3b-a706-a26482575d9b","0198f767-55c9-7875-8d21-563b3c0b86ed","2025-08-29_16h21.50.296",NA,NA,219.7417,219.7417,219.7417,220.0889,NA,NA,NA,NA,NA,NA,NA,TRUE,2,1.6193,216.7426,219.7416,0,44,44,107,1,200,54,NA,NA,NA,NA,NA,1,45,"binary"
"BFAADA1212E844E4ACB3C27FE819CCF2",1,"0198f77c-045c-7b3b-a706-a26482575d9b","0198f767-55c9-7875-8d21-563b3c0b86ed","2025-08-29_16h21.50.296",NA,NA,223.0891,223.0891,223.0891,223.4362,NA,NA,NA,NA,NA,NA,NA,TRUE,2,1.2649,220.0898,223.089,0,45,45,94,1,150,47,NA,NA,NA,NA,NA,1,46,"binary"
"BFAADA1212E844E4ACB3C27FE819CCF2",1,"0198f77c-045c-7b3b-a706-a26482575d9b","0198f767-55c9-7875-8d21-563b3c0b86ed","2025-08-29_16h21.50.296",NA,NA,226.4416,226.4416,226.4416,226.7883,NA,NA,NA,NA,NA,NA,NA,TRUE,2,1.1076,223.437,226.4414,0,46,46,50,1,40,35,NA,NA,NA,NA,NA,1,47,"binary"
"BFAADA1212E844E4ACB3C27FE819CCF2",1,"0198f77c-045c-7b3b-a706-a26482575d9b","0198f767-55c9-7875-8d21-563b3c0b86ed","2025-08-29_16h21.50.296",NA,NA,229.7884,229.7884,229.7884,230.1358,NA,NA,NA,NA,NA,NA,NA,TRUE,2,1.5604,226.7897,229.7883,0,47,47,81,1,95,40,NA,NA,NA,NA,NA,1,48,"binary"
"BFAADA1212E844E4ACB3C27FE819CCF2",1,"0198f77c-045c-7b3b-a706-a26482575d9b","0198f767-55c9-7875-8d21-563b3c0b86ed","2025-08-29_16h21.50.296",NA,NA,233.1357,233.1357,233.1357,233.49,NA,NA,NA,NA,NA,NA,NA,TRUE,2,1.7152,230.1373,233.1355,0,48,48,95,1,150,54,NA,NA,NA,NA,NA,1,49,"binary"
"BFAADA1212E844E4ACB3C27FE819CCF2",1,"0198f77c-045c-7b3b-a706-a26482575d9b","0198f767-55c9-7875-8d21-563b3c0b86ed","2025-08-29_16h21.50.296",NA,NA,236.4898,236.4898,236.4898,236.8424,NA,NA,NA,NA,NA,NA,NA,TRUE,2,1.1736,233.4911,236.4897,0,49,49,71,1,60,54,NA,NA,NA,NA,NA,1,50,"binary"
"BFAADA1212E844E4ACB3C27FE819CCF2",1,"0198f77c-045c-7b3b-a706-a26482575d9b","0198f767-55c9-7875-8d21-563b3c0b86ed","2025-08-29_16h21.50.296",NA,NA,239.8414,239.8414,239.8414,240.1917,NA,NA,NA,NA,NA,NA,NA,TRUE,1,1.2058,236.8434,239.8412,0,50,50,78,1,95,31,NA,NA,NA,NA,NA,1,51,"binary"
"BFAADA1212E844E4ACB3C27FE819CCF2",1,"0198f77c-045c-7b3b-a706-a26482575d9b","0198f767-55c9-7875-8d21-563b3c0b86ed","2025-08-29_16h21.50.296",NA,NA,243.1912,243.1913,243.1913,243.5387,NA,NA,NA,NA,NA,NA,NA,TRUE,1,1.1388,240.1928,243.1911,0,51,51,85,1,100,31,NA,NA,NA,NA,NA,1,52,"binary"
"BFAADA1212E844E4ACB3C27FE819CCF2",1,"0198f77c-045c-7b3b-a706-a26482575d9b","0198f767-55c9-7875-8d21-563b3c0b86ed","2025-08-29_16h21.50.296",NA,NA,246.5388,246.5388,246.5389,246.8923,NA,NA,NA,NA,NA,NA,NA,TRUE,2,1.1728,243.5403,246.5386,0,52,52,35,1,25,46,NA,NA,NA,NA,NA,1,53,"binary"
"BFAADA1212E844E4ACB3C27FE819CCF2",1,"0198f77c-045c-7b3b-a706-a26482575d9b","0198f767-55c9-7875-8d21-563b3c0b86ed","2025-08-29_16h21.50.296",NA,NA,249.8922,249.8922,249.8922,250.2398,NA,NA,NA,NA,NA,NA,NA,TRUE,2,1.073,246.8932,249.8921,0,53,53,23,1,14,39,NA,NA,NA,NA,NA,1,54,"binary"
"BFAADA1212E844E4ACB3C27FE819CCF2",1,"0198f77c-045c-7b3b-a706-a26482575d9b","0198f767-55c9-7875-8d21-563b3c0b86ed","2025-08-29_16h21.50.296",NA,NA,253.2393,253.2393,253.2393,253.5868,NA,NA,NA,NA,NA,NA,NA,TRUE,2,1.9538,250.2411,253.2392,0,54,54,47,1,30,38,NA,NA,NA,NA,NA,1,55,"binary"
"BFAADA1212E844E4ACB3C27FE819CCF2",1,"0198f77c-045c-7b3b-a706-a26482575d9b","0198f767-55c9-7875-8d21-563b3c0b86ed","2025-08-29_16h21.50.296",NA,NA,256.5866,256.5866,256.5866,256.9406,NA,NA,NA,NA,NA,NA,NA,TRUE,1,1.4206,253.5883,256.5865,0,55,55,103,1,200,28,NA,NA,NA,NA,NA,1,56,"binary"
"BFAADA1212E844E4ACB3C27FE819CCF2",1,"0198f77c-045c-7b3b-a706-a26482575d9b","0198f767-55c9-7875-8d21-563b3c0b86ed","2025-08-29_16h21.50.296",NA,NA,259.9408,259.9409,259.9409,260.2879,NA,NA,NA,NA,NA,NA,NA,TRUE,1,2.1734,256.9415,259.9407,0,56,56,44,1,30,29,NA,NA,NA,NA,NA,1,57,"binary"
"BFAADA1212E844E4ACB3C27FE819CCF2",1,"0198f77c-045c-7b3b-a706-a26482575d9b","0198f767-55c9-7875-8d21-563b3c0b86ed","2025-08-29_16h21.50.296",NA,NA,263.2876,263.2876,263.2876,263.6356,NA,NA,NA,NA,NA,NA,NA,TRUE,1,1.0678,260.2894,263.2875,0,57,57,30,1,25,27,NA,NA,NA,NA,NA,1,58,"binary"
"BFAADA1212E844E4ACB3C27FE819CCF2",1,"0198f77c-045c-7b3b-a706-a26482575d9b","0198f767-55c9-7875-8d21-563b3c0b86ed","2025-08-29_16h21.50.296",NA,NA,266.6359,266.636,266.636,266.9893,NA,NA,NA,NA,NA,NA,NA,TRUE,1,1.2016,263.6367,266.6359,0,58,58,67,1,60,33,NA,NA,NA,NA,NA,1,59,"binary"
"BFAADA1212E844E4ACB3C27FE819CCF2",1,"0198f77c-045c-7b3b-a706-a26482575d9b","0198f767-55c9-7875-8d21-563b3c0b86ed","2025-08-29_16h21.50.296",NA,NA,269.9893,269.9893,269.9893,270.3365,NA,NA,NA,NA,NA,NA,NA,TRUE,2,2.2327,266.9907,269.9892,0,59,59,34,1,25,35,NA,NA,NA,NA,NA,1,60,"binary"
"BFAADA1212E844E4ACB3C27FE819CCF2",1,"0198f77c-045c-7b3b-a706-a26482575d9b","0198f767-55c9-7875-8d21-563b3c0b86ed","2025-08-29_16h21.50.296",NA,NA,273.3371,273.3371,273.3371,273.6901,NA,NA,NA,NA,NA,NA,NA,TRUE,1,1.0793,270.3375,273.3369,0,60,60,20,1,14,28,NA,NA,NA,NA,NA,1,61,"binary"
"BFAADA1212E844E4ACB3C27FE819CCF2",1,"0198f77c-045c-7b3b-a706-a26482575d9b","0198f767-55c9-7875-8d21-563b3c0b86ed","2025-08-29_16h21.50.296",NA,NA,276.6903,276.6903,276.6904,277.0375,NA,NA,NA,NA,NA,NA,NA,TRUE,1,1.0519,273.6912,276.6902,0,61,61,102,1,200,26,NA,NA,NA,NA,NA,1,62,"binary"
"BFAADA1212E844E4ACB3C27FE819CCF2",1,"0198f77c-045c-7b3b-a706-a26482575d9b","0198f767-55c9-7875-8d21-563b3c0b86ed","2025-08-29_16h21.50.296",NA,NA,280.0381,280.0381,280.0381,280.388,NA,NA,NA,NA,NA,NA,NA,TRUE,2,1.3426,277.0384,280.038,0,62,62,88,1,100,46,NA,NA,NA,NA,NA,1,63,"binary"
"BFAADA1212E844E4ACB3C27FE819CCF2",1,"0198f77c-045c-7b3b-a706-a26482575d9b","0198f767-55c9-7875-8d21-563b3c0b86ed","2025-08-29_16h21.50.296",NA,NA,283.3912,283.3913,283.3913,283.7389,NA,NA,NA,NA,NA,NA,NA,TRUE,2,1.2105,280.3891,283.3911,0,63,63,77,1,90,54,NA,NA,NA,NA,NA,1,64,"binary"
"BFAADA1212E844E4ACB3C27FE819CCF2",1,"0198f77c-045c-7b3b-a706-a26482575d9b","0198f767-55c9-7875-8d21-563b3c0b86ed","2025-08-29_16h21.50.296",NA,NA,286.739,286.739,286.739,287.0869,NA,NA,NA,NA,NA,NA,NA,TRUE,1,1.3173,283.7399,286.7387,0,64,64,33,1,25,33,NA,NA,NA,NA,NA,1,65,"binary"
"BFAADA1212E844E4ACB3C27FE819CCF2",1,"0198f77c-045c-7b3b-a706-a26482575d9b","0198f767-55c9-7875-8d21-563b3c0b86ed","2025-08-29_16h21.50.296",NA,NA,290.0858,290.0859,290.0859,290.4403,NA,NA,NA,NA,NA,NA,NA,TRUE,1,0.8123,287.0878,290.0857,0,65,65,72,1,90,26,NA,NA,NA,NA,NA,1,66,"binary"
"BFAADA1212E844E4ACB3C27FE819CCF2",1,"0198f77c-045c-7b3b-a706-a26482575d9b","0198f767-55c9-7875-8d21-563b3c0b86ed","2025-08-29_16h21.50.296",NA,NA,293.4402,293.4402,293.4402,293.7867,NA,NA,NA,NA,NA,NA,NA,TRUE,1,1.1135,290.4417,293.44,0,66,66,31,1,25,29,NA,NA,NA,NA,NA,1,67,"binary"
"BFAADA1212E844E4ACB3C27FE819CCF2",1,"0198f77c-045c-7b3b-a706-a26482575d9b","0198f767-55c9-7875-8d21-563b3c0b86ed","2025-08-29_16h21.50.296",NA,NA,296.787,296.7871,296.7871,297.1412,NA,NA,NA,NA,NA,NA,NA,TRUE,2,0.9981,293.7879,296.7869,0,67,67,87,1,100,39,NA,NA,NA,NA,NA,1,68,"binary"
"BFAADA1212E844E4ACB3C27FE819CCF2",1,"0198f77c-045c-7b3b-a706-a26482575d9b","0198f767-55c9-7875-8d21-563b3c0b86ed","2025-08-29_16h21.50.296",NA,NA,300.1412,300.1412,300.1413,300.4882,NA,NA,NA,NA,NA,NA,NA,TRUE,2,1.4878,297.1423,300.1411,0,68,68,101,1,180,54,NA,NA,NA,NA,NA,1,69,"binary"
"BFAADA1212E844E4ACB3C27FE819CCF2",1,"0198f77c-045c-7b3b-a706-a26482575d9b","0198f767-55c9-7875-8d21-563b3c0b86ed","2025-08-29_16h21.50.296",NA,NA,303.4887,303.4887,303.4887,303.842,NA,NA,NA,NA,NA,NA,NA,TRUE,1,1.5415,300.4898,303.4885,0,69,69,49,1,40,33,NA,NA,NA,NA,NA,1,70,"binary"
"BFAADA1212E844E4ACB3C27FE819CCF2",1,"0198f77c-045c-7b3b-a706-a26482575d9b","0198f767-55c9-7875-8d21-563b3c0b86ed","2025-08-29_16h21.50.296",NA,NA,306.8363,306.8364,306.8364,307.1896,NA,NA,NA,NA,NA,NA,NA,TRUE,1,0.8832,303.8435,306.8361,0,70,70,18,1,14,25,NA,NA,NA,NA,NA,1,71,"binary"
"BFAADA1212E844E4ACB3C27FE819CCF2",1,"0198f77c-045c-7b3b-a706-a26482575d9b","0198f767-55c9-7875-8d21-563b3c0b86ed","2025-08-29_16h21.50.296",NA,NA,310.1901,310.1901,310.1901,310.5367,NA,NA,NA,NA,NA,NA,NA,TRUE,1,1.4635,307.1906,310.1899,0,71,71,14,1,12,28,NA,NA,NA,NA,NA,1,72,"binary"
"BFAADA1212E844E4ACB3C27FE819CCF2",1,"0198f77c-045c-7b3b-a706-a26482575d9b","0198f767-55c9-7875-8d21-563b3c0b86ed","2025-08-29_16h21.50.296",NA,NA,313.5364,313.5364,313.5364,313.8904,NA,NA,NA,NA,NA,NA,NA,TRUE,2,0.9703,310.5377,313.5363,0,72,72,40,1,28,39,NA,NA,NA,NA,NA,1,73,"binary"
"BFAADA1212E844E4ACB3C27FE819CCF2",1,"0198f77c-045c-7b3b-a706-a26482575d9b","0198f767-55c9-7875-8d21-563b3c0b86ed","2025-08-29_16h21.50.296",NA,NA,316.8905,316.8906,316.8906,317.2376,NA,NA,NA,NA,NA,NA,NA,TRUE,2,1.1468,313.8914,316.8904,0,73,73,100,1,180,46,NA,NA,NA,NA,NA,1,74,"binary"
"BFAADA1212E844E4ACB3C27FE819CCF2",1,"0198f77c-045c-7b3b-a706-a26482575d9b","0198f767-55c9-7875-8d21-563b3c0b86ed","2025-08-29_16h21.50.296",NA,NA,320.2376,320.2377,320.2377,320.5919,NA,NA,NA,NA,NA,NA,NA,TRUE,1,0.8256,317.2386,320.2375,0,74,74,38,1,28,32,NA,NA,NA,NA,NA,1,75,"binary"
"BFAADA1212E844E4ACB3C27FE819CCF2",1,"0198f77c-045c-7b3b-a706-a26482575d9b","0198f767-55c9-7875-8d21-563b3c0b86ed","2025-08-29_16h21.50.296",NA,NA,323.5916,323.5917,323.5917,323.9392,NA,NA,NA,NA,NA,NA,NA,TRUE,2,1.306,320.5932,323.5915,0,75,75,51,1,40,40,NA,NA,NA,NA,NA,1,76,"binary"
"BFAADA1212E844E4ACB3C27FE819CCF2",1,"0198f77c-045c-7b3b-a706-a26482575d9b","0198f767-55c9-7875-8d21-563b3c0b86ed","2025-08-29_16h21.50.296",NA,NA,326.939,326.9391,326.9391,327.2863,NA,NA,NA,NA,NA,NA,NA,TRUE,1,1.5427,323.9407,326.9389,0,76,76,93,1,150,40,NA,NA,NA,NA,NA,1,77,"binary"
"BFAADA1212E844E4ACB3C27FE819CCF2",1,"0198f77c-045c-7b3b-a706-a26482575d9b","0198f767-55c9-7875-8d21-563b3c0b86ed","2025-08-29_16h21.50.296",NA,NA,330.2867,330.2867,330.2867,330.6405,NA,NA,NA,NA,NA,NA,NA,TRUE,1,0.8123,327.2878,330.2865,0,77,77,21,1,14,32,NA,NA,NA,NA,NA,1,78,"binary"
"BFAADA1212E844E4ACB3C27FE819CCF2",1,"0198f77c-045c-7b3b-a706-a26482575d9b","0198f767-55c9-7875-8d21-563b3c0b86ed","2025-08-29_16h21.50.296",NA,NA,333.6402,333.6402,333.6402,333.9875,NA,NA,NA,NA,NA,NA,NA,TRUE,2,1.9513,330.6416,333.6401,0,78,78,29,1,21,38,NA,NA,NA,NA,NA,1,79,"binary"
"BFAADA1212E844E4ACB3C27FE819CCF2",1,"0198f77c-045c-7b3b-a706-a26482575d9b","0198f767-55c9-7875-8d21-563b3c0b86ed","2025-08-29_16h21.50.296",NA,NA,336.9894,336.9894,336.9894,337.3417,NA,NA,NA,NA,NA,NA,NA,TRUE,1,1.492,333.9888,336.9892,0,79,79,8,1,10,27,NA,NA,NA,NA,NA,1,80,"binary"
"BFAADA1212E844E4ACB3C27FE819CCF2",1,"0198f77c-045c-7b3b-a706-a26482575d9b","0198f767-55c9-7875-8d21-563b3c0b86ed","2025-08-29_16h21.50.296",NA,NA,340.3412,340.3412,340.3413,340.6891,NA,NA,NA,NA,NA,NA,NA,TRUE,1,1.9097,337.3429,340.3411,0,80,80,9,1,10,29,NA,NA,NA,NA,NA,1,81,"binary"
"BFAADA1212E844E4ACB3C27FE819CCF2",1,"0198f77c-045c-7b3b-a706-a26482575d9b","0198f767-55c9-7875-8d21-563b3c0b86ed","2025-08-29_16h21.50.296",NA,NA,343.6895,343.6895,343.6895,344.036,NA,NA,NA,NA,NA,NA,NA,TRUE,1,2.5505,340.6903,343.6893,0,81,81,32,1,25,31,NA,NA,NA,NA,NA,1,82,"binary"
"BFAADA1212E844E4ACB3C27FE819CCF2",1,"0198f77c-045c-7b3b-a706-a26482575d9b","0198f767-55c9-7875-8d21-563b3c0b86ed","2025-08-29_16h21.50.296",NA,NA,347.0362,347.0362,347.0362,347.3901,NA,NA,NA,NA,NA,NA,NA,TRUE,1,2.4499,344.0373,347.036,0,82,82,98,1,180,35,NA,NA,NA,NA,NA,1,83,"binary"
"BFAADA1212E844E4ACB3C27FE819CCF2",1,"0198f77c-045c-7b3b-a706-a26482575d9b","0198f767-55c9-7875-8d21-563b3c0b86ed","2025-08-29_16h21.50.296",NA,NA,350.3901,350.3901,350.3902,350.7372,NA,NA,NA,NA,NA,NA,NA,TRUE,1,1.6318,347.3912,350.3899,0,83,83,61,1,50,30,NA,NA,NA,NA,NA,1,84,"binary"
"BFAADA1212E844E4ACB3C27FE819CCF2",1,"0198f77c-045c-7b3b-a706-a26482575d9b","0198f767-55c9-7875-8d21-563b3c0b86ed","2025-08-29_16h21.50.296",NA,NA,353.7374,353.7374,353.7374,354.0908,NA,NA,NA,NA,NA,NA,NA,TRUE,1,1.9022,350.7384,353.7372,0,84,84,10,1,10,30,NA,NA,NA,NA,NA,1,85,"binary"
"BFAADA1212E844E4ACB3C27FE819CCF2",1,"0198f77c-045c-7b3b-a706-a26482575d9b","0198f767-55c9-7875-8d21-563b3c0b86ed","2025-08-29_16h21.50.296",NA,NA,357.0909,357.0909,357.0909,357.438,NA,NA,NA,NA,NA,NA,NA,TRUE,1,0.8305,354.0918,357.0907,0,85,85,42,1,30,26,NA,NA,NA,NA,NA,1,86,"binary"
"BFAADA1212E844E4ACB3C27FE819CCF2",1,"0198f77c-045c-7b3b-a706-a26482575d9b","0198f767-55c9-7875-8d21-563b3c0b86ed","2025-08-29_16h21.50.296",NA,NA,360.4385,360.4385,360.4385,360.7871,NA,NA,NA,NA,NA,NA,NA,TRUE,1,1.5608,357.4391,360.4383,0,86,86,97,1,180,31,NA,NA,NA,NA,NA,1,87,"binary"
"BFAADA1212E844E4ACB3C27FE819CCF2",1,"0198f77c-045c-7b3b-a706-a26482575d9b","0198f767-55c9-7875-8d21-563b3c0b86ed","2025-08-29_16h21.50.296",NA,NA,363.7923,363.7925,363.7925,364.1397,NA,NA,NA,NA,NA,NA,NA,TRUE,1,1.0466,360.7881,363.7923,0,87,87,0,1,7,25,NA,NA,NA,NA,NA,1,88,"binary"
"BFAADA1212E844E4ACB3C27FE819CCF2",1,"0198f77c-045c-7b3b-a706-a26482575d9b","0198f767-55c9-7875-8d21-563b3c0b86ed","2025-08-29_16h21.50.296",NA,NA,367.1411,367.1411,367.1411,367.4872,NA,NA,NA,NA,NA,NA,NA,TRUE,1,1.1186,364.1412,367.1409,0,88,88,80,1,95,35,NA,NA,NA,NA,NA,1,89,"binary"
"BFAADA1212E844E4ACB3C27FE819CCF2",1,"0198f77c-045c-7b3b-a706-a26482575d9b","0198f767-55c9-7875-8d21-563b3c0b86ed","2025-08-29_16h21.50.296",NA,NA,370.4864,370.4864,370.4864,370.8403,NA,NA,NA,NA,NA,NA,NA,TRUE,1,0.807,367.4883,370.4863,0,89,89,15,1,12,31,NA,NA,NA,NA,NA,1,90,"binary"
"BFAADA1212E844E4ACB3C27FE819CCF2",1,"0198f77c-045c-7b3b-a706-a26482575d9b","0198f767-55c9-7875-8d21-563b3c0b86ed","2025-08-29_16h21.50.296",NA,NA,373.8371,373.8371,373.8371,374.1877,NA,NA,NA,NA,NA,NA,NA,TRUE,2,0.921,370.8415,373.837,0,90,90,52,1,40,47,NA,NA,NA,NA,NA,1,91,"binary"
"BFAADA1212E844E4ACB3C27FE819CCF2",1,"0198f77c-045c-7b3b-a706-a26482575d9b","0198f767-55c9-7875-8d21-563b3c0b86ed","2025-08-29_16h21.50.296",NA,NA,377.1882,377.1883,377.1883,377.5417,NA,NA,NA,NA,NA,NA,NA,TRUE,1,1.535,374.1886,377.188,0,91,91,56,1,45,31,NA,NA,NA,NA,NA,1,92,"binary"
"BFAADA1212E844E4ACB3C27FE819CCF2",1,"0198f77c-045c-7b3b-a706-a26482575d9b","0198f767-55c9-7875-8d21-563b3c0b86ed","2025-08-29_16h21.50.296",NA,NA,380.5417,380.5418,380.5418,380.8895,NA,NA,NA,NA,NA,NA,NA,TRUE,1,1.7641,377.5432,380.5416,0,92,92,37,1,28,28,NA,NA,NA,NA,NA,1,93,"binary"
"BFAADA1212E844E4ACB3C27FE819CCF2",1,"0198f77c-045c-7b3b-a706-a26482575d9b","0198f767-55c9-7875-8d21-563b3c0b86ed","2025-08-29_16h21.50.296",NA,NA,383.8933,383.8933,383.8933,384.2432,NA,NA,NA,NA,NA,NA,NA,TRUE,2,1.6372,380.891,383.8932,0,93,93,62,1,50,35,NA,NA,NA,NA,NA,1,94,"binary"
"BFAADA1212E844E4ACB3C27FE819CCF2",1,"0198f77c-045c-7b3b-a706-a26482575d9b","0198f767-55c9-7875-8d21-563b3c0b86ed","2025-08-29_16h21.50.296",NA,NA,387.236,387.236,387.236,387.59,NA,NA,NA,NA,NA,NA,NA,TRUE,1,0.839,384.2442,387.2359,0,94,94,25,1,21,27,NA,NA,NA,NA,NA,1,95,"binary"
"BFAADA1212E844E4ACB3C27FE819CCF2",1,"0198f77c-045c-7b3b-a706-a26482575d9b","0198f767-55c9-7875-8d21-563b3c0b86ed","2025-08-29_16h21.50.296",NA,NA,390.5902,390.5902,390.5903,390.9376,NA,NA,NA,NA,NA,NA,NA,TRUE,1,1.6675,387.591,390.59,0,95,95,86,1,100,38,NA,NA,NA,NA,NA,1,96,"binary"
"BFAADA1212E844E4ACB3C27FE819CCF2",1,"0198f77c-045c-7b3b-a706-a26482575d9b","0198f767-55c9-7875-8d21-563b3c0b86ed","2025-08-29_16h21.50.296",NA,NA,393.9376,393.9376,393.9376,394.2912,NA,NA,NA,NA,NA,NA,NA,TRUE,1,0.8524,390.9387,393.9375,0,96,96,26,1,21,29,NA,NA,NA,NA,NA,1,97,"binary"
"BFAADA1212E844E4ACB3C27FE819CCF2",1,"0198f77c-045c-7b3b-a706-a26482575d9b","0198f767-55c9-7875-8d21-563b3c0b86ed","2025-08-29_16h21.50.296",NA,NA,397.2913,397.2914,397.2914,397.639,NA,NA,NA,NA,NA,NA,NA,TRUE,1,1.0903,394.2922,397.2913,0,97,97,39,1,28,35,NA,NA,NA,NA,NA,1,98,"binary"
"BFAADA1212E844E4ACB3C27FE819CCF2",1,"0198f77c-045c-7b3b-a706-a26482575d9b","0198f767-55c9-7875-8d21-563b3c0b86ed","2025-08-29_16h21.50.296",NA,NA,400.639,400.639,400.639,400.9877,NA,NA,NA,NA,NA,NA,NA,TRUE,1,0.8823,397.6404,400.6388,0,98,98,45,1,30,30,NA,NA,NA,NA,NA,1,99,"binary"
"BFAADA1212E844E4ACB3C27FE819CCF2",1,"0198f77c-045c-7b3b-a706-a26482575d9b","0198f767-55c9-7875-8d21-563b3c0b86ed","2025-08-29_16h21.50.296",NA,NA,403.9858,403.9858,403.9858,404.3402,NA,NA,NA,NA,NA,NA,NA,TRUE,1,1.2436,400.9888,403.9855,0,99,99,92,1,150,35,NA,NA,NA,NA,NA,1,100,"binary"
"BFAADA1212E844E4ACB3C27FE819CCF2",1,"0198f77c-045c-7b3b-a706-a26482575d9b","0198f767-55c9-7875-8d21-563b3c0b86ed","2025-08-29_16h21.50.296",NA,NA,407.3399,407.3399,407.3399,407.6869,NA,NA,NA,NA,NA,NA,NA,TRUE,2,1.3059,404.3414,407.3398,0,100,100,89,1,100,54,NA,NA,NA,NA,NA,1,101,"binary"
"BFAADA1212E844E4ACB3C27FE819CCF2",1,"0198f77c-045c-7b3b-a706-a26482575d9b","0198f767-55c9-7875-8d21-563b3c0b86ed","2025-08-29_16h21.50.296",NA,NA,410.6871,410.937,410.9371,411.0412,NA,NA,NA,NA,NA,NA,NA,FALSE,NA,NA,407.688,410.687,0,101,101,104,1,200,35,NA,NA,NA,NA,NA,1,102,"binary"
"BFAADA1212E844E4ACB3C27FE819CCF2",1,"0198f77c-045c-7b3b-a706-a26482575d9b","0198f767-55c9-7875-8d21-563b3c0b86ed","2025-08-29_16h21.50.296",NA,NA,414.0411,414.0411,414.0412,414.3882,NA,NA,NA,NA,NA,NA,NA,TRUE,1,1.4689,411.0423,414.041,0,102,102,74,1,90,33,NA,NA,NA,NA,NA,1,103,"binary"
"BFAADA1212E844E4ACB3C27FE819CCF2",1,"0198f77c-045c-7b3b-a706-a26482575d9b","0198f767-55c9-7875-8d21-563b3c0b86ed","2025-08-29_16h21.50.296",NA,NA,417.3882,417.3883,417.3883,417.7373,NA,NA,NA,NA,NA,NA,NA,TRUE,1,1.7634,414.3894,417.3881,0,103,103,58,1,45,40,NA,NA,NA,NA,NA,1,104,"binary"
"BFAADA1212E844E4ACB3C27FE819CCF2",1,"0198f77c-045c-7b3b-a706-a26482575d9b","0198f767-55c9-7875-8d21-563b3c0b86ed","2025-08-29_16h21.50.296",NA,NA,420.7422,420.7423,420.7423,421.0895,NA,NA,NA,NA,NA,NA,NA,TRUE,2,1.6373,417.7385,420.7421,0,104,104,63,1,50,40,NA,NA,NA,NA,NA,1,105,"binary"
"BFAADA1212E844E4ACB3C27FE819CCF2",1,"0198f77c-045c-7b3b-a706-a26482575d9b","0198f767-55c9-7875-8d21-563b3c0b86ed","2025-08-29_16h21.50.296",NA,NA,424.0898,424.0899,424.0899,424.437,NA,NA,NA,NA,NA,NA,NA,TRUE,1,0.9911,421.0906,424.0897,0,105,105,16,1,12,33,NA,NA,NA,NA,NA,1,106,"binary"
"BFAADA1212E844E4ACB3C27FE819CCF2",1,"0198f77c-045c-7b3b-a706-a26482575d9b","0198f767-55c9-7875-8d21-563b3c0b86ed","2025-08-29_16h21.50.296",NA,NA,427.4369,427.437,427.437,427.7905,NA,NA,NA,NA,NA,NA,NA,TRUE,2,0.8629,424.4385,427.4368,0,106,106,53,1,40,54,NA,NA,NA,NA,NA,1,107,"binary"
"BFAADA1212E844E4ACB3C27FE819CCF2",1,"0198f77c-045c-7b3b-a706-a26482575d9b","0198f767-55c9-7875-8d21-563b3c0b86ed","2025-08-29_16h21.50.296",NA,NA,430.7927,430.7928,430.7928,431.138,NA,NA,NA,NA,NA,NA,NA,TRUE,1,0.7426,427.7918,430.7927,0,107,107,55,1,45,29,NA,NA,NA,NA,NA,1,108,"binary"
"BFAADA1212E844E4ACB3C27FE819CCF2",1,"0198f77c-045c-7b3b-a706-a26482575d9b","0198f767-55c9-7875-8d21-563b3c0b86ed","2025-08-29_16h21.50.296",NA,NA,441.409,441.4092,441.4092,441.7558,NA,NA,NA,NA,NA,NA,NA,TRUE,1,1.5609,438.4211,441.4087,NA,NA,NA,NA,NA,200,35,0,0,0,104,1,2,1,"binary"
"BFAADA1212E844E4ACB3C27FE819CCF2",1,"0198f77c-045c-7b3b-a706-a26482575d9b","0198f767-55c9-7875-8d21-563b3c0b86ed","2025-08-29_16h21.50.296",NA,NA,444.7576,444.7577,444.7577,445.1131,NA,NA,NA,NA,NA,NA,NA,TRUE,2,0.8878,441.7574,444.7575,NA,NA,NA,NA,NA,14,35,0,1,1,22,1,2,2,"binary"
"BFAADA1212E844E4ACB3C27FE819CCF2",1,"0198f77c-045c-7b3b-a706-a26482575d9b","0198f767-55c9-7875-8d21-563b3c0b86ed","2025-08-29_16h21.50.296",NA,NA,448.1095,448.1095,448.1095,448.4567,NA,NA,NA,NA,NA,NA,NA,TRUE,2,1.1018,445.1139,448.1094,NA,NA,NA,NA,NA,28,32,0,2,2,38,1,2,3,"binary"
"BFAADA1212E844E4ACB3C27FE819CCF2",1,"0198f77c-045c-7b3b-a706-a26482575d9b","0198f767-55c9-7875-8d21-563b3c0b86ed","2025-08-29_16h21.50.296",NA,NA,451.4579,451.4579,451.458,451.8042,NA,NA,NA,NA,NA,NA,NA,TRUE,1,1.0818,448.4582,451.4578,NA,NA,NA,NA,NA,21,30,0,3,3,27,1,2,4,"binary"
"BFAADA1212E844E4ACB3C27FE819CCF2",1,"0198f77c-045c-7b3b-a706-a26482575d9b","0198f767-55c9-7875-8d21-563b3c0b86ed","2025-08-29_16h21.50.296",NA,NA,454.8063,454.8065,454.8065,455.1586,NA,NA,NA,NA,NA,NA,NA,TRUE,2,1.1232,451.8051,454.8063,NA,NA,NA,NA,NA,28,35,0,4,4,39,1,2,5,"binary"
"BFAADA1212E844E4ACB3C27FE819CCF2",1,"0198f77c-045c-7b3b-a706-a26482575d9b","0198f767-55c9-7875-8d21-563b3c0b86ed","2025-08-29_16h21.50.296",NA,NA,458.1581,458.1582,458.1583,458.5054,NA,NA,NA,NA,NA,NA,NA,TRUE,1,0.8239,455.1601,458.158,NA,NA,NA,NA,NA,45,29,0,5,5,55,1,2,6,"binary"
"BFAADA1212E844E4ACB3C27FE819CCF2",1,"0198f77c-045c-7b3b-a706-a26482575d9b","0198f767-55c9-7875-8d21-563b3c0b86ed","2025-08-29_16h21.50.296",NA,NA,461.5054,461.5054,461.5054,461.8595,NA,NA,NA,NA,NA,NA,NA,TRUE,1,1.9979,458.5072,461.5053,NA,NA,NA,NA,NA,50,35,0,6,6,62,1,2,7,"binary"
"BFAADA1212E844E4ACB3C27FE819CCF2",1,"0198f77c-045c-7b3b-a706-a26482575d9b","0198f767-55c9-7875-8d21-563b3c0b86ed","2025-08-29_16h21.50.296",NA,NA,464.8597,464.8598,464.8598,465.2067,NA,NA,NA,NA,NA,NA,NA,TRUE,1,0.749,461.8605,464.8595,NA,NA,NA,NA,NA,25,27,0,7,7,30,1,2,8,"binary"
"BFAADA1212E844E4ACB3C27FE819CCF2",1,"0198f77c-045c-7b3b-a706-a26482575d9b","0198f767-55c9-7875-8d21-563b3c0b86ed","2025-08-29_16h21.50.296",NA,NA,468.2068,468.2068,468.2068,468.5607,NA,NA,NA,NA,NA,NA,NA,TRUE,2,1.2291,465.2081,468.2066,NA,NA,NA,NA,NA,95,54,0,8,8,83,1,2,9,"binary"
"BFAADA1212E844E4ACB3C27FE819CCF2",1,"0198f77c-045c-7b3b-a706-a26482575d9b","0198f767-55c9-7875-8d21-563b3c0b86ed","2025-08-29_16h21.50.296",NA,NA,471.5611,471.5611,471.5611,471.9075,NA,NA,NA,NA,NA,NA,NA,TRUE,1,0.8373,468.5619,471.5606,NA,NA,NA,NA,NA,12,25,0,9,9,12,1,2,10,"binary"
"BFAADA1212E844E4ACB3C27FE819CCF2",1,"0198f77c-045c-7b3b-a706-a26482575d9b","0198f767-55c9-7875-8d21-563b3c0b86ed","2025-08-29_16h21.50.296",NA,NA,474.9075,474.9075,474.9075,475.2549,NA,NA,NA,NA,NA,NA,NA,TRUE,1,0.7229,471.9089,474.9075,NA,NA,NA,NA,NA,25,33,0,10,10,33,1,2,11,"binary"
"BFAADA1212E844E4ACB3C27FE819CCF2",1,"0198f77c-045c-7b3b-a706-a26482575d9b","0198f767-55c9-7875-8d21-563b3c0b86ed","2025-08-29_16h21.50.296",NA,NA,478.255,478.2551,478.2551,478.6093,NA,NA,NA,NA,NA,NA,NA,TRUE,1,0.588,475.256,478.255,NA,NA,NA,NA,NA,30,32,0,11,11,46,1,2,12,"binary"
"BFAADA1212E844E4ACB3C27FE819CCF2",1,"0198f77c-045c-7b3b-a706-a26482575d9b","0198f767-55c9-7875-8d21-563b3c0b86ed","2025-08-29_16h21.50.296",NA,NA,481.6094,481.6094,481.6095,481.9565,NA,NA,NA,NA,NA,NA,NA,TRUE,2,0.9523,478.6107,481.6092,NA,NA,NA,NA,NA,100,46,0,12,12,88,1,2,13,"binary"
"BFAADA1212E844E4ACB3C27FE819CCF2",1,"0198f77c-045c-7b3b-a706-a26482575d9b","0198f767-55c9-7875-8d21-563b3c0b86ed","2025-08-29_16h21.50.296",NA,NA,484.9565,484.9566,484.9566,485.3101,NA,NA,NA,NA,NA,NA,NA,TRUE,2,0.9765,481.9578,484.9564,NA,NA,NA,NA,NA,90,54,0,13,13,77,1,2,14,"binary"
"BFAADA1212E844E4ACB3C27FE819CCF2",1,"0198f77c-045c-7b3b-a706-a26482575d9b","0198f767-55c9-7875-8d21-563b3c0b86ed","2025-08-29_16h21.50.296",NA,NA,488.3101,488.3102,488.3102,488.6579,NA,NA,NA,NA,NA,NA,NA,TRUE,1,1.43,485.3112,488.31,NA,NA,NA,NA,NA,150,31,0,14,14,90,1,2,15,"binary"
"BFAADA1212E844E4ACB3C27FE819CCF2",1,"0198f77c-045c-7b3b-a706-a26482575d9b","0198f767-55c9-7875-8d21-563b3c0b86ed","2025-08-29_16h21.50.296",NA,NA,491.6574,491.6574,491.6574,492.0047,NA,NA,NA,NA,NA,NA,NA,TRUE,2,1.1927,488.6595,491.6572,NA,NA,NA,NA,NA,7,35,0,15,15,5,1,2,16,"binary"
"BFAADA1212E844E4ACB3C27FE819CCF2",1,"0198f77c-045c-7b3b-a706-a26482575d9b","0198f767-55c9-7875-8d21-563b3c0b86ed","2025-08-29_16h21.50.296",NA,NA,495.0046,495.0047,495.0047,495.3584,NA,NA,NA,NA,NA,NA,NA,TRUE,2,1.1827,492.0061,495.0045,NA,NA,NA,NA,NA,10,32,0,16,16,11,1,2,17,"binary"
"BFAADA1212E844E4ACB3C27FE819CCF2",1,"0198f77c-045c-7b3b-a706-a26482575d9b","0198f767-55c9-7875-8d21-563b3c0b86ed","2025-08-29_16h21.50.296",NA,NA,498.3589,498.359,498.3591,498.7058,NA,NA,NA,NA,NA,NA,NA,TRUE,2,1.0588,495.3594,498.3587,NA,NA,NA,NA,NA,12,33,0,17,17,16,1,2,18,"binary"
"BFAADA1212E844E4ACB3C27FE819CCF2",1,"0198f77c-045c-7b3b-a706-a26482575d9b","0198f767-55c9-7875-8d21-563b3c0b86ed","2025-08-29_16h21.50.296",NA,NA,501.7076,501.7076,501.7077,502.0601,NA,NA,NA,NA,NA,NA,NA,TRUE,2,0.8003,498.7071,501.7074,NA,NA,NA,NA,NA,50,54,0,18,18,65,1,2,19,"binary"
"BFAADA1212E844E4ACB3C27FE819CCF2",1,"0198f77c-045c-7b3b-a706-a26482575d9b","0198f767-55c9-7875-8d21-563b3c0b86ed","2025-08-29_16h21.50.296",NA,NA,505.0604,505.0604,505.0604,505.4072,NA,NA,NA,NA,NA,NA,NA,TRUE,1,0.9939,502.0616,505.0603,NA,NA,NA,NA,NA,21,26,0,19,19,24,1,2,20,"binary"
"BFAADA1212E844E4ACB3C27FE819CCF2",1,"0198f77c-045c-7b3b-a706-a26482575d9b","0198f767-55c9-7875-8d21-563b3c0b86ed","2025-08-29_16h21.50.296",NA,NA,508.407,508.407,508.407,508.7538,NA,NA,NA,NA,NA,NA,NA,TRUE,1,1.3313,505.409,508.4069,NA,NA,NA,NA,NA,28,28,0,20,20,37,1,2,21,"binary"
"BFAADA1212E844E4ACB3C27FE819CCF2",1,"0198f77c-045c-7b3b-a706-a26482575d9b","0198f767-55c9-7875-8d21-563b3c0b86ed","2025-08-29_16h21.50.296",NA,NA,511.7539,511.7539,511.7539,512.108,NA,NA,NA,NA,NA,NA,NA,TRUE,1,1.8065,508.755,511.7537,NA,NA,NA,NA,NA,7,28,0,21,21,2,1,2,22,"binary"
"BFAADA1212E844E4ACB3C27FE819CCF2",1,"0198f77c-045c-7b3b-a706-a26482575d9b","0198f767-55c9-7875-8d21-563b3c0b86ed","2025-08-29_16h21.50.296",NA,NA,515.1083,515.1084,515.1084,515.456,NA,NA,NA,NA,NA,NA,NA,TRUE,2,0.8458,512.1097,515.1082,NA,NA,NA,NA,NA,50,40,0,22,22,63,1,2,23,"binary"
"BFAADA1212E844E4ACB3C27FE819CCF2",1,"0198f77c-045c-7b3b-a706-a26482575d9b","0198f767-55c9-7875-8d21-563b3c0b86ed","2025-08-29_16h21.50.296",NA,NA,518.4553,518.4553,518.4553,518.8094,NA,NA,NA,NA,NA,NA,NA,TRUE,1,0.7488,515.4572,518.4551,NA,NA,NA,NA,NA,45,31,0,23,23,56,1,2,24,"binary"
"BFAADA1212E844E4ACB3C27FE819CCF2",1,"0198f77c-045c-7b3b-a706-a26482575d9b","0198f767-55c9-7875-8d21-563b3c0b86ed","2025-08-29_16h21.50.296",NA,NA,521.8111,521.8112,521.8112,522.1564,NA,NA,NA,NA,NA,NA,NA,TRUE,2,1.1618,518.8105,521.811,NA,NA,NA,NA,NA,12,35,0,24,24,17,1,2,25,"binary"
"BFAADA1212E844E4ACB3C27FE819CCF2",1,"0198f77c-045c-7b3b-a706-a26482575d9b","0198f767-55c9-7875-8d21-563b3c0b86ed","2025-08-29_16h21.50.296",NA,NA,525.1568,525.1568,525.1568,525.504,NA,NA,NA,NA,NA,NA,NA,TRUE,1,1.8154,522.1577,525.1567,NA,NA,NA,NA,NA,180,35,0,25,25,98,1,2,26,"binary"
"BFAADA1212E844E4ACB3C27FE819CCF2",1,"0198f77c-045c-7b3b-a706-a26482575d9b","0198f767-55c9-7875-8d21-563b3c0b86ed","2025-08-29_16h21.50.296",NA,NA,528.5109,528.511,528.511,528.8578,NA,NA,NA,NA,NA,NA,NA,TRUE,1,1.3266,525.5055,528.5108,NA,NA,NA,NA,NA,45,26,0,26,26,54,1,2,27,"binary"
"BFAADA1212E844E4ACB3C27FE819CCF2",1,"0198f77c-045c-7b3b-a706-a26482575d9b","0198f767-55c9-7875-8d21-563b3c0b86ed","2025-08-29_16h21.50.296",NA,NA,531.8577,531.8577,531.8577,532.205,NA,NA,NA,NA,NA,NA,NA,TRUE,1,2.1639,528.8593,531.8576,NA,NA,NA,NA,NA,40,33,0,27,27,49,1,2,28,"binary"
"BFAADA1212E844E4ACB3C27FE819CCF2",1,"0198f77c-045c-7b3b-a706-a26482575d9b","0198f767-55c9-7875-8d21-563b3c0b86ed","2025-08-29_16h21.50.296",NA,NA,535.2048,535.2048,535.2048,535.5593,NA,NA,NA,NA,NA,NA,NA,TRUE,2,0.9425,532.2061,535.2048,NA,NA,NA,NA,NA,60,40,0,28,28,69,1,2,29,"binary"
"BFAADA1212E844E4ACB3C27FE819CCF2",1,"0198f77c-045c-7b3b-a706-a26482575d9b","0198f767-55c9-7875-8d21-563b3c0b86ed","2025-08-29_16h21.50.296",NA,NA,538.5594,538.5594,538.5595,538.906,NA,NA,NA,NA,NA,NA,NA,TRUE,2,0.7363,535.5603,538.5593,NA,NA,NA,NA,NA,180,46,0,29,29,100,1,2,30,"binary"
"BFAADA1212E844E4ACB3C27FE819CCF2",1,"0198f77c-045c-7b3b-a706-a26482575d9b","0198f767-55c9-7875-8d21-563b3c0b86ed","2025-08-29_16h21.50.296",NA,NA,541.9063,541.9063,541.9063,542.2621,NA,NA,NA,NA,NA,NA,NA,TRUE,1,1.4236,538.907,541.9061,NA,NA,NA,NA,NA,60,33,0,30,30,67,1,2,31,"binary"
"BFAADA1212E844E4ACB3C27FE819CCF2",1,"0198f77c-045c-7b3b-a706-a26482575d9b","0198f767-55c9-7875-8d21-563b3c0b86ed","2025-08-29_16h21.50.296",NA,NA,545.2535,545.2535,545.2536,545.608,NA,NA,NA,NA,NA,NA,NA,TRUE,1,2.1613,542.263,545.2533,NA,NA,NA,NA,NA,100,39,0,31,31,87,1,2,32,"binary"
"BFAADA1212E844E4ACB3C27FE819CCF2",1,"0198f77c-045c-7b3b-a706-a26482575d9b","0198f767-55c9-7875-8d21-563b3c0b86ed","2025-08-29_16h21.50.296",NA,NA,548.6073,548.6074,548.6075,548.9549,NA,NA,NA,NA,NA,NA,NA,TRUE,2,1.8139,545.6093,548.6072,NA,NA,NA,NA,NA,95,33,0,32,32,79,1,2,33,"binary"
"BFAADA1212E844E4ACB3C27FE819CCF2",1,"0198f77c-045c-7b3b-a706-a26482575d9b","0198f767-55c9-7875-8d21-563b3c0b86ed","2025-08-29_16h21.50.296",NA,NA,551.9551,551.9552,551.9552,552.3093,NA,NA,NA,NA,NA,NA,NA,TRUE,2,0.8973,548.9564,551.955,NA,NA,NA,NA,NA,7,32,0,33,33,4,1,2,34,"binary"
"BFAADA1212E844E4ACB3C27FE819CCF2",1,"0198f77c-045c-7b3b-a706-a26482575d9b","0198f767-55c9-7875-8d21-563b3c0b86ed","2025-08-29_16h21.50.296",NA,NA,555.3088,555.3089,555.3089,555.6559,NA,NA,NA,NA,NA,NA,NA,TRUE,1,0.8234,552.3102,555.3086,NA,NA,NA,NA,NA,50,27,0,34,34,60,1,2,35,"binary"
"BFAADA1212E844E4ACB3C27FE819CCF2",1,"0198f77c-045c-7b3b-a706-a26482575d9b","0198f767-55c9-7875-8d21-563b3c0b86ed","2025-08-29_16h21.50.296",NA,NA,558.6584,558.6584,558.6584,559.0099,NA,NA,NA,NA,NA,NA,NA,TRUE,1,2.0042,555.6574,558.6578,NA,NA,NA,NA,NA,12,28,0,35,35,14,1,2,36,"binary"
"BFAADA1212E844E4ACB3C27FE819CCF2",1,"0198f77c-045c-7b3b-a706-a26482575d9b","0198f767-55c9-7875-8d21-563b3c0b86ed","2025-08-29_16h21.50.296",NA,NA,562.0047,562.0047,562.0047,562.3568,NA,NA,NA,NA,NA,NA,NA,TRUE,1,1.919,559.0109,562.0046,NA,NA,NA,NA,NA,100,31,0,36,36,85,1,2,37,"binary"
"BFAADA1212E844E4ACB3C27FE819CCF2",1,"0198f77c-045c-7b3b-a706-a26482575d9b","0198f767-55c9-7875-8d21-563b3c0b86ed","2025-08-29_16h21.50.296",NA,NA,565.3571,565.3571,565.3571,565.706,NA,NA,NA,NA,NA,NA,NA,TRUE,1,0.8051,562.3581,565.357,NA,NA,NA,NA,NA,30,26,0,37,37,42,1,2,38,"binary"
"BFAADA1212E844E4ACB3C27FE819CCF2",1,"0198f77c-045c-7b3b-a706-a26482575d9b","0198f767-55c9-7875-8d21-563b3c0b86ed","2025-08-29_16h21.50.296",NA,NA,568.7039,568.704,568.704,569.0583,NA,NA,NA,NA,NA,NA,NA,TRUE,2,1.0537,565.707,568.7038,NA,NA,NA,NA,NA,40,40,0,38,38,51,1,2,39,"binary"
"BFAADA1212E844E4ACB3C27FE819CCF2",1,"0198f77c-045c-7b3b-a706-a26482575d9b","0198f767-55c9-7875-8d21-563b3c0b86ed","2025-08-29_16h21.50.296",NA,NA,572.0586,572.0586,572.0587,572.4051,NA,NA,NA,NA,NA,NA,NA,TRUE,2,0.9791,569.06,572.0584,NA,NA,NA,NA,NA,14,39,0,39,39,23,1,2,40,"binary"
"BFAADA1212E844E4ACB3C27FE819CCF2",1,"0198f77c-045c-7b3b-a706-a26482575d9b","0198f767-55c9-7875-8d21-563b3c0b86ed","2025-08-29_16h21.50.296",NA,NA,575.4057,575.4057,575.4058,575.7598,NA,NA,NA,NA,NA,NA,NA,TRUE,2,1.4585,572.4068,575.4055,NA,NA,NA,NA,NA,90,46,0,40,40,76,1,2,41,"binary"
"BFAADA1212E844E4ACB3C27FE819CCF2",1,"0198f77c-045c-7b3b-a706-a26482575d9b","0198f767-55c9-7875-8d21-563b3c0b86ed","2025-08-29_16h21.50.296",NA,NA,578.7596,578.7597,578.7597,579.1064,NA,NA,NA,NA,NA,NA,NA,TRUE,2,1.2236,575.7609,578.7595,NA,NA,NA,NA,NA,150,47,0,41,41,94,1,2,42,"binary"
"BFAADA1212E844E4ACB3C27FE819CCF2",1,"0198f77c-045c-7b3b-a706-a26482575d9b","0198f767-55c9-7875-8d21-563b3c0b86ed","2025-08-29_16h21.50.296",NA,NA,582.1066,582.1066,582.1066,582.4605,NA,NA,NA,NA,NA,NA,NA,TRUE,1,1.0467,579.1079,582.1065,NA,NA,NA,NA,NA,100,26,0,42,42,84,1,2,43,"binary"
"BFAADA1212E844E4ACB3C27FE819CCF2",1,"0198f77c-045c-7b3b-a706-a26482575d9b","0198f767-55c9-7875-8d21-563b3c0b86ed","2025-08-29_16h21.50.296",NA,NA,585.4544,585.4544,585.4545,585.8082,NA,NA,NA,NA,NA,NA,NA,TRUE,1,0.8008,582.4616,585.4543,NA,NA,NA,NA,NA,21,32,0,43,43,28,1,2,44,"binary"
"BFAADA1212E844E4ACB3C27FE819CCF2",1,"0198f77c-045c-7b3b-a706-a26482575d9b","0198f767-55c9-7875-8d21-563b3c0b86ed","2025-08-29_16h21.50.296",NA,NA,588.8084,588.8085,588.8085,589.1552,NA,NA,NA,NA,NA,NA,NA,TRUE,1,1.3406,585.8097,588.8082,NA,NA,NA,NA,NA,180,39,0,44,44,99,1,2,45,"binary"
"BFAADA1212E844E4ACB3C27FE819CCF2",1,"0198f77c-045c-7b3b-a706-a26482575d9b","0198f767-55c9-7875-8d21-563b3c0b86ed","2025-08-29_16h21.50.296",NA,NA,592.1553,592.1554,592.1554,592.5092,NA,NA,NA,NA,NA,NA,NA,TRUE,1,0.7385,589.1564,592.1551,NA,NA,NA,NA,NA,10,27,0,45,45,8,1,2,46,"binary"
"BFAADA1212E844E4ACB3C27FE819CCF2",1,"0198f77c-045c-7b3b-a706-a26482575d9b","0198f767-55c9-7875-8d21-563b3c0b86ed","2025-08-29_16h21.50.296",NA,NA,595.5091,595.5091,595.5092,595.8567,NA,NA,NA,NA,NA,NA,NA,TRUE,1,2.0721,592.5105,595.5089,NA,NA,NA,NA,NA,90,33,0,46,46,74,1,2,47,"binary"
"BFAADA1212E844E4ACB3C27FE819CCF2",1,"0198f77c-045c-7b3b-a706-a26482575d9b","0198f767-55c9-7875-8d21-563b3c0b86ed","2025-08-29_16h21.50.296",NA,NA,598.8562,598.8562,598.8562,599.2103,NA,NA,NA,NA,NA,NA,NA,TRUE,2,1.0741,595.8582,598.856,NA,NA,NA,NA,NA,50,46,0,47,47,64,1,2,48,"binary"
"BFAADA1212E844E4ACB3C27FE819CCF2",1,"0198f77c-045c-7b3b-a706-a26482575d9b","0198f767-55c9-7875-8d21-563b3c0b86ed","2025-08-29_16h21.50.296",NA,NA,602.2104,602.2104,602.2105,602.5578,NA,NA,NA,NA,NA,NA,NA,TRUE,1,1.7201,599.2115,602.2104,NA,NA,NA,NA,NA,14,32,0,48,48,21,1,2,49,"binary"
"BFAADA1212E844E4ACB3C27FE819CCF2",1,"0198f77c-045c-7b3b-a706-a26482575d9b","0198f767-55c9-7875-8d21-563b3c0b86ed","2025-08-29_16h21.50.296",NA,NA,605.5578,605.5578,605.5578,605.9048,NA,NA,NA,NA,NA,NA,NA,TRUE,2,1.0525,602.5593,605.5576,NA,NA,NA,NA,NA,150,40,0,49,49,93,1,2,50,"binary"
"BFAADA1212E844E4ACB3C27FE819CCF2",1,"0198f77c-045c-7b3b-a706-a26482575d9b","0198f767-55c9-7875-8d21-563b3c0b86ed","2025-08-29_16h21.50.296",NA,NA,608.9046,608.9046,608.9046,609.2589,NA,NA,NA,NA,NA,NA,NA,TRUE,1,1.8594,605.9059,608.9045,NA,NA,NA,NA,NA,200,28,0,50,50,103,1,2,51,"binary"
"BFAADA1212E844E4ACB3C27FE819CCF2",1,"0198f77c-045c-7b3b-a706-a26482575d9b","0198f767-55c9-7875-8d21-563b3c0b86ed","2025-08-29_16h21.50.296",NA,NA,612.259,612.259,612.259,612.6064,NA,NA,NA,NA,NA,NA,NA,TRUE,1,0.9387,609.2606,612.2589,NA,NA,NA,NA,NA,21,27,0,51,51,25,1,2,52,"binary"
"BFAADA1212E844E4ACB3C27FE819CCF2",1,"0198f77c-045c-7b3b-a706-a26482575d9b","0198f767-55c9-7875-8d21-563b3c0b86ed","2025-08-29_16h21.50.296",NA,NA,615.6061,615.6061,615.6062,615.9597,NA,NA,NA,NA,NA,NA,NA,TRUE,1,0.5701,612.6078,615.6059,NA,NA,NA,NA,NA,14,26,0,52,52,19,1,2,53,"binary"
"BFAADA1212E844E4ACB3C27FE819CCF2",1,"0198f77c-045c-7b3b-a706-a26482575d9b","0198f767-55c9-7875-8d21-563b3c0b86ed","2025-08-29_16h21.50.296",NA,NA,618.96,618.96,618.96,619.3069,NA,NA,NA,NA,NA,NA,NA,TRUE,1,0.5904,615.9608,618.9599,NA,NA,NA,NA,NA,28,26,0,53,53,36,1,2,54,"binary"
"BFAADA1212E844E4ACB3C27FE819CCF2",1,"0198f77c-045c-7b3b-a706-a26482575d9b","0198f767-55c9-7875-8d21-563b3c0b86ed","2025-08-29_16h21.50.296",NA,NA,622.3078,622.3078,622.3078,622.654,NA,NA,NA,NA,NA,NA,NA,TRUE,2,0.672,619.308,622.3076,NA,NA,NA,NA,NA,40,54,0,54,54,53,1,2,55,"binary"
"BFAADA1212E844E4ACB3C27FE819CCF2",1,"0198f77c-045c-7b3b-a706-a26482575d9b","0198f767-55c9-7875-8d21-563b3c0b86ed","2025-08-29_16h21.50.296",NA,NA,625.6548,625.6548,625.6548,626.008,NA,NA,NA,NA,NA,NA,NA,TRUE,2,1.5686,622.6553,625.6546,NA,NA,NA,NA,NA,90,40,0,55,55,75,1,2,56,"binary"
"BFAADA1212E844E4ACB3C27FE819CCF2",1,"0198f77c-045c-7b3b-a706-a26482575d9b","0198f767-55c9-7875-8d21-563b3c0b86ed","2025-08-29_16h21.50.296",NA,NA,629.0086,629.0088,629.0088,629.357,NA,NA,NA,NA,NA,NA,NA,TRUE,1,0.8058,626.0093,629.0084,NA,NA,NA,NA,NA,21,29,0,56,56,26,1,2,57,"binary"
"BFAADA1212E844E4ACB3C27FE819CCF2",1,"0198f77c-045c-7b3b-a706-a26482575d9b","0198f767-55c9-7875-8d21-563b3c0b86ed","2025-08-29_16h21.50.296",NA,NA,632.3555,632.3556,632.3556,632.7097,NA,NA,NA,NA,NA,NA,NA,TRUE,1,0.9159,629.3579,632.3554,NA,NA,NA,NA,NA,150,35,0,57,57,92,1,2,58,"binary"
"BFAADA1212E844E4ACB3C27FE819CCF2",1,"0198f77c-045c-7b3b-a706-a26482575d9b","0198f767-55c9-7875-8d21-563b3c0b86ed","2025-08-29_16h21.50.296",NA,NA,635.7098,635.7098,635.7099,636.0566,NA,NA,NA,NA,NA,NA,NA,TRUE,2,1.7438,632.7113,635.7096,NA,NA,NA,NA,NA,30,38,0,58,58,47,1,2,59,"binary"
"BFAADA1212E844E4ACB3C27FE819CCF2",1,"0198f77c-045c-7b3b-a706-a26482575d9b","0198f767-55c9-7875-8d21-563b3c0b86ed","2025-08-29_16h21.50.296",NA,NA,639.0571,639.0571,639.0571,639.404,NA,NA,NA,NA,NA,NA,NA,TRUE,1,1.1722,636.058,639.0568,NA,NA,NA,NA,NA,10,29,0,59,59,9,1,2,60,"binary"
"BFAADA1212E844E4ACB3C27FE819CCF2",1,"0198f77c-045c-7b3b-a706-a26482575d9b","0198f767-55c9-7875-8d21-563b3c0b86ed","2025-08-29_16h21.50.296",NA,NA,642.4039,642.4039,642.4039,642.7581,NA,NA,NA,NA,NA,NA,NA,TRUE,2,1.6177,639.4055,642.4038,NA,NA,NA,NA,NA,200,47,0,60,60,106,1,2,61,"binary"
"BFAADA1212E844E4ACB3C27FE819CCF2",1,"0198f77c-045c-7b3b-a706-a26482575d9b","0198f767-55c9-7875-8d21-563b3c0b86ed","2025-08-29_16h21.50.296",NA,NA,645.7578,645.7578,645.7578,646.1069,NA,NA,NA,NA,NA,NA,NA,TRUE,1,1.9499,642.7595,645.7577,NA,NA,NA,NA,NA,45,40,0,61,61,58,1,2,62,"binary"
"BFAADA1212E844E4ACB3C27FE819CCF2",1,"0198f77c-045c-7b3b-a706-a26482575d9b","0198f767-55c9-7875-8d21-563b3c0b86ed","2025-08-29_16h21.50.296",NA,NA,649.105,649.1051,649.1051,649.4595,NA,NA,NA,NA,NA,NA,NA,TRUE,2,1.2861,646.1082,649.1048,NA,NA,NA,NA,NA,95,47,0,62,62,82,1,2,63,"binary"
"BFAADA1212E844E4ACB3C27FE819CCF2",1,"0198f77c-045c-7b3b-a706-a26482575d9b","0198f767-55c9-7875-8d21-563b3c0b86ed","2025-08-29_16h21.50.296",NA,NA,652.4591,652.4592,652.4592,652.806,NA,NA,NA,NA,NA,NA,NA,TRUE,2,1.9037,649.4607,652.4589,NA,NA,NA,NA,NA,100,38,0,63,63,86,1,2,64,"binary"
"BFAADA1212E844E4ACB3C27FE819CCF2",1,"0198f77c-045c-7b3b-a706-a26482575d9b","0198f767-55c9-7875-8d21-563b3c0b86ed","2025-08-29_16h21.50.296",NA,NA,655.8061,655.8061,655.8061,656.1602,NA,NA,NA,NA,NA,NA,NA,TRUE,1,1.1612,652.8071,655.806,NA,NA,NA,NA,NA,7,25,0,64,64,0,1,2,65,"binary"
"BFAADA1212E844E4ACB3C27FE819CCF2",1,"0198f77c-045c-7b3b-a706-a26482575d9b","0198f767-55c9-7875-8d21-563b3c0b86ed","2025-08-29_16h21.50.296",NA,NA,659.1608,659.1608,659.1609,659.5076,NA,NA,NA,NA,NA,NA,NA,TRUE,1,0.8657,656.1612,659.1607,NA,NA,NA,NA,NA,90,26,0,65,65,72,1,2,66,"binary"
"BFAADA1212E844E4ACB3C27FE819CCF2",1,"0198f77c-045c-7b3b-a706-a26482575d9b","0198f767-55c9-7875-8d21-563b3c0b86ed","2025-08-29_16h21.50.296",NA,NA,662.5073,662.5074,662.5074,662.8548,NA,NA,NA,NA,NA,NA,NA,TRUE,1,0.4702,659.5092,662.5072,NA,NA,NA,NA,NA,60,29,0,66,66,66,1,2,67,"binary"
"BFAADA1212E844E4ACB3C27FE819CCF2",1,"0198f77c-045c-7b3b-a706-a26482575d9b","0198f767-55c9-7875-8d21-563b3c0b86ed","2025-08-29_16h21.50.296",NA,NA,665.8544,665.8544,665.8544,666.2091,NA,NA,NA,NA,NA,NA,NA,TRUE,1,1.2825,662.8561,665.8544,NA,NA,NA,NA,NA,150,33,0,67,67,91,1,2,68,"binary"
"BFAADA1212E844E4ACB3C27FE819CCF2",1,"0198f77c-045c-7b3b-a706-a26482575d9b","0198f767-55c9-7875-8d21-563b3c0b86ed","2025-08-29_16h21.50.296",NA,NA,669.209,669.209,669.209,669.5561,NA,NA,NA,NA,NA,NA,NA,TRUE,2,1.9702,666.2108,669.2088,NA,NA,NA,NA,NA,28,39,0,68,68,40,1,2,69,"binary"
"BFAADA1212E844E4ACB3C27FE819CCF2",1,"0198f77c-045c-7b3b-a706-a26482575d9b","0198f767-55c9-7875-8d21-563b3c0b86ed","2025-08-29_16h21.50.296",NA,NA,672.5555,672.5555,672.5555,672.9102,NA,NA,NA,NA,NA,NA,NA,TRUE,1,1.7756,669.5574,672.5555,NA,NA,NA,NA,NA,60,35,0,69,69,68,1,2,70,"binary"
"BFAADA1212E844E4ACB3C27FE819CCF2",1,"0198f77c-045c-7b3b-a706-a26482575d9b","0198f767-55c9-7875-8d21-563b3c0b86ed","2025-08-29_16h21.50.296",NA,NA,675.9099,675.9099,675.9099,676.257,NA,NA,NA,NA,NA,NA,NA,TRUE,2,1.4844,672.9116,675.9098,NA,NA,NA,NA,NA,28,46,0,70,70,41,1,2,71,"binary"
"BFAADA1212E844E4ACB3C27FE819CCF2",1,"0198f77c-045c-7b3b-a706-a26482575d9b","0198f767-55c9-7875-8d21-563b3c0b86ed","2025-08-29_16h21.50.296",NA,NA,679.2587,679.2588,679.2588,679.604,NA,NA,NA,NA,NA,NA,NA,TRUE,1,0.9571,676.2588,679.2586,NA,NA,NA,NA,NA,45,35,0,71,71,57,1,2,72,"binary"
"BFAADA1212E844E4ACB3C27FE819CCF2",1,"0198f77c-045c-7b3b-a706-a26482575d9b","0198f767-55c9-7875-8d21-563b3c0b86ed","2025-08-29_16h21.50.296",NA,NA,682.6057,682.6057,682.6057,682.959,NA,NA,NA,NA,NA,NA,NA,TRUE,1,0.637,679.6053,682.6056,NA,NA,NA,NA,NA,40,27,0,72,72,48,1,2,73,"binary"
"BFAADA1212E844E4ACB3C27FE819CCF2",1,"0198f77c-045c-7b3b-a706-a26482575d9b","0198f767-55c9-7875-8d21-563b3c0b86ed","2025-08-29_16h21.50.296",NA,NA,685.9586,685.9587,685.9587,686.3055,NA,NA,NA,NA,NA,NA,NA,TRUE,1,1.9679,682.9603,685.9584,NA,NA,NA,NA,NA,40,35,0,73,73,50,1,2,74,"binary"
"BFAADA1212E844E4ACB3C27FE819CCF2",1,"0198f77c-045c-7b3b-a706-a26482575d9b","0198f767-55c9-7875-8d21-563b3c0b86ed","2025-08-29_16h21.50.296",NA,NA,689.3054,689.3055,689.3055,689.6596,NA,NA,NA,NA,NA,NA,NA,TRUE,1,0.5895,686.3064,689.3053,NA,NA,NA,NA,NA,10,26,0,74,74,7,1,2,75,"binary"
"BFAADA1212E844E4ACB3C27FE819CCF2",1,"0198f77c-045c-7b3b-a706-a26482575d9b","0198f767-55c9-7875-8d21-563b3c0b86ed","2025-08-29_16h21.50.296",NA,NA,692.6603,692.6603,692.6603,693.0068,NA,NA,NA,NA,NA,NA,NA,TRUE,2,0.6251,689.6608,692.6602,NA,NA,NA,NA,NA,100,54,0,75,75,89,1,2,76,"binary"
"BFAADA1212E844E4ACB3C27FE819CCF2",1,"0198f77c-045c-7b3b-a706-a26482575d9b","0198f767-55c9-7875-8d21-563b3c0b86ed","2025-08-29_16h21.50.296",NA,NA,696.0071,696.0071,696.0071,696.3608,NA,NA,NA,NA,NA,NA,NA,TRUE,1,0.658,693.0086,696.007,NA,NA,NA,NA,NA,12,31,0,76,76,15,1,2,77,"binary"
"BFAADA1212E844E4ACB3C27FE819CCF2",1,"0198f77c-045c-7b3b-a706-a26482575d9b","0198f767-55c9-7875-8d21-563b3c0b86ed","2025-08-29_16h21.50.296",NA,NA,699.361,699.361,699.361,699.7077,NA,NA,NA,NA,NA,NA,NA,TRUE,1,0.5086,696.3619,699.3608,NA,NA,NA,NA,NA,200,26,0,77,77,102,1,2,78,"binary"
"BFAADA1212E844E4ACB3C27FE819CCF2",1,"0198f77c-045c-7b3b-a706-a26482575d9b","0198f767-55c9-7875-8d21-563b3c0b86ed","2025-08-29_16h21.50.296",NA,NA,702.7083,702.7083,702.7083,703.0553,NA,NA,NA,NA,NA,NA,NA,TRUE,2,2.6335,699.7091,702.7081,NA,NA,NA,NA,NA,200,39,0,78,78,105,1,2,79,"binary"
"BFAADA1212E844E4ACB3C27FE819CCF2",1,"0198f77c-045c-7b3b-a706-a26482575d9b","0198f767-55c9-7875-8d21-563b3c0b86ed","2025-08-29_16h21.50.296",NA,NA,706.0554,706.0554,706.0554,706.4091,NA,NA,NA,NA,NA,NA,NA,TRUE,1,1.1945,703.0567,706.0552,NA,NA,NA,NA,NA,95,40,0,79,79,81,1,2,80,"binary"
"BFAADA1212E844E4ACB3C27FE819CCF2",1,"0198f77c-045c-7b3b-a706-a26482575d9b","0198f767-55c9-7875-8d21-563b3c0b86ed","2025-08-29_16h21.50.296",NA,NA,709.409,709.4091,709.4091,709.7566,NA,NA,NA,NA,NA,NA,NA,TRUE,1,0.7882,706.4101,709.4088,NA,NA,NA,NA,NA,10,25,0,80,80,6,1,2,81,"binary"
"BFAADA1212E844E4ACB3C27FE819CCF2",1,"0198f77c-045c-7b3b-a706-a26482575d9b","0198f767-55c9-7875-8d21-563b3c0b86ed","2025-08-29_16h21.50.296",NA,NA,712.7566,712.7567,712.7567,713.1121,NA,NA,NA,NA,NA,NA,NA,TRUE,2,0.6923,709.7582,712.7564,NA,NA,NA,NA,NA,60,47,0,81,81,70,1,2,82,"binary"
"BFAADA1212E844E4ACB3C27FE819CCF2",1,"0198f77c-045c-7b3b-a706-a26482575d9b","0198f767-55c9-7875-8d21-563b3c0b86ed","2025-08-29_16h21.50.296",NA,NA,716.105,716.105,716.105,716.4578,NA,NA,NA,NA,NA,NA,NA,TRUE,2,0.8146,713.1131,716.1049,NA,NA,NA,NA,NA,40,47,0,82,82,52,1,2,83,"binary"
"BFAADA1212E844E4ACB3C27FE819CCF2",1,"0198f77c-045c-7b3b-a706-a26482575d9b","0198f767-55c9-7875-8d21-563b3c0b86ed","2025-08-29_16h21.50.296",NA,NA,719.4573,719.4573,719.4574,719.8045,NA,NA,NA,NA,NA,NA,NA,TRUE,1,0.6371,716.4591,719.4572,NA,NA,NA,NA,NA,14,28,0,83,83,20,1,2,84,"binary"
"BFAADA1212E844E4ACB3C27FE819CCF2",1,"0198f77c-045c-7b3b-a706-a26482575d9b","0198f767-55c9-7875-8d21-563b3c0b86ed","2025-08-29_16h21.50.296",NA,NA,722.8048,722.8048,722.8048,723.1591,NA,NA,NA,NA,NA,NA,NA,TRUE,2,1.1744,719.8057,722.8046,NA,NA,NA,NA,NA,25,46,0,84,84,35,1,2,85,"binary"
"BFAADA1212E844E4ACB3C27FE819CCF2",1,"0198f77c-045c-7b3b-a706-a26482575d9b","0198f767-55c9-7875-8d21-563b3c0b86ed","2025-08-29_16h21.50.296",NA,NA,726.1593,726.1594,726.1594,726.5057,NA,NA,NA,NA,NA,NA,NA,TRUE,1,1.2012,723.1603,726.159,NA,NA,NA,NA,NA,90,30,0,85,85,73,1,2,86,"binary"
"BFAADA1212E844E4ACB3C27FE819CCF2",1,"0198f77c-045c-7b3b-a706-a26482575d9b","0198f767-55c9-7875-8d21-563b3c0b86ed","2025-08-29_16h21.50.296",NA,NA,729.506,729.506,729.506,729.8598,NA,NA,NA,NA,NA,NA,NA,TRUE,1,1.5419,726.5066,729.5059,NA,NA,NA,NA,NA,10,30,0,86,86,10,1,2,87,"binary"
"BFAADA1212E844E4ACB3C27FE819CCF2",1,"0198f77c-045c-7b3b-a706-a26482575d9b","0198f767-55c9-7875-8d21-563b3c0b86ed","2025-08-29_16h21.50.296",NA,NA,732.8602,732.8603,732.8604,733.2073,NA,NA,NA,NA,NA,NA,NA,TRUE,2,1.1415,729.861,732.8601,NA,NA,NA,NA,NA,200,54,0,87,87,107,1,2,88,"binary"
"BFAADA1212E844E4ACB3C27FE819CCF2",1,"0198f77c-045c-7b3b-a706-a26482575d9b","0198f767-55c9-7875-8d21-563b3c0b86ed","2025-08-29_16h21.50.296",NA,NA,736.2074,736.2075,736.2075,736.5543,NA,NA,NA,NA,NA,NA,NA,TRUE,2,1.7136,733.209,736.2073,NA,NA,NA,NA,NA,25,35,0,88,88,34,1,2,89,"binary"
"BFAADA1212E844E4ACB3C27FE819CCF2",1,"0198f77c-045c-7b3b-a706-a26482575d9b","0198f767-55c9-7875-8d21-563b3c0b86ed","2025-08-29_16h21.50.296",NA,NA,739.5544,739.5544,739.5544,739.9081,NA,NA,NA,NA,NA,NA,NA,TRUE,1,1.3131,736.5555,739.5543,NA,NA,NA,NA,NA,12,26,0,89,89,13,1,2,90,"binary"
"BFAADA1212E844E4ACB3C27FE819CCF2",1,"0198f77c-045c-7b3b-a706-a26482575d9b","0198f767-55c9-7875-8d21-563b3c0b86ed","2025-08-29_16h21.50.296",NA,NA,742.9085,742.9085,742.9085,743.2564,NA,NA,NA,NA,NA,NA,NA,TRUE,1,1.6186,739.9093,742.9083,NA,NA,NA,NA,NA,30,30,0,90,90,45,1,2,91,"binary"
"BFAADA1212E844E4ACB3C27FE819CCF2",1,"0198f77c-045c-7b3b-a706-a26482575d9b","0198f767-55c9-7875-8d21-563b3c0b86ed","2025-08-29_16h21.50.296",NA,NA,746.2559,746.2559,746.2559,746.6096,NA,NA,NA,NA,NA,NA,NA,TRUE,1,1.0716,743.258,746.2556,NA,NA,NA,NA,NA,180,31,0,91,91,97,1,2,92,"binary"
"BFAADA1212E844E4ACB3C27FE819CCF2",1,"0198f77c-045c-7b3b-a706-a26482575d9b","0198f767-55c9-7875-8d21-563b3c0b86ed","2025-08-29_16h21.50.296",NA,NA,749.6093,749.6094,749.6094,749.9565,NA,NA,NA,NA,NA,NA,NA,TRUE,1,0.7643,746.611,749.6092,NA,NA,NA,NA,NA,30,29,0,92,92,44,1,2,93,"binary"
"BFAADA1212E844E4ACB3C27FE819CCF2",1,"0198f77c-045c-7b3b-a706-a26482575d9b","0198f767-55c9-7875-8d21-563b3c0b86ed","2025-08-29_16h21.50.296",NA,NA,752.9582,752.9582,752.9582,753.304,NA,NA,NA,NA,NA,NA,NA,TRUE,2,0.9668,749.9579,752.9581,NA,NA,NA,NA,NA,60,54,0,93,93,71,1,2,94,"binary"
"BFAADA1212E844E4ACB3C27FE819CCF2",1,"0198f77c-045c-7b3b-a706-a26482575d9b","0198f767-55c9-7875-8d21-563b3c0b86ed","2025-08-29_16h21.50.296",NA,NA,756.3057,756.3057,756.3057,756.6582,NA,NA,NA,NA,NA,NA,NA,TRUE,1,0.8791,753.3054,756.3056,NA,NA,NA,NA,NA,14,25,0,94,94,18,1,2,95,"binary"
"BFAADA1212E844E4ACB3C27FE819CCF2",1,"0198f77c-045c-7b3b-a706-a26482575d9b","0198f767-55c9-7875-8d21-563b3c0b86ed","2025-08-29_16h21.50.296",NA,NA,759.6581,759.6582,759.6582,760.0054,NA,NA,NA,NA,NA,NA,NA,TRUE,1,1.1924,756.6595,759.658,NA,NA,NA,NA,NA,7,26,0,95,95,1,1,2,96,"binary"
"BFAADA1212E844E4ACB3C27FE819CCF2",1,"0198f77c-045c-7b3b-a706-a26482575d9b","0198f767-55c9-7875-8d21-563b3c0b86ed","2025-08-29_16h21.50.296",NA,NA,763.0053,763.0054,763.0054,763.3597,NA,NA,NA,NA,NA,NA,NA,TRUE,1,1.2778,760.0069,763.0052,NA,NA,NA,NA,NA,30,27,0,96,96,43,1,2,97,"binary"
"BFAADA1212E844E4ACB3C27FE819CCF2",1,"0198f77c-045c-7b3b-a706-a26482575d9b","0198f767-55c9-7875-8d21-563b3c0b86ed","2025-08-29_16h21.50.296",NA,NA,766.3594,766.3595,766.3595,766.7064,NA,NA,NA,NA,NA,NA,NA,TRUE,2,0.899,763.3614,766.3593,NA,NA,NA,NA,NA,150,54,0,97,97,95,1,2,98,"binary"
"BFAADA1212E844E4ACB3C27FE819CCF2",1,"0198f77c-045c-7b3b-a706-a26482575d9b","0198f767-55c9-7875-8d21-563b3c0b86ed","2025-08-29_16h21.50.296",NA,NA,769.7063,769.7064,769.7064,770.0535,NA,NA,NA,NA,NA,NA,NA,TRUE,1,0.8247,766.7078,769.7063,NA,NA,NA,NA,NA,7,30,0,98,98,3,1,2,99,"binary"
"BFAADA1212E844E4ACB3C27FE819CCF2",1,"0198f77c-045c-7b3b-a706-a26482575d9b","0198f767-55c9-7875-8d21-563b3c0b86ed","2025-08-29_16h21.50.296",NA,NA,773.0605,773.0606,773.0606,773.4072,NA,NA,NA,NA,NA,NA,NA,TRUE,1,1.0515,770.0548,773.0604,NA,NA,NA,NA,NA,50,30,0,99,99,61,1,2,100,"binary"
"BFAADA1212E844E4ACB3C27FE819CCF2",1,"0198f77c-045c-7b3b-a706-a26482575d9b","0198f767-55c9-7875-8d21-563b3c0b86ed","2025-08-29_16h21.50.296",NA,NA,776.4074,776.4075,776.4075,776.7551,NA,NA,NA,NA,NA,NA,NA,TRUE,1,1.2441,773.4084,776.4073,NA,NA,NA,NA,NA,95,35,0,100,100,80,1,2,101,"binary"
"BFAADA1212E844E4ACB3C27FE819CCF2",1,"0198f77c-045c-7b3b-a706-a26482575d9b","0198f767-55c9-7875-8d21-563b3c0b86ed","2025-08-29_16h21.50.296",NA,NA,779.7549,779.7549,779.7549,780.1095,NA,NA,NA,NA,NA,NA,NA,TRUE,2,0.897,776.7563,779.7548,NA,NA,NA,NA,NA,45,46,0,101,101,59,1,2,102,"binary"
"BFAADA1212E844E4ACB3C27FE819CCF2",1,"0198f77c-045c-7b3b-a706-a26482575d9b","0198f767-55c9-7875-8d21-563b3c0b86ed","2025-08-29_16h21.50.296",NA,NA,783.1093,783.1093,783.1093,783.4563,NA,NA,NA,NA,NA,NA,NA,TRUE,1,1.41,780.1109,783.1091,NA,NA,NA,NA,NA,25,29,0,102,102,31,1,2,103,"binary"
"BFAADA1212E844E4ACB3C27FE819CCF2",1,"0198f77c-045c-7b3b-a706-a26482575d9b","0198f767-55c9-7875-8d21-563b3c0b86ed","2025-08-29_16h21.50.296",NA,NA,786.4563,786.4563,786.4563,786.8098,NA,NA,NA,NA,NA,NA,NA,TRUE,1,2.0607,783.458,786.4562,NA,NA,NA,NA,NA,25,31,0,103,103,32,1,2,104,"binary"
"BFAADA1212E844E4ACB3C27FE819CCF2",1,"0198f77c-045c-7b3b-a706-a26482575d9b","0198f767-55c9-7875-8d21-563b3c0b86ed","2025-08-29_16h21.50.296",NA,NA,789.8099,789.81,789.81,790.1574,NA,NA,NA,NA,NA,NA,NA,TRUE,2,0.9741,786.8111,789.8098,NA,NA,NA,NA,NA,180,54,0,104,104,101,1,2,105,"binary"
"BFAADA1212E844E4ACB3C27FE819CCF2",1,"0198f77c-045c-7b3b-a706-a26482575d9b","0198f767-55c9-7875-8d21-563b3c0b86ed","2025-08-29_16h21.50.296",NA,NA,793.1574,793.1574,793.1574,793.5043,NA,NA,NA,NA,NA,NA,NA,TRUE,2,1.5247,790.1587,793.1573,NA,NA,NA,NA,NA,21,38,0,105,105,29,1,2,106,"binary"
"BFAADA1212E844E4ACB3C27FE819CCF2",1,"0198f77c-045c-7b3b-a706-a26482575d9b","0198f767-55c9-7875-8d21-563b3c0b86ed","2025-08-29_16h21.50.296",NA,NA,796.5045,796.5046,796.5046,796.856,NA,NA,NA,NA,NA,NA,NA,TRUE,1,1.4021,793.5057,796.5043,NA,NA,NA,NA,NA,180,27,0,106,106,96,1,2,107,"binary"
"BFAADA1212E844E4ACB3C27FE819CCF2",1,"0198f77c-045c-7b3b-a706-a26482575d9b","0198f767-55c9-7875-8d21-563b3c0b86ed","2025-08-29_16h21.50.296",NA,NA,799.8549,799.8549,799.8549,800.2055,NA,NA,NA,NA,NA,NA,NA,TRUE,1,1.6084,796.857,799.8548,NA,NA,NA,NA,NA,95,31,0,107,107,78,1,2,108,"binary"
