"participant","session","assignmentId","projectId","date","practiceTrial.started","practiceTrial.stopped","tooLate.started","tooLate.stopped","blank.started","blank.stopped","trials_pract.thisRepN","trials_pract.thisTrialN","trials_pract.thisN","trials_pract.thisIndex","trials_pract.ran","delay_pract","amount_pract","responseMade","key","rt","trial.started","trial.stopped","trials.thisRepN","trials.thisTrialN","trials.thisN","trials.thisIndex","trials.ran","delay","amount","trials_2.thisRepN","trials_2.thisTrialN","trials_2.thisN","trials_2.thisIndex","trials_2.ran","block","trial","taskType"
"CEC4E0F433B4495E8CA266915FE46705",1,"01990a9a-efb7-7e96-ac48-a1902c4bf740","01990a83-7673-7c0c-a792-bbd8fbbaf673","2025-09-02_09h26.07.410",30.0611,32.9868,32.9887,33.2363,33.2366,33.3359,0,0,0,0,1,7,30,FALSE,NA,NA,NA,NA,NA,NA,NA,NA,NA,NA,NA,NA,NA,NA,NA,NA,0,1,"binary"
"CEC4E0F433B4495E8CA266915FE46705",1,"01990a9a-efb7-7e96-ac48-a1902c4bf740","01990a83-7673-7c0c-a792-bbd8fbbaf673","2025-09-02_09h26.07.410",33.3421,36.3332,36.3335,36.3336,36.3336,36.6831,0,1,1,4,1,30,40,TRUE,2,1.4772,NA,NA,NA,NA,NA,NA,NA,NA,NA,NA,NA,NA,NA,NA,0,2,"binary"
"CEC4E0F433B4495E8CA266915FE46705",1,"01990a9a-efb7-7e96-ac48-a1902c4bf740","01990a83-7673-7c0c-a792-bbd8fbbaf673","2025-09-02_09h26.07.410",36.6879,39.6794,39.6795,39.6796,39.6796,40.0291,0,2,2,3,1,3,27,TRUE,1,1.8047,NA,NA,NA,NA,NA,NA,NA,NA,NA,NA,NA,NA,NA,NA,0,3,"binary"
"CEC4E0F433B4495E8CA266915FE46705",1,"01990a9a-efb7-7e96-ac48-a1902c4bf740","01990a83-7673-7c0c-a792-bbd8fbbaf673","2025-09-02_09h26.07.410",40.0303,43.044,43.0443,43.0444,43.0444,43.3937,0,3,3,1,1,100,50,TRUE,2,0.899,NA,NA,NA,NA,NA,NA,NA,NA,NA,NA,NA,NA,NA,NA,0,4,"binary"
"CEC4E0F433B4495E8CA266915FE46705",1,"01990a9a-efb7-7e96-ac48-a1902c4bf740","01990a83-7673-7c0c-a792-bbd8fbbaf673","2025-09-02_09h26.07.410",43.3986,46.3913,46.3915,46.3917,46.3917,46.7411,0,4,4,2,1,14,45,TRUE,2,1.2909,NA,NA,NA,NA,NA,NA,NA,NA,NA,NA,NA,NA,NA,NA,0,5,"binary"
"CEC4E0F433B4495E8CA266915FE46705",1,"01990a9a-efb7-7e96-ac48-a1902c4bf740","01990a83-7673-7c0c-a792-bbd8fbbaf673","2025-09-02_09h26.07.410",NA,NA,68.4066,68.407,68.4072,68.7553,NA,NA,NA,NA,NA,NA,NA,TRUE,1,1.1186,65.4277,68.4057,0,0,0,90,1,150,31,NA,NA,NA,NA,NA,1,1,"binary"
"CEC4E0F433B4495E8CA266915FE46705",1,"01990a9a-efb7-7e96-ac48-a1902c4bf740","01990a83-7673-7c0c-a792-bbd8fbbaf673","2025-09-02_09h26.07.410",NA,NA,71.7521,71.7522,71.7522,72.1017,NA,NA,NA,NA,NA,NA,NA,TRUE,2,1.6704,68.7632,71.7519,0,1,1,23,1,14,39,NA,NA,NA,NA,NA,1,2,"binary"
"CEC4E0F433B4495E8CA266915FE46705",1,"01990a9a-efb7-7e96-ac48-a1902c4bf740","01990a83-7673-7c0c-a792-bbd8fbbaf673","2025-09-02_09h26.07.410",NA,NA,75.0996,75.0996,75.0997,75.4492,NA,NA,NA,NA,NA,NA,NA,TRUE,1,1.8289,72.1068,75.0993,0,2,2,38,1,28,32,NA,NA,NA,NA,NA,1,3,"binary"
"CEC4E0F433B4495E8CA266915FE46705",1,"01990a9a-efb7-7e96-ac48-a1902c4bf740","01990a83-7673-7c0c-a792-bbd8fbbaf673","2025-09-02_09h26.07.410",NA,NA,78.4469,78.4471,78.4471,78.7961,NA,NA,NA,NA,NA,NA,NA,TRUE,1,1.6232,75.4548,78.4467,0,3,3,84,1,100,26,NA,NA,NA,NA,NA,1,4,"binary"
"CEC4E0F433B4495E8CA266915FE46705",1,"01990a9a-efb7-7e96-ac48-a1902c4bf740","01990a83-7673-7c0c-a792-bbd8fbbaf673","2025-09-02_09h26.07.410",NA,NA,81.8097,81.8097,81.8097,82.159,NA,NA,NA,NA,NA,NA,NA,TRUE,2,1.3013,78.8008,81.8096,0,4,4,52,1,40,47,NA,NA,NA,NA,NA,1,5,"binary"
"CEC4E0F433B4495E8CA266915FE46705",1,"01990a9a-efb7-7e96-ac48-a1902c4bf740","01990a83-7673-7c0c-a792-bbd8fbbaf673","2025-09-02_09h26.07.410",NA,NA,85.1576,85.1578,85.1578,85.5073,NA,NA,NA,NA,NA,NA,NA,TRUE,1,1.5131,82.161,85.1574,0,5,5,74,1,90,33,NA,NA,NA,NA,NA,1,6,"binary"
"CEC4E0F433B4495E8CA266915FE46705",1,"01990a9a-efb7-7e96-ac48-a1902c4bf740","01990a83-7673-7c0c-a792-bbd8fbbaf673","2025-09-02_09h26.07.410",NA,NA,88.5046,88.5047,88.5047,88.8535,NA,NA,NA,NA,NA,NA,NA,TRUE,2,2.4807,85.5113,88.5043,0,6,6,69,1,60,40,NA,NA,NA,NA,NA,1,7,"binary"
"CEC4E0F433B4495E8CA266915FE46705",1,"01990a9a-efb7-7e96-ac48-a1902c4bf740","01990a83-7673-7c0c-a792-bbd8fbbaf673","2025-09-02_09h26.07.410",NA,NA,91.8514,91.8516,91.8517,92.2009,NA,NA,NA,NA,NA,NA,NA,TRUE,2,2.3828,88.8565,91.8511,0,7,7,89,1,100,54,NA,NA,NA,NA,NA,1,8,"binary"
"CEC4E0F433B4495E8CA266915FE46705",1,"01990a9a-efb7-7e96-ac48-a1902c4bf740","01990a83-7673-7c0c-a792-bbd8fbbaf673","2025-09-02_09h26.07.410",NA,NA,95.1989,95.199,95.1992,95.5479,NA,NA,NA,NA,NA,NA,NA,TRUE,2,2.0498,92.2042,95.1986,0,8,8,53,1,40,54,NA,NA,NA,NA,NA,1,9,"binary"
"CEC4E0F433B4495E8CA266915FE46705",1,"01990a9a-efb7-7e96-ac48-a1902c4bf740","01990a83-7673-7c0c-a792-bbd8fbbaf673","2025-09-02_09h26.07.410",NA,NA,98.5448,98.5449,98.5449,98.8955,NA,NA,NA,NA,NA,NA,NA,TRUE,1,1.4224,95.5515,98.5448,0,9,9,48,1,40,27,NA,NA,NA,NA,NA,1,10,"binary"
"CEC4E0F433B4495E8CA266915FE46705",1,"01990a9a-efb7-7e96-ac48-a1902c4bf740","01990a83-7673-7c0c-a792-bbd8fbbaf673","2025-09-02_09h26.07.410",NA,NA,101.9087,101.9087,101.9088,102.2591,NA,NA,NA,NA,NA,NA,NA,TRUE,2,1.1756,98.8994,101.9085,0,10,10,41,1,28,46,NA,NA,NA,NA,NA,1,11,"binary"
"CEC4E0F433B4495E8CA266915FE46705",1,"01990a9a-efb7-7e96-ac48-a1902c4bf740","01990a83-7673-7c0c-a792-bbd8fbbaf673","2025-09-02_09h26.07.410",NA,NA,105.2566,105.2567,105.2567,105.6056,NA,NA,NA,NA,NA,NA,NA,TRUE,1,2.0624,102.2629,105.2563,0,11,11,68,1,60,35,NA,NA,NA,NA,NA,1,12,"binary"
"CEC4E0F433B4495E8CA266915FE46705",1,"01990a9a-efb7-7e96-ac48-a1902c4bf740","01990a83-7673-7c0c-a792-bbd8fbbaf673","2025-09-02_09h26.07.410",NA,NA,108.6039,108.604,108.6041,108.9533,NA,NA,NA,NA,NA,NA,NA,TRUE,1,2.0089,105.6097,108.6036,0,12,12,103,1,200,28,NA,NA,NA,NA,NA,1,13,"binary"
"CEC4E0F433B4495E8CA266915FE46705",1,"01990a9a-efb7-7e96-ac48-a1902c4bf740","01990a83-7673-7c0c-a792-bbd8fbbaf673","2025-09-02_09h26.07.410",NA,NA,111.9499,111.95,111.95,112.3005,NA,NA,NA,NA,NA,NA,NA,TRUE,2,1.5192,108.9565,111.9499,0,13,13,65,1,50,54,NA,NA,NA,NA,NA,1,14,"binary"
"CEC4E0F433B4495E8CA266915FE46705",1,"01990a9a-efb7-7e96-ac48-a1902c4bf740","01990a83-7673-7c0c-a792-bbd8fbbaf673","2025-09-02_09h26.07.410",NA,NA,115.2979,115.298,115.298,115.6465,NA,NA,NA,NA,NA,NA,NA,TRUE,1,1.7062,112.3052,115.2976,0,14,14,80,1,95,35,NA,NA,NA,NA,NA,1,15,"binary"
"CEC4E0F433B4495E8CA266915FE46705",1,"01990a9a-efb7-7e96-ac48-a1902c4bf740","01990a83-7673-7c0c-a792-bbd8fbbaf673","2025-09-02_09h26.07.410",NA,NA,118.6453,118.6454,118.6454,119.0117,NA,NA,NA,NA,NA,NA,NA,TRUE,2,2.0663,115.6492,118.645,0,15,15,17,1,12,35,NA,NA,NA,NA,NA,1,16,"binary"
"CEC4E0F433B4495E8CA266915FE46705",1,"01990a9a-efb7-7e96-ac48-a1902c4bf740","01990a83-7673-7c0c-a792-bbd8fbbaf673","2025-09-02_09h26.07.410",NA,NA,122.0085,122.0086,122.0086,122.3579,NA,NA,NA,NA,NA,NA,NA,TRUE,2,1.6777,119.0159,122.0082,0,16,16,77,1,90,54,NA,NA,NA,NA,NA,1,17,"binary"
"CEC4E0F433B4495E8CA266915FE46705",1,"01990a9a-efb7-7e96-ac48-a1902c4bf740","01990a83-7673-7c0c-a792-bbd8fbbaf673","2025-09-02_09h26.07.410",NA,NA,125.3557,125.3558,125.3558,125.7058,NA,NA,NA,NA,NA,NA,NA,TRUE,1,1.9138,122.3615,125.3554,0,17,17,49,1,40,33,NA,NA,NA,NA,NA,1,18,"binary"
"CEC4E0F433B4495E8CA266915FE46705",1,"01990a9a-efb7-7e96-ac48-a1902c4bf740","01990a83-7673-7c0c-a792-bbd8fbbaf673","2025-09-02_09h26.07.410",NA,NA,128.7034,128.7034,128.7036,129.0523,NA,NA,NA,NA,NA,NA,NA,TRUE,2,1.7098,125.7098,128.7026,0,18,18,4,1,7,32,NA,NA,NA,NA,NA,1,19,"binary"
"CEC4E0F433B4495E8CA266915FE46705",1,"01990a9a-efb7-7e96-ac48-a1902c4bf740","01990a83-7673-7c0c-a792-bbd8fbbaf673","2025-09-02_09h26.07.410",NA,NA,132.05,132.0502,132.0502,132.3996,NA,NA,NA,NA,NA,NA,NA,TRUE,1,1.4614,129.0558,132.0497,0,19,19,91,1,150,33,NA,NA,NA,NA,NA,1,20,"binary"
"CEC4E0F433B4495E8CA266915FE46705",1,"01990a9a-efb7-7e96-ac48-a1902c4bf740","01990a83-7673-7c0c-a792-bbd8fbbaf673","2025-09-02_09h26.07.410",NA,NA,135.3972,135.3972,135.3972,135.7464,NA,NA,NA,NA,NA,NA,NA,TRUE,1,2.3254,132.4046,135.3969,0,20,20,85,1,100,31,NA,NA,NA,NA,NA,1,21,"binary"
"CEC4E0F433B4495E8CA266915FE46705",1,"01990a9a-efb7-7e96-ac48-a1902c4bf740","01990a83-7673-7c0c-a792-bbd8fbbaf673","2025-09-02_09h26.07.410",NA,NA,138.7605,138.7606,138.7606,139.1102,NA,NA,NA,NA,NA,NA,NA,TRUE,2,2.7803,135.7502,138.7603,0,21,21,28,1,21,32,NA,NA,NA,NA,NA,1,22,"binary"
"CEC4E0F433B4495E8CA266915FE46705",1,"01990a9a-efb7-7e96-ac48-a1902c4bf740","01990a83-7673-7c0c-a792-bbd8fbbaf673","2025-09-02_09h26.07.410",NA,NA,142.1077,142.1079,142.1079,142.4573,NA,NA,NA,NA,NA,NA,NA,TRUE,1,2.0489,139.1147,142.1074,0,22,22,106,1,200,47,NA,NA,NA,NA,NA,1,23,"binary"
"CEC4E0F433B4495E8CA266915FE46705",1,"01990a9a-efb7-7e96-ac48-a1902c4bf740","01990a83-7673-7c0c-a792-bbd8fbbaf673","2025-09-02_09h26.07.410",NA,NA,145.455,145.4551,145.4552,145.8042,NA,NA,NA,NA,NA,NA,NA,TRUE,2,1.5799,142.4608,145.4546,0,23,23,21,1,14,32,NA,NA,NA,NA,NA,1,24,"binary"
"CEC4E0F433B4495E8CA266915FE46705",1,"01990a9a-efb7-7e96-ac48-a1902c4bf740","01990a83-7673-7c0c-a792-bbd8fbbaf673","2025-09-02_09h26.07.410",NA,NA,148.8023,148.8024,148.8024,149.1508,NA,NA,NA,NA,NA,NA,NA,TRUE,2,1.9155,145.8087,148.802,0,24,24,9,1,10,29,NA,NA,NA,NA,NA,1,25,"binary"
"CEC4E0F433B4495E8CA266915FE46705",1,"01990a9a-efb7-7e96-ac48-a1902c4bf740","01990a83-7673-7c0c-a792-bbd8fbbaf673","2025-09-02_09h26.07.410",NA,NA,152.1493,152.1494,152.1495,152.4989,NA,NA,NA,NA,NA,NA,NA,TRUE,1,2.4401,149.1536,152.1491,0,25,25,82,1,95,47,NA,NA,NA,NA,NA,1,26,"binary"
"CEC4E0F433B4495E8CA266915FE46705",1,"01990a9a-efb7-7e96-ac48-a1902c4bf740","01990a83-7673-7c0c-a792-bbd8fbbaf673","2025-09-02_09h26.07.410",NA,NA,155.4962,155.4962,155.4962,155.8459,NA,NA,NA,NA,NA,NA,NA,TRUE,2,1.7701,152.5028,155.496,0,26,26,8,1,10,27,NA,NA,NA,NA,NA,1,27,"binary"
"CEC4E0F433B4495E8CA266915FE46705",1,"01990a9a-efb7-7e96-ac48-a1902c4bf740","01990a83-7673-7c0c-a792-bbd8fbbaf673","2025-09-02_09h26.07.410",NA,NA,158.86,158.86,158.8601,159.2098,NA,NA,NA,NA,NA,NA,NA,TRUE,1,1.8891,155.8496,158.8597,0,27,27,73,1,90,30,NA,NA,NA,NA,NA,1,28,"binary"
"CEC4E0F433B4495E8CA266915FE46705",1,"01990a9a-efb7-7e96-ac48-a1902c4bf740","01990a83-7673-7c0c-a792-bbd8fbbaf673","2025-09-02_09h26.07.410",NA,NA,162.206,162.206,162.206,162.5561,NA,NA,NA,NA,NA,NA,NA,TRUE,2,2.2885,159.2143,162.2059,0,28,28,95,1,150,54,NA,NA,NA,NA,NA,1,29,"binary"
"CEC4E0F433B4495E8CA266915FE46705",1,"01990a9a-efb7-7e96-ac48-a1902c4bf740","01990a83-7673-7c0c-a792-bbd8fbbaf673","2025-09-02_09h26.07.410",NA,NA,165.5546,165.5546,165.5547,165.9036,NA,NA,NA,NA,NA,NA,NA,TRUE,1,1.9086,162.5602,165.5543,0,29,29,42,1,30,26,NA,NA,NA,NA,NA,1,30,"binary"
"CEC4E0F433B4495E8CA266915FE46705",1,"01990a9a-efb7-7e96-ac48-a1902c4bf740","01990a83-7673-7c0c-a792-bbd8fbbaf673","2025-09-02_09h26.07.410",NA,NA,168.9011,168.9011,168.9012,169.2511,NA,NA,NA,NA,NA,NA,NA,TRUE,1,1.7774,165.908,168.9008,0,30,30,61,1,50,30,NA,NA,NA,NA,NA,1,31,"binary"
"CEC4E0F433B4495E8CA266915FE46705",1,"01990a9a-efb7-7e96-ac48-a1902c4bf740","01990a83-7673-7c0c-a792-bbd8fbbaf673","2025-09-02_09h26.07.410",NA,NA,172.2474,172.2474,172.2474,172.5978,NA,NA,NA,NA,NA,NA,NA,TRUE,1,1.4151,169.2551,172.2473,0,31,31,55,1,45,29,NA,NA,NA,NA,NA,1,32,"binary"
"CEC4E0F433B4495E8CA266915FE46705",1,"01990a9a-efb7-7e96-ac48-a1902c4bf740","01990a83-7673-7c0c-a792-bbd8fbbaf673","2025-09-02_09h26.07.410",NA,NA,175.5956,175.5956,175.5956,175.9449,NA,NA,NA,NA,NA,NA,NA,TRUE,1,1.3097,172.6011,175.5953,0,32,32,78,1,95,31,NA,NA,NA,NA,NA,1,33,"binary"
"CEC4E0F433B4495E8CA266915FE46705",1,"01990a9a-efb7-7e96-ac48-a1902c4bf740","01990a83-7673-7c0c-a792-bbd8fbbaf673","2025-09-02_09h26.07.410",NA,NA,178.9593,178.9594,178.9594,179.3088,NA,NA,NA,NA,NA,NA,NA,TRUE,2,1.2111,175.9499,178.959,0,33,33,3,1,7,30,NA,NA,NA,NA,NA,1,34,"binary"
"CEC4E0F433B4495E8CA266915FE46705",1,"01990a9a-efb7-7e96-ac48-a1902c4bf740","01990a83-7673-7c0c-a792-bbd8fbbaf673","2025-09-02_09h26.07.410",NA,NA,182.3062,182.3062,182.3063,182.6549,NA,NA,NA,NA,NA,NA,NA,TRUE,1,2.1745,179.3126,182.306,0,34,34,81,1,95,40,NA,NA,NA,NA,NA,1,35,"binary"
"CEC4E0F433B4495E8CA266915FE46705",1,"01990a9a-efb7-7e96-ac48-a1902c4bf740","01990a83-7673-7c0c-a792-bbd8fbbaf673","2025-09-02_09h26.07.410",NA,NA,185.6535,185.6536,185.6537,186.0019,NA,NA,NA,NA,NA,NA,NA,TRUE,1,1.7356,182.6569,185.6533,0,35,35,7,1,10,26,NA,NA,NA,NA,NA,1,36,"binary"
"CEC4E0F433B4495E8CA266915FE46705",1,"01990a9a-efb7-7e96-ac48-a1902c4bf740","01990a83-7673-7c0c-a792-bbd8fbbaf673","2025-09-02_09h26.07.410",NA,NA,189.0001,189.0002,189.0002,189.3499,NA,NA,NA,NA,NA,NA,NA,TRUE,2,2.8237,186.0035,188.9999,0,36,36,31,1,25,29,NA,NA,NA,NA,NA,1,37,"binary"
"CEC4E0F433B4495E8CA266915FE46705",1,"01990a9a-efb7-7e96-ac48-a1902c4bf740","01990a83-7673-7c0c-a792-bbd8fbbaf673","2025-09-02_09h26.07.410",NA,NA,192.3467,192.3468,192.3468,192.6961,NA,NA,NA,NA,NA,NA,NA,TRUE,2,2.9183,189.3543,192.3465,0,37,37,22,1,14,35,NA,NA,NA,NA,NA,1,38,"binary"
"CEC4E0F433B4495E8CA266915FE46705",1,"01990a9a-efb7-7e96-ac48-a1902c4bf740","01990a83-7673-7c0c-a792-bbd8fbbaf673","2025-09-02_09h26.07.410",NA,NA,195.7112,195.7113,195.7113,196.0609,NA,NA,NA,NA,NA,NA,NA,TRUE,1,1.5357,192.6976,195.711,0,38,38,24,1,21,26,NA,NA,NA,NA,NA,1,39,"binary"
"CEC4E0F433B4495E8CA266915FE46705",1,"01990a9a-efb7-7e96-ac48-a1902c4bf740","01990a83-7673-7c0c-a792-bbd8fbbaf673","2025-09-02_09h26.07.410",NA,NA,199.0583,199.0586,199.0586,199.4069,NA,NA,NA,NA,NA,NA,NA,TRUE,2,2.1459,196.0645,199.0579,0,39,39,2,1,7,28,NA,NA,NA,NA,NA,1,40,"binary"
"CEC4E0F433B4495E8CA266915FE46705",1,"01990a9a-efb7-7e96-ac48-a1902c4bf740","01990a83-7673-7c0c-a792-bbd8fbbaf673","2025-09-02_09h26.07.410",NA,NA,202.4051,202.4051,202.4052,202.7548,NA,NA,NA,NA,NA,NA,NA,TRUE,1,1.3348,199.4091,202.4048,0,40,40,20,1,14,28,NA,NA,NA,NA,NA,1,41,"binary"
"CEC4E0F433B4495E8CA266915FE46705",1,"01990a9a-efb7-7e96-ac48-a1902c4bf740","01990a83-7673-7c0c-a792-bbd8fbbaf673","2025-09-02_09h26.07.410",NA,NA,205.7525,205.7526,205.7526,206.102,NA,NA,NA,NA,NA,NA,NA,TRUE,2,1.3083,202.7584,205.7523,0,41,41,11,1,10,32,NA,NA,NA,NA,NA,1,42,"binary"
"CEC4E0F433B4495E8CA266915FE46705",1,"01990a9a-efb7-7e96-ac48-a1902c4bf740","01990a83-7673-7c0c-a792-bbd8fbbaf673","2025-09-02_09h26.07.410",NA,NA,209.0998,209.0998,209.0998,209.449,NA,NA,NA,NA,NA,NA,NA,TRUE,1,1.5688,206.1063,209.0995,0,42,42,39,1,28,35,NA,NA,NA,NA,NA,1,43,"binary"
"CEC4E0F433B4495E8CA266915FE46705",1,"01990a9a-efb7-7e96-ac48-a1902c4bf740","01990a83-7673-7c0c-a792-bbd8fbbaf673","2025-09-02_09h26.07.410",NA,NA,212.4466,212.4467,212.4467,212.7964,NA,NA,NA,NA,NA,NA,NA,TRUE,2,1.5478,209.4526,212.4462,0,43,43,16,1,12,33,NA,NA,NA,NA,NA,1,44,"binary"
"CEC4E0F433B4495E8CA266915FE46705",1,"01990a9a-efb7-7e96-ac48-a1902c4bf740","01990a83-7673-7c0c-a792-bbd8fbbaf673","2025-09-02_09h26.07.410",NA,NA,215.8103,215.8104,215.8105,216.159,NA,NA,NA,NA,NA,NA,NA,TRUE,1,1.9323,212.8004,215.8101,0,44,44,101,1,180,54,NA,NA,NA,NA,NA,1,45,"binary"
"CEC4E0F433B4495E8CA266915FE46705",1,"01990a9a-efb7-7e96-ac48-a1902c4bf740","01990a83-7673-7c0c-a792-bbd8fbbaf673","2025-09-02_09h26.07.410",NA,NA,219.1578,219.1579,219.158,219.5068,NA,NA,NA,NA,NA,NA,NA,TRUE,2,2.1797,216.1607,219.1575,0,45,45,15,1,12,31,NA,NA,NA,NA,NA,1,46,"binary"
"CEC4E0F433B4495E8CA266915FE46705",1,"01990a9a-efb7-7e96-ac48-a1902c4bf740","01990a83-7673-7c0c-a792-bbd8fbbaf673","2025-09-02_09h26.07.410",NA,NA,222.5045,222.5045,222.5045,222.8542,NA,NA,NA,NA,NA,NA,NA,TRUE,1,1.4481,219.5113,222.5042,0,46,46,92,1,150,35,NA,NA,NA,NA,NA,1,47,"binary"
"CEC4E0F433B4495E8CA266915FE46705",1,"01990a9a-efb7-7e96-ac48-a1902c4bf740","01990a83-7673-7c0c-a792-bbd8fbbaf673","2025-09-02_09h26.07.410",NA,NA,225.8518,226.1057,226.1058,226.2008,NA,NA,NA,NA,NA,NA,NA,FALSE,NA,NA,222.8581,225.8516,0,47,47,29,1,21,38,NA,NA,NA,NA,NA,1,48,"binary"
"CEC4E0F433B4495E8CA266915FE46705",1,"01990a9a-efb7-7e96-ac48-a1902c4bf740","01990a83-7673-7c0c-a792-bbd8fbbaf673","2025-09-02_09h26.07.410",NA,NA,229.1985,229.1986,229.1986,229.5483,NA,NA,NA,NA,NA,NA,NA,TRUE,1,2.2401,226.2054,229.1982,0,48,48,18,1,14,25,NA,NA,NA,NA,NA,1,49,"binary"
"CEC4E0F433B4495E8CA266915FE46705",1,"01990a9a-efb7-7e96-ac48-a1902c4bf740","01990a83-7673-7c0c-a792-bbd8fbbaf673","2025-09-02_09h26.07.410",NA,NA,232.5615,232.5615,232.5615,232.9113,NA,NA,NA,NA,NA,NA,NA,TRUE,1,2.1855,229.552,232.5614,0,49,49,75,1,90,40,NA,NA,NA,NA,NA,1,50,"binary"
"CEC4E0F433B4495E8CA266915FE46705",1,"01990a9a-efb7-7e96-ac48-a1902c4bf740","01990a83-7673-7c0c-a792-bbd8fbbaf673","2025-09-02_09h26.07.410",NA,NA,235.9094,235.9095,235.9096,236.2588,NA,NA,NA,NA,NA,NA,NA,TRUE,2,2.9632,232.9135,235.9092,0,50,50,46,1,30,32,NA,NA,NA,NA,NA,1,51,"binary"
"CEC4E0F433B4495E8CA266915FE46705",1,"01990a9a-efb7-7e96-ac48-a1902c4bf740","01990a83-7673-7c0c-a792-bbd8fbbaf673","2025-09-02_09h26.07.410",NA,NA,239.2564,239.2565,239.2566,239.6061,NA,NA,NA,NA,NA,NA,NA,TRUE,1,2.1726,236.2634,239.2562,0,51,51,66,1,60,29,NA,NA,NA,NA,NA,1,52,"binary"
"CEC4E0F433B4495E8CA266915FE46705",1,"01990a9a-efb7-7e96-ac48-a1902c4bf740","01990a83-7673-7c0c-a792-bbd8fbbaf673","2025-09-02_09h26.07.410",NA,NA,242.6039,242.604,242.6041,242.953,NA,NA,NA,NA,NA,NA,NA,TRUE,1,1.2083,239.61,242.6036,0,52,52,6,1,10,25,NA,NA,NA,NA,NA,1,53,"binary"
"CEC4E0F433B4495E8CA266915FE46705",1,"01990a9a-efb7-7e96-ac48-a1902c4bf740","01990a83-7673-7c0c-a792-bbd8fbbaf673","2025-09-02_09h26.07.410",NA,NA,245.9511,245.9511,245.9511,246.3007,NA,NA,NA,NA,NA,NA,NA,TRUE,1,1.7325,242.9569,245.9507,0,53,53,102,1,200,26,NA,NA,NA,NA,NA,1,54,"binary"
"CEC4E0F433B4495E8CA266915FE46705",1,"01990a9a-efb7-7e96-ac48-a1902c4bf740","01990a83-7673-7c0c-a792-bbd8fbbaf673","2025-09-02_09h26.07.410",NA,NA,249.2978,249.2979,249.2979,249.6466,NA,NA,NA,NA,NA,NA,NA,TRUE,1,1.2391,246.3046,249.2975,0,54,54,44,1,30,29,NA,NA,NA,NA,NA,1,55,"binary"
"CEC4E0F433B4495E8CA266915FE46705",1,"01990a9a-efb7-7e96-ac48-a1902c4bf740","01990a83-7673-7c0c-a792-bbd8fbbaf673","2025-09-02_09h26.07.410",NA,NA,252.6618,252.662,252.6622,253.0118,NA,NA,NA,NA,NA,NA,NA,TRUE,2,1.1771,249.6484,252.6616,0,55,55,14,1,12,28,NA,NA,NA,NA,NA,1,56,"binary"
"CEC4E0F433B4495E8CA266915FE46705",1,"01990a9a-efb7-7e96-ac48-a1902c4bf740","01990a83-7673-7c0c-a792-bbd8fbbaf673","2025-09-02_09h26.07.410",NA,NA,256.0084,256.0086,256.0086,256.3578,NA,NA,NA,NA,NA,NA,NA,TRUE,1,1.6207,253.0155,256.0082,0,56,56,76,1,90,46,NA,NA,NA,NA,NA,1,57,"binary"
"CEC4E0F433B4495E8CA266915FE46705",1,"01990a9a-efb7-7e96-ac48-a1902c4bf740","01990a83-7673-7c0c-a792-bbd8fbbaf673","2025-09-02_09h26.07.410",NA,NA,259.3559,259.356,259.356,259.7053,NA,NA,NA,NA,NA,NA,NA,TRUE,2,2.5107,256.362,259.3556,0,57,57,43,1,30,27,NA,NA,NA,NA,NA,1,58,"binary"
"CEC4E0F433B4495E8CA266915FE46705",1,"01990a9a-efb7-7e96-ac48-a1902c4bf740","01990a83-7673-7c0c-a792-bbd8fbbaf673","2025-09-02_09h26.07.410",NA,NA,262.7024,262.7024,262.7024,263.0521,NA,NA,NA,NA,NA,NA,NA,TRUE,1,1.58,259.71,262.7021,0,58,58,37,1,28,28,NA,NA,NA,NA,NA,1,59,"binary"
"CEC4E0F433B4495E8CA266915FE46705",1,"01990a9a-efb7-7e96-ac48-a1902c4bf740","01990a83-7673-7c0c-a792-bbd8fbbaf673","2025-09-02_09h26.07.410",NA,NA,266.049,266.049,266.049,266.3986,NA,NA,NA,NA,NA,NA,NA,TRUE,1,2.271,263.0565,266.0489,0,59,59,86,1,100,38,NA,NA,NA,NA,NA,1,60,"binary"
"CEC4E0F433B4495E8CA266915FE46705",1,"01990a9a-efb7-7e96-ac48-a1902c4bf740","01990a83-7673-7c0c-a792-bbd8fbbaf673","2025-09-02_09h26.07.410",NA,NA,269.3969,269.397,269.3971,269.7464,NA,NA,NA,NA,NA,NA,NA,TRUE,1,1.2352,266.4015,269.3967,0,60,60,100,1,180,46,NA,NA,NA,NA,NA,1,61,"binary"
"CEC4E0F433B4495E8CA266915FE46705",1,"01990a9a-efb7-7e96-ac48-a1902c4bf740","01990a83-7673-7c0c-a792-bbd8fbbaf673","2025-09-02_09h26.07.410",NA,NA,272.7614,272.7616,272.7616,273.1102,NA,NA,NA,NA,NA,NA,NA,TRUE,1,2.5484,269.75,272.7611,0,61,61,45,1,30,30,NA,NA,NA,NA,NA,1,62,"binary"
"CEC4E0F433B4495E8CA266915FE46705",1,"01990a9a-efb7-7e96-ac48-a1902c4bf740","01990a83-7673-7c0c-a792-bbd8fbbaf673","2025-09-02_09h26.07.410",NA,NA,276.1081,276.1083,276.1084,276.4572,NA,NA,NA,NA,NA,NA,NA,TRUE,2,1.345,273.114,276.1078,0,62,62,59,1,45,46,NA,NA,NA,NA,NA,1,63,"binary"
"CEC4E0F433B4495E8CA266915FE46705",1,"01990a9a-efb7-7e96-ac48-a1902c4bf740","01990a83-7673-7c0c-a792-bbd8fbbaf673","2025-09-02_09h26.07.410",NA,NA,279.4552,279.4552,279.4552,279.8038,NA,NA,NA,NA,NA,NA,NA,TRUE,1,1.2885,276.4613,279.4549,0,63,63,12,1,12,25,NA,NA,NA,NA,NA,1,64,"binary"
"CEC4E0F433B4495E8CA266915FE46705",1,"01990a9a-efb7-7e96-ac48-a1902c4bf740","01990a83-7673-7c0c-a792-bbd8fbbaf673","2025-09-02_09h26.07.410",NA,NA,282.801,282.8011,282.8011,283.1512,NA,NA,NA,NA,NA,NA,NA,TRUE,1,1.4999,279.8061,282.801,0,64,64,87,1,100,39,NA,NA,NA,NA,NA,1,65,"binary"
"CEC4E0F433B4495E8CA266915FE46705",1,"01990a9a-efb7-7e96-ac48-a1902c4bf740","01990a83-7673-7c0c-a792-bbd8fbbaf673","2025-09-02_09h26.07.410",NA,NA,286.1495,286.1495,286.1495,286.4985,NA,NA,NA,NA,NA,NA,NA,TRUE,2,2.3495,283.1552,286.1492,0,65,65,50,1,40,35,NA,NA,NA,NA,NA,1,66,"binary"
"CEC4E0F433B4495E8CA266915FE46705",1,"01990a9a-efb7-7e96-ac48-a1902c4bf740","01990a83-7673-7c0c-a792-bbd8fbbaf673","2025-09-02_09h26.07.410",NA,NA,289.4965,289.4966,289.4966,289.8457,NA,NA,NA,NA,NA,NA,NA,TRUE,1,1.7616,286.5036,289.4962,0,66,66,88,1,100,46,NA,NA,NA,NA,NA,1,67,"binary"
"CEC4E0F433B4495E8CA266915FE46705",1,"01990a9a-efb7-7e96-ac48-a1902c4bf740","01990a83-7673-7c0c-a792-bbd8fbbaf673","2025-09-02_09h26.07.410",NA,NA,292.8605,292.8607,292.8608,293.2086,NA,NA,NA,NA,NA,NA,NA,TRUE,1,2.1335,289.8491,292.8601,0,67,67,98,1,180,35,NA,NA,NA,NA,NA,1,68,"binary"
"CEC4E0F433B4495E8CA266915FE46705",1,"01990a9a-efb7-7e96-ac48-a1902c4bf740","01990a83-7673-7c0c-a792-bbd8fbbaf673","2025-09-02_09h26.07.410",NA,NA,296.2076,296.2078,296.2078,296.5571,NA,NA,NA,NA,NA,NA,NA,TRUE,1,2.3815,293.2102,296.2072,0,68,68,57,1,45,35,NA,NA,NA,NA,NA,1,69,"binary"
"CEC4E0F433B4495E8CA266915FE46705",1,"01990a9a-efb7-7e96-ac48-a1902c4bf740","01990a83-7673-7c0c-a792-bbd8fbbaf673","2025-09-02_09h26.07.410",NA,NA,299.5531,299.5532,299.5532,299.9033,NA,NA,NA,NA,NA,NA,NA,TRUE,1,2.0726,296.561,299.553,0,69,69,32,1,25,31,NA,NA,NA,NA,NA,1,70,"binary"
"CEC4E0F433B4495E8CA266915FE46705",1,"01990a9a-efb7-7e96-ac48-a1902c4bf740","01990a83-7673-7c0c-a792-bbd8fbbaf673","2025-09-02_09h26.07.410",NA,NA,302.9007,302.9008,302.9008,303.2511,NA,NA,NA,NA,NA,NA,NA,TRUE,1,1.7578,299.9073,302.9006,0,70,70,30,1,25,27,NA,NA,NA,NA,NA,1,71,"binary"
"CEC4E0F433B4495E8CA266915FE46705",1,"01990a9a-efb7-7e96-ac48-a1902c4bf740","01990a83-7673-7c0c-a792-bbd8fbbaf673","2025-09-02_09h26.07.410",NA,NA,306.2484,306.2484,306.2484,306.5976,NA,NA,NA,NA,NA,NA,NA,TRUE,1,1.8957,303.2551,306.2482,0,71,71,62,1,50,35,NA,NA,NA,NA,NA,1,72,"binary"
"CEC4E0F433B4495E8CA266915FE46705",1,"01990a9a-efb7-7e96-ac48-a1902c4bf740","01990a83-7673-7c0c-a792-bbd8fbbaf673","2025-09-02_09h26.07.410",NA,NA,309.5953,309.5954,309.5954,309.945,NA,NA,NA,NA,NA,NA,NA,TRUE,1,1.1169,306.6015,309.595,0,72,72,60,1,50,27,NA,NA,NA,NA,NA,1,73,"binary"
"CEC4E0F433B4495E8CA266915FE46705",1,"01990a9a-efb7-7e96-ac48-a1902c4bf740","01990a83-7673-7c0c-a792-bbd8fbbaf673","2025-09-02_09h26.07.410",NA,NA,312.9592,312.9593,312.9593,313.309,NA,NA,NA,NA,NA,NA,NA,TRUE,1,1.4016,309.9498,312.9589,0,73,73,104,1,200,35,NA,NA,NA,NA,NA,1,74,"binary"
"CEC4E0F433B4495E8CA266915FE46705",1,"01990a9a-efb7-7e96-ac48-a1902c4bf740","01990a83-7673-7c0c-a792-bbd8fbbaf673","2025-09-02_09h26.07.410",NA,NA,316.3053,316.3054,316.3054,316.6552,NA,NA,NA,NA,NA,NA,NA,TRUE,1,1.7632,313.313,316.3052,0,74,74,40,1,28,39,NA,NA,NA,NA,NA,1,75,"binary"
"CEC4E0F433B4495E8CA266915FE46705",1,"01990a9a-efb7-7e96-ac48-a1902c4bf740","01990a83-7673-7c0c-a792-bbd8fbbaf673","2025-09-02_09h26.07.410",NA,NA,319.654,319.654,319.6541,320.0027,NA,NA,NA,NA,NA,NA,NA,TRUE,1,1.469,316.6574,319.6535,0,75,75,94,1,150,47,NA,NA,NA,NA,NA,1,76,"binary"
"CEC4E0F433B4495E8CA266915FE46705",1,"01990a9a-efb7-7e96-ac48-a1902c4bf740","01990a83-7673-7c0c-a792-bbd8fbbaf673","2025-09-02_09h26.07.410",NA,NA,323.0008,323.0008,323.0009,323.3489,NA,NA,NA,NA,NA,NA,NA,TRUE,1,1.6588,320.0061,323.0005,0,76,76,79,1,95,33,NA,NA,NA,NA,NA,1,77,"binary"
"CEC4E0F433B4495E8CA266915FE46705",1,"01990a9a-efb7-7e96-ac48-a1902c4bf740","01990a83-7673-7c0c-a792-bbd8fbbaf673","2025-09-02_09h26.07.410",NA,NA,326.3474,326.3475,326.3475,326.6972,NA,NA,NA,NA,NA,NA,NA,TRUE,1,2.5982,323.3515,326.3473,0,77,77,27,1,21,30,NA,NA,NA,NA,NA,1,78,"binary"
"CEC4E0F433B4495E8CA266915FE46705",1,"01990a9a-efb7-7e96-ac48-a1902c4bf740","01990a83-7673-7c0c-a792-bbd8fbbaf673","2025-09-02_09h26.07.410",NA,NA,329.7112,329.7112,329.7113,330.0609,NA,NA,NA,NA,NA,NA,NA,TRUE,2,1.8154,326.7015,329.7109,0,78,78,10,1,10,30,NA,NA,NA,NA,NA,1,79,"binary"
"CEC4E0F433B4495E8CA266915FE46705",1,"01990a9a-efb7-7e96-ac48-a1902c4bf740","01990a83-7673-7c0c-a792-bbd8fbbaf673","2025-09-02_09h26.07.410",NA,NA,333.0577,333.0579,333.0579,333.4068,NA,NA,NA,NA,NA,NA,NA,TRUE,2,1.9943,330.0652,333.0575,0,79,79,70,1,60,47,NA,NA,NA,NA,NA,1,80,"binary"
"CEC4E0F433B4495E8CA266915FE46705",1,"01990a9a-efb7-7e96-ac48-a1902c4bf740","01990a83-7673-7c0c-a792-bbd8fbbaf673","2025-09-02_09h26.07.410",NA,NA,336.4054,336.4056,336.4056,336.7549,NA,NA,NA,NA,NA,NA,NA,TRUE,2,1.8188,333.4085,336.4051,0,80,80,5,1,7,35,NA,NA,NA,NA,NA,1,81,"binary"
"CEC4E0F433B4495E8CA266915FE46705",1,"01990a9a-efb7-7e96-ac48-a1902c4bf740","01990a83-7673-7c0c-a792-bbd8fbbaf673","2025-09-02_09h26.07.410",NA,NA,339.7516,339.7516,339.7516,340.1011,NA,NA,NA,NA,NA,NA,NA,TRUE,1,2.0929,336.7594,339.7515,0,81,81,64,1,50,46,NA,NA,NA,NA,NA,1,82,"binary"
"CEC4E0F433B4495E8CA266915FE46705",1,"01990a9a-efb7-7e96-ac48-a1902c4bf740","01990a83-7673-7c0c-a792-bbd8fbbaf673","2025-09-02_09h26.07.410",NA,NA,343.0993,343.0995,343.0995,343.4491,NA,NA,NA,NA,NA,NA,NA,TRUE,1,2.3148,340.1021,343.0991,0,82,82,107,1,200,54,NA,NA,NA,NA,NA,1,83,"binary"
"CEC4E0F433B4495E8CA266915FE46705",1,"01990a9a-efb7-7e96-ac48-a1902c4bf740","01990a83-7673-7c0c-a792-bbd8fbbaf673","2025-09-02_09h26.07.410",NA,NA,346.4457,346.4457,346.4457,346.7959,NA,NA,NA,NA,NA,NA,NA,TRUE,1,2.4157,343.4526,346.4456,0,83,83,19,1,14,26,NA,NA,NA,NA,NA,1,84,"binary"
"CEC4E0F433B4495E8CA266915FE46705",1,"01990a9a-efb7-7e96-ac48-a1902c4bf740","01990a83-7673-7c0c-a792-bbd8fbbaf673","2025-09-02_09h26.07.410",NA,NA,349.8101,349.8103,349.8103,350.1592,NA,NA,NA,NA,NA,NA,NA,TRUE,1,2.2826,346.8003,349.81,0,84,84,105,1,200,39,NA,NA,NA,NA,NA,1,85,"binary"
"CEC4E0F433B4495E8CA266915FE46705",1,"01990a9a-efb7-7e96-ac48-a1902c4bf740","01990a83-7673-7c0c-a792-bbd8fbbaf673","2025-09-02_09h26.07.410",NA,NA,353.1575,353.1575,353.1576,353.506,NA,NA,NA,NA,NA,NA,NA,TRUE,1,2.4305,350.1614,353.1572,0,85,85,34,1,25,35,NA,NA,NA,NA,NA,1,86,"binary"
"CEC4E0F433B4495E8CA266915FE46705",1,"01990a9a-efb7-7e96-ac48-a1902c4bf740","01990a83-7673-7c0c-a792-bbd8fbbaf673","2025-09-02_09h26.07.410",NA,NA,356.5047,356.5047,356.5047,356.8538,NA,NA,NA,NA,NA,NA,NA,TRUE,2,2.3829,353.5075,356.5044,0,86,86,51,1,40,40,NA,NA,NA,NA,NA,1,87,"binary"
"CEC4E0F433B4495E8CA266915FE46705",1,"01990a9a-efb7-7e96-ac48-a1902c4bf740","01990a83-7673-7c0c-a792-bbd8fbbaf673","2025-09-02_09h26.07.410",NA,NA,359.8518,359.8518,359.8519,360.2014,NA,NA,NA,NA,NA,NA,NA,TRUE,1,1.5432,356.8571,359.8514,0,87,87,63,1,50,40,NA,NA,NA,NA,NA,1,88,"binary"
"CEC4E0F433B4495E8CA266915FE46705",1,"01990a9a-efb7-7e96-ac48-a1902c4bf740","01990a83-7673-7c0c-a792-bbd8fbbaf673","2025-09-02_09h26.07.410",NA,NA,363.1977,363.1977,363.1977,363.5483,NA,NA,NA,NA,NA,NA,NA,TRUE,2,1.5819,360.2048,363.1976,0,88,88,35,1,25,46,NA,NA,NA,NA,NA,1,89,"binary"
"CEC4E0F433B4495E8CA266915FE46705",1,"01990a9a-efb7-7e96-ac48-a1902c4bf740","01990a83-7673-7c0c-a792-bbd8fbbaf673","2025-09-02_09h26.07.410",NA,NA,366.5459,366.811,366.8112,366.9111,NA,NA,NA,NA,NA,NA,NA,FALSE,NA,NA,363.5522,366.5457,0,89,89,58,1,45,40,NA,NA,NA,NA,NA,1,90,"binary"
"CEC4E0F433B4495E8CA266915FE46705",1,"01990a9a-efb7-7e96-ac48-a1902c4bf740","01990a83-7673-7c0c-a792-bbd8fbbaf673","2025-09-02_09h26.07.410",NA,NA,369.9097,369.9098,369.9099,370.259,NA,NA,NA,NA,NA,NA,NA,TRUE,1,1.7691,366.9129,369.9095,0,90,90,1,1,7,26,NA,NA,NA,NA,NA,1,91,"binary"
"CEC4E0F433B4495E8CA266915FE46705",1,"01990a9a-efb7-7e96-ac48-a1902c4bf740","01990a83-7673-7c0c-a792-bbd8fbbaf673","2025-09-02_09h26.07.410",NA,NA,373.2557,373.2557,373.2557,373.6056,NA,NA,NA,NA,NA,NA,NA,TRUE,1,1.7373,370.2634,373.2555,0,91,91,25,1,21,27,NA,NA,NA,NA,NA,1,92,"binary"
"CEC4E0F433B4495E8CA266915FE46705",1,"01990a9a-efb7-7e96-ac48-a1902c4bf740","01990a83-7673-7c0c-a792-bbd8fbbaf673","2025-09-02_09h26.07.410",NA,NA,376.6029,376.603,376.603,376.9523,NA,NA,NA,NA,NA,NA,NA,TRUE,1,2.3926,373.6097,376.6028,0,92,92,71,1,60,54,NA,NA,NA,NA,NA,1,93,"binary"
"CEC4E0F433B4495E8CA266915FE46705",1,"01990a9a-efb7-7e96-ac48-a1902c4bf740","01990a83-7673-7c0c-a792-bbd8fbbaf673","2025-09-02_09h26.07.410",NA,NA,379.951,379.951,379.951,380.3001,NA,NA,NA,NA,NA,NA,NA,TRUE,1,1.3262,376.9535,379.9505,0,93,93,36,1,28,26,NA,NA,NA,NA,NA,1,94,"binary"
"CEC4E0F433B4495E8CA266915FE46705",1,"01990a9a-efb7-7e96-ac48-a1902c4bf740","01990a83-7673-7c0c-a792-bbd8fbbaf673","2025-09-02_09h26.07.410",NA,NA,383.2969,383.2969,383.2969,383.6464,NA,NA,NA,NA,NA,NA,NA,TRUE,1,1.2872,380.3041,383.2967,0,94,94,67,1,60,33,NA,NA,NA,NA,NA,1,95,"binary"
"CEC4E0F433B4495E8CA266915FE46705",1,"01990a9a-efb7-7e96-ac48-a1902c4bf740","01990a83-7673-7c0c-a792-bbd8fbbaf673","2025-09-02_09h26.07.410",NA,NA,386.6617,386.6619,386.662,387.0114,NA,NA,NA,NA,NA,NA,NA,TRUE,1,1.0359,383.6482,386.6614,0,95,95,97,1,180,31,NA,NA,NA,NA,NA,1,96,"binary"
"CEC4E0F433B4495E8CA266915FE46705",1,"01990a9a-efb7-7e96-ac48-a1902c4bf740","01990a83-7673-7c0c-a792-bbd8fbbaf673","2025-09-02_09h26.07.410",NA,NA,390.0094,390.0095,390.0095,390.3584,NA,NA,NA,NA,NA,NA,NA,TRUE,2,1.9533,387.0158,390.0091,0,96,96,26,1,21,29,NA,NA,NA,NA,NA,1,97,"binary"
"CEC4E0F433B4495E8CA266915FE46705",1,"01990a9a-efb7-7e96-ac48-a1902c4bf740","01990a83-7673-7c0c-a792-bbd8fbbaf673","2025-09-02_09h26.07.410",NA,NA,393.3556,393.3556,393.3557,393.7054,NA,NA,NA,NA,NA,NA,NA,TRUE,1,1.3733,390.3633,393.3554,0,97,97,83,1,95,54,NA,NA,NA,NA,NA,1,98,"binary"
"CEC4E0F433B4495E8CA266915FE46705",1,"01990a9a-efb7-7e96-ac48-a1902c4bf740","01990a83-7673-7c0c-a792-bbd8fbbaf673","2025-09-02_09h26.07.410",NA,NA,396.7028,396.7029,396.703,397.0522,NA,NA,NA,NA,NA,NA,NA,TRUE,1,1.5268,393.7093,396.7026,0,98,98,96,1,180,27,NA,NA,NA,NA,NA,1,99,"binary"
"CEC4E0F433B4495E8CA266915FE46705",1,"01990a9a-efb7-7e96-ac48-a1902c4bf740","01990a83-7673-7c0c-a792-bbd8fbbaf673","2025-09-02_09h26.07.410",NA,NA,400.049,400.049,400.049,400.3992,NA,NA,NA,NA,NA,NA,NA,TRUE,1,1.2496,397.0561,400.0488,0,99,99,54,1,45,26,NA,NA,NA,NA,NA,1,100,"binary"
"CEC4E0F433B4495E8CA266915FE46705",1,"01990a9a-efb7-7e96-ac48-a1902c4bf740","01990a83-7673-7c0c-a792-bbd8fbbaf673","2025-09-02_09h26.07.410",NA,NA,403.3969,403.3969,403.397,403.7466,NA,NA,NA,NA,NA,NA,NA,TRUE,1,1.8474,400.4058,403.3966,0,100,100,93,1,150,40,NA,NA,NA,NA,NA,1,101,"binary"
"CEC4E0F433B4495E8CA266915FE46705",1,"01990a9a-efb7-7e96-ac48-a1902c4bf740","01990a83-7673-7c0c-a792-bbd8fbbaf673","2025-09-02_09h26.07.410",NA,NA,406.7605,406.7606,406.7606,407.1102,NA,NA,NA,NA,NA,NA,NA,TRUE,1,1.9831,403.7502,406.7603,0,101,101,13,1,12,26,NA,NA,NA,NA,NA,1,102,"binary"
"CEC4E0F433B4495E8CA266915FE46705",1,"01990a9a-efb7-7e96-ac48-a1902c4bf740","01990a83-7673-7c0c-a792-bbd8fbbaf673","2025-09-02_09h26.07.410",NA,NA,410.1079,410.108,410.108,410.457,NA,NA,NA,NA,NA,NA,NA,TRUE,1,1.4906,407.1145,410.1077,0,102,102,56,1,45,31,NA,NA,NA,NA,NA,1,103,"binary"
"CEC4E0F433B4495E8CA266915FE46705",1,"01990a9a-efb7-7e96-ac48-a1902c4bf740","01990a83-7673-7c0c-a792-bbd8fbbaf673","2025-09-02_09h26.07.410",NA,NA,413.4549,413.4549,413.455,413.8038,NA,NA,NA,NA,NA,NA,NA,TRUE,2,1.2252,410.4609,413.4547,0,103,103,47,1,30,38,NA,NA,NA,NA,NA,1,104,"binary"
"CEC4E0F433B4495E8CA266915FE46705",1,"01990a9a-efb7-7e96-ac48-a1902c4bf740","01990a83-7673-7c0c-a792-bbd8fbbaf673","2025-09-02_09h26.07.410",NA,NA,416.8011,416.8013,416.8013,417.1513,NA,NA,NA,NA,NA,NA,NA,TRUE,1,1.3874,413.8063,416.801,0,104,104,0,1,7,25,NA,NA,NA,NA,NA,1,105,"binary"
"CEC4E0F433B4495E8CA266915FE46705",1,"01990a9a-efb7-7e96-ac48-a1902c4bf740","01990a83-7673-7c0c-a792-bbd8fbbaf673","2025-09-02_09h26.07.410",NA,NA,420.1493,420.1494,420.1494,420.4985,NA,NA,NA,NA,NA,NA,NA,TRUE,1,1.7824,417.1551,420.149,0,105,105,33,1,25,33,NA,NA,NA,NA,NA,1,106,"binary"
"CEC4E0F433B4495E8CA266915FE46705",1,"01990a9a-efb7-7e96-ac48-a1902c4bf740","01990a83-7673-7c0c-a792-bbd8fbbaf673","2025-09-02_09h26.07.410",NA,NA,423.4963,423.4964,423.4964,423.8453,NA,NA,NA,NA,NA,NA,NA,TRUE,1,1.0836,420.5027,423.4961,0,106,106,72,1,90,26,NA,NA,NA,NA,NA,1,107,"binary"
"CEC4E0F433B4495E8CA266915FE46705",1,"01990a9a-efb7-7e96-ac48-a1902c4bf740","01990a83-7673-7c0c-a792-bbd8fbbaf673","2025-09-02_09h26.07.410",NA,NA,426.86,426.8601,426.8601,427.2091,NA,NA,NA,NA,NA,NA,NA,TRUE,1,1.1706,423.8494,426.8598,0,107,107,99,1,180,39,NA,NA,NA,NA,NA,1,108,"binary"
"CEC4E0F433B4495E8CA266915FE46705",1,"01990a9a-efb7-7e96-ac48-a1902c4bf740","01990a83-7673-7c0c-a792-bbd8fbbaf673","2025-09-02_09h26.07.410",NA,NA,433.6199,433.6199,433.6199,433.9693,NA,NA,NA,NA,NA,NA,NA,TRUE,1,1.2446,430.6433,433.6197,NA,NA,NA,NA,NA,30,26,0,0,0,42,1,2,1,"binary"
"CEC4E0F433B4495E8CA266915FE46705",1,"01990a9a-efb7-7e96-ac48-a1902c4bf740","01990a83-7673-7c0c-a792-bbd8fbbaf673","2025-09-02_09h26.07.410",NA,NA,436.968,436.968,436.968,437.3163,NA,NA,NA,NA,NA,NA,NA,TRUE,1,0.9856,433.9713,436.9677,NA,NA,NA,NA,NA,21,27,0,1,1,25,1,2,2,"binary"
"CEC4E0F433B4495E8CA266915FE46705",1,"01990a9a-efb7-7e96-ac48-a1902c4bf740","01990a83-7673-7c0c-a792-bbd8fbbaf673","2025-09-02_09h26.07.410",NA,NA,440.3149,440.315,440.3151,440.664,NA,NA,NA,NA,NA,NA,NA,TRUE,1,1.3589,437.3177,440.3146,NA,NA,NA,NA,NA,60,35,0,2,2,68,1,2,3,"binary"
"CEC4E0F433B4495E8CA266915FE46705",1,"01990a9a-efb7-7e96-ac48-a1902c4bf740","01990a83-7673-7c0c-a792-bbd8fbbaf673","2025-09-02_09h26.07.410",NA,NA,443.662,443.6621,443.6621,444.0117,NA,NA,NA,NA,NA,NA,NA,TRUE,1,1.2217,440.6676,443.6618,NA,NA,NA,NA,NA,45,35,0,3,3,57,1,2,4,"binary"
"CEC4E0F433B4495E8CA266915FE46705",1,"01990a9a-efb7-7e96-ac48-a1902c4bf740","01990a83-7673-7c0c-a792-bbd8fbbaf673","2025-09-02_09h26.07.410",NA,NA,447.0257,447.0258,447.0258,447.375,NA,NA,NA,NA,NA,NA,NA,TRUE,2,1.402,444.0166,447.0254,NA,NA,NA,NA,NA,10,32,0,4,4,11,1,2,5,"binary"
"CEC4E0F433B4495E8CA266915FE46705",1,"01990a9a-efb7-7e96-ac48-a1902c4bf740","01990a83-7673-7c0c-a792-bbd8fbbaf673","2025-09-02_09h26.07.410",NA,NA,450.3726,450.3727,450.3727,450.7214,NA,NA,NA,NA,NA,NA,NA,TRUE,1,0.8059,447.3805,450.3723,NA,NA,NA,NA,NA,50,27,0,5,5,60,1,2,6,"binary"
"CEC4E0F433B4495E8CA266915FE46705",1,"01990a9a-efb7-7e96-ac48-a1902c4bf740","01990a83-7673-7c0c-a792-bbd8fbbaf673","2025-09-02_09h26.07.410",NA,NA,453.7199,453.7199,453.7199,454.0694,NA,NA,NA,NA,NA,NA,NA,TRUE,1,1.1263,450.7224,453.7197,NA,NA,NA,NA,NA,150,35,0,6,6,92,1,2,7,"binary"
"CEC4E0F433B4495E8CA266915FE46705",1,"01990a9a-efb7-7e96-ac48-a1902c4bf740","01990a83-7673-7c0c-a792-bbd8fbbaf673","2025-09-02_09h26.07.410",NA,NA,457.0668,457.0668,457.0669,457.4162,NA,NA,NA,NA,NA,NA,NA,TRUE,1,1.6893,454.0735,457.0665,NA,NA,NA,NA,NA,12,28,0,7,7,14,1,2,8,"binary"
"CEC4E0F433B4495E8CA266915FE46705",1,"01990a9a-efb7-7e96-ac48-a1902c4bf740","01990a83-7673-7c0c-a792-bbd8fbbaf673","2025-09-02_09h26.07.410",NA,NA,460.4132,460.4133,460.4133,460.7627,NA,NA,NA,NA,NA,NA,NA,TRUE,1,2.1781,457.4209,460.413,NA,NA,NA,NA,NA,200,47,0,8,8,106,1,2,9,"binary"
"CEC4E0F433B4495E8CA266915FE46705",1,"01990a9a-efb7-7e96-ac48-a1902c4bf740","01990a83-7673-7c0c-a792-bbd8fbbaf673","2025-09-02_09h26.07.410",NA,NA,463.7612,463.7613,463.7613,464.1106,NA,NA,NA,NA,NA,NA,NA,TRUE,1,1.6364,460.7649,463.761,NA,NA,NA,NA,NA,14,28,0,9,9,20,1,2,10,"binary"
"CEC4E0F433B4495E8CA266915FE46705",1,"01990a9a-efb7-7e96-ac48-a1902c4bf740","01990a83-7673-7c0c-a792-bbd8fbbaf673","2025-09-02_09h26.07.410",NA,NA,467.1245,467.1247,467.1248,467.4735,NA,NA,NA,NA,NA,NA,NA,TRUE,1,1.5534,464.1141,467.1242,NA,NA,NA,NA,NA,12,26,0,10,10,13,1,2,11,"binary"
"CEC4E0F433B4495E8CA266915FE46705",1,"01990a9a-efb7-7e96-ac48-a1902c4bf740","01990a83-7673-7c0c-a792-bbd8fbbaf673","2025-09-02_09h26.07.410",NA,NA,470.4717,470.4718,470.4718,470.8212,NA,NA,NA,NA,NA,NA,NA,TRUE,1,1.4638,467.477,470.4715,NA,NA,NA,NA,NA,28,32,0,11,11,38,1,2,12,"binary"
"CEC4E0F433B4495E8CA266915FE46705",1,"01990a9a-efb7-7e96-ac48-a1902c4bf740","01990a83-7673-7c0c-a792-bbd8fbbaf673","2025-09-02_09h26.07.410",NA,NA,473.8184,473.8185,473.8185,474.1683,NA,NA,NA,NA,NA,NA,NA,TRUE,2,1.6941,470.825,473.8182,NA,NA,NA,NA,NA,12,31,0,12,12,15,1,2,13,"binary"
"CEC4E0F433B4495E8CA266915FE46705",1,"01990a9a-efb7-7e96-ac48-a1902c4bf740","01990a83-7673-7c0c-a792-bbd8fbbaf673","2025-09-02_09h26.07.410",NA,NA,477.1663,477.1664,477.1665,477.5156,NA,NA,NA,NA,NA,NA,NA,TRUE,1,1.2894,474.172,477.166,NA,NA,NA,NA,NA,95,47,0,13,13,82,1,2,14,"binary"
"CEC4E0F433B4495E8CA266915FE46705",1,"01990a9a-efb7-7e96-ac48-a1902c4bf740","01990a83-7673-7c0c-a792-bbd8fbbaf673","2025-09-02_09h26.07.410",NA,NA,480.513,480.5131,480.5131,480.8625,NA,NA,NA,NA,NA,NA,NA,TRUE,1,1.2224,477.5194,480.5127,NA,NA,NA,NA,NA,180,46,0,14,14,100,1,2,15,"binary"
"CEC4E0F433B4495E8CA266915FE46705",1,"01990a9a-efb7-7e96-ac48-a1902c4bf740","01990a83-7673-7c0c-a792-bbd8fbbaf673","2025-09-02_09h26.07.410",NA,NA,483.8772,483.8772,483.8773,484.2262,NA,NA,NA,NA,NA,NA,NA,TRUE,1,2.1314,480.8667,483.8769,NA,NA,NA,NA,NA,100,38,0,15,15,86,1,2,16,"binary"
"CEC4E0F433B4495E8CA266915FE46705",1,"01990a9a-efb7-7e96-ac48-a1902c4bf740","01990a83-7673-7c0c-a792-bbd8fbbaf673","2025-09-02_09h26.07.410",NA,NA,487.2243,487.2245,487.2245,487.5736,NA,NA,NA,NA,NA,NA,NA,TRUE,1,1.1465,484.2302,487.2239,NA,NA,NA,NA,NA,150,33,0,16,16,91,1,2,17,"binary"
"CEC4E0F433B4495E8CA266915FE46705",1,"01990a9a-efb7-7e96-ac48-a1902c4bf740","01990a83-7673-7c0c-a792-bbd8fbbaf673","2025-09-02_09h26.07.410",NA,NA,490.5701,490.5701,490.5701,490.9199,NA,NA,NA,NA,NA,NA,NA,TRUE,1,1.0082,487.5775,490.5701,NA,NA,NA,NA,NA,100,46,0,17,17,88,1,2,18,"binary"
"CEC4E0F433B4495E8CA266915FE46705",1,"01990a9a-efb7-7e96-ac48-a1902c4bf740","01990a83-7673-7c0c-a792-bbd8fbbaf673","2025-09-02_09h26.07.410",NA,NA,493.9176,493.9177,493.9177,494.2675,NA,NA,NA,NA,NA,NA,NA,TRUE,2,1.8789,490.9232,493.9174,NA,NA,NA,NA,NA,25,46,0,18,18,35,1,2,19,"binary"
"CEC4E0F433B4495E8CA266915FE46705",1,"01990a9a-efb7-7e96-ac48-a1902c4bf740","01990a83-7673-7c0c-a792-bbd8fbbaf673","2025-09-02_09h26.07.410",NA,NA,497.2649,497.2649,497.265,497.6146,NA,NA,NA,NA,NA,NA,NA,TRUE,1,1.4849,494.2699,497.2647,NA,NA,NA,NA,NA,50,30,0,19,19,61,1,2,20,"binary"
"CEC4E0F433B4495E8CA266915FE46705",1,"01990a9a-efb7-7e96-ac48-a1902c4bf740","01990a83-7673-7c0c-a792-bbd8fbbaf673","2025-09-02_09h26.07.410",NA,NA,500.6123,500.6124,500.6124,500.9618,NA,NA,NA,NA,NA,NA,NA,TRUE,1,1.2238,497.6185,500.6121,NA,NA,NA,NA,NA,45,31,0,20,20,56,1,2,21,"binary"
"CEC4E0F433B4495E8CA266915FE46705",1,"01990a9a-efb7-7e96-ac48-a1902c4bf740","01990a83-7673-7c0c-a792-bbd8fbbaf673","2025-09-02_09h26.07.410",NA,NA,503.9763,503.9764,503.9765,504.3254,NA,NA,NA,NA,NA,NA,NA,TRUE,1,2.6826,500.9651,503.976,NA,NA,NA,NA,NA,25,33,0,21,21,33,1,2,22,"binary"
"CEC4E0F433B4495E8CA266915FE46705",1,"01990a9a-efb7-7e96-ac48-a1902c4bf740","01990a83-7673-7c0c-a792-bbd8fbbaf673","2025-09-02_09h26.07.410",NA,NA,507.3233,507.3234,507.3235,507.6718,NA,NA,NA,NA,NA,NA,NA,TRUE,1,1.8239,504.3292,507.323,NA,NA,NA,NA,NA,95,35,0,22,22,80,1,2,23,"binary"
"CEC4E0F433B4495E8CA266915FE46705",1,"01990a9a-efb7-7e96-ac48-a1902c4bf740","01990a83-7673-7c0c-a792-bbd8fbbaf673","2025-09-02_09h26.07.410",NA,NA,510.6707,510.6708,510.6708,511.0199,NA,NA,NA,NA,NA,NA,NA,TRUE,2,1.918,507.674,510.6704,NA,NA,NA,NA,NA,45,40,0,23,23,58,1,2,24,"binary"
"CEC4E0F433B4495E8CA266915FE46705",1,"01990a9a-efb7-7e96-ac48-a1902c4bf740","01990a83-7673-7c0c-a792-bbd8fbbaf673","2025-09-02_09h26.07.410",NA,NA,514.0173,514.0173,514.0174,514.3669,NA,NA,NA,NA,NA,NA,NA,TRUE,1,1.3563,511.0242,514.0171,NA,NA,NA,NA,NA,60,33,0,24,24,67,1,2,25,"binary"
"CEC4E0F433B4495E8CA266915FE46705",1,"01990a9a-efb7-7e96-ac48-a1902c4bf740","01990a83-7673-7c0c-a792-bbd8fbbaf673","2025-09-02_09h26.07.410",NA,NA,517.3645,517.3646,517.3647,517.7137,NA,NA,NA,NA,NA,NA,NA,TRUE,2,1.624,514.37,517.3643,NA,NA,NA,NA,NA,60,54,0,25,25,71,1,2,26,"binary"
"CEC4E0F433B4495E8CA266915FE46705",1,"01990a9a-efb7-7e96-ac48-a1902c4bf740","01990a83-7673-7c0c-a792-bbd8fbbaf673","2025-09-02_09h26.07.410",NA,NA,520.7113,520.7114,520.7114,521.0608,NA,NA,NA,NA,NA,NA,NA,TRUE,1,1.1464,517.7171,520.711,NA,NA,NA,NA,NA,200,26,0,26,26,102,1,2,27,"binary"
"CEC4E0F433B4495E8CA266915FE46705",1,"01990a9a-efb7-7e96-ac48-a1902c4bf740","01990a83-7673-7c0c-a792-bbd8fbbaf673","2025-09-02_09h26.07.410",NA,NA,524.0752,524.0754,524.0754,524.4238,NA,NA,NA,NA,NA,NA,NA,TRUE,1,1.2685,521.0645,524.0749,NA,NA,NA,NA,NA,150,47,0,27,27,94,1,2,28,"binary"
"CEC4E0F433B4495E8CA266915FE46705",1,"01990a9a-efb7-7e96-ac48-a1902c4bf740","01990a83-7673-7c0c-a792-bbd8fbbaf673","2025-09-02_09h26.07.410",NA,NA,527.4216,527.4217,527.4217,527.7713,NA,NA,NA,NA,NA,NA,NA,TRUE,1,1.1155,524.4254,527.4215,NA,NA,NA,NA,NA,45,26,0,28,28,54,1,2,29,"binary"
"CEC4E0F433B4495E8CA266915FE46705",1,"01990a9a-efb7-7e96-ac48-a1902c4bf740","01990a83-7673-7c0c-a792-bbd8fbbaf673","2025-09-02_09h26.07.410",NA,NA,530.7696,530.7696,530.7696,531.1187,NA,NA,NA,NA,NA,NA,NA,TRUE,1,1.4695,527.7742,530.7694,NA,NA,NA,NA,NA,40,33,0,29,29,49,1,2,30,"binary"
"CEC4E0F433B4495E8CA266915FE46705",1,"01990a9a-efb7-7e96-ac48-a1902c4bf740","01990a83-7673-7c0c-a792-bbd8fbbaf673","2025-09-02_09h26.07.410",NA,NA,534.1167,534.1168,534.1168,534.4659,NA,NA,NA,NA,NA,NA,NA,TRUE,1,1.6904,531.1225,534.1165,NA,NA,NA,NA,NA,95,54,0,30,30,83,1,2,31,"binary"
"CEC4E0F433B4495E8CA266915FE46705",1,"01990a9a-efb7-7e96-ac48-a1902c4bf740","01990a83-7673-7c0c-a792-bbd8fbbaf673","2025-09-02_09h26.07.410",NA,NA,537.4632,537.4632,537.4633,537.8133,NA,NA,NA,NA,NA,NA,NA,TRUE,1,1.4147,534.4698,537.463,NA,NA,NA,NA,NA,200,28,0,31,31,103,1,2,32,"binary"
"CEC4E0F433B4495E8CA266915FE46705",1,"01990a9a-efb7-7e96-ac48-a1902c4bf740","01990a83-7673-7c0c-a792-bbd8fbbaf673","2025-09-02_09h26.07.410",NA,NA,540.8109,540.8109,540.811,541.1762,NA,NA,NA,NA,NA,NA,NA,TRUE,1,1.8992,537.8179,540.8105,NA,NA,NA,NA,NA,21,30,0,32,32,27,1,2,33,"binary"
"CEC4E0F433B4495E8CA266915FE46705",1,"01990a9a-efb7-7e96-ac48-a1902c4bf740","01990a83-7673-7c0c-a792-bbd8fbbaf673","2025-09-02_09h26.07.410",NA,NA,544.1747,544.1748,544.1748,544.524,NA,NA,NA,NA,NA,NA,NA,TRUE,2,2.3174,541.1802,544.1745,NA,NA,NA,NA,NA,40,47,0,33,33,52,1,2,34,"binary"
"CEC4E0F433B4495E8CA266915FE46705",1,"01990a9a-efb7-7e96-ac48-a1902c4bf740","01990a83-7673-7c0c-a792-bbd8fbbaf673","2025-09-02_09h26.07.410",NA,NA,547.5211,547.5212,547.5212,547.8708,NA,NA,NA,NA,NA,NA,NA,TRUE,1,0.909,544.5283,547.5209,NA,NA,NA,NA,NA,40,27,0,34,34,48,1,2,35,"binary"
"CEC4E0F433B4495E8CA266915FE46705",1,"01990a9a-efb7-7e96-ac48-a1902c4bf740","01990a83-7673-7c0c-a792-bbd8fbbaf673","2025-09-02_09h26.07.410",NA,NA,550.8676,550.8676,550.8676,551.2184,NA,NA,NA,NA,NA,NA,NA,TRUE,1,1.4088,547.8745,550.8675,NA,NA,NA,NA,NA,90,46,0,35,35,76,1,2,36,"binary"
"CEC4E0F433B4495E8CA266915FE46705",1,"01990a9a-efb7-7e96-ac48-a1902c4bf740","01990a83-7673-7c0c-a792-bbd8fbbaf673","2025-09-02_09h26.07.410",NA,NA,554.2147,554.2147,554.2147,554.5645,NA,NA,NA,NA,NA,NA,NA,TRUE,2,1.714,551.2219,554.2146,NA,NA,NA,NA,NA,12,35,0,36,36,17,1,2,37,"binary"
"CEC4E0F433B4495E8CA266915FE46705",1,"01990a9a-efb7-7e96-ac48-a1902c4bf740","01990a83-7673-7c0c-a792-bbd8fbbaf673","2025-09-02_09h26.07.410",NA,NA,557.5627,557.5628,557.5628,557.9124,NA,NA,NA,NA,NA,NA,NA,TRUE,2,2.8815,554.5659,557.5624,NA,NA,NA,NA,NA,40,35,0,37,37,50,1,2,38,"binary"
"CEC4E0F433B4495E8CA266915FE46705",1,"01990a9a-efb7-7e96-ac48-a1902c4bf740","01990a83-7673-7c0c-a792-bbd8fbbaf673","2025-09-02_09h26.07.410",NA,NA,560.9255,560.9255,560.9255,561.2761,NA,NA,NA,NA,NA,NA,NA,TRUE,1,1.5656,557.9161,560.9254,NA,NA,NA,NA,NA,30,30,0,38,38,45,1,2,39,"binary"
"CEC4E0F433B4495E8CA266915FE46705",1,"01990a9a-efb7-7e96-ac48-a1902c4bf740","01990a83-7673-7c0c-a792-bbd8fbbaf673","2025-09-02_09h26.07.410",NA,NA,564.2736,564.2737,564.2737,564.6228,NA,NA,NA,NA,NA,NA,NA,TRUE,2,2.4449,561.2789,564.2734,NA,NA,NA,NA,NA,7,35,0,39,39,5,1,2,40,"binary"
"CEC4E0F433B4495E8CA266915FE46705",1,"01990a9a-efb7-7e96-ac48-a1902c4bf740","01990a83-7673-7c0c-a792-bbd8fbbaf673","2025-09-02_09h26.07.410",NA,NA,567.6208,567.6208,567.6209,567.9703,NA,NA,NA,NA,NA,NA,NA,TRUE,1,0.7868,564.6267,567.6205,NA,NA,NA,NA,NA,200,35,0,40,40,104,1,2,41,"binary"
"CEC4E0F433B4495E8CA266915FE46705",1,"01990a9a-efb7-7e96-ac48-a1902c4bf740","01990a83-7673-7c0c-a792-bbd8fbbaf673","2025-09-02_09h26.07.410",NA,NA,570.9677,570.9678,570.9678,571.3173,NA,NA,NA,NA,NA,NA,NA,TRUE,1,1.7066,567.9748,570.9675,NA,NA,NA,NA,NA,7,26,0,41,41,1,1,2,42,"binary"
"CEC4E0F433B4495E8CA266915FE46705",1,"01990a9a-efb7-7e96-ac48-a1902c4bf740","01990a83-7673-7c0c-a792-bbd8fbbaf673","2025-09-02_09h26.07.410",NA,NA,574.3148,574.3148,574.3148,574.6633,NA,NA,NA,NA,NA,NA,NA,TRUE,2,2.3896,571.3209,574.3145,NA,NA,NA,NA,NA,60,40,0,42,42,69,1,2,43,"binary"
"CEC4E0F433B4495E8CA266915FE46705",1,"01990a9a-efb7-7e96-ac48-a1902c4bf740","01990a83-7673-7c0c-a792-bbd8fbbaf673","2025-09-02_09h26.07.410",NA,NA,577.662,577.6622,577.6622,578.0114,NA,NA,NA,NA,NA,NA,NA,TRUE,1,2.087,574.6649,577.6617,NA,NA,NA,NA,NA,10,27,0,43,43,8,1,2,44,"binary"
"CEC4E0F433B4495E8CA266915FE46705",1,"01990a9a-efb7-7e96-ac48-a1902c4bf740","01990a83-7673-7c0c-a792-bbd8fbbaf673","2025-09-02_09h26.07.410",NA,NA,581.0254,581.0255,581.0255,581.3748,NA,NA,NA,NA,NA,NA,NA,TRUE,1,1.4859,578.0151,581.0251,NA,NA,NA,NA,NA,14,26,0,44,44,19,1,2,45,"binary"
"CEC4E0F433B4495E8CA266915FE46705",1,"01990a9a-efb7-7e96-ac48-a1902c4bf740","01990a83-7673-7c0c-a792-bbd8fbbaf673","2025-09-02_09h26.07.410",NA,NA,584.373,584.3732,584.3732,584.7214,NA,NA,NA,NA,NA,NA,NA,TRUE,1,1.8376,581.3803,584.3727,NA,NA,NA,NA,NA,150,40,0,45,45,93,1,2,46,"binary"
"CEC4E0F433B4495E8CA266915FE46705",1,"01990a9a-efb7-7e96-ac48-a1902c4bf740","01990a83-7673-7c0c-a792-bbd8fbbaf673","2025-09-02_09h26.07.410",NA,NA,587.7197,587.7197,587.7198,588.0695,NA,NA,NA,NA,NA,NA,NA,TRUE,1,1.0299,584.7231,587.7195,NA,NA,NA,NA,NA,25,27,0,46,46,30,1,2,47,"binary"
"CEC4E0F433B4495E8CA266915FE46705",1,"01990a9a-efb7-7e96-ac48-a1902c4bf740","01990a83-7673-7c0c-a792-bbd8fbbaf673","2025-09-02_09h26.07.410",NA,NA,591.066,591.0661,591.0661,591.4154,NA,NA,NA,NA,NA,NA,NA,TRUE,2,1.1769,588.0732,591.0659,NA,NA,NA,NA,NA,90,30,0,47,47,73,1,2,48,"binary"
"CEC4E0F433B4495E8CA266915FE46705",1,"01990a9a-efb7-7e96-ac48-a1902c4bf740","01990a83-7673-7c0c-a792-bbd8fbbaf673","2025-09-02_09h26.07.410",NA,NA,594.4145,594.4148,594.4149,594.7639,NA,NA,NA,NA,NA,NA,NA,TRUE,2,1.5849,591.4174,594.4142,NA,NA,NA,NA,NA,50,54,0,48,48,65,1,2,49,"binary"
"CEC4E0F433B4495E8CA266915FE46705",1,"01990a9a-efb7-7e96-ac48-a1902c4bf740","01990a83-7673-7c0c-a792-bbd8fbbaf673","2025-09-02_09h26.07.410",NA,NA,597.7768,597.7768,597.7768,598.1109,NA,NA,NA,NA,NA,NA,NA,TRUE,1,1.8205,594.7688,597.7767,NA,NA,NA,NA,NA,200,54,0,49,49,107,1,2,50,"binary"
"CEC4E0F433B4495E8CA266915FE46705",1,"01990a9a-efb7-7e96-ac48-a1902c4bf740","01990a83-7673-7c0c-a792-bbd8fbbaf673","2025-09-02_09h26.07.410",NA,NA,601.1248,601.1249,601.1249,601.4742,NA,NA,NA,NA,NA,NA,NA,TRUE,1,1.4665,598.1144,601.1245,NA,NA,NA,NA,NA,21,26,0,50,50,24,1,2,51,"binary"
"CEC4E0F433B4495E8CA266915FE46705",1,"01990a9a-efb7-7e96-ac48-a1902c4bf740","01990a83-7673-7c0c-a792-bbd8fbbaf673","2025-09-02_09h26.07.410",NA,NA,604.4719,604.4719,604.4719,604.8214,NA,NA,NA,NA,NA,NA,NA,TRUE,1,1.6872,601.4781,604.4714,NA,NA,NA,NA,NA,60,47,0,51,51,70,1,2,52,"binary"
"CEC4E0F433B4495E8CA266915FE46705",1,"01990a9a-efb7-7e96-ac48-a1902c4bf740","01990a83-7673-7c0c-a792-bbd8fbbaf673","2025-09-02_09h26.07.410",NA,NA,607.8249,607.8251,607.8251,608.1675,NA,NA,NA,NA,NA,NA,NA,TRUE,1,2.4269,604.826,607.8246,NA,NA,NA,NA,NA,30,32,0,52,52,46,1,2,53,"binary"
"CEC4E0F433B4495E8CA266915FE46705",1,"01990a9a-efb7-7e96-ac48-a1902c4bf740","01990a83-7673-7c0c-a792-bbd8fbbaf673","2025-09-02_09h26.07.410",NA,NA,611.166,611.166,611.166,611.5152,NA,NA,NA,NA,NA,NA,NA,TRUE,1,1.3865,608.17,611.1657,NA,NA,NA,NA,NA,95,40,0,53,53,81,1,2,54,"binary"
"CEC4E0F433B4495E8CA266915FE46705",1,"01990a9a-efb7-7e96-ac48-a1902c4bf740","01990a83-7673-7c0c-a792-bbd8fbbaf673","2025-09-02_09h26.07.410",NA,NA,614.5121,614.5121,614.5122,614.8622,NA,NA,NA,NA,NA,NA,NA,TRUE,1,2.3573,611.5189,614.512,NA,NA,NA,NA,NA,180,27,0,54,54,96,1,2,55,"binary"
"CEC4E0F433B4495E8CA266915FE46705",1,"01990a9a-efb7-7e96-ac48-a1902c4bf740","01990a83-7673-7c0c-a792-bbd8fbbaf673","2025-09-02_09h26.07.410",NA,NA,617.8609,617.8609,617.861,618.2266,NA,NA,NA,NA,NA,NA,NA,TRUE,2,1.8392,614.8648,617.8605,NA,NA,NA,NA,NA,45,46,0,55,55,59,1,2,56,"binary"
"CEC4E0F433B4495E8CA266915FE46705",1,"01990a9a-efb7-7e96-ac48-a1902c4bf740","01990a83-7673-7c0c-a792-bbd8fbbaf673","2025-09-02_09h26.07.410",NA,NA,621.223,621.223,621.2231,621.5727,NA,NA,NA,NA,NA,NA,NA,TRUE,2,2.1918,618.2309,621.2228,NA,NA,NA,NA,NA,30,38,0,56,56,47,1,2,57,"binary"
"CEC4E0F433B4495E8CA266915FE46705",1,"01990a9a-efb7-7e96-ac48-a1902c4bf740","01990a83-7673-7c0c-a792-bbd8fbbaf673","2025-09-02_09h26.07.410",NA,NA,624.5705,624.5706,624.5706,624.9206,NA,NA,NA,NA,NA,NA,NA,TRUE,1,1.6334,621.5753,624.5703,NA,NA,NA,NA,NA,30,27,0,57,57,43,1,2,58,"binary"
"CEC4E0F433B4495E8CA266915FE46705",1,"01990a9a-efb7-7e96-ac48-a1902c4bf740","01990a83-7673-7c0c-a792-bbd8fbbaf673","2025-09-02_09h26.07.410",NA,NA,627.9183,627.9183,627.9184,628.2677,NA,NA,NA,NA,NA,NA,NA,TRUE,2,1.296,624.9243,627.918,NA,NA,NA,NA,NA,28,39,0,58,58,40,1,2,59,"binary"
"CEC4E0F433B4495E8CA266915FE46705",1,"01990a9a-efb7-7e96-ac48-a1902c4bf740","01990a83-7673-7c0c-a792-bbd8fbbaf673","2025-09-02_09h26.07.410",NA,NA,631.2643,631.2643,631.2643,631.6147,NA,NA,NA,NA,NA,NA,NA,TRUE,1,1.8743,628.2713,631.2641,NA,NA,NA,NA,NA,45,29,0,59,59,55,1,2,60,"binary"
"CEC4E0F433B4495E8CA266915FE46705",1,"01990a9a-efb7-7e96-ac48-a1902c4bf740","01990a83-7673-7c0c-a792-bbd8fbbaf673","2025-09-02_09h26.07.410",NA,NA,634.6125,634.6127,634.6127,634.9617,NA,NA,NA,NA,NA,NA,NA,TRUE,1,2.6405,631.6179,634.6123,NA,NA,NA,NA,NA,21,29,0,60,60,26,1,2,61,"binary"
"CEC4E0F433B4495E8CA266915FE46705",1,"01990a9a-efb7-7e96-ac48-a1902c4bf740","01990a83-7673-7c0c-a792-bbd8fbbaf673","2025-09-02_09h26.07.410",NA,NA,637.976,637.976,637.9761,638.3253,NA,NA,NA,NA,NA,NA,NA,TRUE,1,1.2177,634.9666,637.9757,NA,NA,NA,NA,NA,25,29,0,61,61,31,1,2,62,"binary"
"CEC4E0F433B4495E8CA266915FE46705",1,"01990a9a-efb7-7e96-ac48-a1902c4bf740","01990a83-7673-7c0c-a792-bbd8fbbaf673","2025-09-02_09h26.07.410",NA,NA,641.3229,641.323,641.323,641.6724,NA,NA,NA,NA,NA,NA,NA,TRUE,1,1.5109,638.3289,641.3227,NA,NA,NA,NA,NA,28,28,0,62,62,37,1,2,63,"binary"
"CEC4E0F433B4495E8CA266915FE46705",1,"01990a9a-efb7-7e96-ac48-a1902c4bf740","01990a83-7673-7c0c-a792-bbd8fbbaf673","2025-09-02_09h26.07.410",NA,NA,644.6703,644.6704,644.6704,645.019,NA,NA,NA,NA,NA,NA,NA,TRUE,2,2.2393,641.676,644.6698,NA,NA,NA,NA,NA,14,32,0,63,63,21,1,2,64,"binary"
"CEC4E0F433B4495E8CA266915FE46705",1,"01990a9a-efb7-7e96-ac48-a1902c4bf740","01990a83-7673-7c0c-a792-bbd8fbbaf673","2025-09-02_09h26.07.410",NA,NA,648.0171,648.0171,648.0171,648.3663,NA,NA,NA,NA,NA,NA,NA,TRUE,1,1.6219,645.0224,648.0168,NA,NA,NA,NA,NA,10,25,0,64,64,6,1,2,65,"binary"
"CEC4E0F433B4495E8CA266915FE46705",1,"01990a9a-efb7-7e96-ac48-a1902c4bf740","01990a83-7673-7c0c-a792-bbd8fbbaf673","2025-09-02_09h26.07.410",NA,NA,651.3643,651.3644,651.3644,651.714,NA,NA,NA,NA,NA,NA,NA,TRUE,1,1.6666,648.3709,651.3639,NA,NA,NA,NA,NA,150,31,0,65,65,90,1,2,66,"binary"
"CEC4E0F433B4495E8CA266915FE46705",1,"01990a9a-efb7-7e96-ac48-a1902c4bf740","01990a83-7673-7c0c-a792-bbd8fbbaf673","2025-09-02_09h26.07.410",NA,NA,654.7113,654.7114,654.7114,655.061,NA,NA,NA,NA,NA,NA,NA,TRUE,1,1.2982,651.7179,654.711,NA,NA,NA,NA,NA,90,26,0,66,66,72,1,2,67,"binary"
"CEC4E0F433B4495E8CA266915FE46705",1,"01990a9a-efb7-7e96-ac48-a1902c4bf740","01990a83-7673-7c0c-a792-bbd8fbbaf673","2025-09-02_09h26.07.410",NA,NA,658.075,658.0751,658.0752,658.4244,NA,NA,NA,NA,NA,NA,NA,TRUE,1,1.8012,655.0647,658.0747,NA,NA,NA,NA,NA,90,54,0,67,67,77,1,2,68,"binary"
"CEC4E0F433B4495E8CA266915FE46705",1,"01990a9a-efb7-7e96-ac48-a1902c4bf740","01990a83-7673-7c0c-a792-bbd8fbbaf673","2025-09-02_09h26.07.410",NA,NA,661.4222,661.4223,661.4223,661.7716,NA,NA,NA,NA,NA,NA,NA,TRUE,1,1.3912,658.4289,661.4219,NA,NA,NA,NA,NA,180,54,0,68,68,101,1,2,69,"binary"
"CEC4E0F433B4495E8CA266915FE46705",1,"01990a9a-efb7-7e96-ac48-a1902c4bf740","01990a83-7673-7c0c-a792-bbd8fbbaf673","2025-09-02_09h26.07.410",NA,NA,664.7691,664.7692,664.7692,665.1186,NA,NA,NA,NA,NA,NA,NA,TRUE,1,2.1234,661.7752,664.7688,NA,NA,NA,NA,NA,150,54,0,69,69,95,1,2,70,"binary"
"CEC4E0F433B4495E8CA266915FE46705",1,"01990a9a-efb7-7e96-ac48-a1902c4bf740","01990a83-7673-7c0c-a792-bbd8fbbaf673","2025-09-02_09h26.07.410",NA,NA,668.1166,668.1167,668.1167,668.4658,NA,NA,NA,NA,NA,NA,NA,TRUE,1,1.7866,665.1222,668.1164,NA,NA,NA,NA,NA,7,32,0,70,70,4,1,2,71,"binary"
"CEC4E0F433B4495E8CA266915FE46705",1,"01990a9a-efb7-7e96-ac48-a1902c4bf740","01990a83-7673-7c0c-a792-bbd8fbbaf673","2025-09-02_09h26.07.410",NA,NA,671.4629,671.463,671.4631,671.813,NA,NA,NA,NA,NA,NA,NA,TRUE,1,2.4669,668.4693,671.4627,NA,NA,NA,NA,NA,10,30,0,71,71,10,1,2,72,"binary"
"CEC4E0F433B4495E8CA266915FE46705",1,"01990a9a-efb7-7e96-ac48-a1902c4bf740","01990a83-7673-7c0c-a792-bbd8fbbaf673","2025-09-02_09h26.07.410",NA,NA,674.8267,674.8267,674.8268,675.1762,NA,NA,NA,NA,NA,NA,NA,TRUE,1,1.3365,671.8163,674.8264,NA,NA,NA,NA,NA,180,39,0,72,72,99,1,2,73,"binary"
"CEC4E0F433B4495E8CA266915FE46705",1,"01990a9a-efb7-7e96-ac48-a1902c4bf740","01990a83-7673-7c0c-a792-bbd8fbbaf673","2025-09-02_09h26.07.410",NA,NA,678.1742,678.1744,678.1744,678.5239,NA,NA,NA,NA,NA,NA,NA,TRUE,2,1.9293,675.1777,678.1739,NA,NA,NA,NA,NA,21,38,0,73,73,29,1,2,74,"binary"
"CEC4E0F433B4495E8CA266915FE46705",1,"01990a9a-efb7-7e96-ac48-a1902c4bf740","01990a83-7673-7c0c-a792-bbd8fbbaf673","2025-09-02_09h26.07.410",NA,NA,681.5218,681.5218,681.5219,681.8707,NA,NA,NA,NA,NA,NA,NA,TRUE,1,1.3783,678.5281,681.5215,NA,NA,NA,NA,NA,90,40,0,74,74,75,1,2,75,"binary"
"CEC4E0F433B4495E8CA266915FE46705",1,"01990a9a-efb7-7e96-ac48-a1902c4bf740","01990a83-7673-7c0c-a792-bbd8fbbaf673","2025-09-02_09h26.07.410",NA,NA,684.8675,684.8675,684.8675,685.2176,NA,NA,NA,NA,NA,NA,NA,TRUE,1,1.6404,681.8757,684.8674,NA,NA,NA,NA,NA,10,29,0,75,75,9,1,2,76,"binary"
"CEC4E0F433B4495E8CA266915FE46705",1,"01990a9a-efb7-7e96-ac48-a1902c4bf740","01990a83-7673-7c0c-a792-bbd8fbbaf673","2025-09-02_09h26.07.410",NA,NA,688.2145,688.2146,688.2146,688.5646,NA,NA,NA,NA,NA,NA,NA,TRUE,2,2.0005,685.2216,688.2145,NA,NA,NA,NA,NA,40,40,0,76,76,51,1,2,77,"binary"
"CEC4E0F433B4495E8CA266915FE46705",1,"01990a9a-efb7-7e96-ac48-a1902c4bf740","01990a83-7673-7c0c-a792-bbd8fbbaf673","2025-09-02_09h26.07.410",NA,NA,691.5632,691.5632,691.5633,691.912,NA,NA,NA,NA,NA,NA,NA,TRUE,2,1.4003,688.5682,691.5628,NA,NA,NA,NA,NA,40,54,0,77,77,53,1,2,78,"binary"
"CEC4E0F433B4495E8CA266915FE46705",1,"01990a9a-efb7-7e96-ac48-a1902c4bf740","01990a83-7673-7c0c-a792-bbd8fbbaf673","2025-09-02_09h26.07.410",NA,NA,694.9265,694.9269,694.9269,695.2756,NA,NA,NA,NA,NA,NA,NA,TRUE,2,1.9984,691.9158,694.9262,NA,NA,NA,NA,NA,14,35,0,78,78,22,1,2,79,"binary"
"CEC4E0F433B4495E8CA266915FE46705",1,"01990a9a-efb7-7e96-ac48-a1902c4bf740","01990a83-7673-7c0c-a792-bbd8fbbaf673","2025-09-02_09h26.07.410",NA,NA,698.2735,698.2737,698.2737,698.6228,NA,NA,NA,NA,NA,NA,NA,TRUE,2,1.9409,695.2792,698.2733,NA,NA,NA,NA,NA,28,46,0,79,79,41,1,2,80,"binary"
"CEC4E0F433B4495E8CA266915FE46705",1,"01990a9a-efb7-7e96-ac48-a1902c4bf740","01990a83-7673-7c0c-a792-bbd8fbbaf673","2025-09-02_09h26.07.410",NA,NA,701.62,701.6202,701.6202,701.969,NA,NA,NA,NA,NA,NA,NA,TRUE,1,1.0744,698.6265,701.6198,NA,NA,NA,NA,NA,100,54,0,80,80,89,1,2,81,"binary"
"CEC4E0F433B4495E8CA266915FE46705",1,"01990a9a-efb7-7e96-ac48-a1902c4bf740","01990a83-7673-7c0c-a792-bbd8fbbaf673","2025-09-02_09h26.07.410",NA,NA,704.967,704.967,704.9671,705.3165,NA,NA,NA,NA,NA,NA,NA,TRUE,1,2.7489,701.9701,704.9669,NA,NA,NA,NA,NA,100,39,0,81,81,87,1,2,82,"binary"
"CEC4E0F433B4495E8CA266915FE46705",1,"01990a9a-efb7-7e96-ac48-a1902c4bf740","01990a83-7673-7c0c-a792-bbd8fbbaf673","2025-09-02_09h26.07.410",NA,NA,708.3148,708.3149,708.3149,708.6641,NA,NA,NA,NA,NA,NA,NA,TRUE,1,1.4508,705.3186,708.3146,NA,NA,NA,NA,NA,12,25,0,82,82,12,1,2,83,"binary"
"CEC4E0F433B4495E8CA266915FE46705",1,"01990a9a-efb7-7e96-ac48-a1902c4bf740","01990a83-7673-7c0c-a792-bbd8fbbaf673","2025-09-02_09h26.07.410",NA,NA,711.6612,711.6613,711.6613,712.0111,NA,NA,NA,NA,NA,NA,NA,TRUE,1,0.8553,708.6677,711.661,NA,NA,NA,NA,NA,14,25,0,83,83,18,1,2,84,"binary"
"CEC4E0F433B4495E8CA266915FE46705",1,"01990a9a-efb7-7e96-ac48-a1902c4bf740","01990a83-7673-7c0c-a792-bbd8fbbaf673","2025-09-02_09h26.07.410",NA,NA,715.0257,715.0258,715.0259,715.3747,NA,NA,NA,NA,NA,NA,NA,TRUE,1,1.0526,712.0142,715.0254,NA,NA,NA,NA,NA,100,31,0,84,84,85,1,2,85,"binary"
"CEC4E0F433B4495E8CA266915FE46705",1,"01990a9a-efb7-7e96-ac48-a1902c4bf740","01990a83-7673-7c0c-a792-bbd8fbbaf673","2025-09-02_09h26.07.410",NA,NA,718.3728,718.3729,718.3729,718.7219,NA,NA,NA,NA,NA,NA,NA,TRUE,1,0.9424,715.3792,718.3725,NA,NA,NA,NA,NA,95,31,0,85,85,78,1,2,86,"binary"
"CEC4E0F433B4495E8CA266915FE46705",1,"01990a9a-efb7-7e96-ac48-a1902c4bf740","01990a83-7673-7c0c-a792-bbd8fbbaf673","2025-09-02_09h26.07.410",NA,NA,721.7187,721.7187,721.7187,722.0692,NA,NA,NA,NA,NA,NA,NA,TRUE,1,0.9914,718.7258,721.7186,NA,NA,NA,NA,NA,25,35,0,86,86,34,1,2,87,"binary"
"CEC4E0F433B4495E8CA266915FE46705",1,"01990a9a-efb7-7e96-ac48-a1902c4bf740","01990a83-7673-7c0c-a792-bbd8fbbaf673","2025-09-02_09h26.07.410",NA,NA,725.0672,725.0674,725.0674,725.4161,NA,NA,NA,NA,NA,NA,NA,TRUE,1,0.8723,722.0724,725.0668,NA,NA,NA,NA,NA,10,26,0,87,87,7,1,2,88,"binary"
"CEC4E0F433B4495E8CA266915FE46705",1,"01990a9a-efb7-7e96-ac48-a1902c4bf740","01990a83-7673-7c0c-a792-bbd8fbbaf673","2025-09-02_09h26.07.410",NA,NA,728.4142,728.4142,728.4143,728.7633,NA,NA,NA,NA,NA,NA,NA,TRUE,1,2.0485,725.4211,728.4137,NA,NA,NA,NA,NA,28,35,0,88,88,39,1,2,89,"binary"
"CEC4E0F433B4495E8CA266915FE46705",1,"01990a9a-efb7-7e96-ac48-a1902c4bf740","01990a83-7673-7c0c-a792-bbd8fbbaf673","2025-09-02_09h26.07.410",NA,NA,731.7615,731.7616,731.7616,732.1105,NA,NA,NA,NA,NA,NA,NA,TRUE,2,2.0012,728.7669,731.7612,NA,NA,NA,NA,NA,14,39,0,89,89,23,1,2,90,"binary"
"CEC4E0F433B4495E8CA266915FE46705",1,"01990a9a-efb7-7e96-ac48-a1902c4bf740","01990a83-7673-7c0c-a792-bbd8fbbaf673","2025-09-02_09h26.07.410",NA,NA,735.1238,735.1239,735.1239,735.4737,NA,NA,NA,NA,NA,NA,NA,TRUE,1,1.0044,732.115,735.1237,NA,NA,NA,NA,NA,28,26,0,90,90,36,1,2,91,"binary"
"CEC4E0F433B4495E8CA266915FE46705",1,"01990a9a-efb7-7e96-ac48-a1902c4bf740","01990a83-7673-7c0c-a792-bbd8fbbaf673","2025-09-02_09h26.07.410",NA,NA,738.471,738.471,738.471,738.8209,NA,NA,NA,NA,NA,NA,NA,TRUE,1,1.563,735.4752,738.4709,NA,NA,NA,NA,NA,95,33,0,91,91,79,1,2,92,"binary"
"CEC4E0F433B4495E8CA266915FE46705",1,"01990a9a-efb7-7e96-ac48-a1902c4bf740","01990a83-7673-7c0c-a792-bbd8fbbaf673","2025-09-02_09h26.07.410",NA,NA,741.8191,741.8192,741.8193,742.1681,NA,NA,NA,NA,NA,NA,NA,TRUE,1,1.7288,738.8247,741.8189,NA,NA,NA,NA,NA,12,33,0,92,92,16,1,2,93,"binary"
"CEC4E0F433B4495E8CA266915FE46705",1,"01990a9a-efb7-7e96-ac48-a1902c4bf740","01990a83-7673-7c0c-a792-bbd8fbbaf673","2025-09-02_09h26.07.410",NA,NA,745.1658,745.1659,745.1659,745.5147,NA,NA,NA,NA,NA,NA,NA,TRUE,1,2.0446,742.1728,745.1656,NA,NA,NA,NA,NA,30,29,0,93,93,44,1,2,94,"binary"
"CEC4E0F433B4495E8CA266915FE46705",1,"01990a9a-efb7-7e96-ac48-a1902c4bf740","01990a83-7673-7c0c-a792-bbd8fbbaf673","2025-09-02_09h26.07.410",NA,NA,748.5132,748.5133,748.5133,748.8625,NA,NA,NA,NA,NA,NA,NA,TRUE,2,1.8544,745.5166,748.5129,NA,NA,NA,NA,NA,7,30,0,94,94,3,1,2,95,"binary"
"CEC4E0F433B4495E8CA266915FE46705",1,"01990a9a-efb7-7e96-ac48-a1902c4bf740","01990a83-7673-7c0c-a792-bbd8fbbaf673","2025-09-02_09h26.07.410",NA,NA,751.8765,751.8768,751.8768,752.226,NA,NA,NA,NA,NA,NA,NA,TRUE,1,1.0822,748.8667,751.8763,NA,NA,NA,NA,NA,200,39,0,95,95,105,1,2,96,"binary"
"CEC4E0F433B4495E8CA266915FE46705",1,"01990a9a-efb7-7e96-ac48-a1902c4bf740","01990a83-7673-7c0c-a792-bbd8fbbaf673","2025-09-02_09h26.07.410",NA,NA,755.2232,755.2232,755.2232,755.5731,NA,NA,NA,NA,NA,NA,NA,TRUE,1,1.3296,752.2293,755.2231,NA,NA,NA,NA,NA,25,31,0,96,96,32,1,2,97,"binary"
"CEC4E0F433B4495E8CA266915FE46705",1,"01990a9a-efb7-7e96-ac48-a1902c4bf740","01990a83-7673-7c0c-a792-bbd8fbbaf673","2025-09-02_09h26.07.410",NA,NA,758.571,758.571,758.5711,758.9202,NA,NA,NA,NA,NA,NA,NA,TRUE,1,1.8303,755.5775,758.5708,NA,NA,NA,NA,NA,90,33,0,97,97,74,1,2,98,"binary"
"CEC4E0F433B4495E8CA266915FE46705",1,"01990a9a-efb7-7e96-ac48-a1902c4bf740","01990a83-7673-7c0c-a792-bbd8fbbaf673","2025-09-02_09h26.07.410",NA,NA,761.9179,761.918,761.918,762.2677,NA,NA,NA,NA,NA,NA,NA,TRUE,1,2.3393,758.9241,761.9177,NA,NA,NA,NA,NA,50,40,0,98,98,63,1,2,99,"binary"
"CEC4E0F433B4495E8CA266915FE46705",1,"01990a9a-efb7-7e96-ac48-a1902c4bf740","01990a83-7673-7c0c-a792-bbd8fbbaf673","2025-09-02_09h26.07.410",NA,NA,765.2654,765.2654,765.2655,765.6144,NA,NA,NA,NA,NA,NA,NA,TRUE,1,1.1337,762.2711,765.2652,NA,NA,NA,NA,NA,180,31,0,99,99,97,1,2,100,"binary"
"CEC4E0F433B4495E8CA266915FE46705",1,"01990a9a-efb7-7e96-ac48-a1902c4bf740","01990a83-7673-7c0c-a792-bbd8fbbaf673","2025-09-02_09h26.07.410",NA,NA,768.6122,768.6123,768.6123,768.9615,NA,NA,NA,NA,NA,NA,NA,TRUE,2,2.7991,765.618,768.6119,NA,NA,NA,NA,NA,50,46,0,100,100,64,1,2,101,"binary"
"CEC4E0F433B4495E8CA266915FE46705",1,"01990a9a-efb7-7e96-ac48-a1902c4bf740","01990a83-7673-7c0c-a792-bbd8fbbaf673","2025-09-02_09h26.07.410",NA,NA,771.9749,771.975,771.975,772.325,NA,NA,NA,NA,NA,NA,NA,TRUE,1,1.7871,768.9656,771.9748,NA,NA,NA,NA,NA,7,25,0,101,101,0,1,2,102,"binary"
"CEC4E0F433B4495E8CA266915FE46705",1,"01990a9a-efb7-7e96-ac48-a1902c4bf740","01990a83-7673-7c0c-a792-bbd8fbbaf673","2025-09-02_09h26.07.410",NA,NA,775.3221,775.3221,775.3221,775.6717,NA,NA,NA,NA,NA,NA,NA,TRUE,1,2.0582,772.3286,775.322,NA,NA,NA,NA,NA,21,32,0,102,102,28,1,2,103,"binary"
"CEC4E0F433B4495E8CA266915FE46705",1,"01990a9a-efb7-7e96-ac48-a1902c4bf740","01990a83-7673-7c0c-a792-bbd8fbbaf673","2025-09-02_09h26.07.410",NA,NA,778.6704,778.6704,778.6704,779.0198,NA,NA,NA,NA,NA,NA,NA,TRUE,2,1.9833,775.674,778.6701,NA,NA,NA,NA,NA,7,28,0,103,103,2,1,2,104,"binary"
"CEC4E0F433B4495E8CA266915FE46705",1,"01990a9a-efb7-7e96-ac48-a1902c4bf740","01990a83-7673-7c0c-a792-bbd8fbbaf673","2025-09-02_09h26.07.410",NA,NA,782.0174,782.0174,782.0174,782.3663,NA,NA,NA,NA,NA,NA,NA,TRUE,1,1.6895,779.0243,782.0171,NA,NA,NA,NA,NA,100,26,0,104,104,84,1,2,105,"binary"
"CEC4E0F433B4495E8CA266915FE46705",1,"01990a9a-efb7-7e96-ac48-a1902c4bf740","01990a83-7673-7c0c-a792-bbd8fbbaf673","2025-09-02_09h26.07.410",NA,NA,785.3642,785.3643,785.3643,785.7137,NA,NA,NA,NA,NA,NA,NA,TRUE,1,1.1646,782.3702,785.3639,NA,NA,NA,NA,NA,60,29,0,105,105,66,1,2,106,"binary"
"CEC4E0F433B4495E8CA266915FE46705",1,"01990a9a-efb7-7e96-ac48-a1902c4bf740","01990a83-7673-7c0c-a792-bbd8fbbaf673","2025-09-02_09h26.07.410",NA,NA,788.7106,788.7106,788.7106,789.0611,NA,NA,NA,NA,NA,NA,NA,TRUE,1,1.8335,785.7172,788.7104,NA,NA,NA,NA,NA,50,35,0,106,106,62,1,2,107,"binary"
"CEC4E0F433B4495E8CA266915FE46705",1,"01990a9a-efb7-7e96-ac48-a1902c4bf740","01990a83-7673-7c0c-a792-bbd8fbbaf673","2025-09-02_09h26.07.410",NA,NA,792.075,792.0752,792.0752,792.4243,NA,NA,NA,NA,NA,NA,NA,TRUE,1,0.8264,789.0645,792.0748,NA,NA,NA,NA,NA,180,35,0,107,107,98,1,2,108,"binary"
