"participant","session","assignmentId","projectId","date","practiceTrial.started","practiceTrial.stopped","tooLate.started","tooLate.stopped","blank.started","blank.stopped","trials_pract.thisRepN","trials_pract.thisTrialN","trials_pract.thisN","trials_pract.thisIndex","trials_pract.ran","delay_pract","amount_pract","responseMade","key","rt","trial.started","trial.stopped","trials.thisRepN","trials.thisTrialN","trials.thisN","trials.thisIndex","trials.ran","delay","amount","trials_2.thisRepN","trials_2.thisTrialN","trials_2.thisN","trials_2.thisIndex","trials_2.ran","block","trial","taskType"
"DA2A97DAB6E64CA18FA0EF71778F34A0",1,"0198f77e-ede9-791c-ae8a-ba23663693ad","0198f767-55c9-7875-8d21-563b3c0b86ed","2025-08-29_15h23.02.536",18.8751,21.8505,21.8517,21.8522,21.8523,22.2004,0,0,0,3,1,3,27,TRUE,1,2.3786,NA,NA,NA,NA,NA,NA,NA,NA,NA,NA,NA,NA,NA,NA,0,1,"binary"
"DA2A97DAB6E64CA18FA0EF71778F34A0",1,"0198f77e-ede9-791c-ae8a-ba23663693ad","0198f767-55c9-7875-8d21-563b3c0b86ed","2025-08-29_15h23.02.536",22.2043,25.1963,25.1968,25.1971,25.1971,25.5464,0,1,1,4,1,30,40,TRUE,1,2.017,NA,NA,NA,NA,NA,NA,NA,NA,NA,NA,NA,NA,NA,NA,0,2,"binary"
"DA2A97DAB6E64CA18FA0EF71778F34A0",1,"0198f77e-ede9-791c-ae8a-ba23663693ad","0198f767-55c9-7875-8d21-563b3c0b86ed","2025-08-29_15h23.02.536",25.5495,28.5432,28.5437,28.5438,28.5439,28.8927,0,2,2,2,1,14,45,TRUE,2,1.9839,NA,NA,NA,NA,NA,NA,NA,NA,NA,NA,NA,NA,NA,NA,0,3,"binary"
"DA2A97DAB6E64CA18FA0EF71778F34A0",1,"0198f77e-ede9-791c-ae8a-ba23663693ad","0198f767-55c9-7875-8d21-563b3c0b86ed","2025-08-29_15h23.02.536",28.8958,31.9083,31.9085,31.9274,31.9275,32.2564,0,3,3,0,1,7,30,TRUE,2,2.2624,NA,NA,NA,NA,NA,NA,NA,NA,NA,NA,NA,NA,NA,NA,0,4,"binary"
"DA2A97DAB6E64CA18FA0EF71778F34A0",1,"0198f77e-ede9-791c-ae8a-ba23663693ad","0198f767-55c9-7875-8d21-563b3c0b86ed","2025-08-29_15h23.02.536",32.2589,35.2541,35.2542,35.2543,35.2543,35.6031,0,4,4,1,1,100,50,TRUE,1,1.4322,NA,NA,NA,NA,NA,NA,NA,NA,NA,NA,NA,NA,NA,NA,0,5,"binary"
"DA2A97DAB6E64CA18FA0EF71778F34A0",1,"0198f77e-ede9-791c-ae8a-ba23663693ad","0198f767-55c9-7875-8d21-563b3c0b86ed","2025-08-29_15h23.02.536",NA,NA,54.336,54.3364,54.3366,54.6846,NA,NA,NA,NA,NA,NA,NA,TRUE,1,1.8082,51.3648,54.3355,0,0,0,89,1,100,54,NA,NA,NA,NA,NA,1,1,"binary"
"DA2A97DAB6E64CA18FA0EF71778F34A0",1,"0198f77e-ede9-791c-ae8a-ba23663693ad","0198f767-55c9-7875-8d21-563b3c0b86ed","2025-08-29_15h23.02.536",NA,NA,57.6818,57.6819,57.6819,58.0343,NA,NA,NA,NA,NA,NA,NA,TRUE,1,1.5116,54.6873,57.6815,0,1,1,35,1,25,46,NA,NA,NA,NA,NA,1,2,"binary"
"DA2A97DAB6E64CA18FA0EF71778F34A0",1,"0198f77e-ede9-791c-ae8a-ba23663693ad","0198f767-55c9-7875-8d21-563b3c0b86ed","2025-08-29_15h23.02.536",NA,NA,61.0288,61.0289,61.0289,61.3777,NA,NA,NA,NA,NA,NA,NA,TRUE,1,1.3238,58.037,61.0283,0,2,2,69,1,60,40,NA,NA,NA,NA,NA,1,3,"binary"
"DA2A97DAB6E64CA18FA0EF71778F34A0",1,"0198f77e-ede9-791c-ae8a-ba23663693ad","0198f767-55c9-7875-8d21-563b3c0b86ed","2025-08-29_15h23.02.536",NA,NA,64.3921,64.3926,64.3926,64.7411,NA,NA,NA,NA,NA,NA,NA,TRUE,1,1.0123,61.3806,64.3917,0,3,3,52,1,40,47,NA,NA,NA,NA,NA,1,4,"binary"
"DA2A97DAB6E64CA18FA0EF71778F34A0",1,"0198f77e-ede9-791c-ae8a-ba23663693ad","0198f767-55c9-7875-8d21-563b3c0b86ed","2025-08-29_15h23.02.536",NA,NA,67.7413,67.7415,67.7415,68.0899,NA,NA,NA,NA,NA,NA,NA,TRUE,1,0.7859,64.744,67.741,0,4,4,77,1,90,54,NA,NA,NA,NA,NA,1,5,"binary"
"DA2A97DAB6E64CA18FA0EF71778F34A0",1,"0198f77e-ede9-791c-ae8a-ba23663693ad","0198f767-55c9-7875-8d21-563b3c0b86ed","2025-08-29_15h23.02.536",NA,NA,71.0857,71.0858,71.0859,71.4346,NA,NA,NA,NA,NA,NA,NA,TRUE,1,1.399,68.092,71.0852,0,5,5,68,1,60,35,NA,NA,NA,NA,NA,1,6,"binary"
"DA2A97DAB6E64CA18FA0EF71778F34A0",1,"0198f77e-ede9-791c-ae8a-ba23663693ad","0198f767-55c9-7875-8d21-563b3c0b86ed","2025-08-29_15h23.02.536",NA,NA,74.4321,74.4322,74.4323,74.7814,NA,NA,NA,NA,NA,NA,NA,TRUE,1,0.6942,71.4372,74.4316,0,6,6,74,1,90,33,NA,NA,NA,NA,NA,1,7,"binary"
"DA2A97DAB6E64CA18FA0EF71778F34A0",1,"0198f77e-ede9-791c-ae8a-ba23663693ad","0198f767-55c9-7875-8d21-563b3c0b86ed","2025-08-29_15h23.02.536",NA,NA,77.7813,77.7813,77.7813,78.1276,NA,NA,NA,NA,NA,NA,NA,TRUE,1,1.3642,74.7838,77.7813,0,7,7,34,1,25,35,NA,NA,NA,NA,NA,1,8,"binary"
"DA2A97DAB6E64CA18FA0EF71778F34A0",1,"0198f77e-ede9-791c-ae8a-ba23663693ad","0198f767-55c9-7875-8d21-563b3c0b86ed","2025-08-29_15h23.02.536",NA,NA,81.1257,81.1258,81.1258,81.4912,NA,NA,NA,NA,NA,NA,NA,TRUE,1,0.7705,78.1295,81.1254,0,8,8,91,1,150,33,NA,NA,NA,NA,NA,1,9,"binary"
"DA2A97DAB6E64CA18FA0EF71778F34A0",1,"0198f77e-ede9-791c-ae8a-ba23663693ad","0198f767-55c9-7875-8d21-563b3c0b86ed","2025-08-29_15h23.02.536",NA,NA,84.4883,84.4886,84.4886,84.8376,NA,NA,NA,NA,NA,NA,NA,TRUE,1,0.7708,81.493,84.4882,0,9,9,105,1,200,39,NA,NA,NA,NA,NA,1,10,"binary"
"DA2A97DAB6E64CA18FA0EF71778F34A0",1,"0198f77e-ede9-791c-ae8a-ba23663693ad","0198f767-55c9-7875-8d21-563b3c0b86ed","2025-08-29_15h23.02.536",NA,NA,87.8349,87.8349,87.835,88.1861,NA,NA,NA,NA,NA,NA,NA,TRUE,1,1.0083,84.8391,87.8347,0,10,10,43,1,30,27,NA,NA,NA,NA,NA,1,11,"binary"
"DA2A97DAB6E64CA18FA0EF71778F34A0",1,"0198f77e-ede9-791c-ae8a-ba23663693ad","0198f767-55c9-7875-8d21-563b3c0b86ed","2025-08-29_15h23.02.536",NA,NA,91.1823,91.1825,91.1825,91.5318,NA,NA,NA,NA,NA,NA,NA,TRUE,1,1.0679,88.1874,91.1819,0,11,11,71,1,60,54,NA,NA,NA,NA,NA,1,12,"binary"
"DA2A97DAB6E64CA18FA0EF71778F34A0",1,"0198f77e-ede9-791c-ae8a-ba23663693ad","0198f767-55c9-7875-8d21-563b3c0b86ed","2025-08-29_15h23.02.536",NA,NA,94.5291,94.5292,94.5292,94.8782,NA,NA,NA,NA,NA,NA,NA,TRUE,1,1.5675,91.5347,94.5288,0,12,12,47,1,30,38,NA,NA,NA,NA,NA,1,13,"binary"
"DA2A97DAB6E64CA18FA0EF71778F34A0",1,"0198f77e-ede9-791c-ae8a-ba23663693ad","0198f767-55c9-7875-8d21-563b3c0b86ed","2025-08-29_15h23.02.536",NA,NA,97.8756,97.8758,97.8758,98.2453,NA,NA,NA,NA,NA,NA,NA,TRUE,1,0.7834,94.8804,97.8753,0,13,13,83,1,95,54,NA,NA,NA,NA,NA,1,14,"binary"
"DA2A97DAB6E64CA18FA0EF71778F34A0",1,"0198f77e-ede9-791c-ae8a-ba23663693ad","0198f767-55c9-7875-8d21-563b3c0b86ed","2025-08-29_15h23.02.536",NA,NA,101.2408,101.241,101.241,101.5885,NA,NA,NA,NA,NA,NA,NA,TRUE,2,1.0534,98.2478,101.2406,0,14,14,23,1,14,39,NA,NA,NA,NA,NA,1,15,"binary"
"DA2A97DAB6E64CA18FA0EF71778F34A0",1,"0198f77e-ede9-791c-ae8a-ba23663693ad","0198f767-55c9-7875-8d21-563b3c0b86ed","2025-08-29_15h23.02.536",NA,NA,104.5859,104.5861,104.5861,104.935,NA,NA,NA,NA,NA,NA,NA,TRUE,1,1.1159,101.5907,104.5854,0,15,15,55,1,45,29,NA,NA,NA,NA,NA,1,16,"binary"
"DA2A97DAB6E64CA18FA0EF71778F34A0",1,"0198f77e-ede9-791c-ae8a-ba23663693ad","0198f767-55c9-7875-8d21-563b3c0b86ed","2025-08-29_15h23.02.536",NA,NA,107.9326,107.9327,107.9327,108.2817,NA,NA,NA,NA,NA,NA,NA,TRUE,1,1.6392,104.9375,107.9323,0,16,16,8,1,10,27,NA,NA,NA,NA,NA,1,17,"binary"
"DA2A97DAB6E64CA18FA0EF71778F34A0",1,"0198f77e-ede9-791c-ae8a-ba23663693ad","0198f767-55c9-7875-8d21-563b3c0b86ed","2025-08-29_15h23.02.536",NA,NA,111.2791,111.2792,111.2793,111.6289,NA,NA,NA,NA,NA,NA,NA,TRUE,1,0.8969,108.2847,111.2788,0,17,17,73,1,90,30,NA,NA,NA,NA,NA,1,18,"binary"
"DA2A97DAB6E64CA18FA0EF71778F34A0",1,"0198f77e-ede9-791c-ae8a-ba23663693ad","0198f767-55c9-7875-8d21-563b3c0b86ed","2025-08-29_15h23.02.536",NA,NA,114.6293,114.6293,114.6294,114.9755,NA,NA,NA,NA,NA,NA,NA,TRUE,1,1.0785,111.6312,114.6292,0,18,18,61,1,50,30,NA,NA,NA,NA,NA,1,19,"binary"
"DA2A97DAB6E64CA18FA0EF71778F34A0",1,"0198f77e-ede9-791c-ae8a-ba23663693ad","0198f767-55c9-7875-8d21-563b3c0b86ed","2025-08-29_15h23.02.536",NA,NA,117.9892,117.9896,117.9896,118.3387,NA,NA,NA,NA,NA,NA,NA,TRUE,1,1.5932,114.9781,117.9889,0,19,19,44,1,30,29,NA,NA,NA,NA,NA,1,20,"binary"
"DA2A97DAB6E64CA18FA0EF71778F34A0",1,"0198f77e-ede9-791c-ae8a-ba23663693ad","0198f767-55c9-7875-8d21-563b3c0b86ed","2025-08-29_15h23.02.536",NA,NA,121.3363,121.3364,121.3364,121.6848,NA,NA,NA,NA,NA,NA,NA,TRUE,1,0.8507,118.3412,121.336,0,20,20,82,1,95,47,NA,NA,NA,NA,NA,1,21,"binary"
"DA2A97DAB6E64CA18FA0EF71778F34A0",1,"0198f77e-ede9-791c-ae8a-ba23663693ad","0198f767-55c9-7875-8d21-563b3c0b86ed","2025-08-29_15h23.02.536",NA,NA,124.6828,124.683,124.683,125.0322,NA,NA,NA,NA,NA,NA,NA,TRUE,1,0.6071,121.6865,124.6826,0,21,21,107,1,200,54,NA,NA,NA,NA,NA,1,22,"binary"
"DA2A97DAB6E64CA18FA0EF71778F34A0",1,"0198f77e-ede9-791c-ae8a-ba23663693ad","0198f767-55c9-7875-8d21-563b3c0b86ed","2025-08-29_15h23.02.536",NA,NA,128.0295,128.0296,128.0296,128.3791,NA,NA,NA,NA,NA,NA,NA,TRUE,1,0.78,125.0346,128.0291,0,22,22,21,1,14,32,NA,NA,NA,NA,NA,1,23,"binary"
"DA2A97DAB6E64CA18FA0EF71778F34A0",1,"0198f77e-ede9-791c-ae8a-ba23663693ad","0198f767-55c9-7875-8d21-563b3c0b86ed","2025-08-29_15h23.02.536",NA,NA,131.3764,131.3765,131.3766,131.7254,NA,NA,NA,NA,NA,NA,NA,TRUE,1,0.9676,128.3815,131.376,0,23,23,92,1,150,35,NA,NA,NA,NA,NA,1,24,"binary"
"DA2A97DAB6E64CA18FA0EF71778F34A0",1,"0198f77e-ede9-791c-ae8a-ba23663693ad","0198f767-55c9-7875-8d21-563b3c0b86ed","2025-08-29_15h23.02.536",NA,NA,134.7425,134.7427,134.7427,135.0891,NA,NA,NA,NA,NA,NA,NA,TRUE,1,1.0048,131.7276,134.742,0,24,24,70,1,60,47,NA,NA,NA,NA,NA,1,25,"binary"
"DA2A97DAB6E64CA18FA0EF71778F34A0",1,"0198f77e-ede9-791c-ae8a-ba23663693ad","0198f767-55c9-7875-8d21-563b3c0b86ed","2025-08-29_15h23.02.536",NA,NA,138.0864,138.0865,138.0865,138.4358,NA,NA,NA,NA,NA,NA,NA,TRUE,2,1.6382,135.0914,138.0861,0,25,25,51,1,40,40,NA,NA,NA,NA,NA,1,26,"binary"
"DA2A97DAB6E64CA18FA0EF71778F34A0",1,"0198f77e-ede9-791c-ae8a-ba23663693ad","0198f767-55c9-7875-8d21-563b3c0b86ed","2025-08-29_15h23.02.536",NA,NA,141.4331,141.4332,141.4332,141.7823,NA,NA,NA,NA,NA,NA,NA,TRUE,1,0.8818,138.4386,141.4327,0,26,26,72,1,90,26,NA,NA,NA,NA,NA,1,27,"binary"
"DA2A97DAB6E64CA18FA0EF71778F34A0",1,"0198f77e-ede9-791c-ae8a-ba23663693ad","0198f767-55c9-7875-8d21-563b3c0b86ed","2025-08-29_15h23.02.536",NA,NA,144.7798,144.7799,144.78,145.1296,NA,NA,NA,NA,NA,NA,NA,TRUE,2,2.2677,141.785,144.7795,0,27,27,9,1,10,29,NA,NA,NA,NA,NA,1,28,"binary"
"DA2A97DAB6E64CA18FA0EF71778F34A0",1,"0198f77e-ede9-791c-ae8a-ba23663693ad","0198f767-55c9-7875-8d21-563b3c0b86ed","2025-08-29_15h23.02.536",NA,NA,148.1259,148.1259,148.1259,148.4757,NA,NA,NA,NA,NA,NA,NA,TRUE,1,0.8331,145.1316,148.1256,0,28,28,88,1,100,46,NA,NA,NA,NA,NA,1,29,"binary"
"DA2A97DAB6E64CA18FA0EF71778F34A0",1,"0198f77e-ede9-791c-ae8a-ba23663693ad","0198f767-55c9-7875-8d21-563b3c0b86ed","2025-08-29_15h23.02.536",NA,NA,151.4901,151.4906,151.4906,151.839,NA,NA,NA,NA,NA,NA,NA,TRUE,1,0.945,148.4783,151.4898,0,29,29,59,1,45,46,NA,NA,NA,NA,NA,1,30,"binary"
"DA2A97DAB6E64CA18FA0EF71778F34A0",1,"0198f77e-ede9-791c-ae8a-ba23663693ad","0198f767-55c9-7875-8d21-563b3c0b86ed","2025-08-29_15h23.02.536",NA,NA,154.8366,154.8368,154.8369,155.186,NA,NA,NA,NA,NA,NA,NA,TRUE,2,1.3843,151.8407,154.8364,0,30,30,27,1,21,30,NA,NA,NA,NA,NA,1,31,"binary"
"DA2A97DAB6E64CA18FA0EF71778F34A0",1,"0198f77e-ede9-791c-ae8a-ba23663693ad","0198f767-55c9-7875-8d21-563b3c0b86ed","2025-08-29_15h23.02.536",NA,NA,158.1838,158.1839,158.1839,158.5328,NA,NA,NA,NA,NA,NA,NA,TRUE,2,1.541,155.1886,158.1835,0,31,31,53,1,40,54,NA,NA,NA,NA,NA,1,32,"binary"
"DA2A97DAB6E64CA18FA0EF71778F34A0",1,"0198f77e-ede9-791c-ae8a-ba23663693ad","0198f767-55c9-7875-8d21-563b3c0b86ed","2025-08-29_15h23.02.536",NA,NA,161.5343,161.5345,161.5346,161.8832,NA,NA,NA,NA,NA,NA,NA,TRUE,1,1.6228,158.5356,161.5339,0,32,32,1,1,7,26,NA,NA,NA,NA,NA,1,33,"binary"
"DA2A97DAB6E64CA18FA0EF71778F34A0",1,"0198f77e-ede9-791c-ae8a-ba23663693ad","0198f767-55c9-7875-8d21-563b3c0b86ed","2025-08-29_15h23.02.536",NA,NA,164.8803,164.8804,164.8805,165.2302,NA,NA,NA,NA,NA,NA,NA,TRUE,1,1.0661,161.8853,164.8802,0,33,33,6,1,10,25,NA,NA,NA,NA,NA,1,34,"binary"
"DA2A97DAB6E64CA18FA0EF71778F34A0",1,"0198f77e-ede9-791c-ae8a-ba23663693ad","0198f767-55c9-7875-8d21-563b3c0b86ed","2025-08-29_15h23.02.536",NA,NA,168.2403,168.4895,168.4896,168.5896,NA,NA,NA,NA,NA,NA,NA,FALSE,NA,NA,165.2319,168.2399,0,34,34,32,1,25,31,NA,NA,NA,NA,NA,1,35,"binary"
"DA2A97DAB6E64CA18FA0EF71778F34A0",1,"0198f77e-ede9-791c-ae8a-ba23663693ad","0198f767-55c9-7875-8d21-563b3c0b86ed","2025-08-29_15h23.02.536",NA,NA,171.5904,171.5905,171.5905,171.9363,NA,NA,NA,NA,NA,NA,NA,TRUE,1,1.5492,168.592,171.5902,0,35,35,90,1,150,31,NA,NA,NA,NA,NA,1,36,"binary"
"DA2A97DAB6E64CA18FA0EF71778F34A0",1,"0198f77e-ede9-791c-ae8a-ba23663693ad","0198f767-55c9-7875-8d21-563b3c0b86ed","2025-08-29_15h23.02.536",NA,NA,174.9352,174.9352,174.9353,175.2828,NA,NA,NA,NA,NA,NA,NA,TRUE,1,0.8226,171.9392,174.935,0,36,36,65,1,50,54,NA,NA,NA,NA,NA,1,37,"binary"
"DA2A97DAB6E64CA18FA0EF71778F34A0",1,"0198f77e-ede9-791c-ae8a-ba23663693ad","0198f767-55c9-7875-8d21-563b3c0b86ed","2025-08-29_15h23.02.536",NA,NA,178.2799,178.2801,178.2801,178.6295,NA,NA,NA,NA,NA,NA,NA,TRUE,1,0.6238,175.285,178.2797,0,37,37,106,1,200,47,NA,NA,NA,NA,NA,1,38,"binary"
"DA2A97DAB6E64CA18FA0EF71778F34A0",1,"0198f77e-ede9-791c-ae8a-ba23663693ad","0198f767-55c9-7875-8d21-563b3c0b86ed","2025-08-29_15h23.02.536",NA,NA,181.6272,181.6273,181.6273,181.9765,NA,NA,NA,NA,NA,NA,NA,TRUE,1,0.7107,178.632,181.6268,0,38,38,63,1,50,40,NA,NA,NA,NA,NA,1,39,"binary"
"DA2A97DAB6E64CA18FA0EF71778F34A0",1,"0198f77e-ede9-791c-ae8a-ba23663693ad","0198f767-55c9-7875-8d21-563b3c0b86ed","2025-08-29_15h23.02.536",NA,NA,184.9901,184.9902,184.9902,185.3398,NA,NA,NA,NA,NA,NA,NA,TRUE,1,0.5704,181.9791,184.9898,0,39,39,75,1,90,40,NA,NA,NA,NA,NA,1,40,"binary"
"DA2A97DAB6E64CA18FA0EF71778F34A0",1,"0198f77e-ede9-791c-ae8a-ba23663693ad","0198f767-55c9-7875-8d21-563b3c0b86ed","2025-08-29_15h23.02.536",NA,NA,188.3397,188.3399,188.3399,188.6865,NA,NA,NA,NA,NA,NA,NA,TRUE,2,0.675,185.3421,188.3396,0,40,40,22,1,14,35,NA,NA,NA,NA,NA,1,41,"binary"
"DA2A97DAB6E64CA18FA0EF71778F34A0",1,"0198f77e-ede9-791c-ae8a-ba23663693ad","0198f767-55c9-7875-8d21-563b3c0b86ed","2025-08-29_15h23.02.536",NA,NA,191.6865,191.6866,191.6866,192.0332,NA,NA,NA,NA,NA,NA,NA,TRUE,1,0.5684,188.6888,191.6863,0,41,41,102,1,200,26,NA,NA,NA,NA,NA,1,42,"binary"
"DA2A97DAB6E64CA18FA0EF71778F34A0",1,"0198f77e-ede9-791c-ae8a-ba23663693ad","0198f767-55c9-7875-8d21-563b3c0b86ed","2025-08-29_15h23.02.536",NA,NA,195.0307,195.0308,195.0308,195.38,NA,NA,NA,NA,NA,NA,NA,TRUE,2,0.8501,192.0356,195.0303,0,42,42,10,1,10,30,NA,NA,NA,NA,NA,1,43,"binary"
"DA2A97DAB6E64CA18FA0EF71778F34A0",1,"0198f77e-ede9-791c-ae8a-ba23663693ad","0198f767-55c9-7875-8d21-563b3c0b86ed","2025-08-29_15h23.02.536",NA,NA,198.3774,198.3775,198.3775,198.7265,NA,NA,NA,NA,NA,NA,NA,TRUE,1,0.9121,195.3825,198.377,0,43,43,54,1,45,26,NA,NA,NA,NA,NA,1,44,"binary"
"DA2A97DAB6E64CA18FA0EF71778F34A0",1,"0198f77e-ede9-791c-ae8a-ba23663693ad","0198f767-55c9-7875-8d21-563b3c0b86ed","2025-08-29_15h23.02.536",NA,NA,201.7403,201.7405,201.7405,202.0898,NA,NA,NA,NA,NA,NA,NA,TRUE,1,1.1163,198.7289,201.74,0,44,44,57,1,45,35,NA,NA,NA,NA,NA,1,45,"binary"
"DA2A97DAB6E64CA18FA0EF71778F34A0",1,"0198f77e-ede9-791c-ae8a-ba23663693ad","0198f767-55c9-7875-8d21-563b3c0b86ed","2025-08-29_15h23.02.536",NA,NA,205.0874,205.0875,205.0875,205.4366,NA,NA,NA,NA,NA,NA,NA,TRUE,2,1.0451,202.0923,205.0871,0,45,45,40,1,28,39,NA,NA,NA,NA,NA,1,46,"binary"
"DA2A97DAB6E64CA18FA0EF71778F34A0",1,"0198f77e-ede9-791c-ae8a-ba23663693ad","0198f767-55c9-7875-8d21-563b3c0b86ed","2025-08-29_15h23.02.536",NA,NA,208.4339,208.434,208.434,208.7828,NA,NA,NA,NA,NA,NA,NA,TRUE,1,0.6503,205.4393,208.4337,0,46,46,79,1,95,33,NA,NA,NA,NA,NA,1,47,"binary"
"DA2A97DAB6E64CA18FA0EF71778F34A0",1,"0198f77e-ede9-791c-ae8a-ba23663693ad","0198f767-55c9-7875-8d21-563b3c0b86ed","2025-08-29_15h23.02.536",NA,NA,211.7807,211.7809,211.7809,212.1301,NA,NA,NA,NA,NA,NA,NA,TRUE,1,0.516,208.7849,211.7804,0,47,47,87,1,100,39,NA,NA,NA,NA,NA,1,48,"binary"
"DA2A97DAB6E64CA18FA0EF71778F34A0",1,"0198f77e-ede9-791c-ae8a-ba23663693ad","0198f767-55c9-7875-8d21-563b3c0b86ed","2025-08-29_15h23.02.536",NA,NA,215.1277,215.1277,215.1277,215.4767,NA,NA,NA,NA,NA,NA,NA,TRUE,1,0.9359,212.1325,215.1274,0,48,48,7,1,10,26,NA,NA,NA,NA,NA,1,49,"binary"
"DA2A97DAB6E64CA18FA0EF71778F34A0",1,"0198f77e-ede9-791c-ae8a-ba23663693ad","0198f767-55c9-7875-8d21-563b3c0b86ed","2025-08-29_15h23.02.536",NA,NA,218.4925,218.4927,218.4928,218.84,NA,NA,NA,NA,NA,NA,NA,TRUE,1,0.7574,215.4791,218.4924,0,49,49,36,1,28,26,NA,NA,NA,NA,NA,1,50,"binary"
"DA2A97DAB6E64CA18FA0EF71778F34A0",1,"0198f77e-ede9-791c-ae8a-ba23663693ad","0198f767-55c9-7875-8d21-563b3c0b86ed","2025-08-29_15h23.02.536",NA,NA,221.8408,221.8409,221.8409,222.1871,NA,NA,NA,NA,NA,NA,NA,TRUE,1,0.7983,218.8425,221.8407,0,50,50,49,1,40,33,NA,NA,NA,NA,NA,1,51,"binary"
"DA2A97DAB6E64CA18FA0EF71778F34A0",1,"0198f77e-ede9-791c-ae8a-ba23663693ad","0198f767-55c9-7875-8d21-563b3c0b86ed","2025-08-29_15h23.02.536",NA,NA,225.1842,225.1843,225.1843,225.5336,NA,NA,NA,NA,NA,NA,NA,TRUE,1,0.7076,222.1896,225.1839,0,51,51,98,1,180,35,NA,NA,NA,NA,NA,1,52,"binary"
"DA2A97DAB6E64CA18FA0EF71778F34A0",1,"0198f77e-ede9-791c-ae8a-ba23663693ad","0198f767-55c9-7875-8d21-563b3c0b86ed","2025-08-29_15h23.02.536",NA,NA,228.5308,228.5309,228.5309,228.8803,NA,NA,NA,NA,NA,NA,NA,TRUE,1,0.4532,225.5362,228.5304,0,52,52,95,1,150,54,NA,NA,NA,NA,NA,1,53,"binary"
"DA2A97DAB6E64CA18FA0EF71778F34A0",1,"0198f77e-ede9-791c-ae8a-ba23663693ad","0198f767-55c9-7875-8d21-563b3c0b86ed","2025-08-29_15h23.02.536",NA,NA,231.8778,231.8778,231.8779,232.2273,NA,NA,NA,NA,NA,NA,NA,TRUE,1,0.4903,228.8827,231.8775,0,53,53,56,1,45,31,NA,NA,NA,NA,NA,1,54,"binary"
"DA2A97DAB6E64CA18FA0EF71778F34A0",1,"0198f77e-ede9-791c-ae8a-ba23663693ad","0198f767-55c9-7875-8d21-563b3c0b86ed","2025-08-29_15h23.02.536",NA,NA,235.241,235.2411,235.2412,235.5907,NA,NA,NA,NA,NA,NA,NA,TRUE,1,0.446,232.2296,235.2408,0,54,54,15,1,12,31,NA,NA,NA,NA,NA,1,55,"binary"
"DA2A97DAB6E64CA18FA0EF71778F34A0",1,"0198f77e-ede9-791c-ae8a-ba23663693ad","0198f767-55c9-7875-8d21-563b3c0b86ed","2025-08-29_15h23.02.536",NA,NA,238.5874,238.5874,238.5874,238.9367,NA,NA,NA,NA,NA,NA,NA,TRUE,1,0.471,235.5934,238.5872,0,55,55,101,1,180,54,NA,NA,NA,NA,NA,1,56,"binary"
"DA2A97DAB6E64CA18FA0EF71778F34A0",1,"0198f77e-ede9-791c-ae8a-ba23663693ad","0198f767-55c9-7875-8d21-563b3c0b86ed","2025-08-29_15h23.02.536",NA,NA,241.934,241.934,241.934,242.2838,NA,NA,NA,NA,NA,NA,NA,TRUE,2,0.7666,238.9385,241.9338,0,56,56,0,1,7,25,NA,NA,NA,NA,NA,1,57,"binary"
"DA2A97DAB6E64CA18FA0EF71778F34A0",1,"0198f77e-ede9-791c-ae8a-ba23663693ad","0198f767-55c9-7875-8d21-563b3c0b86ed","2025-08-29_15h23.02.536",NA,NA,245.2807,245.2807,245.2807,245.6301,NA,NA,NA,NA,NA,NA,NA,TRUE,1,0.7595,242.2854,245.2805,0,57,57,30,1,25,27,NA,NA,NA,NA,NA,1,58,"binary"
"DA2A97DAB6E64CA18FA0EF71778F34A0",1,"0198f77e-ede9-791c-ae8a-ba23663693ad","0198f767-55c9-7875-8d21-563b3c0b86ed","2025-08-29_15h23.02.536",NA,NA,248.6274,248.6274,248.6274,248.9768,NA,NA,NA,NA,NA,NA,NA,TRUE,1,0.2844,245.6319,248.6272,0,58,58,66,1,60,29,NA,NA,NA,NA,NA,1,59,"binary"
"DA2A97DAB6E64CA18FA0EF71778F34A0",1,"0198f77e-ede9-791c-ae8a-ba23663693ad","0198f767-55c9-7875-8d21-563b3c0b86ed","2025-08-29_15h23.02.536",NA,NA,251.9909,251.991,251.991,252.3407,NA,NA,NA,NA,NA,NA,NA,TRUE,1,0.4349,248.9786,251.9906,0,59,59,58,1,45,40,NA,NA,NA,NA,NA,1,60,"binary"
"DA2A97DAB6E64CA18FA0EF71778F34A0",1,"0198f77e-ede9-791c-ae8a-ba23663693ad","0198f767-55c9-7875-8d21-563b3c0b86ed","2025-08-29_15h23.02.536",NA,NA,255.3382,255.3384,255.3385,255.6874,NA,NA,NA,NA,NA,NA,NA,TRUE,1,0.7703,252.3431,255.3379,0,60,60,37,1,28,28,NA,NA,NA,NA,NA,1,61,"binary"
"DA2A97DAB6E64CA18FA0EF71778F34A0",1,"0198f77e-ede9-791c-ae8a-ba23663693ad","0198f767-55c9-7875-8d21-563b3c0b86ed","2025-08-29_15h23.02.536",NA,NA,258.6852,258.6853,258.6853,259.0343,NA,NA,NA,NA,NA,NA,NA,TRUE,1,0.5495,255.6899,258.6848,0,61,61,11,1,10,32,NA,NA,NA,NA,NA,1,62,"binary"
"DA2A97DAB6E64CA18FA0EF71778F34A0",1,"0198f77e-ede9-791c-ae8a-ba23663693ad","0198f767-55c9-7875-8d21-563b3c0b86ed","2025-08-29_15h23.02.536",NA,NA,262.0316,262.0317,262.0317,262.3844,NA,NA,NA,NA,NA,NA,NA,TRUE,1,0.5364,259.0369,262.0313,0,62,62,84,1,100,26,NA,NA,NA,NA,NA,1,63,"binary"
"DA2A97DAB6E64CA18FA0EF71778F34A0",1,"0198f77e-ede9-791c-ae8a-ba23663693ad","0198f767-55c9-7875-8d21-563b3c0b86ed","2025-08-29_15h23.02.536",NA,NA,265.3823,265.3823,265.3823,265.7275,NA,NA,NA,NA,NA,NA,NA,TRUE,1,0.5776,262.3866,265.382,0,63,63,13,1,12,26,NA,NA,NA,NA,NA,1,64,"binary"
"DA2A97DAB6E64CA18FA0EF71778F34A0",1,"0198f77e-ede9-791c-ae8a-ba23663693ad","0198f767-55c9-7875-8d21-563b3c0b86ed","2025-08-29_15h23.02.536",NA,NA,268.7419,268.7421,268.7421,269.0911,NA,NA,NA,NA,NA,NA,NA,TRUE,1,0.6829,265.7307,268.7416,0,64,64,103,1,200,28,NA,NA,NA,NA,NA,1,65,"binary"
"DA2A97DAB6E64CA18FA0EF71778F34A0",1,"0198f77e-ede9-791c-ae8a-ba23663693ad","0198f767-55c9-7875-8d21-563b3c0b86ed","2025-08-29_15h23.02.536",NA,NA,272.0887,272.0888,272.0888,272.438,NA,NA,NA,NA,NA,NA,NA,TRUE,1,0.9176,269.0938,272.0883,0,65,65,46,1,30,32,NA,NA,NA,NA,NA,1,66,"binary"
"DA2A97DAB6E64CA18FA0EF71778F34A0",1,"0198f77e-ede9-791c-ae8a-ba23663693ad","0198f767-55c9-7875-8d21-563b3c0b86ed","2025-08-29_15h23.02.536",NA,NA,275.4352,275.4354,275.4354,275.7846,NA,NA,NA,NA,NA,NA,NA,TRUE,1,0.5772,272.4404,275.4349,0,66,66,67,1,60,33,NA,NA,NA,NA,NA,1,67,"binary"
"DA2A97DAB6E64CA18FA0EF71778F34A0",1,"0198f77e-ede9-791c-ae8a-ba23663693ad","0198f767-55c9-7875-8d21-563b3c0b86ed","2025-08-29_15h23.02.536",NA,NA,278.7822,278.7822,278.7823,279.1309,NA,NA,NA,NA,NA,NA,NA,TRUE,1,0.5618,275.7871,278.7818,0,67,67,104,1,200,35,NA,NA,NA,NA,NA,1,68,"binary"
"DA2A97DAB6E64CA18FA0EF71778F34A0",1,"0198f77e-ede9-791c-ae8a-ba23663693ad","0198f767-55c9-7875-8d21-563b3c0b86ed","2025-08-29_15h23.02.536",NA,NA,282.1314,282.1315,282.1315,282.4781,NA,NA,NA,NA,NA,NA,NA,TRUE,1,0.5636,279.1336,282.1313,0,68,68,64,1,50,46,NA,NA,NA,NA,NA,1,69,"binary"
"DA2A97DAB6E64CA18FA0EF71778F34A0",1,"0198f77e-ede9-791c-ae8a-ba23663693ad","0198f767-55c9-7875-8d21-563b3c0b86ed","2025-08-29_15h23.02.536",NA,NA,285.4921,285.4924,285.4925,285.8413,NA,NA,NA,NA,NA,NA,NA,TRUE,1,0.4616,282.4804,285.4916,0,69,69,100,1,180,46,NA,NA,NA,NA,NA,1,70,"binary"
"DA2A97DAB6E64CA18FA0EF71778F34A0",1,"0198f77e-ede9-791c-ae8a-ba23663693ad","0198f767-55c9-7875-8d21-563b3c0b86ed","2025-08-29_15h23.02.536",NA,NA,288.8415,288.8417,288.8417,289.1882,NA,NA,NA,NA,NA,NA,NA,TRUE,1,0.5894,285.8437,288.8413,0,70,70,99,1,180,39,NA,NA,NA,NA,NA,1,71,"binary"
"DA2A97DAB6E64CA18FA0EF71778F34A0",1,"0198f77e-ede9-791c-ae8a-ba23663693ad","0198f767-55c9-7875-8d21-563b3c0b86ed","2025-08-29_15h23.02.536",NA,NA,292.1855,292.1856,292.1856,292.5346,NA,NA,NA,NA,NA,NA,NA,TRUE,1,0.571,289.1908,292.1851,0,71,71,62,1,50,35,NA,NA,NA,NA,NA,1,72,"binary"
"DA2A97DAB6E64CA18FA0EF71778F34A0",1,"0198f77e-ede9-791c-ae8a-ba23663693ad","0198f767-55c9-7875-8d21-563b3c0b86ed","2025-08-29_15h23.02.536",NA,NA,295.5325,295.5326,295.5326,295.8842,NA,NA,NA,NA,NA,NA,NA,TRUE,1,0.6292,292.5371,295.532,0,72,72,60,1,50,27,NA,NA,NA,NA,NA,1,73,"binary"
"DA2A97DAB6E64CA18FA0EF71778F34A0",1,"0198f77e-ede9-791c-ae8a-ba23663693ad","0198f767-55c9-7875-8d21-563b3c0b86ed","2025-08-29_15h23.02.536",NA,NA,298.879,298.8791,298.8791,299.2284,NA,NA,NA,NA,NA,NA,NA,TRUE,2,0.4813,295.8866,298.8787,0,73,73,18,1,14,25,NA,NA,NA,NA,NA,1,74,"binary"
"DA2A97DAB6E64CA18FA0EF71778F34A0",1,"0198f77e-ede9-791c-ae8a-ba23663693ad","0198f767-55c9-7875-8d21-563b3c0b86ed","2025-08-29_15h23.02.536",NA,NA,302.2258,302.2258,302.2258,302.5916,NA,NA,NA,NA,NA,NA,NA,TRUE,1,0.5623,299.2307,302.2254,0,74,74,96,1,180,27,NA,NA,NA,NA,NA,1,75,"binary"
"DA2A97DAB6E64CA18FA0EF71778F34A0",1,"0198f77e-ede9-791c-ae8a-ba23663693ad","0198f767-55c9-7875-8d21-563b3c0b86ed","2025-08-29_15h23.02.536",NA,NA,305.589,305.5892,305.5892,305.9378,NA,NA,NA,NA,NA,NA,NA,TRUE,1,0.6322,302.5942,305.5888,0,75,75,80,1,95,35,NA,NA,NA,NA,NA,1,76,"binary"
"DA2A97DAB6E64CA18FA0EF71778F34A0",1,"0198f77e-ede9-791c-ae8a-ba23663693ad","0198f767-55c9-7875-8d21-563b3c0b86ed","2025-08-29_15h23.02.536",NA,NA,308.9351,308.9351,308.9351,309.2845,NA,NA,NA,NA,NA,NA,NA,TRUE,1,0.8597,305.9395,308.9349,0,76,76,28,1,21,32,NA,NA,NA,NA,NA,1,77,"binary"
"DA2A97DAB6E64CA18FA0EF71778F34A0",1,"0198f77e-ede9-791c-ae8a-ba23663693ad","0198f767-55c9-7875-8d21-563b3c0b86ed","2025-08-29_15h23.02.536",NA,NA,312.282,312.282,312.282,312.6313,NA,NA,NA,NA,NA,NA,NA,TRUE,1,0.5819,309.2861,312.2818,0,77,77,81,1,95,40,NA,NA,NA,NA,NA,1,78,"binary"
"DA2A97DAB6E64CA18FA0EF71778F34A0",1,"0198f77e-ede9-791c-ae8a-ba23663693ad","0198f767-55c9-7875-8d21-563b3c0b86ed","2025-08-29_15h23.02.536",NA,NA,315.6287,315.6287,315.6287,315.978,NA,NA,NA,NA,NA,NA,NA,TRUE,2,0.7968,312.633,315.6285,0,78,78,4,1,7,32,NA,NA,NA,NA,NA,1,79,"binary"
"DA2A97DAB6E64CA18FA0EF71778F34A0",1,"0198f77e-ede9-791c-ae8a-ba23663693ad","0198f767-55c9-7875-8d21-563b3c0b86ed","2025-08-29_15h23.02.536",NA,NA,318.9778,318.9778,318.9778,319.3414,NA,NA,NA,NA,NA,NA,NA,TRUE,1,0.8162,315.9799,318.9777,0,79,79,39,1,28,35,NA,NA,NA,NA,NA,1,80,"binary"
"DA2A97DAB6E64CA18FA0EF71778F34A0",1,"0198f77e-ede9-791c-ae8a-ba23663693ad","0198f767-55c9-7875-8d21-563b3c0b86ed","2025-08-29_15h23.02.536",NA,NA,322.3388,322.339,322.339,322.6881,NA,NA,NA,NA,NA,NA,NA,TRUE,2,1.0086,319.3429,322.3386,0,80,80,38,1,28,32,NA,NA,NA,NA,NA,1,81,"binary"
"DA2A97DAB6E64CA18FA0EF71778F34A0",1,"0198f77e-ede9-791c-ae8a-ba23663693ad","0198f767-55c9-7875-8d21-563b3c0b86ed","2025-08-29_15h23.02.536",NA,NA,325.6854,325.6854,325.6854,326.0351,NA,NA,NA,NA,NA,NA,NA,TRUE,1,0.5894,322.6898,325.6852,0,81,81,97,1,180,31,NA,NA,NA,NA,NA,1,82,"binary"
"DA2A97DAB6E64CA18FA0EF71778F34A0",1,"0198f77e-ede9-791c-ae8a-ba23663693ad","0198f767-55c9-7875-8d21-563b3c0b86ed","2025-08-29_15h23.02.536",NA,NA,329.0321,329.0321,329.0321,329.3815,NA,NA,NA,NA,NA,NA,NA,TRUE,1,0.5305,326.0364,329.0319,0,82,82,93,1,150,40,NA,NA,NA,NA,NA,1,83,"binary"
"DA2A97DAB6E64CA18FA0EF71778F34A0",1,"0198f77e-ede9-791c-ae8a-ba23663693ad","0198f767-55c9-7875-8d21-563b3c0b86ed","2025-08-29_15h23.02.536",NA,NA,332.3788,332.3789,332.3789,332.7283,NA,NA,NA,NA,NA,NA,NA,TRUE,1,0.8634,329.3831,332.3786,0,83,83,33,1,25,33,NA,NA,NA,NA,NA,1,84,"binary"
"DA2A97DAB6E64CA18FA0EF71778F34A0",1,"0198f77e-ede9-791c-ae8a-ba23663693ad","0198f767-55c9-7875-8d21-563b3c0b86ed","2025-08-29_15h23.02.536",NA,NA,335.7262,335.7263,335.7263,336.0756,NA,NA,NA,NA,NA,NA,NA,TRUE,1,1.2454,332.7299,335.7258,0,84,84,26,1,21,29,NA,NA,NA,NA,NA,1,85,"binary"
"DA2A97DAB6E64CA18FA0EF71778F34A0",1,"0198f77e-ede9-791c-ae8a-ba23663693ad","0198f767-55c9-7875-8d21-563b3c0b86ed","2025-08-29_15h23.02.536",NA,NA,339.0893,339.0895,339.0895,339.4388,NA,NA,NA,NA,NA,NA,NA,TRUE,2,1.097,336.0782,339.0891,0,85,85,14,1,12,28,NA,NA,NA,NA,NA,1,86,"binary"
"DA2A97DAB6E64CA18FA0EF71778F34A0",1,"0198f77e-ede9-791c-ae8a-ba23663693ad","0198f767-55c9-7875-8d21-563b3c0b86ed","2025-08-29_15h23.02.536",NA,NA,342.4398,342.4399,342.4399,342.7858,NA,NA,NA,NA,NA,NA,NA,TRUE,2,0.9037,339.4411,342.4397,0,86,86,19,1,14,26,NA,NA,NA,NA,NA,1,87,"binary"
"DA2A97DAB6E64CA18FA0EF71778F34A0",1,"0198f77e-ede9-791c-ae8a-ba23663693ad","0198f767-55c9-7875-8d21-563b3c0b86ed","2025-08-29_15h23.02.536",NA,NA,345.7831,345.7831,345.7832,346.1323,NA,NA,NA,NA,NA,NA,NA,TRUE,1,0.5092,342.7881,345.7828,0,87,87,85,1,100,31,NA,NA,NA,NA,NA,1,88,"binary"
"DA2A97DAB6E64CA18FA0EF71778F34A0",1,"0198f77e-ede9-791c-ae8a-ba23663693ad","0198f767-55c9-7875-8d21-563b3c0b86ed","2025-08-29_15h23.02.536",NA,NA,349.1335,349.1335,349.1335,349.4789,NA,NA,NA,NA,NA,NA,NA,TRUE,1,1.047,346.1349,349.1333,0,88,88,48,1,40,27,NA,NA,NA,NA,NA,1,89,"binary"
"DA2A97DAB6E64CA18FA0EF71778F34A0",1,"0198f77e-ede9-791c-ae8a-ba23663693ad","0198f767-55c9-7875-8d21-563b3c0b86ed","2025-08-29_15h23.02.536",NA,NA,352.477,352.477,352.477,352.8254,NA,NA,NA,NA,NA,NA,NA,TRUE,1,0.9003,349.4821,352.4768,0,89,89,42,1,30,26,NA,NA,NA,NA,NA,1,90,"binary"
"DA2A97DAB6E64CA18FA0EF71778F34A0",1,"0198f77e-ede9-791c-ae8a-ba23663693ad","0198f767-55c9-7875-8d21-563b3c0b86ed","2025-08-29_15h23.02.536",NA,NA,355.8262,355.8262,355.8262,356.1885,NA,NA,NA,NA,NA,NA,NA,TRUE,1,0.6256,352.8275,355.826,0,90,90,86,1,100,38,NA,NA,NA,NA,NA,1,91,"binary"
"DA2A97DAB6E64CA18FA0EF71778F34A0",1,"0198f77e-ede9-791c-ae8a-ba23663693ad","0198f767-55c9-7875-8d21-563b3c0b86ed","2025-08-29_15h23.02.536",NA,NA,359.1867,359.1867,359.1867,359.5359,NA,NA,NA,NA,NA,NA,NA,TRUE,1,0.7064,356.1902,359.1864,0,91,91,45,1,30,30,NA,NA,NA,NA,NA,1,92,"binary"
"DA2A97DAB6E64CA18FA0EF71778F34A0",1,"0198f77e-ede9-791c-ae8a-ba23663693ad","0198f767-55c9-7875-8d21-563b3c0b86ed","2025-08-29_15h23.02.536",NA,NA,362.5332,362.5333,362.5334,362.8824,NA,NA,NA,NA,NA,NA,NA,TRUE,2,0.8668,359.5383,362.5329,0,92,92,16,1,12,33,NA,NA,NA,NA,NA,1,93,"binary"
"DA2A97DAB6E64CA18FA0EF71778F34A0",1,"0198f77e-ede9-791c-ae8a-ba23663693ad","0198f767-55c9-7875-8d21-563b3c0b86ed","2025-08-29_15h23.02.536",NA,NA,365.8801,365.8802,365.8802,366.2296,NA,NA,NA,NA,NA,NA,NA,TRUE,2,0.8641,362.8849,365.8798,0,93,93,20,1,14,28,NA,NA,NA,NA,NA,1,94,"binary"
"DA2A97DAB6E64CA18FA0EF71778F34A0",1,"0198f77e-ede9-791c-ae8a-ba23663693ad","0198f767-55c9-7875-8d21-563b3c0b86ed","2025-08-29_15h23.02.536",NA,NA,369.2268,369.2269,369.2269,369.5761,NA,NA,NA,NA,NA,NA,NA,TRUE,2,1.2854,366.2319,369.2265,0,94,94,50,1,40,35,NA,NA,NA,NA,NA,1,95,"binary"
"DA2A97DAB6E64CA18FA0EF71778F34A0",1,"0198f77e-ede9-791c-ae8a-ba23663693ad","0198f767-55c9-7875-8d21-563b3c0b86ed","2025-08-29_15h23.02.536",NA,NA,372.5895,372.5897,372.5897,372.939,NA,NA,NA,NA,NA,NA,NA,TRUE,1,0.6734,369.5783,372.5892,0,95,95,76,1,90,46,NA,NA,NA,NA,NA,1,96,"binary"
"DA2A97DAB6E64CA18FA0EF71778F34A0",1,"0198f77e-ede9-791c-ae8a-ba23663693ad","0198f767-55c9-7875-8d21-563b3c0b86ed","2025-08-29_15h23.02.536",NA,NA,375.9362,375.9362,375.9362,376.2855,NA,NA,NA,NA,NA,NA,NA,TRUE,2,0.9952,372.9407,375.936,0,96,96,5,1,7,35,NA,NA,NA,NA,NA,1,97,"binary"
"DA2A97DAB6E64CA18FA0EF71778F34A0",1,"0198f77e-ede9-791c-ae8a-ba23663693ad","0198f767-55c9-7875-8d21-563b3c0b86ed","2025-08-29_15h23.02.536",NA,NA,379.2827,379.2827,379.2827,379.6323,NA,NA,NA,NA,NA,NA,NA,TRUE,2,0.7649,376.2875,379.2826,0,97,97,2,1,7,28,NA,NA,NA,NA,NA,1,98,"binary"
"DA2A97DAB6E64CA18FA0EF71778F34A0",1,"0198f77e-ede9-791c-ae8a-ba23663693ad","0198f767-55c9-7875-8d21-563b3c0b86ed","2025-08-29_15h23.02.536",NA,NA,382.6298,382.6299,382.63,382.9789,NA,NA,NA,NA,NA,NA,NA,TRUE,2,0.8267,379.6339,382.6296,0,98,98,3,1,7,30,NA,NA,NA,NA,NA,1,99,"binary"
"DA2A97DAB6E64CA18FA0EF71778F34A0",1,"0198f77e-ede9-791c-ae8a-ba23663693ad","0198f767-55c9-7875-8d21-563b3c0b86ed","2025-08-29_15h23.02.536",NA,NA,385.9768,385.9769,385.977,386.3257,NA,NA,NA,NA,NA,NA,NA,TRUE,2,0.697,382.9806,385.9767,0,99,99,17,1,12,35,NA,NA,NA,NA,NA,1,100,"binary"
"DA2A97DAB6E64CA18FA0EF71778F34A0",1,"0198f77e-ede9-791c-ae8a-ba23663693ad","0198f767-55c9-7875-8d21-563b3c0b86ed","2025-08-29_15h23.02.536",NA,NA,389.3258,389.3258,389.3258,389.6892,NA,NA,NA,NA,NA,NA,NA,TRUE,1,0.9011,386.3272,389.3257,0,100,100,24,1,21,26,NA,NA,NA,NA,NA,1,101,"binary"
"DA2A97DAB6E64CA18FA0EF71778F34A0",1,"0198f77e-ede9-791c-ae8a-ba23663693ad","0198f767-55c9-7875-8d21-563b3c0b86ed","2025-08-29_15h23.02.536",NA,NA,392.6866,392.6866,392.6866,393.036,NA,NA,NA,NA,NA,NA,NA,TRUE,1,0.6685,389.6908,392.6863,0,101,101,94,1,150,47,NA,NA,NA,NA,NA,1,102,"binary"
"DA2A97DAB6E64CA18FA0EF71778F34A0",1,"0198f77e-ede9-791c-ae8a-ba23663693ad","0198f767-55c9-7875-8d21-563b3c0b86ed","2025-08-29_15h23.02.536",NA,NA,396.0329,396.033,396.033,396.3825,NA,NA,NA,NA,NA,NA,NA,TRUE,1,1.0998,393.0377,396.0328,0,102,102,12,1,12,25,NA,NA,NA,NA,NA,1,103,"binary"
"DA2A97DAB6E64CA18FA0EF71778F34A0",1,"0198f77e-ede9-791c-ae8a-ba23663693ad","0198f767-55c9-7875-8d21-563b3c0b86ed","2025-08-29_15h23.02.536",NA,NA,399.3799,399.3799,399.38,399.7293,NA,NA,NA,NA,NA,NA,NA,TRUE,1,1.2132,396.3841,399.3797,0,103,103,25,1,21,27,NA,NA,NA,NA,NA,1,104,"binary"
"DA2A97DAB6E64CA18FA0EF71778F34A0",1,"0198f77e-ede9-791c-ae8a-ba23663693ad","0198f767-55c9-7875-8d21-563b3c0b86ed","2025-08-29_15h23.02.536",NA,NA,402.7297,402.7298,402.7298,403.0765,NA,NA,NA,NA,NA,NA,NA,TRUE,2,1.2277,399.7308,402.7296,0,104,104,29,1,21,38,NA,NA,NA,NA,NA,1,105,"binary"
"DA2A97DAB6E64CA18FA0EF71778F34A0",1,"0198f77e-ede9-791c-ae8a-ba23663693ad","0198f767-55c9-7875-8d21-563b3c0b86ed","2025-08-29_15h23.02.536",NA,NA,406.0904,406.0906,406.0906,406.44,NA,NA,NA,NA,NA,NA,NA,TRUE,1,1.0951,403.0792,406.0902,0,105,105,31,1,25,29,NA,NA,NA,NA,NA,1,106,"binary"
"DA2A97DAB6E64CA18FA0EF71778F34A0",1,"0198f77e-ede9-791c-ae8a-ba23663693ad","0198f767-55c9-7875-8d21-563b3c0b86ed","2025-08-29_15h23.02.536",NA,NA,409.4372,409.4373,409.4373,409.7866,NA,NA,NA,NA,NA,NA,NA,TRUE,2,0.8704,406.4422,409.437,0,106,106,41,1,28,46,NA,NA,NA,NA,NA,1,107,"binary"
"DA2A97DAB6E64CA18FA0EF71778F34A0",1,"0198f77e-ede9-791c-ae8a-ba23663693ad","0198f767-55c9-7875-8d21-563b3c0b86ed","2025-08-29_15h23.02.536",NA,NA,412.7842,412.7843,412.7843,413.1329,NA,NA,NA,NA,NA,NA,NA,TRUE,1,0.7707,409.7894,412.7839,0,107,107,78,1,95,31,NA,NA,NA,NA,NA,1,108,"binary"
"DA2A97DAB6E64CA18FA0EF71778F34A0",1,"0198f77e-ede9-791c-ae8a-ba23663693ad","0198f767-55c9-7875-8d21-563b3c0b86ed","2025-08-29_15h23.02.536",NA,NA,764.4389,764.439,764.439,764.7884,NA,NA,NA,NA,NA,NA,NA,TRUE,1,1.784,761.4775,764.4389,NA,NA,NA,NA,NA,150,31,0,0,0,90,1,2,1,"binary"
"DA2A97DAB6E64CA18FA0EF71778F34A0",1,"0198f77e-ede9-791c-ae8a-ba23663693ad","0198f767-55c9-7875-8d21-563b3c0b86ed","2025-08-29_15h23.02.536",NA,NA,767.7858,767.7859,767.7859,768.1354,NA,NA,NA,NA,NA,NA,NA,TRUE,1,0.7841,764.7907,767.7857,NA,NA,NA,NA,NA,200,39,0,1,1,105,1,2,2,"binary"
"DA2A97DAB6E64CA18FA0EF71778F34A0",1,"0198f77e-ede9-791c-ae8a-ba23663693ad","0198f767-55c9-7875-8d21-563b3c0b86ed","2025-08-29_15h23.02.536",NA,NA,771.1323,771.1323,771.1323,771.4821,NA,NA,NA,NA,NA,NA,NA,TRUE,1,0.7099,768.1371,771.1321,NA,NA,NA,NA,NA,21,26,0,2,2,24,1,2,3,"binary"
"DA2A97DAB6E64CA18FA0EF71778F34A0",1,"0198f77e-ede9-791c-ae8a-ba23663693ad","0198f767-55c9-7875-8d21-563b3c0b86ed","2025-08-29_15h23.02.536",NA,NA,774.4956,774.4957,774.4957,774.8452,NA,NA,NA,NA,NA,NA,NA,TRUE,1,0.532,771.483,774.4955,NA,NA,NA,NA,NA,90,30,0,3,3,73,1,2,4,"binary"
"DA2A97DAB6E64CA18FA0EF71778F34A0",1,"0198f77e-ede9-791c-ae8a-ba23663693ad","0198f767-55c9-7875-8d21-563b3c0b86ed","2025-08-29_15h23.02.536",NA,NA,777.8426,777.8426,777.8427,778.1923,NA,NA,NA,NA,NA,NA,NA,TRUE,1,0.6542,774.8464,777.8425,NA,NA,NA,NA,NA,21,29,0,4,4,26,1,2,5,"binary"
"DA2A97DAB6E64CA18FA0EF71778F34A0",1,"0198f77e-ede9-791c-ae8a-ba23663693ad","0198f767-55c9-7875-8d21-563b3c0b86ed","2025-08-29_15h23.02.536",NA,NA,781.1896,781.1897,781.1897,781.539,NA,NA,NA,NA,NA,NA,NA,TRUE,1,0.464,778.1956,781.1895,NA,NA,NA,NA,NA,200,54,0,5,5,107,1,2,6,"binary"
"DA2A97DAB6E64CA18FA0EF71778F34A0",1,"0198f77e-ede9-791c-ae8a-ba23663693ad","0198f767-55c9-7875-8d21-563b3c0b86ed","2025-08-29_15h23.02.536",NA,NA,784.5364,784.5364,784.5365,784.8858,NA,NA,NA,NA,NA,NA,NA,TRUE,2,1.1071,781.5413,784.5362,NA,NA,NA,NA,NA,12,33,0,6,6,16,1,2,7,"binary"
"DA2A97DAB6E64CA18FA0EF71778F34A0",1,"0198f77e-ede9-791c-ae8a-ba23663693ad","0198f767-55c9-7875-8d21-563b3c0b86ed","2025-08-29_15h23.02.536",NA,NA,787.8851,787.8851,787.8852,788.2322,NA,NA,NA,NA,NA,NA,NA,TRUE,1,0.5361,784.8885,787.8849,NA,NA,NA,NA,NA,60,47,0,7,7,70,1,2,8,"binary"
"DA2A97DAB6E64CA18FA0EF71778F34A0",1,"0198f77e-ede9-791c-ae8a-ba23663693ad","0198f767-55c9-7875-8d21-563b3c0b86ed","2025-08-29_15h23.02.536",NA,NA,791.2467,791.2468,791.2469,791.5958,NA,NA,NA,NA,NA,NA,NA,TRUE,2,0.5857,788.2346,791.2463,NA,NA,NA,NA,NA,10,27,0,8,8,8,1,2,9,"binary"
"DA2A97DAB6E64CA18FA0EF71778F34A0",1,"0198f77e-ede9-791c-ae8a-ba23663693ad","0198f767-55c9-7875-8d21-563b3c0b86ed","2025-08-29_15h23.02.536",NA,NA,794.596,794.5962,794.5962,794.9427,NA,NA,NA,NA,NA,NA,NA,TRUE,2,0.6907,791.5981,794.5958,NA,NA,NA,NA,NA,21,30,0,9,9,27,1,2,10,"binary"
"DA2A97DAB6E64CA18FA0EF71778F34A0",1,"0198f77e-ede9-791c-ae8a-ba23663693ad","0198f767-55c9-7875-8d21-563b3c0b86ed","2025-08-29_15h23.02.536",NA,NA,797.9428,797.9429,797.9429,798.2896,NA,NA,NA,NA,NA,NA,NA,TRUE,1,0.5671,794.9452,797.9426,NA,NA,NA,NA,NA,40,54,0,10,10,53,1,2,11,"binary"
"DA2A97DAB6E64CA18FA0EF71778F34A0",1,"0198f77e-ede9-791c-ae8a-ba23663693ad","0198f767-55c9-7875-8d21-563b3c0b86ed","2025-08-29_15h23.02.536",NA,NA,801.287,801.287,801.287,801.6359,NA,NA,NA,NA,NA,NA,NA,TRUE,1,0.6618,798.2927,801.2866,NA,NA,NA,NA,NA,180,27,0,11,11,96,1,2,12,"binary"
"DA2A97DAB6E64CA18FA0EF71778F34A0",1,"0198f77e-ede9-791c-ae8a-ba23663693ad","0198f767-55c9-7875-8d21-563b3c0b86ed","2025-08-29_15h23.02.536",NA,NA,804.6334,804.6335,804.6335,804.9828,NA,NA,NA,NA,NA,NA,NA,TRUE,1,1.0456,801.6384,804.6331,NA,NA,NA,NA,NA,30,30,0,12,12,45,1,2,13,"binary"
"DA2A97DAB6E64CA18FA0EF71778F34A0",1,"0198f77e-ede9-791c-ae8a-ba23663693ad","0198f767-55c9-7875-8d21-563b3c0b86ed","2025-08-29_15h23.02.536",NA,NA,807.9971,807.9973,807.9973,808.3461,NA,NA,NA,NA,NA,NA,NA,TRUE,1,1.1241,804.9854,807.9968,NA,NA,NA,NA,NA,21,38,0,13,13,29,1,2,14,"binary"
"DA2A97DAB6E64CA18FA0EF71778F34A0",1,"0198f77e-ede9-791c-ae8a-ba23663693ad","0198f767-55c9-7875-8d21-563b3c0b86ed","2025-08-29_15h23.02.536",NA,NA,811.3435,811.3437,811.3437,811.6929,NA,NA,NA,NA,NA,NA,NA,TRUE,1,0.8768,808.3488,811.3432,NA,NA,NA,NA,NA,50,54,0,14,14,65,1,2,15,"binary"
"DA2A97DAB6E64CA18FA0EF71778F34A0",1,"0198f77e-ede9-791c-ae8a-ba23663693ad","0198f767-55c9-7875-8d21-563b3c0b86ed","2025-08-29_15h23.02.536",NA,NA,814.6907,814.6907,814.6907,815.0396,NA,NA,NA,NA,NA,NA,NA,TRUE,1,1.2821,811.6951,814.6902,NA,NA,NA,NA,NA,40,33,0,15,15,49,1,2,16,"binary"
"DA2A97DAB6E64CA18FA0EF71778F34A0",1,"0198f77e-ede9-791c-ae8a-ba23663693ad","0198f767-55c9-7875-8d21-563b3c0b86ed","2025-08-29_15h23.02.536",NA,NA,818.0401,818.0402,818.0402,818.3863,NA,NA,NA,NA,NA,NA,NA,TRUE,1,0.9779,815.0421,818.0399,NA,NA,NA,NA,NA,7,26,0,16,16,1,1,2,17,"binary"
"DA2A97DAB6E64CA18FA0EF71778F34A0",1,"0198f77e-ede9-791c-ae8a-ba23663693ad","0198f767-55c9-7875-8d21-563b3c0b86ed","2025-08-29_15h23.02.536",NA,NA,821.3838,821.3839,821.384,821.7356,NA,NA,NA,NA,NA,NA,NA,TRUE,1,0.9954,818.3888,821.3835,NA,NA,NA,NA,NA,50,30,0,17,17,61,1,2,18,"binary"
"DA2A97DAB6E64CA18FA0EF71778F34A0",1,"0198f77e-ede9-791c-ae8a-ba23663693ad","0198f767-55c9-7875-8d21-563b3c0b86ed","2025-08-29_15h23.02.536",NA,NA,824.7472,824.7473,824.7473,825.0966,NA,NA,NA,NA,NA,NA,NA,TRUE,1,0.6289,821.7377,824.7468,NA,NA,NA,NA,NA,100,54,0,18,18,89,1,2,19,"binary"
"DA2A97DAB6E64CA18FA0EF71778F34A0",1,"0198f77e-ede9-791c-ae8a-ba23663693ad","0198f767-55c9-7875-8d21-563b3c0b86ed","2025-08-29_15h23.02.536",NA,NA,828.0939,828.094,828.094,828.4431,NA,NA,NA,NA,NA,NA,NA,TRUE,1,0.5109,825.0989,828.0934,NA,NA,NA,NA,NA,60,54,0,19,19,71,1,2,20,"binary"
"DA2A97DAB6E64CA18FA0EF71778F34A0",1,"0198f77e-ede9-791c-ae8a-ba23663693ad","0198f767-55c9-7875-8d21-563b3c0b86ed","2025-08-29_15h23.02.536",NA,NA,831.4408,831.4408,831.4411,831.7901,NA,NA,NA,NA,NA,NA,NA,TRUE,1,0.7999,828.4452,831.4404,NA,NA,NA,NA,NA,150,40,0,20,20,93,1,2,21,"binary"
"DA2A97DAB6E64CA18FA0EF71778F34A0",1,"0198f77e-ede9-791c-ae8a-ba23663693ad","0198f767-55c9-7875-8d21-563b3c0b86ed","2025-08-29_15h23.02.536",NA,NA,834.7874,834.7875,834.7875,835.1365,NA,NA,NA,NA,NA,NA,NA,TRUE,1,0.7295,831.7927,834.787,NA,NA,NA,NA,NA,60,40,0,21,21,69,1,2,22,"binary"
"DA2A97DAB6E64CA18FA0EF71778F34A0",1,"0198f77e-ede9-791c-ae8a-ba23663693ad","0198f767-55c9-7875-8d21-563b3c0b86ed","2025-08-29_15h23.02.536",NA,NA,838.1338,838.1339,838.1339,838.4835,NA,NA,NA,NA,NA,NA,NA,TRUE,1,0.779,835.1389,838.1335,NA,NA,NA,NA,NA,45,46,0,22,22,59,1,2,23,"binary"
"DA2A97DAB6E64CA18FA0EF71778F34A0",1,"0198f77e-ede9-791c-ae8a-ba23663693ad","0198f767-55c9-7875-8d21-563b3c0b86ed","2025-08-29_15h23.02.536",NA,NA,841.4972,841.4974,841.4974,841.8465,NA,NA,NA,NA,NA,NA,NA,TRUE,1,0.8392,838.4859,841.497,NA,NA,NA,NA,NA,14,28,0,23,23,20,1,2,24,"binary"
"DA2A97DAB6E64CA18FA0EF71778F34A0",1,"0198f77e-ede9-791c-ae8a-ba23663693ad","0198f767-55c9-7875-8d21-563b3c0b86ed","2025-08-29_15h23.02.536",NA,NA,844.8442,844.8443,844.8443,845.1956,NA,NA,NA,NA,NA,NA,NA,TRUE,1,0.7031,841.849,844.8439,NA,NA,NA,NA,NA,60,35,0,24,24,68,1,2,25,"binary"
"DA2A97DAB6E64CA18FA0EF71778F34A0",1,"0198f77e-ede9-791c-ae8a-ba23663693ad","0198f767-55c9-7875-8d21-563b3c0b86ed","2025-08-29_15h23.02.536",NA,NA,848.1904,848.1904,848.1905,848.5437,NA,NA,NA,NA,NA,NA,NA,TRUE,1,0.9414,845.1978,848.1901,NA,NA,NA,NA,NA,40,47,0,25,25,52,1,2,26,"binary"
"DA2A97DAB6E64CA18FA0EF71778F34A0",1,"0198f77e-ede9-791c-ae8a-ba23663693ad","0198f767-55c9-7875-8d21-563b3c0b86ed","2025-08-29_15h23.02.536",NA,NA,851.5378,851.5378,851.5378,851.8871,NA,NA,NA,NA,NA,NA,NA,TRUE,1,0.7547,848.5456,851.5374,NA,NA,NA,NA,NA,150,35,0,26,26,92,1,2,27,"binary"
"DA2A97DAB6E64CA18FA0EF71778F34A0",1,"0198f77e-ede9-791c-ae8a-ba23663693ad","0198f767-55c9-7875-8d21-563b3c0b86ed","2025-08-29_15h23.02.536",NA,NA,854.8858,854.8858,854.8859,855.2336,NA,NA,NA,NA,NA,NA,NA,TRUE,1,0.5464,851.8894,854.8856,NA,NA,NA,NA,NA,90,26,0,27,27,72,1,2,28,"binary"
"DA2A97DAB6E64CA18FA0EF71778F34A0",1,"0198f77e-ede9-791c-ae8a-ba23663693ad","0198f767-55c9-7875-8d21-563b3c0b86ed","2025-08-29_15h23.02.536",NA,NA,858.247,858.247,858.247,858.5968,NA,NA,NA,NA,NA,NA,NA,TRUE,1,1.1276,855.236,858.2468,NA,NA,NA,NA,NA,28,35,0,28,28,39,1,2,29,"binary"
"DA2A97DAB6E64CA18FA0EF71778F34A0",1,"0198f77e-ede9-791c-ae8a-ba23663693ad","0198f767-55c9-7875-8d21-563b3c0b86ed","2025-08-29_15h23.02.536",NA,NA,861.5961,861.5962,861.5963,861.9438,NA,NA,NA,NA,NA,NA,NA,TRUE,1,0.5782,858.5991,861.5959,NA,NA,NA,NA,NA,200,28,0,29,29,103,1,2,30,"binary"
"DA2A97DAB6E64CA18FA0EF71778F34A0",1,"0198f77e-ede9-791c-ae8a-ba23663693ad","0198f767-55c9-7875-8d21-563b3c0b86ed","2025-08-29_15h23.02.536",NA,NA,864.9412,864.9413,864.9414,865.2904,NA,NA,NA,NA,NA,NA,NA,TRUE,2,0.6957,861.9466,864.9409,NA,NA,NA,NA,NA,12,25,0,30,30,12,1,2,31,"binary"
"DA2A97DAB6E64CA18FA0EF71778F34A0",1,"0198f77e-ede9-791c-ae8a-ba23663693ad","0198f767-55c9-7875-8d21-563b3c0b86ed","2025-08-29_15h23.02.536",NA,NA,868.2881,868.2882,868.2882,868.6373,NA,NA,NA,NA,NA,NA,NA,TRUE,1,0.736,865.2929,868.2878,NA,NA,NA,NA,NA,40,27,0,31,31,48,1,2,32,"binary"
"DA2A97DAB6E64CA18FA0EF71778F34A0",1,"0198f77e-ede9-791c-ae8a-ba23663693ad","0198f767-55c9-7875-8d21-563b3c0b86ed","2025-08-29_15h23.02.536",NA,NA,871.6343,871.6343,871.6344,871.984,NA,NA,NA,NA,NA,NA,NA,TRUE,1,1.0958,868.6398,871.6341,NA,NA,NA,NA,NA,14,25,0,32,32,18,1,2,33,"binary"
"DA2A97DAB6E64CA18FA0EF71778F34A0",1,"0198f77e-ede9-791c-ae8a-ba23663693ad","0198f767-55c9-7875-8d21-563b3c0b86ed","2025-08-29_15h23.02.536",NA,NA,874.9814,874.9815,874.9815,875.347,NA,NA,NA,NA,NA,NA,NA,TRUE,2,1.2187,871.9869,874.9811,NA,NA,NA,NA,NA,25,35,0,33,33,34,1,2,34,"binary"
"DA2A97DAB6E64CA18FA0EF71778F34A0",1,"0198f77e-ede9-791c-ae8a-ba23663693ad","0198f767-55c9-7875-8d21-563b3c0b86ed","2025-08-29_15h23.02.536",NA,NA,878.3447,878.3449,878.3451,878.6939,NA,NA,NA,NA,NA,NA,NA,TRUE,1,0.8118,875.3496,878.3444,NA,NA,NA,NA,NA,90,46,0,34,34,76,1,2,35,"binary"
"DA2A97DAB6E64CA18FA0EF71778F34A0",1,"0198f77e-ede9-791c-ae8a-ba23663693ad","0198f767-55c9-7875-8d21-563b3c0b86ed","2025-08-29_15h23.02.536",NA,NA,881.693,881.6931,881.6931,882.0403,NA,NA,NA,NA,NA,NA,NA,TRUE,1,0.554,878.6964,881.6928,NA,NA,NA,NA,NA,100,46,0,35,35,88,1,2,36,"binary"
"DA2A97DAB6E64CA18FA0EF71778F34A0",1,"0198f77e-ede9-791c-ae8a-ba23663693ad","0198f767-55c9-7875-8d21-563b3c0b86ed","2025-08-29_15h23.02.536",NA,NA,885.0375,885.0375,885.0376,885.3869,NA,NA,NA,NA,NA,NA,NA,TRUE,1,0.4802,882.042,885.0373,NA,NA,NA,NA,NA,150,54,0,36,36,95,1,2,37,"binary"
"DA2A97DAB6E64CA18FA0EF71778F34A0",1,"0198f77e-ede9-791c-ae8a-ba23663693ad","0198f767-55c9-7875-8d21-563b3c0b86ed","2025-08-29_15h23.02.536",NA,NA,888.3843,888.3843,888.3843,888.7336,NA,NA,NA,NA,NA,NA,NA,TRUE,1,0.9037,885.3886,888.3842,NA,NA,NA,NA,NA,14,26,0,37,37,19,1,2,38,"binary"
"DA2A97DAB6E64CA18FA0EF71778F34A0",1,"0198f77e-ede9-791c-ae8a-ba23663693ad","0198f767-55c9-7875-8d21-563b3c0b86ed","2025-08-29_15h23.02.536",NA,NA,891.7481,891.7482,891.7482,892.0971,NA,NA,NA,NA,NA,NA,NA,TRUE,2,1.3569,888.7353,891.7479,NA,NA,NA,NA,NA,14,39,0,38,38,23,1,2,39,"binary"
"DA2A97DAB6E64CA18FA0EF71778F34A0",1,"0198f77e-ede9-791c-ae8a-ba23663693ad","0198f767-55c9-7875-8d21-563b3c0b86ed","2025-08-29_15h23.02.536",NA,NA,895.0951,895.0952,895.0952,895.4461,NA,NA,NA,NA,NA,NA,NA,TRUE,1,0.7832,892.0985,895.0948,NA,NA,NA,NA,NA,95,40,0,39,39,81,1,2,40,"binary"
"DA2A97DAB6E64CA18FA0EF71778F34A0",1,"0198f77e-ede9-791c-ae8a-ba23663693ad","0198f767-55c9-7875-8d21-563b3c0b86ed","2025-08-29_15h23.02.536",NA,NA,898.4414,898.4414,898.4415,898.791,NA,NA,NA,NA,NA,NA,NA,TRUE,1,0.7486,895.4483,898.4412,NA,NA,NA,NA,NA,150,33,0,40,40,91,1,2,41,"binary"
"DA2A97DAB6E64CA18FA0EF71778F34A0",1,"0198f77e-ede9-791c-ae8a-ba23663693ad","0198f767-55c9-7875-8d21-563b3c0b86ed","2025-08-29_15h23.02.536",NA,NA,901.7884,901.7884,901.7884,902.1382,NA,NA,NA,NA,NA,NA,NA,TRUE,1,0.6068,898.7936,901.7881,NA,NA,NA,NA,NA,200,47,0,41,41,106,1,2,42,"binary"
"DA2A97DAB6E64CA18FA0EF71778F34A0",1,"0198f77e-ede9-791c-ae8a-ba23663693ad","0198f767-55c9-7875-8d21-563b3c0b86ed","2025-08-29_15h23.02.536",NA,NA,905.1352,905.1353,905.1353,905.4846,NA,NA,NA,NA,NA,NA,NA,TRUE,1,1.0927,902.1414,905.1349,NA,NA,NA,NA,NA,45,26,0,42,42,54,1,2,43,"binary"
"DA2A97DAB6E64CA18FA0EF71778F34A0",1,"0198f77e-ede9-791c-ae8a-ba23663693ad","0198f767-55c9-7875-8d21-563b3c0b86ed","2025-08-29_15h23.02.536",NA,NA,908.4846,908.4846,908.4846,908.8336,NA,NA,NA,NA,NA,NA,NA,TRUE,1,0.7583,905.4874,908.4844,NA,NA,NA,NA,NA,7,25,0,43,43,0,1,2,44,"binary"
"DA2A97DAB6E64CA18FA0EF71778F34A0",1,"0198f77e-ede9-791c-ae8a-ba23663693ad","0198f767-55c9-7875-8d21-563b3c0b86ed","2025-08-29_15h23.02.536",NA,NA,911.8316,911.8316,911.8316,912.1943,NA,NA,NA,NA,NA,NA,NA,TRUE,1,1.1115,908.8357,911.8315,NA,NA,NA,NA,NA,45,35,0,44,44,57,1,2,45,"binary"
"DA2A97DAB6E64CA18FA0EF71778F34A0",1,"0198f77e-ede9-791c-ae8a-ba23663693ad","0198f767-55c9-7875-8d21-563b3c0b86ed","2025-08-29_15h23.02.536",NA,NA,915.195,915.1951,915.1951,915.5414,NA,NA,NA,NA,NA,NA,NA,TRUE,1,0.8607,912.1967,915.1948,NA,NA,NA,NA,NA,45,29,0,45,45,55,1,2,46,"binary"
"DA2A97DAB6E64CA18FA0EF71778F34A0",1,"0198f77e-ede9-791c-ae8a-ba23663693ad","0198f767-55c9-7875-8d21-563b3c0b86ed","2025-08-29_15h23.02.536",NA,NA,918.5383,918.5384,918.5384,918.888,NA,NA,NA,NA,NA,NA,NA,TRUE,1,0.8346,915.5438,918.5381,NA,NA,NA,NA,NA,50,40,0,46,46,63,1,2,47,"binary"
"DA2A97DAB6E64CA18FA0EF71778F34A0",1,"0198f77e-ede9-791c-ae8a-ba23663693ad","0198f767-55c9-7875-8d21-563b3c0b86ed","2025-08-29_15h23.02.536",NA,NA,921.8877,921.8878,921.8878,922.2347,NA,NA,NA,NA,NA,NA,NA,TRUE,2,1.3866,918.8904,921.8876,NA,NA,NA,NA,NA,30,38,0,47,47,47,1,2,48,"binary"
"DA2A97DAB6E64CA18FA0EF71778F34A0",1,"0198f77e-ede9-791c-ae8a-ba23663693ad","0198f767-55c9-7875-8d21-563b3c0b86ed","2025-08-29_15h23.02.536",NA,NA,925.2323,925.2324,925.2324,925.581,NA,NA,NA,NA,NA,NA,NA,TRUE,1,1.5437,922.2372,925.232,NA,NA,NA,NA,NA,28,26,0,48,48,36,1,2,49,"binary"
"DA2A97DAB6E64CA18FA0EF71778F34A0",1,"0198f77e-ede9-791c-ae8a-ba23663693ad","0198f767-55c9-7875-8d21-563b3c0b86ed","2025-08-29_15h23.02.536",NA,NA,928.5956,928.5957,928.5957,928.9449,NA,NA,NA,NA,NA,NA,NA,TRUE,1,0.8374,925.5833,928.5953,NA,NA,NA,NA,NA,12,28,0,49,49,14,1,2,50,"binary"
"DA2A97DAB6E64CA18FA0EF71778F34A0",1,"0198f77e-ede9-791c-ae8a-ba23663693ad","0198f767-55c9-7875-8d21-563b3c0b86ed","2025-08-29_15h23.02.536",NA,NA,931.9425,931.9425,931.9427,932.293,NA,NA,NA,NA,NA,NA,NA,TRUE,1,1.1345,928.9471,931.9421,NA,NA,NA,NA,NA,28,39,0,50,50,40,1,2,51,"binary"
"DA2A97DAB6E64CA18FA0EF71778F34A0",1,"0198f77e-ede9-791c-ae8a-ba23663693ad","0198f767-55c9-7875-8d21-563b3c0b86ed","2025-08-29_15h23.02.536",NA,NA,935.289,935.2891,935.2891,935.64,NA,NA,NA,NA,NA,NA,NA,TRUE,1,0.5544,932.2953,935.2887,NA,NA,NA,NA,NA,180,39,0,51,51,99,1,2,52,"binary"
"DA2A97DAB6E64CA18FA0EF71778F34A0",1,"0198f77e-ede9-791c-ae8a-ba23663693ad","0198f767-55c9-7875-8d21-563b3c0b86ed","2025-08-29_15h23.02.536",NA,NA,938.6381,938.6381,938.6383,938.9851,NA,NA,NA,NA,NA,NA,NA,TRUE,1,0.779,935.6422,938.638,NA,NA,NA,NA,NA,150,47,0,52,52,94,1,2,53,"binary"
"DA2A97DAB6E64CA18FA0EF71778F34A0",1,"0198f77e-ede9-791c-ae8a-ba23663693ad","0198f767-55c9-7875-8d21-563b3c0b86ed","2025-08-29_15h23.02.536",NA,NA,941.9825,941.9825,941.9825,942.3317,NA,NA,NA,NA,NA,NA,NA,TRUE,1,0.683,938.9872,941.9822,NA,NA,NA,NA,NA,100,31,0,53,53,85,1,2,54,"binary"
"DA2A97DAB6E64CA18FA0EF71778F34A0",1,"0198f77e-ede9-791c-ae8a-ba23663693ad","0198f767-55c9-7875-8d21-563b3c0b86ed","2025-08-29_15h23.02.536",NA,NA,945.3473,945.3475,945.3475,945.6949,NA,NA,NA,NA,NA,NA,NA,TRUE,1,0.7192,942.334,945.3472,NA,NA,NA,NA,NA,30,26,0,54,54,42,1,2,55,"binary"
"DA2A97DAB6E64CA18FA0EF71778F34A0",1,"0198f77e-ede9-791c-ae8a-ba23663693ad","0198f767-55c9-7875-8d21-563b3c0b86ed","2025-08-29_15h23.02.536",NA,NA,948.6926,948.6927,948.6927,949.045,NA,NA,NA,NA,NA,NA,NA,TRUE,1,0.6556,945.6972,948.6921,NA,NA,NA,NA,NA,95,31,0,55,55,78,1,2,56,"binary"
"DA2A97DAB6E64CA18FA0EF71778F34A0",1,"0198f77e-ede9-791c-ae8a-ba23663693ad","0198f767-55c9-7875-8d21-563b3c0b86ed","2025-08-29_15h23.02.536",NA,NA,952.0394,952.0394,952.0394,952.3888,NA,NA,NA,NA,NA,NA,NA,TRUE,1,0.7559,949.0485,952.0389,NA,NA,NA,NA,NA,30,27,0,56,56,43,1,2,57,"binary"
"DA2A97DAB6E64CA18FA0EF71778F34A0",1,"0198f77e-ede9-791c-ae8a-ba23663693ad","0198f767-55c9-7875-8d21-563b3c0b86ed","2025-08-29_15h23.02.536",NA,NA,955.3861,955.3861,955.3862,955.7351,NA,NA,NA,NA,NA,NA,NA,TRUE,1,0.8531,952.3908,955.3856,NA,NA,NA,NA,NA,60,29,0,57,57,66,1,2,58,"binary"
"DA2A97DAB6E64CA18FA0EF71778F34A0",1,"0198f77e-ede9-791c-ae8a-ba23663693ad","0198f767-55c9-7875-8d21-563b3c0b86ed","2025-08-29_15h23.02.536",NA,NA,958.7325,958.7326,958.7327,959.0817,NA,NA,NA,NA,NA,NA,NA,TRUE,1,0.6356,955.7377,958.7322,NA,NA,NA,NA,NA,50,27,0,58,58,60,1,2,59,"binary"
"DA2A97DAB6E64CA18FA0EF71778F34A0",1,"0198f77e-ede9-791c-ae8a-ba23663693ad","0198f767-55c9-7875-8d21-563b3c0b86ed","2025-08-29_15h23.02.536",NA,NA,962.0963,962.0964,962.0964,962.4477,NA,NA,NA,NA,NA,NA,NA,TRUE,2,1.2953,959.0842,962.0958,NA,NA,NA,NA,NA,25,33,0,59,59,33,1,2,60,"binary"
"DA2A97DAB6E64CA18FA0EF71778F34A0",1,"0198f77e-ede9-791c-ae8a-ba23663693ad","0198f767-55c9-7875-8d21-563b3c0b86ed","2025-08-29_15h23.02.536",NA,NA,965.4426,965.4428,965.4428,965.7918,NA,NA,NA,NA,NA,NA,NA,TRUE,2,0.8504,962.4501,965.4423,NA,NA,NA,NA,NA,12,35,0,60,60,17,1,2,61,"binary"
"DA2A97DAB6E64CA18FA0EF71778F34A0",1,"0198f77e-ede9-791c-ae8a-ba23663693ad","0198f767-55c9-7875-8d21-563b3c0b86ed","2025-08-29_15h23.02.536",NA,NA,968.789,968.7891,968.7891,969.1388,NA,NA,NA,NA,NA,NA,NA,TRUE,1,1.3589,965.7944,968.7888,NA,NA,NA,NA,NA,45,31,0,61,61,56,1,2,62,"binary"
"DA2A97DAB6E64CA18FA0EF71778F34A0",1,"0198f77e-ede9-791c-ae8a-ba23663693ad","0198f767-55c9-7875-8d21-563b3c0b86ed","2025-08-29_15h23.02.536",NA,NA,972.1384,972.1385,972.1386,972.4855,NA,NA,NA,NA,NA,NA,NA,TRUE,1,0.746,969.1415,972.1383,NA,NA,NA,NA,NA,180,54,0,62,62,101,1,2,63,"binary"
"DA2A97DAB6E64CA18FA0EF71778F34A0",1,"0198f77e-ede9-791c-ae8a-ba23663693ad","0198f767-55c9-7875-8d21-563b3c0b86ed","2025-08-29_15h23.02.536",NA,NA,975.4829,975.483,975.483,975.8318,NA,NA,NA,NA,NA,NA,NA,TRUE,2,0.7331,972.4881,975.4826,NA,NA,NA,NA,NA,14,35,0,63,63,22,1,2,64,"binary"
"DA2A97DAB6E64CA18FA0EF71778F34A0",1,"0198f77e-ede9-791c-ae8a-ba23663693ad","0198f767-55c9-7875-8d21-563b3c0b86ed","2025-08-29_15h23.02.536",NA,NA,978.8463,978.8465,978.8466,979.1952,NA,NA,NA,NA,NA,NA,NA,TRUE,1,0.5632,975.8337,978.8458,NA,NA,NA,NA,NA,95,47,0,64,64,82,1,2,65,"binary"
"DA2A97DAB6E64CA18FA0EF71778F34A0",1,"0198f77e-ede9-791c-ae8a-ba23663693ad","0198f767-55c9-7875-8d21-563b3c0b86ed","2025-08-29_15h23.02.536",NA,NA,982.1925,982.1926,982.1926,982.5419,NA,NA,NA,NA,NA,NA,NA,TRUE,2,0.7786,979.1968,982.1923,NA,NA,NA,NA,NA,12,31,0,65,65,15,1,2,66,"binary"
"DA2A97DAB6E64CA18FA0EF71778F34A0",1,"0198f77e-ede9-791c-ae8a-ba23663693ad","0198f767-55c9-7875-8d21-563b3c0b86ed","2025-08-29_15h23.02.536",NA,NA,985.5398,985.5399,985.5399,985.8885,NA,NA,NA,NA,NA,NA,NA,TRUE,1,0.8839,982.5436,985.5393,NA,NA,NA,NA,NA,25,27,0,66,66,30,1,2,67,"binary"
"DA2A97DAB6E64CA18FA0EF71778F34A0",1,"0198f77e-ede9-791c-ae8a-ba23663693ad","0198f767-55c9-7875-8d21-563b3c0b86ed","2025-08-29_15h23.02.536",NA,NA,988.8866,988.8867,988.8867,989.2352,NA,NA,NA,NA,NA,NA,NA,TRUE,1,1.1535,985.8902,988.8864,NA,NA,NA,NA,NA,10,29,0,67,67,9,1,2,68,"binary"
"DA2A97DAB6E64CA18FA0EF71778F34A0",1,"0198f77e-ede9-791c-ae8a-ba23663693ad","0198f767-55c9-7875-8d21-563b3c0b86ed","2025-08-29_15h23.02.536",NA,NA,992.2324,992.2325,992.2325,992.5821,NA,NA,NA,NA,NA,NA,NA,TRUE,1,0.6236,989.2368,992.2323,NA,NA,NA,NA,NA,100,39,0,68,68,87,1,2,69,"binary"
"DA2A97DAB6E64CA18FA0EF71778F34A0",1,"0198f77e-ede9-791c-ae8a-ba23663693ad","0198f767-55c9-7875-8d21-563b3c0b86ed","2025-08-29_15h23.02.536",NA,NA,995.5995,995.5995,995.5995,995.9453,NA,NA,NA,NA,NA,NA,NA,TRUE,1,0.8141,992.5837,995.5993,NA,NA,NA,NA,NA,30,29,0,69,69,44,1,2,70,"binary"
"DA2A97DAB6E64CA18FA0EF71778F34A0",1,"0198f77e-ede9-791c-ae8a-ba23663693ad","0198f767-55c9-7875-8d21-563b3c0b86ed","2025-08-29_15h23.02.536",NA,NA,998.9426,998.9426,998.9426,999.2922,NA,NA,NA,NA,NA,NA,NA,TRUE,2,1.2681,995.947,998.9424,NA,NA,NA,NA,NA,28,46,0,70,70,41,1,2,71,"binary"
"DA2A97DAB6E64CA18FA0EF71778F34A0",1,"0198f77e-ede9-791c-ae8a-ba23663693ad","0198f767-55c9-7875-8d21-563b3c0b86ed","2025-08-29_15h23.02.536",NA,NA,1002.2893,1002.2893,1002.2894,1002.6389,NA,NA,NA,NA,NA,NA,NA,TRUE,2,1.2412,999.2938,1002.2891,NA,NA,NA,NA,NA,21,27,0,71,71,25,1,2,72,"binary"
"DA2A97DAB6E64CA18FA0EF71778F34A0",1,"0198f77e-ede9-791c-ae8a-ba23663693ad","0198f767-55c9-7875-8d21-563b3c0b86ed","2025-08-29_15h23.02.536",NA,NA,1005.636,1005.636,1005.6361,1005.9855,NA,NA,NA,NA,NA,NA,NA,TRUE,1,0.6839,1002.6405,1005.6358,NA,NA,NA,NA,NA,100,38,0,72,72,86,1,2,73,"binary"
"DA2A97DAB6E64CA18FA0EF71778F34A0",1,"0198f77e-ede9-791c-ae8a-ba23663693ad","0198f767-55c9-7875-8d21-563b3c0b86ed","2025-08-29_15h23.02.536",NA,NA,1008.9828,1008.9828,1008.9828,1009.3322,NA,NA,NA,NA,NA,NA,NA,TRUE,1,0.6414,1005.9871,1008.9825,NA,NA,NA,NA,NA,50,46,0,73,73,64,1,2,74,"binary"
"DA2A97DAB6E64CA18FA0EF71778F34A0",1,"0198f77e-ede9-791c-ae8a-ba23663693ad","0198f767-55c9-7875-8d21-563b3c0b86ed","2025-08-29_15h23.02.536",NA,NA,1012.3469,1012.3471,1012.3471,1012.6962,NA,NA,NA,NA,NA,NA,NA,TRUE,1,0.8471,1009.3339,1012.3465,NA,NA,NA,NA,NA,45,40,0,74,74,58,1,2,75,"binary"
"DA2A97DAB6E64CA18FA0EF71778F34A0",1,"0198f77e-ede9-791c-ae8a-ba23663693ad","0198f767-55c9-7875-8d21-563b3c0b86ed","2025-08-29_15h23.02.536",NA,NA,1015.6929,1015.6929,1015.693,1016.0429,NA,NA,NA,NA,NA,NA,NA,TRUE,1,0.4864,1012.6983,1015.6926,NA,NA,NA,NA,NA,90,54,0,75,75,77,1,2,76,"binary"
"DA2A97DAB6E64CA18FA0EF71778F34A0",1,"0198f77e-ede9-791c-ae8a-ba23663693ad","0198f767-55c9-7875-8d21-563b3c0b86ed","2025-08-29_15h23.02.536",NA,NA,1019.0404,1019.0405,1019.0405,1019.3895,NA,NA,NA,NA,NA,NA,NA,TRUE,2,0.8034,1016.0456,1019.04,NA,NA,NA,NA,NA,7,30,0,76,76,3,1,2,77,"binary"
"DA2A97DAB6E64CA18FA0EF71778F34A0",1,"0198f77e-ede9-791c-ae8a-ba23663693ad","0198f767-55c9-7875-8d21-563b3c0b86ed","2025-08-29_15h23.02.536",NA,NA,1022.3872,1022.3873,1022.3873,1022.7362,NA,NA,NA,NA,NA,NA,NA,TRUE,2,0.8211,1019.3919,1022.3868,NA,NA,NA,NA,NA,10,25,0,77,77,6,1,2,78,"binary"
"DA2A97DAB6E64CA18FA0EF71778F34A0",1,"0198f77e-ede9-791c-ae8a-ba23663693ad","0198f767-55c9-7875-8d21-563b3c0b86ed","2025-08-29_15h23.02.536",NA,NA,1025.7363,1025.7363,1025.7363,1026.083,NA,NA,NA,NA,NA,NA,NA,TRUE,1,0.9385,1022.7385,1025.7358,NA,NA,NA,NA,NA,50,35,0,78,78,62,1,2,79,"binary"
"DA2A97DAB6E64CA18FA0EF71778F34A0",1,"0198f77e-ede9-791c-ae8a-ba23663693ad","0198f767-55c9-7875-8d21-563b3c0b86ed","2025-08-29_15h23.02.536",NA,NA,1029.0968,1029.097,1029.097,1029.4482,NA,NA,NA,NA,NA,NA,NA,TRUE,1,0.9632,1026.0852,1029.0965,NA,NA,NA,NA,NA,25,31,0,79,79,32,1,2,80,"binary"
"DA2A97DAB6E64CA18FA0EF71778F34A0",1,"0198f77e-ede9-791c-ae8a-ba23663693ad","0198f767-55c9-7875-8d21-563b3c0b86ed","2025-08-29_15h23.02.536",NA,NA,1032.4461,1032.4462,1032.4463,1032.7927,NA,NA,NA,NA,NA,NA,NA,TRUE,1,0.6999,1029.4505,1032.4459,NA,NA,NA,NA,NA,60,33,0,80,80,67,1,2,81,"binary"
"DA2A97DAB6E64CA18FA0EF71778F34A0",1,"0198f77e-ede9-791c-ae8a-ba23663693ad","0198f767-55c9-7875-8d21-563b3c0b86ed","2025-08-29_15h23.02.536",NA,NA,1035.7905,1035.7906,1035.7907,1036.1393,NA,NA,NA,NA,NA,NA,NA,TRUE,1,0.5167,1032.7953,1035.7901,NA,NA,NA,NA,NA,200,26,0,81,81,102,1,2,82,"binary"
"DA2A97DAB6E64CA18FA0EF71778F34A0",1,"0198f77e-ede9-791c-ae8a-ba23663693ad","0198f767-55c9-7875-8d21-563b3c0b86ed","2025-08-29_15h23.02.536",NA,NA,1039.1378,1039.1378,1039.1378,1039.4867,NA,NA,NA,NA,NA,NA,NA,TRUE,1,0.7364,1036.141,1039.1372,NA,NA,NA,NA,NA,7,35,0,82,82,5,1,2,83,"binary"
"DA2A97DAB6E64CA18FA0EF71778F34A0",1,"0198f77e-ede9-791c-ae8a-ba23663693ad","0198f767-55c9-7875-8d21-563b3c0b86ed","2025-08-29_15h23.02.536",NA,NA,1042.4836,1042.4837,1042.4837,1042.8331,NA,NA,NA,NA,NA,NA,NA,TRUE,1,0.7877,1039.4888,1042.4834,NA,NA,NA,NA,NA,25,46,0,83,83,35,1,2,84,"binary"
"DA2A97DAB6E64CA18FA0EF71778F34A0",1,"0198f77e-ede9-791c-ae8a-ba23663693ad","0198f767-55c9-7875-8d21-563b3c0b86ed","2025-08-29_15h23.02.536",NA,NA,1045.8469,1045.847,1045.847,1046.1961,NA,NA,NA,NA,NA,NA,NA,TRUE,1,0.5533,1042.8354,1045.8467,NA,NA,NA,NA,NA,180,46,0,84,84,100,1,2,85,"binary"
"DA2A97DAB6E64CA18FA0EF71778F34A0",1,"0198f77e-ede9-791c-ae8a-ba23663693ad","0198f767-55c9-7875-8d21-563b3c0b86ed","2025-08-29_15h23.02.536",NA,NA,1049.1942,1049.1943,1049.1943,1049.5433,NA,NA,NA,NA,NA,NA,NA,TRUE,2,1.1162,1046.1987,1049.1938,NA,NA,NA,NA,NA,14,32,0,85,85,21,1,2,86,"binary"
"DA2A97DAB6E64CA18FA0EF71778F34A0",1,"0198f77e-ede9-791c-ae8a-ba23663693ad","0198f767-55c9-7875-8d21-563b3c0b86ed","2025-08-29_15h23.02.536",NA,NA,1052.5408,1052.5409,1052.5409,1052.8906,NA,NA,NA,NA,NA,NA,NA,TRUE,1,0.5683,1049.5459,1052.5405,NA,NA,NA,NA,NA,90,40,0,86,86,75,1,2,87,"binary"
"DA2A97DAB6E64CA18FA0EF71778F34A0",1,"0198f77e-ede9-791c-ae8a-ba23663693ad","0198f767-55c9-7875-8d21-563b3c0b86ed","2025-08-29_15h23.02.536",NA,NA,1055.8873,1055.8874,1055.8875,1056.2389,NA,NA,NA,NA,NA,NA,NA,TRUE,2,0.8172,1052.8929,1055.8871,NA,NA,NA,NA,NA,7,28,0,87,87,2,1,2,88,"binary"
"DA2A97DAB6E64CA18FA0EF71778F34A0",1,"0198f77e-ede9-791c-ae8a-ba23663693ad","0198f767-55c9-7875-8d21-563b3c0b86ed","2025-08-29_15h23.02.536",NA,NA,1059.234,1059.234,1059.2341,1059.5838,NA,NA,NA,NA,NA,NA,NA,TRUE,1,0.8613,1056.2412,1059.2336,NA,NA,NA,NA,NA,180,35,0,88,88,98,1,2,89,"binary"
"DA2A97DAB6E64CA18FA0EF71778F34A0",1,"0198f77e-ede9-791c-ae8a-ba23663693ad","0198f767-55c9-7875-8d21-563b3c0b86ed","2025-08-29_15h23.02.536",NA,NA,1062.5832,1062.5832,1062.5833,1062.9319,NA,NA,NA,NA,NA,NA,NA,TRUE,2,1.0004,1059.5871,1062.583,NA,NA,NA,NA,NA,10,32,0,89,89,11,1,2,90,"binary"
"DA2A97DAB6E64CA18FA0EF71778F34A0",1,"0198f77e-ede9-791c-ae8a-ba23663693ad","0198f767-55c9-7875-8d21-563b3c0b86ed","2025-08-29_15h23.02.536",NA,NA,1065.9442,1065.9443,1065.9443,1066.2935,NA,NA,NA,NA,NA,NA,NA,TRUE,1,0.848,1062.934,1065.9439,NA,NA,NA,NA,NA,95,33,0,90,90,79,1,2,91,"binary"
"DA2A97DAB6E64CA18FA0EF71778F34A0",1,"0198f77e-ede9-791c-ae8a-ba23663693ad","0198f767-55c9-7875-8d21-563b3c0b86ed","2025-08-29_15h23.02.536",NA,NA,1069.2905,1069.2905,1069.2905,1069.6398,NA,NA,NA,NA,NA,NA,NA,TRUE,1,1.2203,1066.296,1069.2903,NA,NA,NA,NA,NA,28,28,0,91,91,37,1,2,92,"binary"
"DA2A97DAB6E64CA18FA0EF71778F34A0",1,"0198f77e-ede9-791c-ae8a-ba23663693ad","0198f767-55c9-7875-8d21-563b3c0b86ed","2025-08-29_15h23.02.536",NA,NA,1072.6371,1072.6371,1072.6372,1072.9866,NA,NA,NA,NA,NA,NA,NA,TRUE,1,1.0265,1069.6415,1072.6369,NA,NA,NA,NA,NA,12,26,0,92,92,13,1,2,93,"binary"
"DA2A97DAB6E64CA18FA0EF71778F34A0",1,"0198f77e-ede9-791c-ae8a-ba23663693ad","0198f767-55c9-7875-8d21-563b3c0b86ed","2025-08-29_15h23.02.536",NA,NA,1075.984,1075.984,1075.984,1076.3331,NA,NA,NA,NA,NA,NA,NA,TRUE,1,0.9132,1072.9884,1075.9837,NA,NA,NA,NA,NA,180,31,0,93,93,97,1,2,94,"binary"
"DA2A97DAB6E64CA18FA0EF71778F34A0",1,"0198f77e-ede9-791c-ae8a-ba23663693ad","0198f767-55c9-7875-8d21-563b3c0b86ed","2025-08-29_15h23.02.536",NA,NA,1079.347,1079.347,1079.347,1079.6815,NA,NA,NA,NA,NA,NA,NA,TRUE,1,0.5974,1076.3348,1079.347,NA,NA,NA,NA,NA,40,40,0,94,94,51,1,2,95,"binary"
"DA2A97DAB6E64CA18FA0EF71778F34A0",1,"0198f77e-ede9-791c-ae8a-ba23663693ad","0198f767-55c9-7875-8d21-563b3c0b86ed","2025-08-29_15h23.02.536",NA,NA,1082.694,1082.6941,1082.6941,1083.0435,NA,NA,NA,NA,NA,NA,NA,TRUE,2,1.2135,1079.6826,1082.6937,NA,NA,NA,NA,NA,7,32,0,95,95,4,1,2,96,"binary"
"DA2A97DAB6E64CA18FA0EF71778F34A0",1,"0198f77e-ede9-791c-ae8a-ba23663693ad","0198f767-55c9-7875-8d21-563b3c0b86ed","2025-08-29_15h23.02.536",NA,NA,1086.043,1086.043,1086.043,1086.3906,NA,NA,NA,NA,NA,NA,NA,TRUE,1,0.9019,1083.0451,1086.0428,NA,NA,NA,NA,NA,10,26,0,96,96,7,1,2,97,"binary"
"DA2A97DAB6E64CA18FA0EF71778F34A0",1,"0198f77e-ede9-791c-ae8a-ba23663693ad","0198f767-55c9-7875-8d21-563b3c0b86ed","2025-08-29_15h23.02.536",NA,NA,1089.3881,1089.3882,1089.3882,1089.7372,NA,NA,NA,NA,NA,NA,NA,TRUE,1,1.1399,1086.3931,1089.3878,NA,NA,NA,NA,NA,21,32,0,97,97,28,1,2,98,"binary"
"DA2A97DAB6E64CA18FA0EF71778F34A0",1,"0198f77e-ede9-791c-ae8a-ba23663693ad","0198f767-55c9-7875-8d21-563b3c0b86ed","2025-08-29_15h23.02.536",NA,NA,1092.7347,1092.7347,1092.7348,1093.0843,NA,NA,NA,NA,NA,NA,NA,TRUE,1,0.7307,1089.7396,1092.7343,NA,NA,NA,NA,NA,30,32,0,98,98,46,1,2,99,"binary"
"DA2A97DAB6E64CA18FA0EF71778F34A0",1,"0198f77e-ede9-791c-ae8a-ba23663693ad","0198f767-55c9-7875-8d21-563b3c0b86ed","2025-08-29_15h23.02.536",NA,NA,1096.0815,1096.0815,1096.0816,1096.4337,NA,NA,NA,NA,NA,NA,NA,TRUE,1,0.7833,1093.0867,1096.0812,NA,NA,NA,NA,NA,25,29,0,99,99,31,1,2,100,"binary"
"DA2A97DAB6E64CA18FA0EF71778F34A0",1,"0198f77e-ede9-791c-ae8a-ba23663693ad","0198f767-55c9-7875-8d21-563b3c0b86ed","2025-08-29_15h23.02.536",NA,NA,1099.4487,1099.4488,1099.4489,1099.7949,NA,NA,NA,NA,NA,NA,NA,TRUE,2,0.7238,1096.4359,1099.4478,NA,NA,NA,NA,NA,10,30,0,100,100,10,1,2,101,"binary"
"DA2A97DAB6E64CA18FA0EF71778F34A0",1,"0198f77e-ede9-791c-ae8a-ba23663693ad","0198f767-55c9-7875-8d21-563b3c0b86ed","2025-08-29_15h23.02.536",NA,NA,1102.7917,1102.7917,1102.7918,1103.141,NA,NA,NA,NA,NA,NA,NA,TRUE,1,0.6767,1099.7978,1102.7914,NA,NA,NA,NA,NA,95,54,0,101,101,83,1,2,102,"binary"
"DA2A97DAB6E64CA18FA0EF71778F34A0",1,"0198f77e-ede9-791c-ae8a-ba23663693ad","0198f767-55c9-7875-8d21-563b3c0b86ed","2025-08-29_15h23.02.536",NA,NA,1106.1407,1106.1408,1106.1409,1106.4893,NA,NA,NA,NA,NA,NA,NA,TRUE,1,1.0738,1103.1435,1106.1405,NA,NA,NA,NA,NA,40,35,0,102,102,50,1,2,103,"binary"
"DA2A97DAB6E64CA18FA0EF71778F34A0",1,"0198f77e-ede9-791c-ae8a-ba23663693ad","0198f767-55c9-7875-8d21-563b3c0b86ed","2025-08-29_15h23.02.536",NA,NA,1109.485,1109.4851,1109.4851,1109.8343,NA,NA,NA,NA,NA,NA,NA,TRUE,1,0.9229,1106.4913,1109.4846,NA,NA,NA,NA,NA,90,33,0,103,103,74,1,2,104,"binary"
"DA2A97DAB6E64CA18FA0EF71778F34A0",1,"0198f77e-ede9-791c-ae8a-ba23663693ad","0198f767-55c9-7875-8d21-563b3c0b86ed","2025-08-29_15h23.02.536",NA,NA,1112.8311,1112.8312,1112.8312,1113.1812,NA,NA,NA,NA,NA,NA,NA,TRUE,1,0.6286,1109.8368,1112.831,NA,NA,NA,NA,NA,100,26,0,104,104,84,1,2,105,"binary"
"DA2A97DAB6E64CA18FA0EF71778F34A0",1,"0198f77e-ede9-791c-ae8a-ba23663693ad","0198f767-55c9-7875-8d21-563b3c0b86ed","2025-08-29_15h23.02.536",NA,NA,1116.1954,1116.1957,1116.1957,1116.5444,NA,NA,NA,NA,NA,NA,NA,TRUE,1,0.5125,1113.1834,1116.1949,NA,NA,NA,NA,NA,200,35,0,105,105,104,1,2,106,"binary"
"DA2A97DAB6E64CA18FA0EF71778F34A0",1,"0198f77e-ede9-791c-ae8a-ba23663693ad","0198f767-55c9-7875-8d21-563b3c0b86ed","2025-08-29_15h23.02.536",NA,NA,1119.5433,1119.5434,1119.5435,1119.8912,NA,NA,NA,NA,NA,NA,NA,TRUE,1,0.7896,1116.5475,1119.5432,NA,NA,NA,NA,NA,95,35,0,106,106,80,1,2,107,"binary"
"DA2A97DAB6E64CA18FA0EF71778F34A0",1,"0198f77e-ede9-791c-ae8a-ba23663693ad","0198f767-55c9-7875-8d21-563b3c0b86ed","2025-08-29_15h23.02.536",NA,NA,1122.8886,1122.8887,1122.8887,1123.2386,NA,NA,NA,NA,NA,NA,NA,TRUE,1,0.836,1119.8938,1122.8882,NA,NA,NA,NA,NA,28,32,0,107,107,38,1,2,108,"binary"
