"participant","session","assignmentId","projectId","date","practiceTrial.started","practiceTrial.stopped","tooLate.started","tooLate.stopped","blank.started","blank.stopped","trials_pract.thisRepN","trials_pract.thisTrialN","trials_pract.thisN","trials_pract.thisIndex","trials_pract.ran","delay_pract","amount_pract","responseMade","key","rt","trial.started","trial.stopped","trials.thisRepN","trials.thisTrialN","trials.thisN","trials.thisIndex","trials.ran","delay","amount","trials_2.thisRepN","trials_2.thisTrialN","trials_2.thisN","trials_2.thisIndex","trials_2.ran","block","trial","taskType"
"DD44CA1228D0434495F8E152F1F7793D",1,"01990aa8-a66a-7688-8742-e5691d48a604","01990a83-7673-7c0c-a792-bbd8fbbaf673","2025-09-02_09h41.28.224",178.419,181.3422,181.3444,181.37,181.3702,181.6921,0,0,0,4,1,30,40,TRUE,1,1.0262,NA,NA,NA,NA,NA,NA,NA,NA,NA,NA,NA,NA,NA,NA,0,1,"binary"
"DD44CA1228D0434495F8E152F1F7793D",1,"01990aa8-a66a-7688-8742-e5691d48a604","01990a83-7673-7c0c-a792-bbd8fbbaf673","2025-09-02_09h41.28.224",181.6986,184.6908,184.6915,184.6917,184.6918,185.0403,0,1,1,1,1,100,50,TRUE,1,0.7615,NA,NA,NA,NA,NA,NA,NA,NA,NA,NA,NA,NA,NA,NA,0,2,"binary"
"DD44CA1228D0434495F8E152F1F7793D",1,"01990aa8-a66a-7688-8742-e5691d48a604","01990a83-7673-7c0c-a792-bbd8fbbaf673","2025-09-02_09h41.28.224",185.048,188.0388,188.0393,188.0395,188.0398,188.3885,0,2,2,0,1,7,30,TRUE,1,1.1862,NA,NA,NA,NA,NA,NA,NA,NA,NA,NA,NA,NA,NA,NA,0,3,"binary"
"DD44CA1228D0434495F8E152F1F7793D",1,"01990aa8-a66a-7688-8742-e5691d48a604","01990a83-7673-7c0c-a792-bbd8fbbaf673","2025-09-02_09h41.28.224",188.3948,191.3871,191.3876,191.3878,191.3883,191.7369,0,3,3,3,1,3,27,TRUE,1,0.6573,NA,NA,NA,NA,NA,NA,NA,NA,NA,NA,NA,NA,NA,NA,0,4,"binary"
"DD44CA1228D0434495F8E152F1F7793D",1,"01990aa8-a66a-7688-8742-e5691d48a604","01990a83-7673-7c0c-a792-bbd8fbbaf673","2025-09-02_09h41.28.224",191.7433,194.7356,194.7361,194.7363,194.7365,195.0853,0,4,4,2,1,14,45,TRUE,1,0.8606,NA,NA,NA,NA,NA,NA,NA,NA,NA,NA,NA,NA,NA,NA,0,5,"binary"
"DD44CA1228D0434495F8E152F1F7793D",1,"01990aa8-a66a-7688-8742-e5691d48a604","01990a83-7673-7c0c-a792-bbd8fbbaf673","2025-09-02_09h41.28.224",NA,NA,252.712,252.7132,252.7136,253.0602,NA,NA,NA,NA,NA,NA,NA,TRUE,1,1.2915,249.7828,252.7108,0,0,0,49,1,40,33,NA,NA,NA,NA,NA,1,1,"binary"
"DD44CA1228D0434495F8E152F1F7793D",1,"01990aa8-a66a-7688-8742-e5691d48a604","01990a83-7673-7c0c-a792-bbd8fbbaf673","2025-09-02_09h41.28.224",NA,NA,256.0589,256.0592,256.0592,256.4121,NA,NA,NA,NA,NA,NA,NA,TRUE,1,0.4612,253.0671,256.0584,0,1,1,44,1,30,29,NA,NA,NA,NA,NA,1,2,"binary"
"DD44CA1228D0434495F8E152F1F7793D",1,"01990aa8-a66a-7688-8742-e5691d48a604","01990a83-7673-7c0c-a792-bbd8fbbaf673","2025-09-02_09h41.28.224",NA,NA,259.4074,259.4077,259.4077,259.7567,NA,NA,NA,NA,NA,NA,NA,TRUE,1,0.3662,256.4198,259.4069,0,2,2,36,1,28,26,NA,NA,NA,NA,NA,1,3,"binary"
"DD44CA1228D0434495F8E152F1F7793D",1,"01990aa8-a66a-7688-8742-e5691d48a604","01990a83-7673-7c0c-a792-bbd8fbbaf673","2025-09-02_09h41.28.224",NA,NA,262.756,262.7567,262.7568,263.1051,NA,NA,NA,NA,NA,NA,NA,TRUE,1,0.5475,259.7614,262.7551,0,3,3,81,1,95,40,NA,NA,NA,NA,NA,1,4,"binary"
"DD44CA1228D0434495F8E152F1F7793D",1,"01990aa8-a66a-7688-8742-e5691d48a604","01990a83-7673-7c0c-a792-bbd8fbbaf673","2025-09-02_09h41.28.224",NA,NA,266.1086,266.109,266.1092,266.4538,NA,NA,NA,NA,NA,NA,NA,TRUE,1,0.4424,263.1099,266.1082,0,4,4,40,1,28,39,NA,NA,NA,NA,NA,1,5,"binary"
"DD44CA1228D0434495F8E152F1F7793D",1,"01990aa8-a66a-7688-8742-e5691d48a604","01990a83-7673-7c0c-a792-bbd8fbbaf673","2025-09-02_09h41.28.224",NA,NA,269.4531,269.4533,269.4535,269.8024,NA,NA,NA,NA,NA,NA,NA,TRUE,1,0.3813,266.4592,269.4525,0,5,5,90,1,150,31,NA,NA,NA,NA,NA,1,6,"binary"
"DD44CA1228D0434495F8E152F1F7793D",1,"01990aa8-a66a-7688-8742-e5691d48a604","01990a83-7673-7c0c-a792-bbd8fbbaf673","2025-09-02_09h41.28.224",NA,NA,272.802,272.8024,272.803,273.1507,NA,NA,NA,NA,NA,NA,NA,TRUE,1,0.7531,269.8072,272.8014,0,6,6,45,1,30,30,NA,NA,NA,NA,NA,1,7,"binary"
"DD44CA1228D0434495F8E152F1F7793D",1,"01990aa8-a66a-7688-8742-e5691d48a604","01990a83-7673-7c0c-a792-bbd8fbbaf673","2025-09-02_09h41.28.224",NA,NA,276.1663,276.1669,276.167,276.5159,NA,NA,NA,NA,NA,NA,NA,TRUE,1,0.6366,273.157,276.1658,0,7,7,31,1,25,29,NA,NA,NA,NA,NA,1,8,"binary"
"DD44CA1228D0434495F8E152F1F7793D",1,"01990aa8-a66a-7688-8742-e5691d48a604","01990a83-7673-7c0c-a792-bbd8fbbaf673","2025-09-02_09h41.28.224",NA,NA,279.5158,279.7646,279.7647,279.8635,NA,NA,NA,NA,NA,NA,NA,FALSE,NA,NA,276.5213,279.5149,0,8,8,8,1,10,27,NA,NA,NA,NA,NA,1,9,"binary"
"DD44CA1228D0434495F8E152F1F7793D",1,"01990aa8-a66a-7688-8742-e5691d48a604","01990a83-7673-7c0c-a792-bbd8fbbaf673","2025-09-02_09h41.28.224",NA,NA,282.8643,282.8647,282.8648,283.213,NA,NA,NA,NA,NA,NA,NA,TRUE,1,1.3795,279.866,282.8633,0,9,9,103,1,200,28,NA,NA,NA,NA,NA,1,10,"binary"
"DD44CA1228D0434495F8E152F1F7793D",1,"01990aa8-a66a-7688-8742-e5691d48a604","01990a83-7673-7c0c-a792-bbd8fbbaf673","2025-09-02_09h41.28.224",NA,NA,286.2122,286.2128,286.2129,286.5614,NA,NA,NA,NA,NA,NA,NA,TRUE,2,0.3338,283.2182,286.2116,0,10,10,79,1,95,33,NA,NA,NA,NA,NA,1,11,"binary"
"DD44CA1228D0434495F8E152F1F7793D",1,"01990aa8-a66a-7688-8742-e5691d48a604","01990a83-7673-7c0c-a792-bbd8fbbaf673","2025-09-02_09h41.28.224",NA,NA,289.5605,289.5608,289.561,289.9098,NA,NA,NA,NA,NA,NA,NA,TRUE,2,0.2905,286.5669,289.5601,0,11,11,12,1,12,25,NA,NA,NA,NA,NA,1,12,"binary"
"DD44CA1228D0434495F8E152F1F7793D",1,"01990aa8-a66a-7688-8742-e5691d48a604","01990a83-7673-7c0c-a792-bbd8fbbaf673","2025-09-02_09h41.28.224",NA,NA,292.9096,292.91,292.9101,293.2583,NA,NA,NA,NA,NA,NA,NA,TRUE,2,0.3018,289.9149,292.909,0,12,12,95,1,150,54,NA,NA,NA,NA,NA,1,13,"binary"
"DD44CA1228D0434495F8E152F1F7793D",1,"01990aa8-a66a-7688-8742-e5691d48a604","01990a83-7673-7c0c-a792-bbd8fbbaf673","2025-09-02_09h41.28.224",NA,NA,296.2575,296.2579,296.2579,296.6068,NA,NA,NA,NA,NA,NA,NA,TRUE,2,0.2583,293.2639,296.2571,0,13,13,57,1,45,35,NA,NA,NA,NA,NA,1,14,"binary"
"DD44CA1228D0434495F8E152F1F7793D",1,"01990aa8-a66a-7688-8742-e5691d48a604","01990a83-7673-7c0c-a792-bbd8fbbaf673","2025-09-02_09h41.28.224",NA,NA,299.6059,299.6061,299.6064,299.9599,NA,NA,NA,NA,NA,NA,NA,TRUE,2,0.1588,296.6119,299.6054,0,14,14,41,1,28,46,NA,NA,NA,NA,NA,1,15,"binary"
"DD44CA1228D0434495F8E152F1F7793D",1,"01990aa8-a66a-7688-8742-e5691d48a604","01990a83-7673-7c0c-a792-bbd8fbbaf673","2025-09-02_09h41.28.224",NA,NA,302.9547,302.9556,302.9556,303.3042,NA,NA,NA,NA,NA,NA,NA,TRUE,2,0.7532,299.9646,302.9543,0,15,15,15,1,12,31,NA,NA,NA,NA,NA,1,16,"binary"
"DD44CA1228D0434495F8E152F1F7793D",1,"01990aa8-a66a-7688-8742-e5691d48a604","01990a83-7673-7c0c-a792-bbd8fbbaf673","2025-09-02_09h41.28.224",NA,NA,306.3031,306.3035,306.3041,306.6523,NA,NA,NA,NA,NA,NA,NA,TRUE,2,0.2433,303.3101,306.3027,0,16,16,18,1,14,25,NA,NA,NA,NA,NA,1,17,"binary"
"DD44CA1228D0434495F8E152F1F7793D",1,"01990aa8-a66a-7688-8742-e5691d48a604","01990a83-7673-7c0c-a792-bbd8fbbaf673","2025-09-02_09h41.28.224",NA,NA,309.6515,309.6518,309.652,310.0005,NA,NA,NA,NA,NA,NA,NA,TRUE,2,0.1642,306.6577,309.6511,0,17,17,72,1,90,26,NA,NA,NA,NA,NA,1,18,"binary"
"DD44CA1228D0434495F8E152F1F7793D",1,"01990aa8-a66a-7688-8742-e5691d48a604","01990a83-7673-7c0c-a792-bbd8fbbaf673","2025-09-02_09h41.28.224",NA,NA,313.0168,313.0173,313.0174,313.3524,NA,NA,NA,NA,NA,NA,NA,TRUE,2,0.1126,310.0028,313.0163,0,18,18,73,1,90,30,NA,NA,NA,NA,NA,1,19,"binary"
"DD44CA1228D0434495F8E152F1F7793D",1,"01990aa8-a66a-7688-8742-e5691d48a604","01990a83-7673-7c0c-a792-bbd8fbbaf673","2025-09-02_09h41.28.224",NA,NA,316.3652,316.3654,316.3655,316.7146,NA,NA,NA,NA,NA,NA,NA,TRUE,2,0.0672,313.3576,316.3647,0,19,19,107,1,200,54,NA,NA,NA,NA,NA,1,20,"binary"
"DD44CA1228D0434495F8E152F1F7793D",1,"01990aa8-a66a-7688-8742-e5691d48a604","01990a83-7673-7c0c-a792-bbd8fbbaf673","2025-09-02_09h41.28.224",NA,NA,319.7137,319.7148,319.7148,320.0668,NA,NA,NA,NA,NA,NA,NA,TRUE,2,0.189,316.72,319.7133,0,20,20,22,1,14,35,NA,NA,NA,NA,NA,1,21,"binary"
"DD44CA1228D0434495F8E152F1F7793D",1,"01990aa8-a66a-7688-8742-e5691d48a604","01990a83-7673-7c0c-a792-bbd8fbbaf673","2025-09-02_09h41.28.224",NA,NA,323.0669,323.0672,323.0673,323.4115,NA,NA,NA,NA,NA,NA,NA,TRUE,2,0.2592,320.0714,323.0665,0,21,21,69,1,60,40,NA,NA,NA,NA,NA,1,22,"binary"
"DD44CA1228D0434495F8E152F1F7793D",1,"01990aa8-a66a-7688-8742-e5691d48a604","01990a83-7673-7c0c-a792-bbd8fbbaf673","2025-09-02_09h41.28.224",NA,NA,326.4109,326.4112,326.4115,326.7602,NA,NA,NA,NA,NA,NA,NA,TRUE,2,0.0928,323.4166,326.4104,0,22,22,30,1,25,27,NA,NA,NA,NA,NA,1,23,"binary"
"DD44CA1228D0434495F8E152F1F7793D",1,"01990aa8-a66a-7688-8742-e5691d48a604","01990a83-7673-7c0c-a792-bbd8fbbaf673","2025-09-02_09h41.28.224",NA,NA,329.7592,329.7601,329.7601,330.1088,NA,NA,NA,NA,NA,NA,NA,TRUE,2,0.0768,326.7657,329.7587,0,23,23,66,1,60,29,NA,NA,NA,NA,NA,1,24,"binary"
"DD44CA1228D0434495F8E152F1F7793D",1,"01990aa8-a66a-7688-8742-e5691d48a604","01990a83-7673-7c0c-a792-bbd8fbbaf673","2025-09-02_09h41.28.224",NA,NA,333.1078,333.1081,333.1083,333.4569,NA,NA,NA,NA,NA,NA,NA,TRUE,2,0.2297,330.1152,333.1074,0,24,24,51,1,40,40,NA,NA,NA,NA,NA,1,25,"binary"
"DD44CA1228D0434495F8E152F1F7793D",1,"01990aa8-a66a-7688-8742-e5691d48a604","01990a83-7673-7c0c-a792-bbd8fbbaf673","2025-09-02_09h41.28.224",NA,NA,336.4582,336.4584,336.4585,336.8056,NA,NA,NA,NA,NA,NA,NA,TRUE,2,0.2618,333.4622,336.4571,0,25,25,17,1,12,35,NA,NA,NA,NA,NA,1,26,"binary"
"DD44CA1228D0434495F8E152F1F7793D",1,"01990aa8-a66a-7688-8742-e5691d48a604","01990a83-7673-7c0c-a792-bbd8fbbaf673","2025-09-02_09h41.28.224",NA,NA,339.8051,339.8054,339.8058,340.1545,NA,NA,NA,NA,NA,NA,NA,TRUE,2,0.1932,336.8104,339.8046,0,26,26,37,1,28,28,NA,NA,NA,NA,NA,1,27,"binary"
"DD44CA1228D0434495F8E152F1F7793D",1,"01990aa8-a66a-7688-8742-e5691d48a604","01990a83-7673-7c0c-a792-bbd8fbbaf673","2025-09-02_09h41.28.224",NA,NA,343.1532,343.1535,343.1537,343.5028,NA,NA,NA,NA,NA,NA,NA,TRUE,2,0.2609,340.1593,343.1526,0,27,27,104,1,200,35,NA,NA,NA,NA,NA,1,28,"binary"
"DD44CA1228D0434495F8E152F1F7793D",1,"01990aa8-a66a-7688-8742-e5691d48a604","01990a83-7673-7c0c-a792-bbd8fbbaf673","2025-09-02_09h41.28.224",NA,NA,346.5018,346.5022,346.5024,346.851,NA,NA,NA,NA,NA,NA,NA,TRUE,2,0.1976,343.508,346.5014,0,28,28,70,1,60,47,NA,NA,NA,NA,NA,1,29,"binary"
"DD44CA1228D0434495F8E152F1F7793D",1,"01990aa8-a66a-7688-8742-e5691d48a604","01990a83-7673-7c0c-a792-bbd8fbbaf673","2025-09-02_09h41.28.224",NA,NA,349.8503,349.8506,349.8507,350.1997,NA,NA,NA,NA,NA,NA,NA,TRUE,2,0.2529,346.8565,349.8499,0,29,29,7,1,10,26,NA,NA,NA,NA,NA,1,30,"binary"
"DD44CA1228D0434495F8E152F1F7793D",1,"01990aa8-a66a-7688-8742-e5691d48a604","01990a83-7673-7c0c-a792-bbd8fbbaf673","2025-09-02_09h41.28.224",NA,NA,353.2154,353.2166,353.2166,353.5648,NA,NA,NA,NA,NA,NA,NA,TRUE,2,0.3274,350.2054,353.215,0,30,30,87,1,100,39,NA,NA,NA,NA,NA,1,31,"binary"
"DD44CA1228D0434495F8E152F1F7793D",1,"01990aa8-a66a-7688-8742-e5691d48a604","01990a83-7673-7c0c-a792-bbd8fbbaf673","2025-09-02_09h41.28.224",NA,NA,356.5643,356.5649,356.565,356.9135,NA,NA,NA,NA,NA,NA,NA,TRUE,2,0.3182,353.5702,356.5638,0,31,31,88,1,100,46,NA,NA,NA,NA,NA,1,32,"binary"
"DD44CA1228D0434495F8E152F1F7793D",1,"01990aa8-a66a-7688-8742-e5691d48a604","01990a83-7673-7c0c-a792-bbd8fbbaf673","2025-09-02_09h41.28.224",NA,NA,359.9125,359.9135,359.9136,360.262,NA,NA,NA,NA,NA,NA,NA,TRUE,2,0.2585,356.9182,359.912,0,32,32,98,1,180,35,NA,NA,NA,NA,NA,1,33,"binary"
"DD44CA1228D0434495F8E152F1F7793D",1,"01990aa8-a66a-7688-8742-e5691d48a604","01990a83-7673-7c0c-a792-bbd8fbbaf673","2025-09-02_09h41.28.224",NA,NA,363.2611,363.2615,363.2619,363.6103,NA,NA,NA,NA,NA,NA,NA,TRUE,2,0.2627,360.2668,363.2607,0,33,33,105,1,200,39,NA,NA,NA,NA,NA,1,34,"binary"
"DD44CA1228D0434495F8E152F1F7793D",1,"01990aa8-a66a-7688-8742-e5691d48a604","01990a83-7673-7c0c-a792-bbd8fbbaf673","2025-09-02_09h41.28.224",NA,NA,366.6096,366.6098,366.6099,366.9588,NA,NA,NA,NA,NA,NA,NA,TRUE,2,0.317,363.6159,366.6092,0,34,34,76,1,90,46,NA,NA,NA,NA,NA,1,35,"binary"
"DD44CA1228D0434495F8E152F1F7793D",1,"01990aa8-a66a-7688-8742-e5691d48a604","01990a83-7673-7c0c-a792-bbd8fbbaf673","2025-09-02_09h41.28.224",NA,NA,369.9582,369.9585,369.9586,370.3074,NA,NA,NA,NA,NA,NA,NA,TRUE,2,0.2558,366.9643,369.9577,0,35,35,91,1,150,33,NA,NA,NA,NA,NA,1,36,"binary"
"DD44CA1228D0434495F8E152F1F7793D",1,"01990aa8-a66a-7688-8742-e5691d48a604","01990a83-7673-7c0c-a792-bbd8fbbaf673","2025-09-02_09h41.28.224",NA,NA,373.3065,373.3066,373.3067,373.656,NA,NA,NA,NA,NA,NA,NA,TRUE,2,0.256,370.3124,373.3061,0,36,36,93,1,150,40,NA,NA,NA,NA,NA,1,37,"binary"
"DD44CA1228D0434495F8E152F1F7793D",1,"01990aa8-a66a-7688-8742-e5691d48a604","01990a83-7673-7c0c-a792-bbd8fbbaf673","2025-09-02_09h41.28.224",NA,NA,376.6561,376.6562,376.6562,377.0043,NA,NA,NA,NA,NA,NA,NA,TRUE,2,0.2998,373.662,376.655,0,37,37,28,1,21,32,NA,NA,NA,NA,NA,1,38,"binary"
"DD44CA1228D0434495F8E152F1F7793D",1,"01990aa8-a66a-7688-8742-e5691d48a604","01990a83-7673-7c0c-a792-bbd8fbbaf673","2025-09-02_09h41.28.224",NA,NA,380.0034,380.0037,380.0042,380.3529,NA,NA,NA,NA,NA,NA,NA,TRUE,2,0.266,377.0096,380.0029,0,38,38,58,1,45,40,NA,NA,NA,NA,NA,1,39,"binary"
"DD44CA1228D0434495F8E152F1F7793D",1,"01990aa8-a66a-7688-8742-e5691d48a604","01990a83-7673-7c0c-a792-bbd8fbbaf673","2025-09-02_09h41.28.224",NA,NA,383.3522,383.3525,383.3528,383.7014,NA,NA,NA,NA,NA,NA,NA,TRUE,2,0.2635,380.3578,383.3517,0,39,39,9,1,10,29,NA,NA,NA,NA,NA,1,40,"binary"
"DD44CA1228D0434495F8E152F1F7793D",1,"01990aa8-a66a-7688-8742-e5691d48a604","01990a83-7673-7c0c-a792-bbd8fbbaf673","2025-09-02_09h41.28.224",NA,NA,386.7007,386.7011,386.7013,387.0504,NA,NA,NA,NA,NA,NA,NA,TRUE,2,0.121,383.707,386.7002,0,40,40,47,1,30,38,NA,NA,NA,NA,NA,1,41,"binary"
"DD44CA1228D0434495F8E152F1F7793D",1,"01990aa8-a66a-7688-8742-e5691d48a604","01990a83-7673-7c0c-a792-bbd8fbbaf673","2025-09-02_09h41.28.224",NA,NA,390.0657,390.066,390.0666,390.4152,NA,NA,NA,NA,NA,NA,NA,TRUE,2,0.1479,387.0552,390.0651,0,41,41,61,1,50,30,NA,NA,NA,NA,NA,1,42,"binary"
"DD44CA1228D0434495F8E152F1F7793D",1,"01990aa8-a66a-7688-8742-e5691d48a604","01990a83-7673-7c0c-a792-bbd8fbbaf673","2025-09-02_09h41.28.224",NA,NA,393.4143,393.4147,393.4149,393.7635,NA,NA,NA,NA,NA,NA,NA,TRUE,2,0.2373,390.4201,393.4139,0,42,42,54,1,45,26,NA,NA,NA,NA,NA,1,43,"binary"
"DD44CA1228D0434495F8E152F1F7793D",1,"01990aa8-a66a-7688-8742-e5691d48a604","01990a83-7673-7c0c-a792-bbd8fbbaf673","2025-09-02_09h41.28.224",NA,NA,396.7626,396.7636,396.7637,397.112,NA,NA,NA,NA,NA,NA,NA,TRUE,2,0.2263,393.7695,396.7622,0,43,43,21,1,14,32,NA,NA,NA,NA,NA,1,44,"binary"
"DD44CA1228D0434495F8E152F1F7793D",1,"01990aa8-a66a-7688-8742-e5691d48a604","01990a83-7673-7c0c-a792-bbd8fbbaf673","2025-09-02_09h41.28.224",NA,NA,400.1101,400.1101,400.1101,400.4607,NA,NA,NA,NA,NA,NA,NA,TRUE,2,0.2904,397.1172,400.11,0,44,44,67,1,60,33,NA,NA,NA,NA,NA,1,45,"binary"
"DD44CA1228D0434495F8E152F1F7793D",1,"01990aa8-a66a-7688-8742-e5691d48a604","01990a83-7673-7c0c-a792-bbd8fbbaf673","2025-09-02_09h41.28.224",NA,NA,403.4604,403.4608,403.4609,403.8091,NA,NA,NA,NA,NA,NA,NA,TRUE,2,0.2723,400.4658,403.4599,0,45,45,0,1,7,25,NA,NA,NA,NA,NA,1,46,"binary"
"DD44CA1228D0434495F8E152F1F7793D",1,"01990aa8-a66a-7688-8742-e5691d48a604","01990a83-7673-7c0c-a792-bbd8fbbaf673","2025-09-02_09h41.28.224",NA,NA,406.8091,406.8093,406.8094,407.1572,NA,NA,NA,NA,NA,NA,NA,TRUE,2,0.2851,403.8143,406.808,0,46,46,83,1,95,54,NA,NA,NA,NA,NA,1,47,"binary"
"DD44CA1228D0434495F8E152F1F7793D",1,"01990aa8-a66a-7688-8742-e5691d48a604","01990a83-7673-7c0c-a792-bbd8fbbaf673","2025-09-02_09h41.28.224",NA,NA,410.1568,410.1571,410.1571,410.5061,NA,NA,NA,NA,NA,NA,NA,TRUE,2,0.2388,407.1604,410.1564,0,47,47,56,1,45,31,NA,NA,NA,NA,NA,1,48,"binary"
"DD44CA1228D0434495F8E152F1F7793D",1,"01990aa8-a66a-7688-8742-e5691d48a604","01990a83-7673-7c0c-a792-bbd8fbbaf673","2025-09-02_09h41.28.224",NA,NA,413.5057,413.5058,413.5059,413.8545,NA,NA,NA,NA,NA,NA,NA,TRUE,2,0.2845,410.5115,413.5051,0,48,48,29,1,21,38,NA,NA,NA,NA,NA,1,49,"binary"
"DD44CA1228D0434495F8E152F1F7793D",1,"01990aa8-a66a-7688-8742-e5691d48a604","01990a83-7673-7c0c-a792-bbd8fbbaf673","2025-09-02_09h41.28.224",NA,NA,416.8543,416.8545,416.8546,417.2024,NA,NA,NA,NA,NA,NA,NA,TRUE,2,0.3433,413.8594,416.8535,0,49,49,3,1,7,30,NA,NA,NA,NA,NA,1,50,"binary"
"DD44CA1228D0434495F8E152F1F7793D",1,"01990aa8-a66a-7688-8742-e5691d48a604","01990a83-7673-7c0c-a792-bbd8fbbaf673","2025-09-02_09h41.28.224",NA,NA,420.2064,420.2066,420.2067,420.5563,NA,NA,NA,NA,NA,NA,NA,TRUE,2,0.2825,417.2046,420.2059,0,50,50,38,1,28,32,NA,NA,NA,NA,NA,1,51,"binary"
"DD44CA1228D0434495F8E152F1F7793D",1,"01990aa8-a66a-7688-8742-e5691d48a604","01990a83-7673-7c0c-a792-bbd8fbbaf673","2025-09-02_09h41.28.224",NA,NA,423.5518,423.552,423.5521,423.9002,NA,NA,NA,NA,NA,NA,NA,TRUE,2,0.2747,420.561,423.5505,0,51,51,77,1,90,54,NA,NA,NA,NA,NA,1,52,"binary"
"DD44CA1228D0434495F8E152F1F7793D",1,"01990aa8-a66a-7688-8742-e5691d48a604","01990a83-7673-7c0c-a792-bbd8fbbaf673","2025-09-02_09h41.28.224",NA,NA,426.916,426.9164,426.9166,427.2653,NA,NA,NA,NA,NA,NA,NA,TRUE,2,0.2718,423.904,426.9154,0,52,52,75,1,90,40,NA,NA,NA,NA,NA,1,53,"binary"
"DD44CA1228D0434495F8E152F1F7793D",1,"01990aa8-a66a-7688-8742-e5691d48a604","01990a83-7673-7c0c-a792-bbd8fbbaf673","2025-09-02_09h41.28.224",NA,NA,430.2674,430.2681,430.2682,430.6135,NA,NA,NA,NA,NA,NA,NA,TRUE,2,0.3351,427.2704,430.2671,0,53,53,62,1,50,35,NA,NA,NA,NA,NA,1,54,"binary"
"DD44CA1228D0434495F8E152F1F7793D",1,"01990aa8-a66a-7688-8742-e5691d48a604","01990a83-7673-7c0c-a792-bbd8fbbaf673","2025-09-02_09h41.28.224",NA,NA,433.6139,433.6143,433.6143,433.9627,NA,NA,NA,NA,NA,NA,NA,TRUE,2,0.2595,430.6183,433.6128,0,54,54,78,1,95,31,NA,NA,NA,NA,NA,1,55,"binary"
"DD44CA1228D0434495F8E152F1F7793D",1,"01990aa8-a66a-7688-8742-e5691d48a604","01990a83-7673-7c0c-a792-bbd8fbbaf673","2025-09-02_09h41.28.224",NA,NA,436.9616,436.9617,436.962,437.3108,NA,NA,NA,NA,NA,NA,NA,TRUE,2,0.2338,433.968,436.9609,0,55,55,5,1,7,35,NA,NA,NA,NA,NA,1,56,"binary"
"DD44CA1228D0434495F8E152F1F7793D",1,"01990aa8-a66a-7688-8742-e5691d48a604","01990a83-7673-7c0c-a792-bbd8fbbaf673","2025-09-02_09h41.28.224",NA,NA,440.31,440.3102,440.3104,440.6594,NA,NA,NA,NA,NA,NA,NA,TRUE,2,0.334,437.3169,440.3096,0,56,56,16,1,12,33,NA,NA,NA,NA,NA,1,57,"binary"
"DD44CA1228D0434495F8E152F1F7793D",1,"01990aa8-a66a-7688-8742-e5691d48a604","01990a83-7673-7c0c-a792-bbd8fbbaf673","2025-09-02_09h41.28.224",NA,NA,443.6586,443.6589,443.6591,444.0078,NA,NA,NA,NA,NA,NA,NA,TRUE,2,0.2417,440.6647,443.6582,0,57,57,46,1,30,32,NA,NA,NA,NA,NA,1,58,"binary"
"DD44CA1228D0434495F8E152F1F7793D",1,"01990aa8-a66a-7688-8742-e5691d48a604","01990a83-7673-7c0c-a792-bbd8fbbaf673","2025-09-02_09h41.28.224",NA,NA,447.007,447.0072,447.0076,447.3563,NA,NA,NA,NA,NA,NA,NA,TRUE,2,0.2217,444.0137,447.0066,0,58,58,19,1,14,26,NA,NA,NA,NA,NA,1,59,"binary"
"DD44CA1228D0434495F8E152F1F7793D",1,"01990aa8-a66a-7688-8742-e5691d48a604","01990a83-7673-7c0c-a792-bbd8fbbaf673","2025-09-02_09h41.28.224",NA,NA,450.3555,450.3558,450.356,450.7047,NA,NA,NA,NA,NA,NA,NA,TRUE,2,0.3189,447.3611,450.355,0,59,59,39,1,28,35,NA,NA,NA,NA,NA,1,60,"binary"
"DD44CA1228D0434495F8E152F1F7793D",1,"01990aa8-a66a-7688-8742-e5691d48a604","01990a83-7673-7c0c-a792-bbd8fbbaf673","2025-09-02_09h41.28.224",NA,NA,453.7041,453.7049,453.705,454.0535,NA,NA,NA,NA,NA,NA,NA,TRUE,2,0.2758,450.7098,453.7035,0,60,60,100,1,180,46,NA,NA,NA,NA,NA,1,61,"binary"
"DD44CA1228D0434495F8E152F1F7793D",1,"01990aa8-a66a-7688-8742-e5691d48a604","01990a83-7673-7c0c-a792-bbd8fbbaf673","2025-09-02_09h41.28.224",NA,NA,457.053,457.0531,457.0532,457.402,NA,NA,NA,NA,NA,NA,NA,TRUE,2,0.1449,454.0588,457.0525,0,61,61,20,1,14,28,NA,NA,NA,NA,NA,1,62,"binary"
"DD44CA1228D0434495F8E152F1F7793D",1,"01990aa8-a66a-7688-8742-e5691d48a604","01990a83-7673-7c0c-a792-bbd8fbbaf673","2025-09-02_09h41.28.224",NA,NA,460.4011,460.4015,460.4016,460.7508,NA,NA,NA,NA,NA,NA,NA,TRUE,2,0.1863,457.4068,460.4008,0,62,62,101,1,180,54,NA,NA,NA,NA,NA,1,63,"binary"
"DD44CA1228D0434495F8E152F1F7793D",1,"01990aa8-a66a-7688-8742-e5691d48a604","01990a83-7673-7c0c-a792-bbd8fbbaf673","2025-09-02_09h41.28.224",NA,NA,463.7672,463.7674,463.7677,464.1154,NA,NA,NA,NA,NA,NA,NA,TRUE,2,0.0431,460.7557,463.766,0,63,63,65,1,50,54,NA,NA,NA,NA,NA,1,64,"binary"
"DD44CA1228D0434495F8E152F1F7793D",1,"01990aa8-a66a-7688-8742-e5691d48a604","01990a83-7673-7c0c-a792-bbd8fbbaf673","2025-09-02_09h41.28.224",NA,NA,467.1147,467.1152,467.1157,467.464,NA,NA,NA,NA,NA,NA,NA,TRUE,2,0.7273,464.1204,467.1143,0,64,64,27,1,21,30,NA,NA,NA,NA,NA,1,65,"binary"
"DD44CA1228D0434495F8E152F1F7793D",1,"01990aa8-a66a-7688-8742-e5691d48a604","01990a83-7673-7c0c-a792-bbd8fbbaf673","2025-09-02_09h41.28.224",NA,NA,470.4632,470.4642,470.4643,470.8127,NA,NA,NA,NA,NA,NA,NA,TRUE,2,0.1274,467.4691,470.4627,0,65,65,94,1,150,47,NA,NA,NA,NA,NA,1,66,"binary"
"DD44CA1228D0434495F8E152F1F7793D",1,"01990aa8-a66a-7688-8742-e5691d48a604","01990a83-7673-7c0c-a792-bbd8fbbaf673","2025-09-02_09h41.28.224",NA,NA,473.8119,473.8126,473.8128,474.1615,NA,NA,NA,NA,NA,NA,NA,TRUE,2,0.2512,470.8182,473.8115,0,66,66,25,1,21,27,NA,NA,NA,NA,NA,1,67,"binary"
"DD44CA1228D0434495F8E152F1F7793D",1,"01990aa8-a66a-7688-8742-e5691d48a604","01990a83-7673-7c0c-a792-bbd8fbbaf673","2025-09-02_09h41.28.224",NA,NA,477.1636,477.1637,477.1639,477.5126,NA,NA,NA,NA,NA,NA,NA,TRUE,2,0.212,474.1666,477.1632,0,67,67,33,1,25,33,NA,NA,NA,NA,NA,1,68,"binary"
"DD44CA1228D0434495F8E152F1F7793D",1,"01990aa8-a66a-7688-8742-e5691d48a604","01990a83-7673-7c0c-a792-bbd8fbbaf673","2025-09-02_09h41.28.224",NA,NA,480.5088,480.5089,480.5097,480.8582,NA,NA,NA,NA,NA,NA,NA,TRUE,2,0.3388,477.5176,480.5084,0,68,68,13,1,12,26,NA,NA,NA,NA,NA,1,69,"binary"
"DD44CA1228D0434495F8E152F1F7793D",1,"01990aa8-a66a-7688-8742-e5691d48a604","01990a83-7673-7c0c-a792-bbd8fbbaf673","2025-09-02_09h41.28.224",NA,NA,483.8579,483.8581,483.8581,484.2068,NA,NA,NA,NA,NA,NA,NA,TRUE,2,0.335,480.8636,483.8574,0,69,69,86,1,100,38,NA,NA,NA,NA,NA,1,70,"binary"
"DD44CA1228D0434495F8E152F1F7793D",1,"01990aa8-a66a-7688-8742-e5691d48a604","01990a83-7673-7c0c-a792-bbd8fbbaf673","2025-09-02_09h41.28.224",NA,NA,487.2069,487.2071,487.2072,487.5551,NA,NA,NA,NA,NA,NA,NA,TRUE,2,0.4776,484.2116,487.2056,0,70,70,11,1,10,32,NA,NA,NA,NA,NA,1,71,"binary"
"DD44CA1228D0434495F8E152F1F7793D",1,"01990aa8-a66a-7688-8742-e5691d48a604","01990a83-7673-7c0c-a792-bbd8fbbaf673","2025-09-02_09h41.28.224",NA,NA,490.5544,490.5544,490.5546,490.9038,NA,NA,NA,NA,NA,NA,NA,TRUE,2,0.2643,487.5602,490.554,0,71,71,23,1,14,39,NA,NA,NA,NA,NA,1,72,"binary"
"DD44CA1228D0434495F8E152F1F7793D",1,"01990aa8-a66a-7688-8742-e5691d48a604","01990a83-7673-7c0c-a792-bbd8fbbaf673","2025-09-02_09h41.28.224",NA,NA,493.903,493.9032,493.9034,494.2525,NA,NA,NA,NA,NA,NA,NA,TRUE,2,0.3791,490.9095,493.9026,0,72,72,32,1,25,31,NA,NA,NA,NA,NA,1,73,"binary"
"DD44CA1228D0434495F8E152F1F7793D",1,"01990aa8-a66a-7688-8742-e5691d48a604","01990a83-7673-7c0c-a792-bbd8fbbaf673","2025-09-02_09h41.28.224",NA,NA,497.2513,497.2514,497.2523,497.6005,NA,NA,NA,NA,NA,NA,NA,TRUE,2,0.4101,494.2575,497.2509,0,73,73,68,1,60,35,NA,NA,NA,NA,NA,1,74,"binary"
"DD44CA1228D0434495F8E152F1F7793D",1,"01990aa8-a66a-7688-8742-e5691d48a604","01990a83-7673-7c0c-a792-bbd8fbbaf673","2025-09-02_09h41.28.224",NA,NA,500.6165,500.6171,500.6172,500.966,NA,NA,NA,NA,NA,NA,NA,TRUE,2,0.3108,497.6054,500.6162,0,74,74,43,1,30,27,NA,NA,NA,NA,NA,1,75,"binary"
"DD44CA1228D0434495F8E152F1F7793D",1,"01990aa8-a66a-7688-8742-e5691d48a604","01990a83-7673-7c0c-a792-bbd8fbbaf673","2025-09-02_09h41.28.224",NA,NA,503.9649,503.9655,503.9658,504.3142,NA,NA,NA,NA,NA,NA,NA,TRUE,2,0.4353,500.9727,503.9645,0,75,75,2,1,7,28,NA,NA,NA,NA,NA,1,76,"binary"
"DD44CA1228D0434495F8E152F1F7793D",1,"01990aa8-a66a-7688-8742-e5691d48a604","01990a83-7673-7c0c-a792-bbd8fbbaf673","2025-09-02_09h41.28.224",NA,NA,507.3135,507.3144,507.3146,507.6629,NA,NA,NA,NA,NA,NA,NA,TRUE,2,0.4238,504.3189,507.313,0,76,76,106,1,200,47,NA,NA,NA,NA,NA,1,77,"binary"
"DD44CA1228D0434495F8E152F1F7793D",1,"01990aa8-a66a-7688-8742-e5691d48a604","01990a83-7673-7c0c-a792-bbd8fbbaf673","2025-09-02_09h41.28.224",NA,NA,510.6621,510.6631,510.6633,511.0115,NA,NA,NA,NA,NA,NA,NA,TRUE,2,0.4208,507.6678,510.6617,0,77,77,55,1,45,29,NA,NA,NA,NA,NA,1,78,"binary"
"DD44CA1228D0434495F8E152F1F7793D",1,"01990aa8-a66a-7688-8742-e5691d48a604","01990a83-7673-7c0c-a792-bbd8fbbaf673","2025-09-02_09h41.28.224",NA,NA,514.0104,514.0105,514.0109,514.3601,NA,NA,NA,NA,NA,NA,NA,TRUE,2,0.2782,511.0168,514.0101,0,78,78,85,1,100,31,NA,NA,NA,NA,NA,1,79,"binary"
"DD44CA1228D0434495F8E152F1F7793D",1,"01990aa8-a66a-7688-8742-e5691d48a604","01990a83-7673-7c0c-a792-bbd8fbbaf673","2025-09-02_09h41.28.224",NA,NA,517.3591,517.36,517.3601,517.7129,NA,NA,NA,NA,NA,NA,NA,TRUE,2,0.4758,514.3653,517.3587,0,79,79,52,1,40,47,NA,NA,NA,NA,NA,1,80,"binary"
"DD44CA1228D0434495F8E152F1F7793D",1,"01990aa8-a66a-7688-8742-e5691d48a604","01990a83-7673-7c0c-a792-bbd8fbbaf673","2025-09-02_09h41.28.224",NA,NA,520.7078,520.7085,520.7085,521.0565,NA,NA,NA,NA,NA,NA,NA,TRUE,2,1.1001,517.7177,520.7072,0,80,80,50,1,40,35,NA,NA,NA,NA,NA,1,81,"binary"
"DD44CA1228D0434495F8E152F1F7793D",1,"01990aa8-a66a-7688-8742-e5691d48a604","01990a83-7673-7c0c-a792-bbd8fbbaf673","2025-09-02_09h41.28.224",NA,NA,524.0561,524.0565,524.057,524.4082,NA,NA,NA,NA,NA,NA,NA,TRUE,2,0.7134,521.0599,524.0557,0,81,81,42,1,30,26,NA,NA,NA,NA,NA,1,82,"binary"
"DD44CA1228D0434495F8E152F1F7793D",1,"01990aa8-a66a-7688-8742-e5691d48a604","01990a83-7673-7c0c-a792-bbd8fbbaf673","2025-09-02_09h41.28.224",NA,NA,527.4057,527.4059,527.406,527.7543,NA,NA,NA,NA,NA,NA,NA,TRUE,2,0.4071,524.4112,527.4046,0,82,82,82,1,95,47,NA,NA,NA,NA,NA,1,83,"binary"
"DD44CA1228D0434495F8E152F1F7793D",1,"01990aa8-a66a-7688-8742-e5691d48a604","01990a83-7673-7c0c-a792-bbd8fbbaf673","2025-09-02_09h41.28.224",NA,NA,530.7532,530.7535,530.7538,531.1026,NA,NA,NA,NA,NA,NA,NA,TRUE,2,0.2991,527.7596,530.7528,0,83,83,26,1,21,29,NA,NA,NA,NA,NA,1,84,"binary"
"DD44CA1228D0434495F8E152F1F7793D",1,"01990aa8-a66a-7688-8742-e5691d48a604","01990a83-7673-7c0c-a792-bbd8fbbaf673","2025-09-02_09h41.28.224",NA,NA,534.1017,534.1019,534.1022,534.4509,NA,NA,NA,NA,NA,NA,NA,TRUE,2,0.437,531.108,534.1013,0,84,84,10,1,10,30,NA,NA,NA,NA,NA,1,85,"binary"
"DD44CA1228D0434495F8E152F1F7793D",1,"01990aa8-a66a-7688-8742-e5691d48a604","01990a83-7673-7c0c-a792-bbd8fbbaf673","2025-09-02_09h41.28.224",NA,NA,537.4506,537.4512,537.4514,537.7995,NA,NA,NA,NA,NA,NA,NA,TRUE,2,0.377,534.4559,537.45,0,85,85,84,1,100,26,NA,NA,NA,NA,NA,1,86,"binary"
"DD44CA1228D0434495F8E152F1F7793D",1,"01990aa8-a66a-7688-8742-e5691d48a604","01990a83-7673-7c0c-a792-bbd8fbbaf673","2025-09-02_09h41.28.224",NA,NA,540.8153,540.8158,540.8158,541.1646,NA,NA,NA,NA,NA,NA,NA,TRUE,2,0.3355,537.8047,540.8148,0,86,86,92,1,150,35,NA,NA,NA,NA,NA,1,87,"binary"
"DD44CA1228D0434495F8E152F1F7793D",1,"01990aa8-a66a-7688-8742-e5691d48a604","01990a83-7673-7c0c-a792-bbd8fbbaf673","2025-09-02_09h41.28.224",NA,NA,544.1645,544.165,544.1651,544.5133,NA,NA,NA,NA,NA,NA,NA,TRUE,2,0.2847,541.17,544.164,0,87,87,4,1,7,32,NA,NA,NA,NA,NA,1,88,"binary"
"DD44CA1228D0434495F8E152F1F7793D",1,"01990aa8-a66a-7688-8742-e5691d48a604","01990a83-7673-7c0c-a792-bbd8fbbaf673","2025-09-02_09h41.28.224",NA,NA,547.5135,547.5138,547.514,547.8618,NA,NA,NA,NA,NA,NA,NA,TRUE,2,0.4087,544.5182,547.5126,0,88,88,48,1,40,27,NA,NA,NA,NA,NA,1,89,"binary"
"DD44CA1228D0434495F8E152F1F7793D",1,"01990aa8-a66a-7688-8742-e5691d48a604","01990a83-7673-7c0c-a792-bbd8fbbaf673","2025-09-02_09h41.28.224",NA,NA,550.8605,550.8607,550.861,551.2101,NA,NA,NA,NA,NA,NA,NA,TRUE,2,0.4431,547.8665,550.8602,0,89,89,35,1,25,46,NA,NA,NA,NA,NA,1,90,"binary"
"DD44CA1228D0434495F8E152F1F7793D",1,"01990aa8-a66a-7688-8742-e5691d48a604","01990a83-7673-7c0c-a792-bbd8fbbaf673","2025-09-02_09h41.28.224",NA,NA,554.2094,554.2097,554.2098,554.5587,NA,NA,NA,NA,NA,NA,NA,TRUE,2,0.5181,551.2159,554.209,0,90,90,14,1,12,28,NA,NA,NA,NA,NA,1,91,"binary"
"DD44CA1228D0434495F8E152F1F7793D",1,"01990aa8-a66a-7688-8742-e5691d48a604","01990a83-7673-7c0c-a792-bbd8fbbaf673","2025-09-02_09h41.28.224",NA,NA,557.5609,557.5609,557.561,557.9072,NA,NA,NA,NA,NA,NA,NA,TRUE,2,0.2711,554.564,557.5606,0,91,91,96,1,180,27,NA,NA,NA,NA,NA,1,92,"binary"
"DD44CA1228D0434495F8E152F1F7793D",1,"01990aa8-a66a-7688-8742-e5691d48a604","01990a83-7673-7c0c-a792-bbd8fbbaf673","2025-09-02_09h41.28.224",NA,NA,560.9067,560.9069,560.907,561.2557,NA,NA,NA,NA,NA,NA,NA,TRUE,2,0.371,557.9128,560.9061,0,92,92,74,1,90,33,NA,NA,NA,NA,NA,1,93,"binary"
"DD44CA1228D0434495F8E152F1F7793D",1,"01990aa8-a66a-7688-8742-e5691d48a604","01990a83-7673-7c0c-a792-bbd8fbbaf673","2025-09-02_09h41.28.224",NA,NA,564.2555,564.2557,564.2558,564.6045,NA,NA,NA,NA,NA,NA,NA,TRUE,2,0.2982,561.2608,564.2546,0,93,93,53,1,40,54,NA,NA,NA,NA,NA,1,94,"binary"
"DD44CA1228D0434495F8E152F1F7793D",1,"01990aa8-a66a-7688-8742-e5691d48a604","01990a83-7673-7c0c-a792-bbd8fbbaf673","2025-09-02_09h41.28.224",NA,NA,567.6028,567.603,567.6031,567.9519,NA,NA,NA,NA,NA,NA,NA,TRUE,2,0.4468,564.6095,567.6026,0,94,94,71,1,60,54,NA,NA,NA,NA,NA,1,95,"binary"
"DD44CA1228D0434495F8E152F1F7793D",1,"01990aa8-a66a-7688-8742-e5691d48a604","01990a83-7673-7c0c-a792-bbd8fbbaf673","2025-09-02_09h41.28.224",NA,NA,570.9519,570.952,570.9529,571.301,NA,NA,NA,NA,NA,NA,NA,TRUE,2,0.4966,567.9543,570.9515,0,95,95,1,1,7,26,NA,NA,NA,NA,NA,1,96,"binary"
"DD44CA1228D0434495F8E152F1F7793D",1,"01990aa8-a66a-7688-8742-e5691d48a604","01990a83-7673-7c0c-a792-bbd8fbbaf673","2025-09-02_09h41.28.224",NA,NA,574.3003,574.3004,574.3007,574.6498,NA,NA,NA,NA,NA,NA,NA,TRUE,2,0.3587,571.3061,574.2999,0,96,96,89,1,100,54,NA,NA,NA,NA,NA,1,97,"binary"
"DD44CA1228D0434495F8E152F1F7793D",1,"01990aa8-a66a-7688-8742-e5691d48a604","01990a83-7673-7c0c-a792-bbd8fbbaf673","2025-09-02_09h41.28.224",NA,NA,577.6658,577.6666,577.6668,578.0149,NA,NA,NA,NA,NA,NA,NA,TRUE,2,0.2994,574.6548,577.6652,0,97,97,97,1,180,31,NA,NA,NA,NA,NA,1,98,"binary"
"DD44CA1228D0434495F8E152F1F7793D",1,"01990aa8-a66a-7688-8742-e5691d48a604","01990a83-7673-7c0c-a792-bbd8fbbaf673","2025-09-02_09h41.28.224",NA,NA,581.0142,581.0146,581.0147,581.3635,NA,NA,NA,NA,NA,NA,NA,TRUE,2,0.3332,578.0201,581.0137,0,98,98,6,1,10,25,NA,NA,NA,NA,NA,1,99,"binary"
"DD44CA1228D0434495F8E152F1F7793D",1,"01990aa8-a66a-7688-8742-e5691d48a604","01990a83-7673-7c0c-a792-bbd8fbbaf673","2025-09-02_09h41.28.224",NA,NA,584.3638,584.364,584.3641,584.712,NA,NA,NA,NA,NA,NA,NA,TRUE,2,0.3516,581.3686,584.3633,0,99,99,63,1,50,40,NA,NA,NA,NA,NA,1,100,"binary"
"DD44CA1228D0434495F8E152F1F7793D",1,"01990aa8-a66a-7688-8742-e5691d48a604","01990a83-7673-7c0c-a792-bbd8fbbaf673","2025-09-02_09h41.28.224",NA,NA,587.7115,587.7122,587.7124,588.0605,NA,NA,NA,NA,NA,NA,NA,TRUE,2,0.2874,584.7168,587.711,0,100,100,34,1,25,35,NA,NA,NA,NA,NA,1,101,"binary"
"DD44CA1228D0434495F8E152F1F7793D",1,"01990aa8-a66a-7688-8742-e5691d48a604","01990a83-7673-7c0c-a792-bbd8fbbaf673","2025-09-02_09h41.28.224",NA,NA,591.0641,591.0648,591.0648,591.4091,NA,NA,NA,NA,NA,NA,NA,TRUE,2,0.658,588.0658,591.0637,0,101,101,80,1,95,35,NA,NA,NA,NA,NA,1,102,"binary"
"DD44CA1228D0434495F8E152F1F7793D",1,"01990aa8-a66a-7688-8742-e5691d48a604","01990a83-7673-7c0c-a792-bbd8fbbaf673","2025-09-02_09h41.28.224",NA,NA,594.408,594.4081,594.4089,594.7575,NA,NA,NA,NA,NA,NA,NA,TRUE,2,0.3565,591.4142,594.4075,0,102,102,102,1,200,26,NA,NA,NA,NA,NA,1,103,"binary"
"DD44CA1228D0434495F8E152F1F7793D",1,"01990aa8-a66a-7688-8742-e5691d48a604","01990a83-7673-7c0c-a792-bbd8fbbaf673","2025-09-02_09h41.28.224",NA,NA,597.7567,597.757,597.7573,598.1059,NA,NA,NA,NA,NA,NA,NA,TRUE,2,0.0952,594.7636,597.7563,0,103,103,99,1,180,39,NA,NA,NA,NA,NA,1,104,"binary"
"DD44CA1228D0434495F8E152F1F7793D",1,"01990aa8-a66a-7688-8742-e5691d48a604","01990a83-7673-7c0c-a792-bbd8fbbaf673","2025-09-02_09h41.28.224",NA,NA,601.1054,601.1056,601.1056,601.4546,NA,NA,NA,NA,NA,NA,NA,TRUE,2,0.1152,598.1113,601.105,0,104,104,60,1,50,27,NA,NA,NA,NA,NA,1,105,"binary"
"DD44CA1228D0434495F8E152F1F7793D",1,"01990aa8-a66a-7688-8742-e5691d48a604","01990a83-7673-7c0c-a792-bbd8fbbaf673","2025-09-02_09h41.28.224",NA,NA,604.4544,604.4546,604.4548,604.8031,NA,NA,NA,NA,NA,NA,NA,TRUE,2,0.3682,601.4604,604.4541,0,105,105,64,1,50,46,NA,NA,NA,NA,NA,1,106,"binary"
"DD44CA1228D0434495F8E152F1F7793D",1,"01990aa8-a66a-7688-8742-e5691d48a604","01990a83-7673-7c0c-a792-bbd8fbbaf673","2025-09-02_09h41.28.224",NA,NA,607.802,607.8022,607.8023,608.1516,NA,NA,NA,NA,NA,NA,NA,TRUE,2,0.2805,604.8085,607.8015,0,106,106,24,1,21,26,NA,NA,NA,NA,NA,1,107,"binary"
"DD44CA1228D0434495F8E152F1F7793D",1,"01990aa8-a66a-7688-8742-e5691d48a604","01990a83-7673-7c0c-a792-bbd8fbbaf673","2025-09-02_09h41.28.224",NA,NA,611.1506,611.1507,611.1508,611.4994,NA,NA,NA,NA,NA,NA,NA,TRUE,2,0.197,608.1565,611.1503,0,107,107,59,1,45,46,NA,NA,NA,NA,NA,1,108,"binary"
"DD44CA1228D0434495F8E152F1F7793D",1,"01990aa8-a66a-7688-8742-e5691d48a604","01990a83-7673-7c0c-a792-bbd8fbbaf673","2025-09-02_09h41.28.224",NA,NA,621.1131,621.1131,621.1133,621.4624,NA,NA,NA,NA,NA,NA,NA,TRUE,2,1.3429,618.1552,621.1125,NA,NA,NA,NA,NA,10,32,0,0,0,11,1,2,1,"binary"
"DD44CA1228D0434495F8E152F1F7793D",1,"01990aa8-a66a-7688-8742-e5691d48a604","01990a83-7673-7c0c-a792-bbd8fbbaf673","2025-09-02_09h41.28.224",NA,NA,624.4616,624.4619,624.462,624.8112,NA,NA,NA,NA,NA,NA,NA,TRUE,2,0.1238,621.4688,624.4612,NA,NA,NA,NA,NA,95,47,0,1,1,82,1,2,2,"binary"
"DD44CA1228D0434495F8E152F1F7793D",1,"01990aa8-a66a-7688-8742-e5691d48a604","01990a83-7673-7c0c-a792-bbd8fbbaf673","2025-09-02_09h41.28.224",NA,NA,627.8099,627.8102,627.8104,628.1591,NA,NA,NA,NA,NA,NA,NA,TRUE,2,0.0758,624.8167,627.8096,NA,NA,NA,NA,NA,7,26,0,2,2,1,1,2,3,"binary"
"DD44CA1228D0434495F8E152F1F7793D",1,"01990aa8-a66a-7688-8742-e5691d48a604","01990a83-7673-7c0c-a792-bbd8fbbaf673","2025-09-02_09h41.28.224",NA,NA,631.1591,631.1593,631.1594,631.5118,NA,NA,NA,NA,NA,NA,NA,TRUE,2,0.2138,628.1633,631.1586,NA,NA,NA,NA,NA,150,35,0,3,3,92,1,2,4,"binary"
"DD44CA1228D0434495F8E152F1F7793D",1,"01990aa8-a66a-7688-8742-e5691d48a604","01990a83-7673-7c0c-a792-bbd8fbbaf673","2025-09-02_09h41.28.224",NA,NA,634.507,634.5071,634.5079,634.8563,NA,NA,NA,NA,NA,NA,NA,TRUE,2,0.2084,631.5166,634.5066,NA,NA,NA,NA,NA,150,54,0,4,4,95,1,2,5,"binary"
"DD44CA1228D0434495F8E152F1F7793D",1,"01990aa8-a66a-7688-8742-e5691d48a604","01990a83-7673-7c0c-a792-bbd8fbbaf673","2025-09-02_09h41.28.224",NA,NA,637.8554,637.8556,637.856,638.2047,NA,NA,NA,NA,NA,NA,NA,TRUE,2,0.1742,634.8619,637.8549,NA,NA,NA,NA,NA,10,29,0,5,5,9,1,2,6,"binary"
"DD44CA1228D0434495F8E152F1F7793D",1,"01990aa8-a66a-7688-8742-e5691d48a604","01990a83-7673-7c0c-a792-bbd8fbbaf673","2025-09-02_09h41.28.224",NA,NA,641.2042,641.2044,641.2045,641.5533,NA,NA,NA,NA,NA,NA,NA,TRUE,2,0.238,638.2098,641.2037,NA,NA,NA,NA,NA,60,33,0,6,6,67,1,2,7,"binary"
"DD44CA1228D0434495F8E152F1F7793D",1,"01990aa8-a66a-7688-8742-e5691d48a604","01990a83-7673-7c0c-a792-bbd8fbbaf673","2025-09-02_09h41.28.224",NA,NA,644.5691,644.5696,644.5698,644.9186,NA,NA,NA,NA,NA,NA,NA,TRUE,2,0.261,641.558,644.5688,NA,NA,NA,NA,NA,25,35,0,7,7,34,1,2,8,"binary"
"DD44CA1228D0434495F8E152F1F7793D",1,"01990aa8-a66a-7688-8742-e5691d48a604","01990a83-7673-7c0c-a792-bbd8fbbaf673","2025-09-02_09h41.28.224",NA,NA,647.9176,647.9187,647.9188,648.267,NA,NA,NA,NA,NA,NA,NA,TRUE,2,0.3017,644.9243,647.9173,NA,NA,NA,NA,NA,60,47,0,8,8,70,1,2,9,"binary"
"DD44CA1228D0434495F8E152F1F7793D",1,"01990aa8-a66a-7688-8742-e5691d48a604","01990a83-7673-7c0c-a792-bbd8fbbaf673","2025-09-02_09h41.28.224",NA,NA,651.2661,651.2666,651.2668,651.62,NA,NA,NA,NA,NA,NA,NA,TRUE,2,0.2676,648.2717,651.2657,NA,NA,NA,NA,NA,21,38,0,9,9,29,1,2,10,"binary"
"DD44CA1228D0434495F8E152F1F7793D",1,"01990aa8-a66a-7688-8742-e5691d48a604","01990a83-7673-7c0c-a792-bbd8fbbaf673","2025-09-02_09h41.28.224",NA,NA,654.6149,654.6152,654.6155,654.9639,NA,NA,NA,NA,NA,NA,NA,TRUE,2,0.2393,651.6247,654.6143,NA,NA,NA,NA,NA,200,54,0,10,10,107,1,2,11,"binary"
"DD44CA1228D0434495F8E152F1F7793D",1,"01990aa8-a66a-7688-8742-e5691d48a604","01990a83-7673-7c0c-a792-bbd8fbbaf673","2025-09-02_09h41.28.224",NA,NA,657.9621,657.9621,657.9621,658.3126,NA,NA,NA,NA,NA,NA,NA,TRUE,2,0.1587,654.9688,657.962,NA,NA,NA,NA,NA,40,35,0,11,11,50,1,2,12,"binary"
"DD44CA1228D0434495F8E152F1F7793D",1,"01990aa8-a66a-7688-8742-e5691d48a604","01990a83-7673-7c0c-a792-bbd8fbbaf673","2025-09-02_09h41.28.224",NA,NA,661.3117,661.3119,661.3121,661.6611,NA,NA,NA,NA,NA,NA,NA,TRUE,2,0.1762,658.3188,661.3113,NA,NA,NA,NA,NA,180,46,0,12,12,100,1,2,13,"binary"
"DD44CA1228D0434495F8E152F1F7793D",1,"01990aa8-a66a-7688-8742-e5691d48a604","01990a83-7673-7c0c-a792-bbd8fbbaf673","2025-09-02_09h41.28.224",NA,NA,664.6612,664.6613,664.6615,665.0126,NA,NA,NA,NA,NA,NA,NA,TRUE,2,0.2998,661.6661,664.6601,NA,NA,NA,NA,NA,180,31,0,13,13,97,1,2,14,"binary"
"DD44CA1228D0434495F8E152F1F7793D",1,"01990aa8-a66a-7688-8742-e5691d48a604","01990a83-7673-7c0c-a792-bbd8fbbaf673","2025-09-02_09h41.28.224",NA,NA,668.0132,668.0134,668.0134,668.3581,NA,NA,NA,NA,NA,NA,NA,TRUE,2,0.2592,665.0177,668.0129,NA,NA,NA,NA,NA,50,30,0,14,14,61,1,2,15,"binary"
"DD44CA1228D0434495F8E152F1F7793D",1,"01990aa8-a66a-7688-8742-e5691d48a604","01990a83-7673-7c0c-a792-bbd8fbbaf673","2025-09-02_09h41.28.224",NA,NA,671.3573,671.3576,671.3577,671.7095,NA,NA,NA,NA,NA,NA,NA,TRUE,2,0.2439,668.3633,671.3568,NA,NA,NA,NA,NA,100,38,0,15,15,86,1,2,16,"binary"
"DD44CA1228D0434495F8E152F1F7793D",1,"01990aa8-a66a-7688-8742-e5691d48a604","01990a83-7673-7c0c-a792-bbd8fbbaf673","2025-09-02_09h41.28.224",NA,NA,674.7057,674.7062,674.7063,675.0552,NA,NA,NA,NA,NA,NA,NA,TRUE,2,0.1624,671.7143,674.7054,NA,NA,NA,NA,NA,60,29,0,16,16,66,1,2,17,"binary"
"DD44CA1228D0434495F8E152F1F7793D",1,"01990aa8-a66a-7688-8742-e5691d48a604","01990a83-7673-7c0c-a792-bbd8fbbaf673","2025-09-02_09h41.28.224",NA,NA,678.0542,678.0545,678.0547,678.4035,NA,NA,NA,NA,NA,NA,NA,TRUE,2,0.1566,675.0604,678.0538,NA,NA,NA,NA,NA,200,26,0,17,17,102,1,2,18,"binary"
"DD44CA1228D0434495F8E152F1F7793D",1,"01990aa8-a66a-7688-8742-e5691d48a604","01990a83-7673-7c0c-a792-bbd8fbbaf673","2025-09-02_09h41.28.224",NA,NA,681.4196,681.4198,681.4199,681.7688,NA,NA,NA,NA,NA,NA,NA,TRUE,2,0.3113,678.4088,681.4191,NA,NA,NA,NA,NA,45,29,0,18,18,55,1,2,19,"binary"
"DD44CA1228D0434495F8E152F1F7793D",1,"01990aa8-a66a-7688-8742-e5691d48a604","01990a83-7673-7c0c-a792-bbd8fbbaf673","2025-09-02_09h41.28.224",NA,NA,684.7709,684.7712,684.7714,685.1174,NA,NA,NA,NA,NA,NA,NA,TRUE,2,0.2848,681.7737,684.7706,NA,NA,NA,NA,NA,90,33,0,19,19,74,1,2,20,"binary"
"DD44CA1228D0434495F8E152F1F7793D",1,"01990aa8-a66a-7688-8742-e5691d48a604","01990a83-7673-7c0c-a792-bbd8fbbaf673","2025-09-02_09h41.28.224",NA,NA,688.1164,688.1168,688.1169,688.4687,NA,NA,NA,NA,NA,NA,NA,TRUE,2,0.2771,685.1229,688.1159,NA,NA,NA,NA,NA,21,29,0,20,20,26,1,2,21,"binary"
"DD44CA1228D0434495F8E152F1F7793D",1,"01990aa8-a66a-7688-8742-e5691d48a604","01990a83-7673-7c0c-a792-bbd8fbbaf673","2025-09-02_09h41.28.224",NA,NA,691.4639,691.4641,691.4642,691.8135,NA,NA,NA,NA,NA,NA,NA,TRUE,2,0.2671,688.4735,691.4638,NA,NA,NA,NA,NA,14,26,0,21,21,19,1,2,22,"binary"
"DD44CA1228D0434495F8E152F1F7793D",1,"01990aa8-a66a-7688-8742-e5691d48a604","01990a83-7673-7c0c-a792-bbd8fbbaf673","2025-09-02_09h41.28.224",NA,NA,694.8136,694.8139,694.8142,695.1631,NA,NA,NA,NA,NA,NA,NA,TRUE,2,0.2984,691.8158,694.8132,NA,NA,NA,NA,NA,28,26,0,22,22,36,1,2,23,"binary"
"DD44CA1228D0434495F8E152F1F7793D",1,"01990aa8-a66a-7688-8742-e5691d48a604","01990a83-7673-7c0c-a792-bbd8fbbaf673","2025-09-02_09h41.28.224",NA,NA,698.162,698.1623,698.1628,698.5114,NA,NA,NA,NA,NA,NA,NA,TRUE,2,0.1914,695.1684,698.1615,NA,NA,NA,NA,NA,40,47,0,23,23,52,1,2,24,"binary"
"DD44CA1228D0434495F8E152F1F7793D",1,"01990aa8-a66a-7688-8742-e5691d48a604","01990a83-7673-7c0c-a792-bbd8fbbaf673","2025-09-02_09h41.28.224",NA,NA,701.5095,701.5097,701.5098,701.8599,NA,NA,NA,NA,NA,NA,NA,TRUE,2,0.2232,698.5166,701.5094,NA,NA,NA,NA,NA,10,30,0,24,24,10,1,2,25,"binary"
"DD44CA1228D0434495F8E152F1F7793D",1,"01990aa8-a66a-7688-8742-e5691d48a604","01990a83-7673-7c0c-a792-bbd8fbbaf673","2025-09-02_09h41.28.224",NA,NA,704.8589,704.859,704.8594,705.2083,NA,NA,NA,NA,NA,NA,NA,TRUE,2,0.1049,701.8651,704.8586,NA,NA,NA,NA,NA,100,54,0,25,25,89,1,2,26,"binary"
"DD44CA1228D0434495F8E152F1F7793D",1,"01990aa8-a66a-7688-8742-e5691d48a604","01990a83-7673-7c0c-a792-bbd8fbbaf673","2025-09-02_09h41.28.224",NA,NA,708.2119,708.212,708.2121,708.5567,NA,NA,NA,NA,NA,NA,NA,TRUE,2,0.1301,705.2138,708.2115,NA,NA,NA,NA,NA,50,40,0,26,26,63,1,2,27,"binary"
"DD44CA1228D0434495F8E152F1F7793D",1,"01990aa8-a66a-7688-8742-e5691d48a604","01990a83-7673-7c0c-a792-bbd8fbbaf673","2025-09-02_09h41.28.224",NA,NA,711.556,711.5563,711.5563,711.9052,NA,NA,NA,NA,NA,NA,NA,TRUE,2,0.2545,708.5623,711.5555,NA,NA,NA,NA,NA,95,35,0,27,27,80,1,2,28,"binary"
"DD44CA1228D0434495F8E152F1F7793D",1,"01990aa8-a66a-7688-8742-e5691d48a604","01990a83-7673-7c0c-a792-bbd8fbbaf673","2025-09-02_09h41.28.224",NA,NA,714.9052,714.9053,714.9054,715.2568,NA,NA,NA,NA,NA,NA,NA,TRUE,2,0.2048,711.9106,714.9042,NA,NA,NA,NA,NA,200,47,0,28,28,106,1,2,29,"binary"
"DD44CA1228D0434495F8E152F1F7793D",1,"01990aa8-a66a-7688-8742-e5691d48a604","01990a83-7673-7c0c-a792-bbd8fbbaf673","2025-09-02_09h41.28.224",NA,NA,718.2541,718.2545,718.2546,718.6053,NA,NA,NA,NA,NA,NA,NA,TRUE,2,0.1859,715.2581,718.253,NA,NA,NA,NA,NA,28,28,0,29,29,37,1,2,30,"binary"
"DD44CA1228D0434495F8E152F1F7793D",1,"01990aa8-a66a-7688-8742-e5691d48a604","01990a83-7673-7c0c-a792-bbd8fbbaf673","2025-09-02_09h41.28.224",NA,NA,721.6182,721.6193,721.6194,721.9676,NA,NA,NA,NA,NA,NA,NA,TRUE,2,0.2014,718.6081,721.6178,NA,NA,NA,NA,NA,95,40,0,30,30,81,1,2,31,"binary"
"DD44CA1228D0434495F8E152F1F7793D",1,"01990aa8-a66a-7688-8742-e5691d48a604","01990a83-7673-7c0c-a792-bbd8fbbaf673","2025-09-02_09h41.28.224",NA,NA,724.9666,724.9671,724.9672,725.3161,NA,NA,NA,NA,NA,NA,NA,TRUE,2,0.2676,721.9726,724.9663,NA,NA,NA,NA,NA,200,28,0,31,31,103,1,2,32,"binary"
"DD44CA1228D0434495F8E152F1F7793D",1,"01990aa8-a66a-7688-8742-e5691d48a604","01990a83-7673-7c0c-a792-bbd8fbbaf673","2025-09-02_09h41.28.224",NA,NA,728.3149,728.3155,728.3155,728.6645,NA,NA,NA,NA,NA,NA,NA,TRUE,2,0.192,725.3218,728.3146,NA,NA,NA,NA,NA,25,27,0,32,32,30,1,2,33,"binary"
"DD44CA1228D0434495F8E152F1F7793D",1,"01990aa8-a66a-7688-8742-e5691d48a604","01990a83-7673-7c0c-a792-bbd8fbbaf673","2025-09-02_09h41.28.224",NA,NA,731.6636,731.6637,731.664,732.0132,NA,NA,NA,NA,NA,NA,NA,TRUE,2,0.3045,728.6709,731.6632,NA,NA,NA,NA,NA,180,39,0,33,33,99,1,2,34,"binary"
"DD44CA1228D0434495F8E152F1F7793D",1,"01990aa8-a66a-7688-8742-e5691d48a604","01990a83-7673-7c0c-a792-bbd8fbbaf673","2025-09-02_09h41.28.224",NA,NA,735.011,735.0111,735.0111,735.3611,NA,NA,NA,NA,NA,NA,NA,TRUE,2,0.2127,732.0185,735.0109,NA,NA,NA,NA,NA,90,46,0,34,34,76,1,2,35,"binary"
"DD44CA1228D0434495F8E152F1F7793D",1,"01990aa8-a66a-7688-8742-e5691d48a604","01990a83-7673-7c0c-a792-bbd8fbbaf673","2025-09-02_09h41.28.224",NA,NA,738.3607,738.361,738.3611,738.7101,NA,NA,NA,NA,NA,NA,NA,TRUE,2,0.0219,735.3632,738.3603,NA,NA,NA,NA,NA,21,32,0,35,35,28,1,2,36,"binary"
"DD44CA1228D0434495F8E152F1F7793D",1,"01990aa8-a66a-7688-8742-e5691d48a604","01990a83-7673-7c0c-a792-bbd8fbbaf673","2025-09-02_09h41.28.224",NA,NA,741.7124,741.7125,741.7125,742.0586,NA,NA,NA,NA,NA,NA,NA,TRUE,2,0.4211,738.7154,741.7121,NA,NA,NA,NA,NA,40,54,0,36,36,53,1,2,37,"binary"
"DD44CA1228D0434495F8E152F1F7793D",1,"01990aa8-a66a-7688-8742-e5691d48a604","01990a83-7673-7c0c-a792-bbd8fbbaf673","2025-09-02_09h41.28.224",NA,NA,745.0579,745.0582,745.0584,745.4073,NA,NA,NA,NA,NA,NA,NA,TRUE,2,0.476,742.0644,745.0575,NA,NA,NA,NA,NA,45,35,0,37,37,57,1,2,38,"binary"
"DD44CA1228D0434495F8E152F1F7793D",1,"01990aa8-a66a-7688-8742-e5691d48a604","01990a83-7673-7c0c-a792-bbd8fbbaf673","2025-09-02_09h41.28.224",NA,NA,748.4063,748.4064,748.4067,748.7551,NA,NA,NA,NA,NA,NA,NA,TRUE,2,0.4317,745.4127,748.4058,NA,NA,NA,NA,NA,30,38,0,38,38,47,1,2,39,"binary"
"DD44CA1228D0434495F8E152F1F7793D",1,"01990aa8-a66a-7688-8742-e5691d48a604","01990a83-7673-7c0c-a792-bbd8fbbaf673","2025-09-02_09h41.28.224",NA,NA,751.7536,751.7536,751.7536,752.1038,NA,NA,NA,NA,NA,NA,NA,TRUE,2,0.3849,748.7594,751.7535,NA,NA,NA,NA,NA,95,31,0,39,39,78,1,2,40,"binary"
"DD44CA1228D0434495F8E152F1F7793D",1,"01990aa8-a66a-7688-8742-e5691d48a604","01990a83-7673-7c0c-a792-bbd8fbbaf673","2025-09-02_09h41.28.224",NA,NA,755.1033,755.1043,755.1044,755.4527,NA,NA,NA,NA,NA,NA,NA,TRUE,2,0.2728,752.108,755.1029,NA,NA,NA,NA,NA,150,47,0,40,40,94,1,2,41,"binary"
"DD44CA1228D0434495F8E152F1F7793D",1,"01990aa8-a66a-7688-8742-e5691d48a604","01990a83-7673-7c0c-a792-bbd8fbbaf673","2025-09-02_09h41.28.224",NA,NA,758.4686,758.4689,758.469,758.818,NA,NA,NA,NA,NA,NA,NA,TRUE,2,0.4329,755.4581,758.4682,NA,NA,NA,NA,NA,25,29,0,41,41,31,1,2,42,"binary"
"DD44CA1228D0434495F8E152F1F7793D",1,"01990aa8-a66a-7688-8742-e5691d48a604","01990a83-7673-7c0c-a792-bbd8fbbaf673","2025-09-02_09h41.28.224",NA,NA,761.817,761.8175,761.8176,762.1665,NA,NA,NA,NA,NA,NA,NA,TRUE,2,0.3992,758.8235,761.8166,NA,NA,NA,NA,NA,90,26,0,42,42,72,1,2,43,"binary"
"DD44CA1228D0434495F8E152F1F7793D",1,"01990aa8-a66a-7688-8742-e5691d48a604","01990a83-7673-7c0c-a792-bbd8fbbaf673","2025-09-02_09h41.28.224",NA,NA,765.1654,765.1664,765.1665,765.5146,NA,NA,NA,NA,NA,NA,NA,TRUE,2,0.3869,762.1713,765.165,NA,NA,NA,NA,NA,12,28,0,43,43,14,1,2,44,"binary"
"DD44CA1228D0434495F8E152F1F7793D",1,"01990aa8-a66a-7688-8742-e5691d48a604","01990a83-7673-7c0c-a792-bbd8fbbaf673","2025-09-02_09h41.28.224",NA,NA,768.5179,768.5182,768.5185,768.8635,NA,NA,NA,NA,NA,NA,NA,TRUE,2,0.5182,765.5196,768.5175,NA,NA,NA,NA,NA,12,25,0,44,44,12,1,2,45,"binary"
"DD44CA1228D0434495F8E152F1F7793D",1,"01990aa8-a66a-7688-8742-e5691d48a604","01990a83-7673-7c0c-a792-bbd8fbbaf673","2025-09-02_09h41.28.224",NA,NA,771.8624,771.8626,771.863,772.2118,NA,NA,NA,NA,NA,NA,NA,TRUE,2,0.5001,768.869,771.8621,NA,NA,NA,NA,NA,50,35,0,45,45,62,1,2,46,"binary"
"DD44CA1228D0434495F8E152F1F7793D",1,"01990aa8-a66a-7688-8742-e5691d48a604","01990a83-7673-7c0c-a792-bbd8fbbaf673","2025-09-02_09h41.28.224",NA,NA,775.2111,775.2114,775.2116,775.5604,NA,NA,NA,NA,NA,NA,NA,TRUE,2,0.4203,772.2171,775.2107,NA,NA,NA,NA,NA,7,35,0,46,46,5,1,2,47,"binary"
"DD44CA1228D0434495F8E152F1F7793D",1,"01990aa8-a66a-7688-8742-e5691d48a604","01990a83-7673-7c0c-a792-bbd8fbbaf673","2025-09-02_09h41.28.224",NA,NA,778.5596,778.5599,778.5599,778.9082,NA,NA,NA,NA,NA,NA,NA,TRUE,2,0.363,775.5666,778.5592,NA,NA,NA,NA,NA,7,30,0,47,47,3,1,2,48,"binary"
"DD44CA1228D0434495F8E152F1F7793D",1,"01990aa8-a66a-7688-8742-e5691d48a604","01990a83-7673-7c0c-a792-bbd8fbbaf673","2025-09-02_09h41.28.224",NA,NA,781.9088,781.9089,781.909,782.2574,NA,NA,NA,NA,NA,NA,NA,TRUE,2,0.4699,778.9101,781.9077,NA,NA,NA,NA,NA,150,33,0,48,48,91,1,2,49,"binary"
"DD44CA1228D0434495F8E152F1F7793D",1,"01990aa8-a66a-7688-8742-e5691d48a604","01990a83-7673-7c0c-a792-bbd8fbbaf673","2025-09-02_09h41.28.224",NA,NA,785.2565,785.2568,785.2569,785.6058,NA,NA,NA,NA,NA,NA,NA,TRUE,2,0.5147,782.2627,785.256,NA,NA,NA,NA,NA,12,33,0,49,49,16,1,2,50,"binary"
"DD44CA1228D0434495F8E152F1F7793D",1,"01990aa8-a66a-7688-8742-e5691d48a604","01990a83-7673-7c0c-a792-bbd8fbbaf673","2025-09-02_09h41.28.224",NA,NA,788.6051,788.6053,788.6055,788.9543,NA,NA,NA,NA,NA,NA,NA,TRUE,2,0.2823,785.6111,788.6047,NA,NA,NA,NA,NA,14,28,0,50,50,20,1,2,51,"binary"
"DD44CA1228D0434495F8E152F1F7793D",1,"01990aa8-a66a-7688-8742-e5691d48a604","01990a83-7673-7c0c-a792-bbd8fbbaf673","2025-09-02_09h41.28.224",NA,NA,791.9536,791.9538,791.9538,792.303,NA,NA,NA,NA,NA,NA,NA,TRUE,2,0.6131,788.9595,791.9532,NA,NA,NA,NA,NA,200,35,0,51,51,104,1,2,52,"binary"
"DD44CA1228D0434495F8E152F1F7793D",1,"01990aa8-a66a-7688-8742-e5691d48a604","01990a83-7673-7c0c-a792-bbd8fbbaf673","2025-09-02_09h41.28.224",NA,NA,795.3187,795.3192,795.3192,795.6675,NA,NA,NA,NA,NA,NA,NA,TRUE,2,0.3444,792.3082,795.3183,NA,NA,NA,NA,NA,30,27,0,52,52,43,1,2,53,"binary"
"DD44CA1228D0434495F8E152F1F7793D",1,"01990aa8-a66a-7688-8742-e5691d48a604","01990a83-7673-7c0c-a792-bbd8fbbaf673","2025-09-02_09h41.28.224",NA,NA,798.6671,798.6673,798.6676,799.0157,NA,NA,NA,NA,NA,NA,NA,TRUE,2,0.7547,795.6693,798.6667,NA,NA,NA,NA,NA,7,28,0,53,53,2,1,2,54,"binary"
"DD44CA1228D0434495F8E152F1F7793D",1,"01990aa8-a66a-7688-8742-e5691d48a604","01990a83-7673-7c0c-a792-bbd8fbbaf673","2025-09-02_09h41.28.224",NA,NA,802.0157,802.016,802.0161,802.365,NA,NA,NA,NA,NA,NA,NA,TRUE,2,1.709,799.0177,802.0153,NA,NA,NA,NA,NA,40,27,0,54,54,48,1,2,55,"binary"
"DD44CA1228D0434495F8E152F1F7793D",1,"01990aa8-a66a-7688-8742-e5691d48a604","01990a83-7673-7c0c-a792-bbd8fbbaf673","2025-09-02_09h41.28.224",NA,NA,805.3652,805.3654,805.3655,805.7139,NA,NA,NA,NA,NA,NA,NA,TRUE,2,0.4381,802.3699,805.364,NA,NA,NA,NA,NA,45,46,0,55,55,59,1,2,56,"binary"
"DD44CA1228D0434495F8E152F1F7793D",1,"01990aa8-a66a-7688-8742-e5691d48a604","01990a83-7673-7c0c-a792-bbd8fbbaf673","2025-09-02_09h41.28.224",NA,NA,808.7128,808.7133,808.7133,809.0619,NA,NA,NA,NA,NA,NA,NA,TRUE,2,0.5909,805.7195,808.7125,NA,NA,NA,NA,NA,45,40,0,56,56,58,1,2,57,"binary"
"DD44CA1228D0434495F8E152F1F7793D",1,"01990aa8-a66a-7688-8742-e5691d48a604","01990a83-7673-7c0c-a792-bbd8fbbaf673","2025-09-02_09h41.28.224",NA,NA,812.0635,812.0636,812.0636,812.4114,NA,NA,NA,NA,NA,NA,NA,TRUE,2,0.6018,809.0677,812.0633,NA,NA,NA,NA,NA,10,25,0,57,57,6,1,2,58,"binary"
"DD44CA1228D0434495F8E152F1F7793D",1,"01990aa8-a66a-7688-8742-e5691d48a604","01990a83-7673-7c0c-a792-bbd8fbbaf673","2025-09-02_09h41.28.224",NA,NA,815.4104,815.4105,815.4107,815.7592,NA,NA,NA,NA,NA,NA,NA,TRUE,2,0.6584,812.4193,815.4099,NA,NA,NA,NA,NA,60,35,0,58,58,68,1,2,59,"binary"
"DD44CA1228D0434495F8E152F1F7793D",1,"01990aa8-a66a-7688-8742-e5691d48a604","01990a83-7673-7c0c-a792-bbd8fbbaf673","2025-09-02_09h41.28.224",NA,NA,818.7584,818.7587,818.7587,819.1076,NA,NA,NA,NA,NA,NA,NA,TRUE,2,0.3485,815.7641,818.7579,NA,NA,NA,NA,NA,21,27,0,59,59,25,1,2,60,"binary"
"DD44CA1228D0434495F8E152F1F7793D",1,"01990aa8-a66a-7688-8742-e5691d48a604","01990a83-7673-7c0c-a792-bbd8fbbaf673","2025-09-02_09h41.28.224",NA,NA,822.1068,822.107,822.1072,822.4561,NA,NA,NA,NA,NA,NA,NA,TRUE,2,0.3996,819.1134,822.1064,NA,NA,NA,NA,NA,90,40,0,60,60,75,1,2,61,"binary"
"DD44CA1228D0434495F8E152F1F7793D",1,"01990aa8-a66a-7688-8742-e5691d48a604","01990a83-7673-7c0c-a792-bbd8fbbaf673","2025-09-02_09h41.28.224",NA,NA,825.4551,825.4553,825.4562,825.8046,NA,NA,NA,NA,NA,NA,NA,TRUE,2,0.9891,822.4607,825.4547,NA,NA,NA,NA,NA,10,27,0,61,61,8,1,2,62,"binary"
"DD44CA1228D0434495F8E152F1F7793D",1,"01990aa8-a66a-7688-8742-e5691d48a604","01990a83-7673-7c0c-a792-bbd8fbbaf673","2025-09-02_09h41.28.224",NA,NA,828.8039,828.804,828.8042,829.1534,NA,NA,NA,NA,NA,NA,NA,TRUE,2,0.7344,825.8095,828.8035,NA,NA,NA,NA,NA,45,26,0,62,62,54,1,2,63,"binary"
"DD44CA1228D0434495F8E152F1F7793D",1,"01990aa8-a66a-7688-8742-e5691d48a604","01990a83-7673-7c0c-a792-bbd8fbbaf673","2025-09-02_09h41.28.224",NA,NA,832.1689,832.1694,832.1695,832.5184,NA,NA,NA,NA,NA,NA,NA,TRUE,2,0.3214,829.1588,832.1686,NA,NA,NA,NA,NA,180,54,0,63,63,101,1,2,64,"binary"
"DD44CA1228D0434495F8E152F1F7793D",1,"01990aa8-a66a-7688-8742-e5691d48a604","01990a83-7673-7c0c-a792-bbd8fbbaf673","2025-09-02_09h41.28.224",NA,NA,835.5174,835.5178,835.518,835.8669,NA,NA,NA,NA,NA,NA,NA,TRUE,2,0.4043,832.5232,835.5171,NA,NA,NA,NA,NA,28,39,0,64,64,40,1,2,65,"binary"
"DD44CA1228D0434495F8E152F1F7793D",1,"01990aa8-a66a-7688-8742-e5691d48a604","01990a83-7673-7c0c-a792-bbd8fbbaf673","2025-09-02_09h41.28.224",NA,NA,838.8661,838.8666,838.8666,839.2153,NA,NA,NA,NA,NA,NA,NA,TRUE,2,0.5071,835.8722,838.8657,NA,NA,NA,NA,NA,12,31,0,65,65,15,1,2,66,"binary"
"DD44CA1228D0434495F8E152F1F7793D",1,"01990aa8-a66a-7688-8742-e5691d48a604","01990a83-7673-7c0c-a792-bbd8fbbaf673","2025-09-02_09h41.28.224",NA,NA,842.2146,842.2153,842.2154,842.5643,NA,NA,NA,NA,NA,NA,NA,TRUE,2,0.4515,839.22,842.2141,NA,NA,NA,NA,NA,50,54,0,66,66,65,1,2,67,"binary"
"DD44CA1228D0434495F8E152F1F7793D",1,"01990aa8-a66a-7688-8742-e5691d48a604","01990a83-7673-7c0c-a792-bbd8fbbaf673","2025-09-02_09h41.28.224",NA,NA,845.5634,845.5638,845.5638,845.9123,NA,NA,NA,NA,NA,NA,NA,TRUE,2,0.4707,842.5698,845.563,NA,NA,NA,NA,NA,95,33,0,67,67,79,1,2,68,"binary"
"DD44CA1228D0434495F8E152F1F7793D",1,"01990aa8-a66a-7688-8742-e5691d48a604","01990a83-7673-7c0c-a792-bbd8fbbaf673","2025-09-02_09h41.28.224",NA,NA,848.9115,848.9119,848.9119,849.2609,NA,NA,NA,NA,NA,NA,NA,TRUE,2,0.4267,845.9176,848.9112,NA,NA,NA,NA,NA,150,31,0,68,68,90,1,2,69,"binary"
"DD44CA1228D0434495F8E152F1F7793D",1,"01990aa8-a66a-7688-8742-e5691d48a604","01990a83-7673-7c0c-a792-bbd8fbbaf673","2025-09-02_09h41.28.224",NA,NA,852.2597,852.2599,852.2606,852.6094,NA,NA,NA,NA,NA,NA,NA,TRUE,2,0.5714,849.2662,852.2591,NA,NA,NA,NA,NA,60,54,0,69,69,71,1,2,70,"binary"
"DD44CA1228D0434495F8E152F1F7793D",1,"01990aa8-a66a-7688-8742-e5691d48a604","01990a83-7673-7c0c-a792-bbd8fbbaf673","2025-09-02_09h41.28.224",NA,NA,855.6089,855.609,855.6093,855.9609,NA,NA,NA,NA,NA,NA,NA,TRUE,2,0.6347,852.6148,855.6084,NA,NA,NA,NA,NA,7,32,0,70,70,4,1,2,71,"binary"
"DD44CA1228D0434495F8E152F1F7793D",1,"01990aa8-a66a-7688-8742-e5691d48a604","01990a83-7673-7c0c-a792-bbd8fbbaf673","2025-09-02_09h41.28.224",NA,NA,858.9568,858.957,858.957,859.3062,NA,NA,NA,NA,NA,NA,NA,TRUE,2,0.3893,855.9661,858.9562,NA,NA,NA,NA,NA,45,31,0,71,71,56,1,2,72,"binary"
"DD44CA1228D0434495F8E152F1F7793D",1,"01990aa8-a66a-7688-8742-e5691d48a604","01990a83-7673-7c0c-a792-bbd8fbbaf673","2025-09-02_09h41.28.224",NA,NA,862.3052,862.3054,862.3055,862.6549,NA,NA,NA,NA,NA,NA,NA,TRUE,2,0.4643,859.3112,862.3049,NA,NA,NA,NA,NA,180,27,0,72,72,96,1,2,73,"binary"
"DD44CA1228D0434495F8E152F1F7793D",1,"01990aa8-a66a-7688-8742-e5691d48a604","01990a83-7673-7c0c-a792-bbd8fbbaf673","2025-09-02_09h41.28.224",NA,NA,865.6543,865.6546,865.6548,866.0036,NA,NA,NA,NA,NA,NA,NA,TRUE,2,0.4956,862.6599,865.6539,NA,NA,NA,NA,NA,30,30,0,73,73,45,1,2,74,"binary"
"DD44CA1228D0434495F8E152F1F7793D",1,"01990aa8-a66a-7688-8742-e5691d48a604","01990a83-7673-7c0c-a792-bbd8fbbaf673","2025-09-02_09h41.28.224",NA,NA,869.0057,869.0058,869.0058,869.3687,NA,NA,NA,NA,NA,NA,NA,TRUE,2,0.2823,866.0086,869.0054,NA,NA,NA,NA,NA,25,33,0,74,74,33,1,2,75,"binary"
"DD44CA1228D0434495F8E152F1F7793D",1,"01990aa8-a66a-7688-8742-e5691d48a604","01990a83-7673-7c0c-a792-bbd8fbbaf673","2025-09-02_09h41.28.224",NA,NA,872.356,872.3562,872.3562,872.7174,NA,NA,NA,NA,NA,NA,NA,TRUE,2,0.5062,869.3742,872.354,NA,NA,NA,NA,NA,30,26,0,75,75,42,1,2,76,"binary"
"DD44CA1228D0434495F8E152F1F7793D",1,"01990aa8-a66a-7688-8742-e5691d48a604","01990a83-7673-7c0c-a792-bbd8fbbaf673","2025-09-02_09h41.28.224",NA,NA,875.7163,875.7171,875.7172,876.0656,NA,NA,NA,NA,NA,NA,NA,TRUE,2,0.2751,872.7249,875.7158,NA,NA,NA,NA,NA,10,26,0,76,76,7,1,2,77,"binary"
"DD44CA1228D0434495F8E152F1F7793D",1,"01990aa8-a66a-7688-8742-e5691d48a604","01990a83-7673-7c0c-a792-bbd8fbbaf673","2025-09-02_09h41.28.224",NA,NA,879.065,879.0655,879.0659,879.4144,NA,NA,NA,NA,NA,NA,NA,TRUE,2,0.7443,876.0713,879.0647,NA,NA,NA,NA,NA,28,32,0,77,77,38,1,2,78,"binary"
"DD44CA1228D0434495F8E152F1F7793D",1,"01990aa8-a66a-7688-8742-e5691d48a604","01990a83-7673-7c0c-a792-bbd8fbbaf673","2025-09-02_09h41.28.224",NA,NA,882.4131,882.4132,882.4135,882.7628,NA,NA,NA,NA,NA,NA,NA,TRUE,2,0.4353,879.4198,882.4127,NA,NA,NA,NA,NA,14,35,0,78,78,22,1,2,79,"binary"
"DD44CA1228D0434495F8E152F1F7793D",1,"01990aa8-a66a-7688-8742-e5691d48a604","01990a83-7673-7c0c-a792-bbd8fbbaf673","2025-09-02_09h41.28.224",NA,NA,885.7619,885.7621,885.7622,886.1113,NA,NA,NA,NA,NA,NA,NA,TRUE,2,0.2617,882.7683,885.7614,NA,NA,NA,NA,NA,100,26,0,79,79,84,1,2,80,"binary"
"DD44CA1228D0434495F8E152F1F7793D",1,"01990aa8-a66a-7688-8742-e5691d48a604","01990a83-7673-7c0c-a792-bbd8fbbaf673","2025-09-02_09h41.28.224",NA,NA,889.1105,889.1107,889.1108,889.4598,NA,NA,NA,NA,NA,NA,NA,TRUE,2,0.2766,886.1166,889.1101,NA,NA,NA,NA,NA,200,39,0,80,80,105,1,2,81,"binary"
"DD44CA1228D0434495F8E152F1F7793D",1,"01990aa8-a66a-7688-8742-e5691d48a604","01990a83-7673-7c0c-a792-bbd8fbbaf673","2025-09-02_09h41.28.224",NA,NA,892.4614,892.4614,892.4614,892.8082,NA,NA,NA,NA,NA,NA,NA,TRUE,2,0.3472,889.4648,892.4612,NA,NA,NA,NA,NA,60,40,0,81,81,69,1,2,82,"binary"
"DD44CA1228D0434495F8E152F1F7793D",1,"01990aa8-a66a-7688-8742-e5691d48a604","01990a83-7673-7c0c-a792-bbd8fbbaf673","2025-09-02_09h41.28.224",NA,NA,895.8071,895.8073,895.8074,896.1609,NA,NA,NA,NA,NA,NA,NA,TRUE,2,0.4469,892.8129,895.8068,NA,NA,NA,NA,NA,14,39,0,82,82,23,1,2,83,"binary"
"DD44CA1228D0434495F8E152F1F7793D",1,"01990aa8-a66a-7688-8742-e5691d48a604","01990a83-7673-7c0c-a792-bbd8fbbaf673","2025-09-02_09h41.28.224",NA,NA,899.1601,899.1603,899.1605,899.5051,NA,NA,NA,NA,NA,NA,NA,TRUE,2,0.3729,896.1654,899.1596,NA,NA,NA,NA,NA,14,32,0,83,83,21,1,2,84,"binary"
"DD44CA1228D0434495F8E152F1F7793D",1,"01990aa8-a66a-7688-8742-e5691d48a604","01990a83-7673-7c0c-a792-bbd8fbbaf673","2025-09-02_09h41.28.224",NA,NA,902.5046,902.5049,902.505,902.8541,NA,NA,NA,NA,NA,NA,NA,TRUE,2,0.3055,899.5113,902.5042,NA,NA,NA,NA,NA,28,46,0,84,84,41,1,2,85,"binary"
"DD44CA1228D0434495F8E152F1F7793D",1,"01990aa8-a66a-7688-8742-e5691d48a604","01990a83-7673-7c0c-a792-bbd8fbbaf673","2025-09-02_09h41.28.224",NA,NA,905.8697,905.8702,905.8703,906.2188,NA,NA,NA,NA,NA,NA,NA,TRUE,2,0.2148,902.8588,905.8693,NA,NA,NA,NA,NA,100,46,0,85,85,88,1,2,86,"binary"
"DD44CA1228D0434495F8E152F1F7793D",1,"01990aa8-a66a-7688-8742-e5691d48a604","01990a83-7673-7c0c-a792-bbd8fbbaf673","2025-09-02_09h41.28.224",NA,NA,909.218,909.2184,909.2184,909.5675,NA,NA,NA,NA,NA,NA,NA,TRUE,2,0.4439,906.2245,909.2177,NA,NA,NA,NA,NA,50,46,0,86,86,64,1,2,87,"binary"
"DD44CA1228D0434495F8E152F1F7793D",1,"01990aa8-a66a-7688-8742-e5691d48a604","01990a83-7673-7c0c-a792-bbd8fbbaf673","2025-09-02_09h41.28.224",NA,NA,912.5665,912.567,912.5676,912.9158,NA,NA,NA,NA,NA,NA,NA,TRUE,2,0.3257,909.5729,912.5661,NA,NA,NA,NA,NA,90,54,0,87,87,77,1,2,88,"binary"
"DD44CA1228D0434495F8E152F1F7793D",1,"01990aa8-a66a-7688-8742-e5691d48a604","01990a83-7673-7c0c-a792-bbd8fbbaf673","2025-09-02_09h41.28.224",NA,NA,915.9156,915.9162,915.9163,916.2644,NA,NA,NA,NA,NA,NA,NA,TRUE,2,0.5578,912.9205,915.915,NA,NA,NA,NA,NA,28,35,0,88,88,39,1,2,89,"binary"
"DD44CA1228D0434495F8E152F1F7793D",1,"01990aa8-a66a-7688-8742-e5691d48a604","01990a83-7673-7c0c-a792-bbd8fbbaf673","2025-09-02_09h41.28.224",NA,NA,919.2669,919.2672,919.2674,919.613,NA,NA,NA,NA,NA,NA,NA,TRUE,2,0.2115,916.2686,919.2665,NA,NA,NA,NA,NA,30,29,0,89,89,44,1,2,90,"binary"
"DD44CA1228D0434495F8E152F1F7793D",1,"01990aa8-a66a-7688-8742-e5691d48a604","01990a83-7673-7c0c-a792-bbd8fbbaf673","2025-09-02_09h41.28.224",NA,NA,922.6121,922.6124,922.6132,922.9615,NA,NA,NA,NA,NA,NA,NA,TRUE,2,0.5181,919.618,922.6117,NA,NA,NA,NA,NA,12,35,0,90,90,17,1,2,91,"binary"
"DD44CA1228D0434495F8E152F1F7793D",1,"01990aa8-a66a-7688-8742-e5691d48a604","01990a83-7673-7c0c-a792-bbd8fbbaf673","2025-09-02_09h41.28.224",NA,NA,925.9606,925.9607,925.9616,926.31,NA,NA,NA,NA,NA,NA,NA,TRUE,2,0.4515,922.9675,925.9602,NA,NA,NA,NA,NA,40,40,0,91,91,51,1,2,92,"binary"
"DD44CA1228D0434495F8E152F1F7793D",1,"01990aa8-a66a-7688-8742-e5691d48a604","01990a83-7673-7c0c-a792-bbd8fbbaf673","2025-09-02_09h41.28.224",NA,NA,929.3092,929.3093,929.3094,929.6584,NA,NA,NA,NA,NA,NA,NA,TRUE,2,0.2718,926.3154,929.3088,NA,NA,NA,NA,NA,25,31,0,92,92,32,1,2,93,"binary"
"DD44CA1228D0434495F8E152F1F7793D",1,"01990aa8-a66a-7688-8742-e5691d48a604","01990a83-7673-7c0c-a792-bbd8fbbaf673","2025-09-02_09h41.28.224",NA,NA,932.6592,932.6594,932.6595,933.0069,NA,NA,NA,NA,NA,NA,NA,TRUE,2,0.2478,929.6637,932.6586,NA,NA,NA,NA,NA,40,33,0,93,93,49,1,2,94,"binary"
"DD44CA1228D0434495F8E152F1F7793D",1,"01990aa8-a66a-7688-8742-e5691d48a604","01990a83-7673-7c0c-a792-bbd8fbbaf673","2025-09-02_09h41.28.224",NA,NA,936.0059,936.0062,936.0064,936.3553,NA,NA,NA,NA,NA,NA,NA,TRUE,2,0.1962,933.0117,936.0056,NA,NA,NA,NA,NA,14,25,0,94,94,18,1,2,95,"binary"
"DD44CA1228D0434495F8E152F1F7793D",1,"01990aa8-a66a-7688-8742-e5691d48a604","01990a83-7673-7c0c-a792-bbd8fbbaf673","2025-09-02_09h41.28.224",NA,NA,939.3547,939.3548,939.3549,939.7043,NA,NA,NA,NA,NA,NA,NA,TRUE,2,0.2972,936.3602,939.3544,NA,NA,NA,NA,NA,100,39,0,95,95,87,1,2,96,"binary"
"DD44CA1228D0434495F8E152F1F7793D",1,"01990aa8-a66a-7688-8742-e5691d48a604","01990a83-7673-7c0c-a792-bbd8fbbaf673","2025-09-02_09h41.28.224",NA,NA,942.7033,942.7036,942.7038,943.0525,NA,NA,NA,NA,NA,NA,NA,TRUE,2,0.3038,939.7094,942.7029,NA,NA,NA,NA,NA,12,26,0,96,96,13,1,2,97,"binary"
"DD44CA1228D0434495F8E152F1F7793D",1,"01990aa8-a66a-7688-8742-e5691d48a604","01990a83-7673-7c0c-a792-bbd8fbbaf673","2025-09-02_09h41.28.224",NA,NA,946.069,946.0693,946.0693,946.4177,NA,NA,NA,NA,NA,NA,NA,TRUE,2,0.3431,943.0577,946.0681,NA,NA,NA,NA,NA,21,26,0,97,97,24,1,2,98,"binary"
"DD44CA1228D0434495F8E152F1F7793D",1,"01990aa8-a66a-7688-8742-e5691d48a604","01990a83-7673-7c0c-a792-bbd8fbbaf673","2025-09-02_09h41.28.224",NA,NA,949.417,949.4174,949.4176,949.7662,NA,NA,NA,NA,NA,NA,NA,TRUE,2,0.2093,946.4229,949.4166,NA,NA,NA,NA,NA,30,32,0,98,98,46,1,2,99,"binary"
"DD44CA1228D0434495F8E152F1F7793D",1,"01990aa8-a66a-7688-8742-e5691d48a604","01990a83-7673-7c0c-a792-bbd8fbbaf673","2025-09-02_09h41.28.224",NA,NA,952.7653,952.7657,952.7658,953.1145,NA,NA,NA,NA,NA,NA,NA,TRUE,2,0.3171,949.7711,952.7648,NA,NA,NA,NA,NA,100,31,0,99,99,85,1,2,100,"binary"
"DD44CA1228D0434495F8E152F1F7793D",1,"01990aa8-a66a-7688-8742-e5691d48a604","01990a83-7673-7c0c-a792-bbd8fbbaf673","2025-09-02_09h41.28.224",NA,NA,956.1146,956.1149,956.115,956.4633,NA,NA,NA,NA,NA,NA,NA,TRUE,2,0.2471,953.1202,956.1135,NA,NA,NA,NA,NA,50,27,0,100,100,60,1,2,101,"binary"
"DD44CA1228D0434495F8E152F1F7793D",1,"01990aa8-a66a-7688-8742-e5691d48a604","01990a83-7673-7c0c-a792-bbd8fbbaf673","2025-09-02_09h41.28.224",NA,NA,959.4623,959.4631,959.4633,959.8118,NA,NA,NA,NA,NA,NA,NA,TRUE,2,0.2227,956.4682,959.4618,NA,NA,NA,NA,NA,180,35,0,101,101,98,1,2,102,"binary"
"DD44CA1228D0434495F8E152F1F7793D",1,"01990aa8-a66a-7688-8742-e5691d48a604","01990a83-7673-7c0c-a792-bbd8fbbaf673","2025-09-02_09h41.28.224",NA,NA,962.811,962.8112,962.8112,963.1602,NA,NA,NA,NA,NA,NA,NA,TRUE,2,0.1548,959.817,962.8106,NA,NA,NA,NA,NA,25,46,0,102,102,35,1,2,103,"binary"
"DD44CA1228D0434495F8E152F1F7793D",1,"01990aa8-a66a-7688-8742-e5691d48a604","01990a83-7673-7c0c-a792-bbd8fbbaf673","2025-09-02_09h41.28.224",NA,NA,966.1636,966.1636,966.1637,966.5087,NA,NA,NA,NA,NA,NA,NA,TRUE,2,0.1052,963.1654,966.1633,NA,NA,NA,NA,NA,21,30,0,103,103,27,1,2,104,"binary"
"DD44CA1228D0434495F8E152F1F7793D",1,"01990aa8-a66a-7688-8742-e5691d48a604","01990a83-7673-7c0c-a792-bbd8fbbaf673","2025-09-02_09h41.28.224",NA,NA,969.5077,969.5078,969.508,969.8573,NA,NA,NA,NA,NA,NA,NA,TRUE,2,0.2235,966.5134,969.5074,NA,NA,NA,NA,NA,150,40,0,104,104,93,1,2,105,"binary"
"DD44CA1228D0434495F8E152F1F7793D",1,"01990aa8-a66a-7688-8742-e5691d48a604","01990a83-7673-7c0c-a792-bbd8fbbaf673","2025-09-02_09h41.28.224",NA,NA,972.8608,972.861,972.8611,973.2102,NA,NA,NA,NA,NA,NA,NA,TRUE,2,0.0488,969.8624,972.8605,NA,NA,NA,NA,NA,95,54,0,105,105,83,1,2,106,"binary"
"DD44CA1228D0434495F8E152F1F7793D",1,"01990aa8-a66a-7688-8742-e5691d48a604","01990a83-7673-7c0c-a792-bbd8fbbaf673","2025-09-02_09h41.28.224",NA,NA,976.2059,976.2061,976.2061,976.5545,NA,NA,NA,NA,NA,NA,NA,TRUE,2,0.5197,973.2153,976.2044,NA,NA,NA,NA,NA,7,25,0,106,106,0,1,2,107,"binary"
"DD44CA1228D0434495F8E152F1F7793D",1,"01990aa8-a66a-7688-8742-e5691d48a604","01990a83-7673-7c0c-a792-bbd8fbbaf673","2025-09-02_09h41.28.224",NA,NA,979.5535,979.5536,979.5536,979.9024,NA,NA,NA,NA,NA,NA,NA,TRUE,2,0.3878,976.5591,979.553,NA,NA,NA,NA,NA,90,30,0,107,107,73,1,2,108,"binary"
