"participant","session","assignmentId","projectId","date","practiceTrial.started","practiceTrial.stopped","tooLate.started","tooLate.stopped","blank.started","blank.stopped","trials_pract.thisRepN","trials_pract.thisTrialN","trials_pract.thisN","trials_pract.thisIndex","trials_pract.ran","delay_pract","amount_pract","responseMade","key","rt","trial.started","trial.stopped","trials.thisRepN","trials.thisTrialN","trials.thisN","trials.thisIndex","trials.ran","delay","amount","trials_2.thisRepN","trials_2.thisTrialN","trials_2.thisN","trials_2.thisIndex","trials_2.ran","block","trial","taskType"
"DDF654B04475461CAA83D9BFD3636F52",1,"01990aa1-82c1-78cc-a679-3895539e817f","01990a83-7673-7c0c-a792-bbd8fbbaf673","2025-09-02_08h33.50.181",71.7621,74.7082,74.7098,74.9578,74.958,75.0583,0,0,0,4,1,30,40,FALSE,NA,NA,NA,NA,NA,NA,NA,NA,NA,NA,NA,NA,NA,NA,NA,NA,0,1,"binary"
"DDF654B04475461CAA83D9BFD3636F52",1,"01990aa1-82c1-78cc-a679-3895539e817f","01990a83-7673-7c0c-a792-bbd8fbbaf673","2025-09-02_08h33.50.181",75.0644,78.0442,78.0445,78.0446,78.0448,78.394,0,1,1,0,1,7,30,TRUE,2,1.6501,NA,NA,NA,NA,NA,NA,NA,NA,NA,NA,NA,NA,NA,NA,0,2,"binary"
"DDF654B04475461CAA83D9BFD3636F52",1,"01990aa1-82c1-78cc-a679-3895539e817f","01990a83-7673-7c0c-a792-bbd8fbbaf673","2025-09-02_08h33.50.181",78.3963,81.3973,81.3977,81.3978,81.398,81.7475,0,2,2,2,1,14,45,TRUE,2,1.4068,NA,NA,NA,NA,NA,NA,NA,NA,NA,NA,NA,NA,NA,NA,0,3,"binary"
"DDF654B04475461CAA83D9BFD3636F52",1,"01990aa1-82c1-78cc-a679-3895539e817f","01990a83-7673-7c0c-a792-bbd8fbbaf673","2025-09-02_08h33.50.181",81.7515,84.7503,84.7505,84.7507,84.7507,85.1007,0,3,3,1,1,100,50,TRUE,2,1.2717,NA,NA,NA,NA,NA,NA,NA,NA,NA,NA,NA,NA,NA,NA,0,4,"binary"
"DDF654B04475461CAA83D9BFD3636F52",1,"01990aa1-82c1-78cc-a679-3895539e817f","01990a83-7673-7c0c-a792-bbd8fbbaf673","2025-09-02_08h33.50.181",85.1044,88.1038,88.104,88.1042,88.1043,88.4537,0,4,4,3,1,3,27,TRUE,2,1.6558,NA,NA,NA,NA,NA,NA,NA,NA,NA,NA,NA,NA,NA,NA,0,5,"binary"
"DDF654B04475461CAA83D9BFD3636F52",1,"01990aa1-82c1-78cc-a679-3895539e817f","01990a83-7673-7c0c-a792-bbd8fbbaf673","2025-09-02_08h33.50.181",NA,NA,128.0918,128.0919,128.092,128.4426,NA,NA,NA,NA,NA,NA,NA,TRUE,1,2.2137,125.1362,128.0916,0,0,0,32,1,25,31,NA,NA,NA,NA,NA,1,1,"binary"
"DDF654B04475461CAA83D9BFD3636F52",1,"01990aa1-82c1-78cc-a679-3895539e817f","01990a83-7673-7c0c-a792-bbd8fbbaf673","2025-09-02_08h33.50.181",NA,NA,131.4289,131.429,131.429,131.7788,NA,NA,NA,NA,NA,NA,NA,TRUE,1,1.5662,128.447,131.4285,0,1,1,13,1,12,26,NA,NA,NA,NA,NA,1,2,"binary"
"DDF654B04475461CAA83D9BFD3636F52",1,"01990aa1-82c1-78cc-a679-3895539e817f","01990a83-7673-7c0c-a792-bbd8fbbaf673","2025-09-02_08h33.50.181",NA,NA,134.7822,134.7825,134.7826,135.1319,NA,NA,NA,NA,NA,NA,NA,TRUE,1,1.5692,131.783,134.7819,0,2,2,98,1,180,35,NA,NA,NA,NA,NA,1,3,"binary"
"DDF654B04475461CAA83D9BFD3636F52",1,"01990aa1-82c1-78cc-a679-3895539e817f","01990a83-7673-7c0c-a792-bbd8fbbaf673","2025-09-02_08h33.50.181",NA,NA,138.1343,138.1344,138.1344,138.4849,NA,NA,NA,NA,NA,NA,NA,TRUE,1,2.0161,135.136,138.1342,0,3,3,26,1,21,29,NA,NA,NA,NA,NA,1,4,"binary"
"DDF654B04475461CAA83D9BFD3636F52",1,"01990aa1-82c1-78cc-a679-3895539e817f","01990a83-7673-7c0c-a792-bbd8fbbaf673","2025-09-02_08h33.50.181",NA,NA,141.4887,141.4889,141.4889,141.8383,NA,NA,NA,NA,NA,NA,NA,TRUE,1,1.3173,138.4873,141.4882,0,4,4,104,1,200,35,NA,NA,NA,NA,NA,1,5,"binary"
"DDF654B04475461CAA83D9BFD3636F52",1,"01990aa1-82c1-78cc-a679-3895539e817f","01990a83-7673-7c0c-a792-bbd8fbbaf673","2025-09-02_08h33.50.181",NA,NA,144.8417,144.8422,144.8422,145.1916,NA,NA,NA,NA,NA,NA,NA,TRUE,2,1.8647,141.8415,144.8416,0,5,5,22,1,14,35,NA,NA,NA,NA,NA,1,6,"binary"
"DDF654B04475461CAA83D9BFD3636F52",1,"01990aa1-82c1-78cc-a679-3895539e817f","01990a83-7673-7c0c-a792-bbd8fbbaf673","2025-09-02_08h33.50.181",NA,NA,148.1777,148.1778,148.1778,148.5278,NA,NA,NA,NA,NA,NA,NA,TRUE,1,1.8958,145.1948,148.1775,0,6,6,81,1,95,40,NA,NA,NA,NA,NA,1,7,"binary"
"DDF654B04475461CAA83D9BFD3636F52",1,"01990aa1-82c1-78cc-a679-3895539e817f","01990a83-7673-7c0c-a792-bbd8fbbaf673","2025-09-02_08h33.50.181",NA,NA,151.5315,151.5318,151.5319,151.8813,NA,NA,NA,NA,NA,NA,NA,TRUE,1,1.6565,148.5298,151.5312,0,7,7,74,1,90,33,NA,NA,NA,NA,NA,1,8,"binary"
"DDF654B04475461CAA83D9BFD3636F52",1,"01990aa1-82c1-78cc-a679-3895539e817f","01990a83-7673-7c0c-a792-bbd8fbbaf673","2025-09-02_08h33.50.181",NA,NA,154.8847,154.8849,154.885,155.234,NA,NA,NA,NA,NA,NA,NA,TRUE,1,2.5364,151.8845,154.8843,0,8,8,59,1,45,46,NA,NA,NA,NA,NA,1,9,"binary"
"DDF654B04475461CAA83D9BFD3636F52",1,"01990aa1-82c1-78cc-a679-3895539e817f","01990a83-7673-7c0c-a792-bbd8fbbaf673","2025-09-02_08h33.50.181",NA,NA,158.2378,158.2379,158.238,158.5872,NA,NA,NA,NA,NA,NA,NA,TRUE,2,1.4425,155.2352,158.2374,0,9,9,21,1,14,32,NA,NA,NA,NA,NA,1,10,"binary"
"DDF654B04475461CAA83D9BFD3636F52",1,"01990aa1-82c1-78cc-a679-3895539e817f","01990a83-7673-7c0c-a792-bbd8fbbaf673","2025-09-02_08h33.50.181",NA,NA,161.5912,161.5914,161.5915,161.9409,NA,NA,NA,NA,NA,NA,NA,TRUE,1,1.3856,158.5885,161.5907,0,10,10,73,1,90,30,NA,NA,NA,NA,NA,1,11,"binary"
"DDF654B04475461CAA83D9BFD3636F52",1,"01990aa1-82c1-78cc-a679-3895539e817f","01990a83-7673-7c0c-a792-bbd8fbbaf673","2025-09-02_08h33.50.181",NA,NA,164.9441,164.9443,164.9445,165.2775,NA,NA,NA,NA,NA,NA,NA,TRUE,1,1.9828,161.9442,164.9438,0,11,11,90,1,150,31,NA,NA,NA,NA,NA,1,12,"binary"
"DDF654B04475461CAA83D9BFD3636F52",1,"01990aa1-82c1-78cc-a679-3895539e817f","01990a83-7673-7c0c-a792-bbd8fbbaf673","2025-09-02_08h33.50.181",NA,NA,168.2806,168.2808,168.2808,168.6302,NA,NA,NA,NA,NA,NA,NA,TRUE,1,1.3354,165.2809,168.2803,0,12,12,102,1,200,26,NA,NA,NA,NA,NA,1,13,"binary"
"DDF654B04475461CAA83D9BFD3636F52",1,"01990aa1-82c1-78cc-a679-3895539e817f","01990a83-7673-7c0c-a792-bbd8fbbaf673","2025-09-02_08h33.50.181",NA,NA,171.6339,171.6339,171.6341,171.9838,NA,NA,NA,NA,NA,NA,NA,TRUE,1,1.5548,168.6313,171.6338,0,13,13,86,1,100,38,NA,NA,NA,NA,NA,1,14,"binary"
"DDF654B04475461CAA83D9BFD3636F52",1,"01990aa1-82c1-78cc-a679-3895539e817f","01990a83-7673-7c0c-a792-bbd8fbbaf673","2025-09-02_08h33.50.181",NA,NA,174.987,174.9874,174.9875,175.337,NA,NA,NA,NA,NA,NA,NA,TRUE,1,2.1355,171.9872,174.9867,0,14,14,82,1,95,47,NA,NA,NA,NA,NA,1,15,"binary"
"DDF654B04475461CAA83D9BFD3636F52",1,"01990aa1-82c1-78cc-a679-3895539e817f","01990a83-7673-7c0c-a792-bbd8fbbaf673","2025-09-02_08h33.50.181",NA,NA,178.3406,178.3408,178.3409,178.6897,NA,NA,NA,NA,NA,NA,NA,TRUE,2,1.3664,175.3402,178.34,0,15,15,4,1,7,32,NA,NA,NA,NA,NA,1,16,"binary"
"DDF654B04475461CAA83D9BFD3636F52",1,"01990aa1-82c1-78cc-a679-3895539e817f","01990a83-7673-7c0c-a792-bbd8fbbaf673","2025-09-02_08h33.50.181",NA,NA,181.6937,181.6939,181.694,182.0434,NA,NA,NA,NA,NA,NA,NA,TRUE,1,1.1834,178.6915,181.6932,0,16,16,88,1,100,46,NA,NA,NA,NA,NA,1,17,"binary"
"DDF654B04475461CAA83D9BFD3636F52",1,"01990aa1-82c1-78cc-a679-3895539e817f","01990a83-7673-7c0c-a792-bbd8fbbaf673","2025-09-02_08h33.50.181",NA,NA,185.0293,185.0293,185.0294,185.3796,NA,NA,NA,NA,NA,NA,NA,TRUE,1,1.73,182.0467,185.0292,0,17,17,55,1,45,29,NA,NA,NA,NA,NA,1,18,"binary"
"DDF654B04475461CAA83D9BFD3636F52",1,"01990aa1-82c1-78cc-a679-3895539e817f","01990a83-7673-7c0c-a792-bbd8fbbaf673","2025-09-02_08h33.50.181",NA,NA,188.3833,188.3834,188.3835,188.7331,NA,NA,NA,NA,NA,NA,NA,TRUE,1,1.0889,185.3813,188.383,0,18,18,96,1,180,27,NA,NA,NA,NA,NA,1,19,"binary"
"DDF654B04475461CAA83D9BFD3636F52",1,"01990aa1-82c1-78cc-a679-3895539e817f","01990a83-7673-7c0c-a792-bbd8fbbaf673","2025-09-02_08h33.50.181",NA,NA,191.736,191.736,191.736,192.0864,NA,NA,NA,NA,NA,NA,NA,TRUE,1,2.6233,188.7364,191.7358,0,19,19,2,1,7,28,NA,NA,NA,NA,NA,1,20,"binary"
"DDF654B04475461CAA83D9BFD3636F52",1,"01990aa1-82c1-78cc-a679-3895539e817f","01990a83-7673-7c0c-a792-bbd8fbbaf673","2025-09-02_08h33.50.181",NA,NA,195.0899,195.0902,195.0903,195.4396,NA,NA,NA,NA,NA,NA,NA,TRUE,2,1.8299,192.0898,195.0893,0,20,20,38,1,28,32,NA,NA,NA,NA,NA,1,21,"binary"
"DDF654B04475461CAA83D9BFD3636F52",1,"01990aa1-82c1-78cc-a679-3895539e817f","01990a83-7673-7c0c-a792-bbd8fbbaf673","2025-09-02_08h33.50.181",NA,NA,198.4427,198.4429,198.4429,198.7927,NA,NA,NA,NA,NA,NA,NA,TRUE,1,1.6001,195.4431,198.4424,0,21,21,84,1,100,26,NA,NA,NA,NA,NA,1,22,"binary"
"DDF654B04475461CAA83D9BFD3636F52",1,"01990aa1-82c1-78cc-a679-3895539e817f","01990a83-7673-7c0c-a792-bbd8fbbaf673","2025-09-02_08h33.50.181",NA,NA,201.7794,201.7795,201.7797,202.1293,NA,NA,NA,NA,NA,NA,NA,TRUE,1,1.2503,198.7961,201.779,0,22,22,92,1,150,35,NA,NA,NA,NA,NA,1,23,"binary"
"DDF654B04475461CAA83D9BFD3636F52",1,"01990aa1-82c1-78cc-a679-3895539e817f","01990a83-7673-7c0c-a792-bbd8fbbaf673","2025-09-02_08h33.50.181",NA,NA,205.1325,205.1326,205.1327,205.4825,NA,NA,NA,NA,NA,NA,NA,TRUE,1,1.7155,202.1328,205.1322,0,23,23,46,1,30,32,NA,NA,NA,NA,NA,1,24,"binary"
"DDF654B04475461CAA83D9BFD3636F52",1,"01990aa1-82c1-78cc-a679-3895539e817f","01990a83-7673-7c0c-a792-bbd8fbbaf673","2025-09-02_08h33.50.181",NA,NA,208.4857,208.4859,208.4859,208.836,NA,NA,NA,NA,NA,NA,NA,TRUE,1,1.5506,205.4856,208.4855,0,24,24,66,1,60,29,NA,NA,NA,NA,NA,1,25,"binary"
"DDF654B04475461CAA83D9BFD3636F52",1,"01990aa1-82c1-78cc-a679-3895539e817f","01990a83-7673-7c0c-a792-bbd8fbbaf673","2025-09-02_08h33.50.181",NA,NA,211.8393,211.8394,211.8394,212.1889,NA,NA,NA,NA,NA,NA,NA,TRUE,2,2.9178,208.8392,211.8388,0,25,25,14,1,12,28,NA,NA,NA,NA,NA,1,26,"binary"
"DDF654B04475461CAA83D9BFD3636F52",1,"01990aa1-82c1-78cc-a679-3895539e817f","01990a83-7673-7c0c-a792-bbd8fbbaf673","2025-09-02_08h33.50.181",NA,NA,215.1925,215.1927,215.1927,215.5418,NA,NA,NA,NA,NA,NA,NA,TRUE,1,1.787,212.1922,215.192,0,26,26,63,1,50,40,NA,NA,NA,NA,NA,1,27,"binary"
"DDF654B04475461CAA83D9BFD3636F52",1,"01990aa1-82c1-78cc-a679-3895539e817f","01990a83-7673-7c0c-a792-bbd8fbbaf673","2025-09-02_08h33.50.181",NA,NA,218.5287,218.5289,218.529,218.8787,NA,NA,NA,NA,NA,NA,NA,TRUE,1,1.1177,215.544,218.5284,0,27,27,87,1,100,39,NA,NA,NA,NA,NA,1,28,"binary"
"DDF654B04475461CAA83D9BFD3636F52",1,"01990aa1-82c1-78cc-a679-3895539e817f","01990a83-7673-7c0c-a792-bbd8fbbaf673","2025-09-02_08h33.50.181",NA,NA,221.882,221.8821,221.8823,222.2318,NA,NA,NA,NA,NA,NA,NA,TRUE,2,2.6327,218.8818,221.8816,0,28,28,47,1,30,38,NA,NA,NA,NA,NA,1,29,"binary"
"DDF654B04475461CAA83D9BFD3636F52",1,"01990aa1-82c1-78cc-a679-3895539e817f","01990a83-7673-7c0c-a792-bbd8fbbaf673","2025-09-02_08h33.50.181",NA,NA,225.2352,225.2353,225.2355,225.585,NA,NA,NA,NA,NA,NA,NA,TRUE,2,1.5025,222.2349,225.2348,0,29,29,35,1,25,46,NA,NA,NA,NA,NA,1,30,"binary"
"DDF654B04475461CAA83D9BFD3636F52",1,"01990aa1-82c1-78cc-a679-3895539e817f","01990a83-7673-7c0c-a792-bbd8fbbaf673","2025-09-02_08h33.50.181",NA,NA,228.5884,228.5885,228.5885,228.9382,NA,NA,NA,NA,NA,NA,NA,TRUE,1,2.0526,225.5884,228.5881,0,30,30,0,1,7,25,NA,NA,NA,NA,NA,1,31,"binary"
"DDF654B04475461CAA83D9BFD3636F52",1,"01990aa1-82c1-78cc-a679-3895539e817f","01990a83-7673-7c0c-a792-bbd8fbbaf673","2025-09-02_08h33.50.181",NA,NA,231.9412,231.9415,231.9415,232.2913,NA,NA,NA,NA,NA,NA,NA,TRUE,1,1.2296,228.9414,231.941,0,31,31,99,1,180,39,NA,NA,NA,NA,NA,1,32,"binary"
"DDF654B04475461CAA83D9BFD3636F52",1,"01990aa1-82c1-78cc-a679-3895539e817f","01990a83-7673-7c0c-a792-bbd8fbbaf673","2025-09-02_08h33.50.181",NA,NA,235.278,235.2782,235.2783,235.6281,NA,NA,NA,NA,NA,NA,NA,TRUE,1,1.9353,232.2934,235.2776,0,32,32,50,1,40,35,NA,NA,NA,NA,NA,1,33,"binary"
"DDF654B04475461CAA83D9BFD3636F52",1,"01990aa1-82c1-78cc-a679-3895539e817f","01990a83-7673-7c0c-a792-bbd8fbbaf673","2025-09-02_08h33.50.181",NA,NA,238.6313,238.8811,238.8813,238.9812,NA,NA,NA,NA,NA,NA,NA,FALSE,NA,NA,235.6312,238.631,0,33,33,83,1,95,54,NA,NA,NA,NA,NA,1,34,"binary"
"DDF654B04475461CAA83D9BFD3636F52",1,"01990aa1-82c1-78cc-a679-3895539e817f","01990a83-7673-7c0c-a792-bbd8fbbaf673","2025-09-02_08h33.50.181",NA,NA,241.9844,241.9847,241.9847,242.3344,NA,NA,NA,NA,NA,NA,NA,TRUE,1,1.5526,238.9847,241.9841,0,34,34,56,1,45,31,NA,NA,NA,NA,NA,1,35,"binary"
"DDF654B04475461CAA83D9BFD3636F52",1,"01990aa1-82c1-78cc-a679-3895539e817f","01990a83-7673-7c0c-a792-bbd8fbbaf673","2025-09-02_08h33.50.181",NA,NA,245.3379,245.338,245.3381,245.6877,NA,NA,NA,NA,NA,NA,NA,TRUE,2,1.4353,242.3376,245.3373,0,35,35,58,1,45,40,NA,NA,NA,NA,NA,1,36,"binary"
"DDF654B04475461CAA83D9BFD3636F52",1,"01990aa1-82c1-78cc-a679-3895539e817f","01990a83-7673-7c0c-a792-bbd8fbbaf673","2025-09-02_08h33.50.181",NA,NA,248.6904,248.6906,248.6906,249.0409,NA,NA,NA,NA,NA,NA,NA,TRUE,1,1.3367,245.6911,248.6902,0,36,36,6,1,10,25,NA,NA,NA,NA,NA,1,37,"binary"
"DDF654B04475461CAA83D9BFD3636F52",1,"01990aa1-82c1-78cc-a679-3895539e817f","01990a83-7673-7c0c-a792-bbd8fbbaf673","2025-09-02_08h33.50.181",NA,NA,252.0443,252.0445,252.0445,252.3775,NA,NA,NA,NA,NA,NA,NA,TRUE,1,1.0802,249.0441,252.0439,0,37,37,80,1,95,35,NA,NA,NA,NA,NA,1,38,"binary"
"DDF654B04475461CAA83D9BFD3636F52",1,"01990aa1-82c1-78cc-a679-3895539e817f","01990a83-7673-7c0c-a792-bbd8fbbaf673","2025-09-02_08h33.50.181",NA,NA,255.3809,255.381,255.3811,255.7306,NA,NA,NA,NA,NA,NA,NA,TRUE,1,1.0535,252.3792,255.3804,0,38,38,1,1,7,26,NA,NA,NA,NA,NA,1,39,"binary"
"DDF654B04475461CAA83D9BFD3636F52",1,"01990aa1-82c1-78cc-a679-3895539e817f","01990a83-7673-7c0c-a792-bbd8fbbaf673","2025-09-02_08h33.50.181",NA,NA,258.7338,258.734,258.734,259.0837,NA,NA,NA,NA,NA,NA,NA,TRUE,1,1.1328,255.7339,258.7335,0,39,39,15,1,12,31,NA,NA,NA,NA,NA,1,40,"binary"
"DDF654B04475461CAA83D9BFD3636F52",1,"01990aa1-82c1-78cc-a679-3895539e817f","01990a83-7673-7c0c-a792-bbd8fbbaf673","2025-09-02_08h33.50.181",NA,NA,262.0872,262.0874,262.0875,262.4366,NA,NA,NA,NA,NA,NA,NA,TRUE,1,1.0342,259.0869,262.0867,0,40,40,103,1,200,28,NA,NA,NA,NA,NA,1,41,"binary"
"DDF654B04475461CAA83D9BFD3636F52",1,"01990aa1-82c1-78cc-a679-3895539e817f","01990a83-7673-7c0c-a792-bbd8fbbaf673","2025-09-02_08h33.50.181",NA,NA,265.4402,265.4404,265.4404,265.7901,NA,NA,NA,NA,NA,NA,NA,TRUE,1,1.5765,262.4388,265.4399,0,41,41,49,1,40,33,NA,NA,NA,NA,NA,1,42,"binary"
"DDF654B04475461CAA83D9BFD3636F52",1,"01990aa1-82c1-78cc-a679-3895539e817f","01990a83-7673-7c0c-a792-bbd8fbbaf673","2025-09-02_08h33.50.181",NA,NA,268.7935,268.7937,268.7939,269.1436,NA,NA,NA,NA,NA,NA,NA,TRUE,2,1.4299,265.7933,268.7933,0,42,42,9,1,10,29,NA,NA,NA,NA,NA,1,43,"binary"
"DDF654B04475461CAA83D9BFD3636F52",1,"01990aa1-82c1-78cc-a679-3895539e817f","01990a83-7673-7c0c-a792-bbd8fbbaf673","2025-09-02_08h33.50.181",NA,NA,272.1299,272.13,272.1301,272.4802,NA,NA,NA,NA,NA,NA,NA,TRUE,1,1.5457,269.1468,272.1296,0,43,43,75,1,90,40,NA,NA,NA,NA,NA,1,44,"binary"
"DDF654B04475461CAA83D9BFD3636F52",1,"01990aa1-82c1-78cc-a679-3895539e817f","01990a83-7673-7c0c-a792-bbd8fbbaf673","2025-09-02_08h33.50.181",NA,NA,275.4834,275.4835,275.4836,275.8327,NA,NA,NA,NA,NA,NA,NA,TRUE,1,1.1133,272.4833,275.4828,0,44,44,94,1,150,47,NA,NA,NA,NA,NA,1,45,"binary"
"DDF654B04475461CAA83D9BFD3636F52",1,"01990aa1-82c1-78cc-a679-3895539e817f","01990a83-7673-7c0c-a792-bbd8fbbaf673","2025-09-02_08h33.50.181",NA,NA,278.8358,278.8358,278.8359,279.1859,NA,NA,NA,NA,NA,NA,NA,TRUE,1,1.5354,275.8349,278.8356,0,45,45,95,1,150,54,NA,NA,NA,NA,NA,1,46,"binary"
"DDF654B04475461CAA83D9BFD3636F52",1,"01990aa1-82c1-78cc-a679-3895539e817f","01990a83-7673-7c0c-a792-bbd8fbbaf673","2025-09-02_08h33.50.181",NA,NA,282.1896,282.1898,282.1898,282.5392,NA,NA,NA,NA,NA,NA,NA,TRUE,2,1.8598,279.1874,282.1893,0,46,46,51,1,40,40,NA,NA,NA,NA,NA,1,47,"binary"
"DDF654B04475461CAA83D9BFD3636F52",1,"01990aa1-82c1-78cc-a679-3895539e817f","01990a83-7673-7c0c-a792-bbd8fbbaf673","2025-09-02_08h33.50.181",NA,NA,285.5426,285.5429,285.543,285.8923,NA,NA,NA,NA,NA,NA,NA,TRUE,1,1.3828,282.5415,285.5424,0,47,47,61,1,50,30,NA,NA,NA,NA,NA,1,48,"binary"
"DDF654B04475461CAA83D9BFD3636F52",1,"01990aa1-82c1-78cc-a679-3895539e817f","01990a83-7673-7c0c-a792-bbd8fbbaf673","2025-09-02_08h33.50.181",NA,NA,288.8788,288.8789,288.8789,289.2296,NA,NA,NA,NA,NA,NA,NA,TRUE,1,1.6667,285.8944,288.8787,0,48,48,36,1,28,26,NA,NA,NA,NA,NA,1,49,"binary"
"DDF654B04475461CAA83D9BFD3636F52",1,"01990aa1-82c1-78cc-a679-3895539e817f","01990a83-7673-7c0c-a792-bbd8fbbaf673","2025-09-02_08h33.50.181",NA,NA,292.2327,292.2327,292.2329,292.5819,NA,NA,NA,NA,NA,NA,NA,TRUE,2,1.9864,289.2326,292.2321,0,49,49,77,1,90,54,NA,NA,NA,NA,NA,1,50,"binary"
"DDF654B04475461CAA83D9BFD3636F52",1,"01990aa1-82c1-78cc-a679-3895539e817f","01990a83-7673-7c0c-a792-bbd8fbbaf673","2025-09-02_08h33.50.181",NA,NA,295.5858,295.5858,295.5859,295.9357,NA,NA,NA,NA,NA,NA,NA,TRUE,1,1.4172,292.5831,295.5855,0,50,50,68,1,60,35,NA,NA,NA,NA,NA,1,51,"binary"
"DDF654B04475461CAA83D9BFD3636F52",1,"01990aa1-82c1-78cc-a679-3895539e817f","01990a83-7673-7c0c-a792-bbd8fbbaf673","2025-09-02_08h33.50.181",NA,NA,298.9389,298.939,298.9391,299.2888,NA,NA,NA,NA,NA,NA,NA,TRUE,1,1.2356,295.9387,298.9386,0,51,51,48,1,40,27,NA,NA,NA,NA,NA,1,52,"binary"
"DDF654B04475461CAA83D9BFD3636F52",1,"01990aa1-82c1-78cc-a679-3895539e817f","01990a83-7673-7c0c-a792-bbd8fbbaf673","2025-09-02_08h33.50.181",NA,NA,302.2922,302.2925,302.2926,302.642,NA,NA,NA,NA,NA,NA,NA,TRUE,1,1.8135,299.292,302.2918,0,52,52,53,1,40,54,NA,NA,NA,NA,NA,1,53,"binary"
"DDF654B04475461CAA83D9BFD3636F52",1,"01990aa1-82c1-78cc-a679-3895539e817f","01990a83-7673-7c0c-a792-bbd8fbbaf673","2025-09-02_08h33.50.181",NA,NA,305.6279,305.628,305.628,305.9788,NA,NA,NA,NA,NA,NA,NA,TRUE,2,2.2129,302.6452,305.6278,0,53,53,40,1,28,39,NA,NA,NA,NA,NA,1,54,"binary"
"DDF654B04475461CAA83D9BFD3636F52",1,"01990aa1-82c1-78cc-a679-3895539e817f","01990a83-7673-7c0c-a792-bbd8fbbaf673","2025-09-02_08h33.50.181",NA,NA,308.9818,308.982,308.982,309.3318,NA,NA,NA,NA,NA,NA,NA,TRUE,1,1.1698,305.982,308.9815,0,54,54,85,1,100,31,NA,NA,NA,NA,NA,1,55,"binary"
"DDF654B04475461CAA83D9BFD3636F52",1,"01990aa1-82c1-78cc-a679-3895539e817f","01990a83-7673-7c0c-a792-bbd8fbbaf673","2025-09-02_08h33.50.181",NA,NA,312.3348,312.3348,312.3348,312.685,NA,NA,NA,NA,NA,NA,NA,TRUE,1,1.3223,309.3348,312.3344,0,55,55,43,1,30,27,NA,NA,NA,NA,NA,1,56,"binary"
"DDF654B04475461CAA83D9BFD3636F52",1,"01990aa1-82c1-78cc-a679-3895539e817f","01990a83-7673-7c0c-a792-bbd8fbbaf673","2025-09-02_08h33.50.181",NA,NA,315.6882,315.6884,315.6884,316.0382,NA,NA,NA,NA,NA,NA,NA,TRUE,1,1.2194,312.6883,315.688,0,56,56,89,1,100,54,NA,NA,NA,NA,NA,1,57,"binary"
"DDF654B04475461CAA83D9BFD3636F52",1,"01990aa1-82c1-78cc-a679-3895539e817f","01990a83-7673-7c0c-a792-bbd8fbbaf673","2025-09-02_08h33.50.181",NA,NA,319.0414,319.0416,319.0418,319.391,NA,NA,NA,NA,NA,NA,NA,TRUE,1,1.4971,316.0418,319.0411,0,57,57,79,1,95,33,NA,NA,NA,NA,NA,1,58,"binary"
"DDF654B04475461CAA83D9BFD3636F52",1,"01990aa1-82c1-78cc-a679-3895539e817f","01990a83-7673-7c0c-a792-bbd8fbbaf673","2025-09-02_08h33.50.181",NA,NA,322.378,322.3782,322.3782,322.728,NA,NA,NA,NA,NA,NA,NA,TRUE,1,1.1167,319.3928,322.3776,0,58,58,44,1,30,29,NA,NA,NA,NA,NA,1,59,"binary"
"DDF654B04475461CAA83D9BFD3636F52",1,"01990aa1-82c1-78cc-a679-3895539e817f","01990a83-7673-7c0c-a792-bbd8fbbaf673","2025-09-02_08h33.50.181",NA,NA,325.7312,325.7312,325.7312,326.0812,NA,NA,NA,NA,NA,NA,NA,TRUE,1,1.5859,322.7314,325.7309,0,59,59,27,1,21,30,NA,NA,NA,NA,NA,1,60,"binary"
"DDF654B04475461CAA83D9BFD3636F52",1,"01990aa1-82c1-78cc-a679-3895539e817f","01990a83-7673-7c0c-a792-bbd8fbbaf673","2025-09-02_08h33.50.181",NA,NA,329.0843,329.0844,329.0846,329.4344,NA,NA,NA,NA,NA,NA,NA,TRUE,2,1.2387,326.0843,329.0841,0,60,60,5,1,7,35,NA,NA,NA,NA,NA,1,61,"binary"
"DDF654B04475461CAA83D9BFD3636F52",1,"01990aa1-82c1-78cc-a679-3895539e817f","01990a83-7673-7c0c-a792-bbd8fbbaf673","2025-09-02_08h33.50.181",NA,NA,332.4375,332.4376,332.4378,332.7876,NA,NA,NA,NA,NA,NA,NA,TRUE,1,1.1183,329.4375,332.4372,0,61,61,97,1,180,31,NA,NA,NA,NA,NA,1,62,"binary"
"DDF654B04475461CAA83D9BFD3636F52",1,"01990aa1-82c1-78cc-a679-3895539e817f","01990a83-7673-7c0c-a792-bbd8fbbaf673","2025-09-02_08h33.50.181",NA,NA,335.7909,335.791,335.7912,336.1407,NA,NA,NA,NA,NA,NA,NA,TRUE,2,1.4827,332.7908,335.7906,0,62,62,17,1,12,35,NA,NA,NA,NA,NA,1,63,"binary"
"DDF654B04475461CAA83D9BFD3636F52",1,"01990aa1-82c1-78cc-a679-3895539e817f","01990a83-7673-7c0c-a792-bbd8fbbaf673","2025-09-02_08h33.50.181",NA,NA,339.1442,339.1444,339.1444,339.4773,NA,NA,NA,NA,NA,NA,NA,TRUE,2,1.316,336.1442,339.1438,0,63,63,69,1,60,40,NA,NA,NA,NA,NA,1,64,"binary"
"DDF654B04475461CAA83D9BFD3636F52",1,"01990aa1-82c1-78cc-a679-3895539e817f","01990a83-7673-7c0c-a792-bbd8fbbaf673","2025-09-02_08h33.50.181",NA,NA,342.48,342.48,342.48,342.8301,NA,NA,NA,NA,NA,NA,NA,TRUE,1,1.1885,339.4805,342.4797,0,64,64,28,1,21,32,NA,NA,NA,NA,NA,1,65,"binary"
"DDF654B04475461CAA83D9BFD3636F52",1,"01990aa1-82c1-78cc-a679-3895539e817f","01990a83-7673-7c0c-a792-bbd8fbbaf673","2025-09-02_08h33.50.181",NA,NA,345.8336,345.8338,345.8339,346.1837,NA,NA,NA,NA,NA,NA,NA,TRUE,1,1.1703,342.8318,345.8334,0,65,65,42,1,30,26,NA,NA,NA,NA,NA,1,66,"binary"
"DDF654B04475461CAA83D9BFD3636F52",1,"01990aa1-82c1-78cc-a679-3895539e817f","01990a83-7673-7c0c-a792-bbd8fbbaf673","2025-09-02_08h33.50.181",NA,NA,349.1868,349.1871,349.1871,349.5369,NA,NA,NA,NA,NA,NA,NA,TRUE,1,1.4028,346.1868,349.1866,0,66,66,62,1,50,35,NA,NA,NA,NA,NA,1,67,"binary"
"DDF654B04475461CAA83D9BFD3636F52",1,"01990aa1-82c1-78cc-a679-3895539e817f","01990a83-7673-7c0c-a792-bbd8fbbaf673","2025-09-02_08h33.50.181",NA,NA,352.5393,352.5393,352.5393,352.8895,NA,NA,NA,NA,NA,NA,NA,TRUE,1,0.9143,349.5401,352.5393,0,67,67,60,1,50,27,NA,NA,NA,NA,NA,1,68,"binary"
"DDF654B04475461CAA83D9BFD3636F52",1,"01990aa1-82c1-78cc-a679-3895539e817f","01990a83-7673-7c0c-a792-bbd8fbbaf673","2025-09-02_08h33.50.181",NA,NA,355.8933,355.8939,355.8939,356.2433,NA,NA,NA,NA,NA,NA,NA,TRUE,1,1.1162,352.891,355.893,0,68,68,8,1,10,27,NA,NA,NA,NA,NA,1,69,"binary"
"DDF654B04475461CAA83D9BFD3636F52",1,"01990aa1-82c1-78cc-a679-3895539e817f","01990a83-7673-7c0c-a792-bbd8fbbaf673","2025-09-02_08h33.50.181",NA,NA,359.2298,359.23,359.23,359.5799,NA,NA,NA,NA,NA,NA,NA,TRUE,1,1.236,356.2465,359.2295,0,69,69,12,1,12,25,NA,NA,NA,NA,NA,1,70,"binary"
"DDF654B04475461CAA83D9BFD3636F52",1,"01990aa1-82c1-78cc-a679-3895539e817f","01990a83-7673-7c0c-a792-bbd8fbbaf673","2025-09-02_08h33.50.181",NA,NA,362.5831,362.5833,362.5833,362.9331,NA,NA,NA,NA,NA,NA,NA,TRUE,1,1.1606,359.5834,362.5828,0,70,70,93,1,150,40,NA,NA,NA,NA,NA,1,71,"binary"
"DDF654B04475461CAA83D9BFD3636F52",1,"01990aa1-82c1-78cc-a679-3895539e817f","01990a83-7673-7c0c-a792-bbd8fbbaf673","2025-09-02_08h33.50.181",NA,NA,365.9357,365.9357,365.9359,366.2863,NA,NA,NA,NA,NA,NA,NA,TRUE,1,1.2718,362.9365,365.9355,0,71,71,100,1,180,46,NA,NA,NA,NA,NA,1,72,"binary"
"DDF654B04475461CAA83D9BFD3636F52",1,"01990aa1-82c1-78cc-a679-3895539e817f","01990a83-7673-7c0c-a792-bbd8fbbaf673","2025-09-02_08h33.50.181",NA,NA,369.2893,369.2893,369.2895,369.6394,NA,NA,NA,NA,NA,NA,NA,TRUE,1,1.8363,366.2894,369.2891,0,72,72,45,1,30,30,NA,NA,NA,NA,NA,1,73,"binary"
"DDF654B04475461CAA83D9BFD3636F52",1,"01990aa1-82c1-78cc-a679-3895539e817f","01990a83-7673-7c0c-a792-bbd8fbbaf673","2025-09-02_08h33.50.181",NA,NA,372.6425,372.643,372.643,372.9926,NA,NA,NA,NA,NA,NA,NA,TRUE,1,1.5356,369.6424,372.6422,0,73,73,67,1,60,33,NA,NA,NA,NA,NA,1,74,"binary"
"DDF654B04475461CAA83D9BFD3636F52",1,"01990aa1-82c1-78cc-a679-3895539e817f","01990a83-7673-7c0c-a792-bbd8fbbaf673","2025-09-02_08h33.50.181",NA,NA,375.9795,375.9797,375.9797,376.3291,NA,NA,NA,NA,NA,NA,NA,TRUE,2,1.8507,372.9955,375.9789,0,74,74,10,1,10,30,NA,NA,NA,NA,NA,1,75,"binary"
"DDF654B04475461CAA83D9BFD3636F52",1,"01990aa1-82c1-78cc-a679-3895539e817f","01990a83-7673-7c0c-a792-bbd8fbbaf673","2025-09-02_08h33.50.181",NA,NA,379.3323,379.3325,379.3326,379.6823,NA,NA,NA,NA,NA,NA,NA,TRUE,1,2.1195,376.3324,379.332,0,75,75,24,1,21,26,NA,NA,NA,NA,NA,1,76,"binary"
"DDF654B04475461CAA83D9BFD3636F52",1,"01990aa1-82c1-78cc-a679-3895539e817f","01990a83-7673-7c0c-a792-bbd8fbbaf673","2025-09-02_08h33.50.181",NA,NA,382.6857,382.6857,382.6858,383.0354,NA,NA,NA,NA,NA,NA,NA,TRUE,1,0.9693,379.6854,382.6853,0,76,76,30,1,25,27,NA,NA,NA,NA,NA,1,77,"binary"
"DDF654B04475461CAA83D9BFD3636F52",1,"01990aa1-82c1-78cc-a679-3895539e817f","01990a83-7673-7c0c-a792-bbd8fbbaf673","2025-09-02_08h33.50.181",NA,NA,386.0388,386.039,386.039,386.3886,NA,NA,NA,NA,NA,NA,NA,TRUE,1,1.3024,383.0386,386.0385,0,77,77,31,1,25,29,NA,NA,NA,NA,NA,1,78,"binary"
"DDF654B04475461CAA83D9BFD3636F52",1,"01990aa1-82c1-78cc-a679-3895539e817f","01990a83-7673-7c0c-a792-bbd8fbbaf673","2025-09-02_08h33.50.181",NA,NA,389.392,389.3924,389.3924,389.7421,NA,NA,NA,NA,NA,NA,NA,TRUE,1,0.8828,386.3917,389.3919,0,78,78,78,1,95,31,NA,NA,NA,NA,NA,1,79,"binary"
"DDF654B04475461CAA83D9BFD3636F52",1,"01990aa1-82c1-78cc-a679-3895539e817f","01990a83-7673-7c0c-a792-bbd8fbbaf673","2025-09-02_08h33.50.181",NA,NA,392.7285,392.7287,392.7287,393.0786,NA,NA,NA,NA,NA,NA,NA,TRUE,1,0.9283,389.7452,392.7282,0,79,79,65,1,50,54,NA,NA,NA,NA,NA,1,80,"binary"
"DDF654B04475461CAA83D9BFD3636F52",1,"01990aa1-82c1-78cc-a679-3895539e817f","01990a83-7673-7c0c-a792-bbd8fbbaf673","2025-09-02_08h33.50.181",NA,NA,396.0819,396.082,396.0821,396.4316,NA,NA,NA,NA,NA,NA,NA,TRUE,1,1.2351,393.0818,396.0816,0,80,80,71,1,60,54,NA,NA,NA,NA,NA,1,81,"binary"
"DDF654B04475461CAA83D9BFD3636F52",1,"01990aa1-82c1-78cc-a679-3895539e817f","01990a83-7673-7c0c-a792-bbd8fbbaf673","2025-09-02_08h33.50.181",NA,NA,399.4349,399.4351,399.4352,399.7849,NA,NA,NA,NA,NA,NA,NA,TRUE,2,2.1523,396.4351,399.4347,0,81,81,39,1,28,35,NA,NA,NA,NA,NA,1,82,"binary"
"DDF654B04475461CAA83D9BFD3636F52",1,"01990aa1-82c1-78cc-a679-3895539e817f","01990a83-7673-7c0c-a792-bbd8fbbaf673","2025-09-02_08h33.50.181",NA,NA,402.7877,402.7878,402.7879,403.1382,NA,NA,NA,NA,NA,NA,NA,TRUE,1,1.0886,399.7881,402.7876,0,82,82,19,1,14,26,NA,NA,NA,NA,NA,1,83,"binary"
"DDF654B04475461CAA83D9BFD3636F52",1,"01990aa1-82c1-78cc-a679-3895539e817f","01990a83-7673-7c0c-a792-bbd8fbbaf673","2025-09-02_08h33.50.181",NA,NA,406.1414,406.1417,406.1418,406.4913,NA,NA,NA,NA,NA,NA,NA,TRUE,1,1.2471,403.1413,406.1411,0,83,83,72,1,90,26,NA,NA,NA,NA,NA,1,84,"binary"
"DDF654B04475461CAA83D9BFD3636F52",1,"01990aa1-82c1-78cc-a679-3895539e817f","01990a83-7673-7c0c-a792-bbd8fbbaf673","2025-09-02_08h33.50.181",NA,NA,409.4779,409.4779,409.4781,409.828,NA,NA,NA,NA,NA,NA,NA,TRUE,1,0.9965,406.4946,409.4777,0,84,84,54,1,45,26,NA,NA,NA,NA,NA,1,85,"binary"
"DDF654B04475461CAA83D9BFD3636F52",1,"01990aa1-82c1-78cc-a679-3895539e817f","01990a83-7673-7c0c-a792-bbd8fbbaf673","2025-09-02_08h33.50.181",NA,NA,412.8303,412.8303,412.8303,413.1807,NA,NA,NA,NA,NA,NA,NA,TRUE,1,1.1715,409.8311,412.8303,0,85,85,16,1,12,33,NA,NA,NA,NA,NA,1,86,"binary"
"DDF654B04475461CAA83D9BFD3636F52",1,"01990aa1-82c1-78cc-a679-3895539e817f","01990a83-7673-7c0c-a792-bbd8fbbaf673","2025-09-02_08h33.50.181",NA,NA,416.1845,416.1847,416.1847,416.5343,NA,NA,NA,NA,NA,NA,NA,TRUE,2,1.1205,413.1825,416.184,0,86,86,29,1,21,38,NA,NA,NA,NA,NA,1,87,"binary"
"DDF654B04475461CAA83D9BFD3636F52",1,"01990aa1-82c1-78cc-a679-3895539e817f","01990a83-7673-7c0c-a792-bbd8fbbaf673","2025-09-02_08h33.50.181",NA,NA,419.5375,419.5377,419.5377,419.8875,NA,NA,NA,NA,NA,NA,NA,TRUE,1,1.2221,416.5374,419.5372,0,87,87,25,1,21,27,NA,NA,NA,NA,NA,1,88,"binary"
"DDF654B04475461CAA83D9BFD3636F52",1,"01990aa1-82c1-78cc-a679-3895539e817f","01990a83-7673-7c0c-a792-bbd8fbbaf673","2025-09-02_08h33.50.181",NA,NA,422.8898,422.89,422.89,423.2407,NA,NA,NA,NA,NA,NA,NA,TRUE,2,1.3616,419.891,422.8898,0,88,88,41,1,28,46,NA,NA,NA,NA,NA,1,89,"binary"
"DDF654B04475461CAA83D9BFD3636F52",1,"01990aa1-82c1-78cc-a679-3895539e817f","01990a83-7673-7c0c-a792-bbd8fbbaf673","2025-09-02_08h33.50.181",NA,NA,426.244,426.2443,426.2443,426.5772,NA,NA,NA,NA,NA,NA,NA,TRUE,1,1.1339,423.2438,426.2436,0,89,89,57,1,45,35,NA,NA,NA,NA,NA,1,90,"binary"
"DDF654B04475461CAA83D9BFD3636F52",1,"01990aa1-82c1-78cc-a679-3895539e817f","01990a83-7673-7c0c-a792-bbd8fbbaf673","2025-09-02_08h33.50.181",NA,NA,429.5804,429.5806,429.5806,429.93,NA,NA,NA,NA,NA,NA,NA,TRUE,1,1.2662,426.5803,429.5801,0,90,90,91,1,150,33,NA,NA,NA,NA,NA,1,91,"binary"
"DDF654B04475461CAA83D9BFD3636F52",1,"01990aa1-82c1-78cc-a679-3895539e817f","01990a83-7673-7c0c-a792-bbd8fbbaf673","2025-09-02_08h33.50.181",NA,NA,432.9329,432.9329,432.9329,433.2836,NA,NA,NA,NA,NA,NA,NA,TRUE,1,2.0705,429.9318,432.9328,0,91,91,20,1,14,28,NA,NA,NA,NA,NA,1,92,"binary"
"DDF654B04475461CAA83D9BFD3636F52",1,"01990aa1-82c1-78cc-a679-3895539e817f","01990a83-7673-7c0c-a792-bbd8fbbaf673","2025-09-02_08h33.50.181",NA,NA,436.2868,436.2869,436.2869,436.6368,NA,NA,NA,NA,NA,NA,NA,TRUE,1,1.3861,433.2867,436.2864,0,92,92,7,1,10,26,NA,NA,NA,NA,NA,1,93,"binary"
"DDF654B04475461CAA83D9BFD3636F52",1,"01990aa1-82c1-78cc-a679-3895539e817f","01990a83-7673-7c0c-a792-bbd8fbbaf673","2025-09-02_08h33.50.181",NA,NA,439.64,439.6403,439.6404,439.99,NA,NA,NA,NA,NA,NA,NA,TRUE,1,1.0656,436.6402,439.6397,0,93,93,106,1,200,47,NA,NA,NA,NA,NA,1,94,"binary"
"DDF654B04475461CAA83D9BFD3636F52",1,"01990aa1-82c1-78cc-a679-3895539e817f","01990a83-7673-7c0c-a792-bbd8fbbaf673","2025-09-02_08h33.50.181",NA,NA,442.9924,442.9924,442.9924,443.3429,NA,NA,NA,NA,NA,NA,NA,TRUE,2,1.2972,439.9932,442.9922,0,94,94,23,1,14,39,NA,NA,NA,NA,NA,1,95,"binary"
"DDF654B04475461CAA83D9BFD3636F52",1,"01990aa1-82c1-78cc-a679-3895539e817f","01990a83-7673-7c0c-a792-bbd8fbbaf673","2025-09-02_08h33.50.181",NA,NA,446.3298,446.33,446.33,446.6796,NA,NA,NA,NA,NA,NA,NA,TRUE,1,1.1714,443.3448,446.3295,0,95,95,101,1,180,54,NA,NA,NA,NA,NA,1,96,"binary"
"DDF654B04475461CAA83D9BFD3636F52",1,"01990aa1-82c1-78cc-a679-3895539e817f","01990a83-7673-7c0c-a792-bbd8fbbaf673","2025-09-02_08h33.50.181",NA,NA,449.683,449.6831,449.6832,450.033,NA,NA,NA,NA,NA,NA,NA,TRUE,2,1.6238,446.6829,449.6827,0,96,96,34,1,25,35,NA,NA,NA,NA,NA,1,97,"binary"
"DDF654B04475461CAA83D9BFD3636F52",1,"01990aa1-82c1-78cc-a679-3895539e817f","01990a83-7673-7c0c-a792-bbd8fbbaf673","2025-09-02_08h33.50.181",NA,NA,453.0364,453.0365,453.0366,453.3859,NA,NA,NA,NA,NA,NA,NA,TRUE,1,0.9018,450.0363,453.036,0,97,97,37,1,28,28,NA,NA,NA,NA,NA,1,98,"binary"
"DDF654B04475461CAA83D9BFD3636F52",1,"01990aa1-82c1-78cc-a679-3895539e817f","01990a83-7673-7c0c-a792-bbd8fbbaf673","2025-09-02_08h33.50.181",NA,NA,456.3893,456.3896,456.3896,456.7393,NA,NA,NA,NA,NA,NA,NA,TRUE,2,1.5002,453.388,456.389,0,98,98,11,1,10,32,NA,NA,NA,NA,NA,1,99,"binary"
"DDF654B04475461CAA83D9BFD3636F52",1,"01990aa1-82c1-78cc-a679-3895539e817f","01990a83-7673-7c0c-a792-bbd8fbbaf673","2025-09-02_08h33.50.181",NA,NA,459.7426,459.7429,459.743,460.0923,NA,NA,NA,NA,NA,NA,NA,TRUE,2,1.8155,456.7424,459.7422,0,99,99,33,1,25,33,NA,NA,NA,NA,NA,1,100,"binary"
"DDF654B04475461CAA83D9BFD3636F52",1,"01990aa1-82c1-78cc-a679-3895539e817f","01990a83-7673-7c0c-a792-bbd8fbbaf673","2025-09-02_08h33.50.181",NA,NA,463.0793,463.0794,463.0795,463.4284,NA,NA,NA,NA,NA,NA,NA,TRUE,2,1.4999,460.0944,463.0788,0,100,100,3,1,7,30,NA,NA,NA,NA,NA,1,101,"binary"
"DDF654B04475461CAA83D9BFD3636F52",1,"01990aa1-82c1-78cc-a679-3895539e817f","01990a83-7673-7c0c-a792-bbd8fbbaf673","2025-09-02_08h33.50.181",NA,NA,466.4325,466.4326,466.4326,466.7822,NA,NA,NA,NA,NA,NA,NA,TRUE,1,1.5737,463.4296,466.4321,0,101,101,64,1,50,46,NA,NA,NA,NA,NA,1,102,"binary"
"DDF654B04475461CAA83D9BFD3636F52",1,"01990aa1-82c1-78cc-a679-3895539e817f","01990a83-7673-7c0c-a792-bbd8fbbaf673","2025-09-02_08h33.50.181",NA,NA,469.7857,469.7857,469.7857,470.1355,NA,NA,NA,NA,NA,NA,NA,TRUE,1,1.2692,466.7853,469.7852,0,102,102,105,1,200,39,NA,NA,NA,NA,NA,1,103,"binary"
"DDF654B04475461CAA83D9BFD3636F52",1,"01990aa1-82c1-78cc-a679-3895539e817f","01990a83-7673-7c0c-a792-bbd8fbbaf673","2025-09-02_08h33.50.181",NA,NA,473.1379,473.138,473.138,473.4882,NA,NA,NA,NA,NA,NA,NA,TRUE,1,1.136,470.1387,473.1379,0,103,103,107,1,200,54,NA,NA,NA,NA,NA,1,104,"binary"
"DDF654B04475461CAA83D9BFD3636F52",1,"01990aa1-82c1-78cc-a679-3895539e817f","01990a83-7673-7c0c-a792-bbd8fbbaf673","2025-09-02_08h33.50.181",NA,NA,476.4917,476.492,476.4921,476.8421,NA,NA,NA,NA,NA,NA,NA,TRUE,1,1.4684,473.4892,476.4915,0,104,104,70,1,60,47,NA,NA,NA,NA,NA,1,105,"binary"
"DDF654B04475461CAA83D9BFD3636F52",1,"01990aa1-82c1-78cc-a679-3895539e817f","01990a83-7673-7c0c-a792-bbd8fbbaf673","2025-09-02_08h33.50.181",NA,NA,479.8282,479.8283,479.8284,480.1784,NA,NA,NA,NA,NA,NA,NA,TRUE,1,1.2154,476.8454,479.8279,0,105,105,18,1,14,25,NA,NA,NA,NA,NA,1,106,"binary"
"DDF654B04475461CAA83D9BFD3636F52",1,"01990aa1-82c1-78cc-a679-3895539e817f","01990a83-7673-7c0c-a792-bbd8fbbaf673","2025-09-02_08h33.50.181",NA,NA,483.1818,483.182,483.182,483.5316,NA,NA,NA,NA,NA,NA,NA,TRUE,1,2.3538,480.1815,483.1814,0,106,106,76,1,90,46,NA,NA,NA,NA,NA,1,107,"binary"
"DDF654B04475461CAA83D9BFD3636F52",1,"01990aa1-82c1-78cc-a679-3895539e817f","01990a83-7673-7c0c-a792-bbd8fbbaf673","2025-09-02_08h33.50.181",NA,NA,486.5344,486.5344,486.5345,486.8845,NA,NA,NA,NA,NA,NA,NA,TRUE,2,2.5236,483.5347,486.5342,0,107,107,52,1,40,47,NA,NA,NA,NA,NA,1,108,"binary"
"DDF654B04475461CAA83D9BFD3636F52",1,"01990aa1-82c1-78cc-a679-3895539e817f","01990a83-7673-7c0c-a792-bbd8fbbaf673","2025-09-02_08h33.50.181",NA,NA,495.4262,495.4264,495.4264,495.7767,NA,NA,NA,NA,NA,NA,NA,TRUE,1,2.6274,492.4488,495.426,NA,NA,NA,NA,NA,30,29,0,0,0,44,1,2,1,"binary"
"DDF654B04475461CAA83D9BFD3636F52",1,"01990aa1-82c1-78cc-a679-3895539e817f","01990a83-7673-7c0c-a792-bbd8fbbaf673","2025-09-02_08h33.50.181",NA,NA,498.7631,498.7634,498.7635,499.1132,NA,NA,NA,NA,NA,NA,NA,TRUE,2,2.0173,495.7801,498.7628,NA,NA,NA,NA,NA,45,40,0,1,1,58,1,2,2,"binary"
"DDF654B04475461CAA83D9BFD3636F52",1,"01990aa1-82c1-78cc-a679-3895539e817f","01990a83-7673-7c0c-a792-bbd8fbbaf673","2025-09-02_08h33.50.181",NA,NA,502.1164,502.1166,502.1166,502.4664,NA,NA,NA,NA,NA,NA,NA,TRUE,1,2.2504,499.1164,502.1161,NA,NA,NA,NA,NA,40,35,0,2,2,50,1,2,3,"binary"
"DDF654B04475461CAA83D9BFD3636F52",1,"01990aa1-82c1-78cc-a679-3895539e817f","01990a83-7673-7c0c-a792-bbd8fbbaf673","2025-09-02_08h33.50.181",NA,NA,505.4698,505.47,505.4701,505.8193,NA,NA,NA,NA,NA,NA,NA,TRUE,1,1.7888,502.4697,505.4694,NA,NA,NA,NA,NA,90,30,0,3,3,73,1,2,4,"binary"
"DDF654B04475461CAA83D9BFD3636F52",1,"01990aa1-82c1-78cc-a679-3895539e817f","01990a83-7673-7c0c-a792-bbd8fbbaf673","2025-09-02_08h33.50.181",NA,NA,508.823,508.8232,508.8232,509.1728,NA,NA,NA,NA,NA,NA,NA,TRUE,2,1.4507,505.8221,508.8225,NA,NA,NA,NA,NA,7,32,0,4,4,4,1,2,5,"binary"
"DDF654B04475461CAA83D9BFD3636F52",1,"01990aa1-82c1-78cc-a679-3895539e817f","01990a83-7673-7c0c-a792-bbd8fbbaf673","2025-09-02_08h33.50.181",NA,NA,512.176,512.1763,512.1764,512.526,NA,NA,NA,NA,NA,NA,NA,TRUE,1,2.1136,509.1758,512.1757,NA,NA,NA,NA,NA,90,54,0,5,5,77,1,2,6,"binary"
"DDF654B04475461CAA83D9BFD3636F52",1,"01990aa1-82c1-78cc-a679-3895539e817f","01990a83-7673-7c0c-a792-bbd8fbbaf673","2025-09-02_08h33.50.181",NA,NA,515.5126,515.5128,515.5129,515.8624,NA,NA,NA,NA,NA,NA,NA,TRUE,1,1.1634,512.5291,515.5122,NA,NA,NA,NA,NA,100,46,0,6,6,88,1,2,7,"binary"
"DDF654B04475461CAA83D9BFD3636F52",1,"01990aa1-82c1-78cc-a679-3895539e817f","01990a83-7673-7c0c-a792-bbd8fbbaf673","2025-09-02_08h33.50.181",NA,NA,518.8657,518.8659,518.8659,519.2157,NA,NA,NA,NA,NA,NA,NA,TRUE,1,1.3266,515.8656,518.8654,NA,NA,NA,NA,NA,14,28,0,7,7,20,1,2,8,"binary"
"DDF654B04475461CAA83D9BFD3636F52",1,"01990aa1-82c1-78cc-a679-3895539e817f","01990a83-7673-7c0c-a792-bbd8fbbaf673","2025-09-02_08h33.50.181",NA,NA,522.219,522.2192,522.2192,522.5689,NA,NA,NA,NA,NA,NA,NA,TRUE,1,1.1851,519.219,522.2186,NA,NA,NA,NA,NA,180,35,0,8,8,98,1,2,9,"binary"
"DDF654B04475461CAA83D9BFD3636F52",1,"01990aa1-82c1-78cc-a679-3895539e817f","01990a83-7673-7c0c-a792-bbd8fbbaf673","2025-09-02_08h33.50.181",NA,NA,525.5722,525.5723,525.5724,525.922,NA,NA,NA,NA,NA,NA,NA,TRUE,1,1.6674,522.5721,525.5719,NA,NA,NA,NA,NA,40,33,0,9,9,49,1,2,10,"binary"
"DDF654B04475461CAA83D9BFD3636F52",1,"01990aa1-82c1-78cc-a679-3895539e817f","01990a83-7673-7c0c-a792-bbd8fbbaf673","2025-09-02_08h33.50.181",NA,NA,528.9255,528.9258,528.9258,529.2753,NA,NA,NA,NA,NA,NA,NA,TRUE,1,1.1156,525.9254,528.925,NA,NA,NA,NA,NA,30,30,0,10,10,45,1,2,11,"binary"
"DDF654B04475461CAA83D9BFD3636F52",1,"01990aa1-82c1-78cc-a679-3895539e817f","01990a83-7673-7c0c-a792-bbd8fbbaf673","2025-09-02_08h33.50.181",NA,NA,532.2619,532.262,532.2621,532.6115,NA,NA,NA,NA,NA,NA,NA,TRUE,1,1.2507,529.2789,532.2616,NA,NA,NA,NA,NA,50,46,0,11,11,64,1,2,12,"binary"
"DDF654B04475461CAA83D9BFD3636F52",1,"01990aa1-82c1-78cc-a679-3895539e817f","01990a83-7673-7c0c-a792-bbd8fbbaf673","2025-09-02_08h33.50.181",NA,NA,535.615,535.6151,535.6152,535.9651,NA,NA,NA,NA,NA,NA,NA,TRUE,1,1.1174,532.6133,535.6147,NA,NA,NA,NA,NA,40,47,0,12,12,52,1,2,13,"binary"
"DDF654B04475461CAA83D9BFD3636F52",1,"01990aa1-82c1-78cc-a679-3895539e817f","01990a83-7673-7c0c-a792-bbd8fbbaf673","2025-09-02_08h33.50.181",NA,NA,538.9683,538.9684,538.9685,539.3183,NA,NA,NA,NA,NA,NA,NA,TRUE,1,1.586,535.9681,538.968,NA,NA,NA,NA,NA,45,29,0,13,13,55,1,2,14,"binary"
"DDF654B04475461CAA83D9BFD3636F52",1,"01990aa1-82c1-78cc-a679-3895539e817f","01990a83-7673-7c0c-a792-bbd8fbbaf673","2025-09-02_08h33.50.181",NA,NA,542.3217,542.3217,542.3218,542.6714,NA,NA,NA,NA,NA,NA,NA,TRUE,1,1.5195,539.3215,542.3214,NA,NA,NA,NA,NA,200,35,0,14,14,104,1,2,15,"binary"
"DDF654B04475461CAA83D9BFD3636F52",1,"01990aa1-82c1-78cc-a679-3895539e817f","01990a83-7673-7c0c-a792-bbd8fbbaf673","2025-09-02_08h33.50.181",NA,NA,545.6747,545.6751,545.6751,546.0247,NA,NA,NA,NA,NA,NA,NA,TRUE,2,2.2623,542.6746,545.6746,NA,NA,NA,NA,NA,40,40,0,15,15,51,1,2,16,"binary"
"DDF654B04475461CAA83D9BFD3636F52",1,"01990aa1-82c1-78cc-a679-3895539e817f","01990a83-7673-7c0c-a792-bbd8fbbaf673","2025-09-02_08h33.50.181",NA,NA,549.0281,549.0285,549.0285,549.3779,NA,NA,NA,NA,NA,NA,NA,TRUE,2,1.2619,546.028,549.0279,NA,NA,NA,NA,NA,10,32,0,16,16,11,1,2,17,"binary"
"DDF654B04475461CAA83D9BFD3636F52",1,"01990aa1-82c1-78cc-a679-3895539e817f","01990a83-7673-7c0c-a792-bbd8fbbaf673","2025-09-02_08h33.50.181",NA,NA,552.3637,552.3638,552.3638,552.7144,NA,NA,NA,NA,NA,NA,NA,TRUE,1,0.966,549.381,552.3636,NA,NA,NA,NA,NA,45,31,0,17,17,56,1,2,18,"binary"
"DDF654B04475461CAA83D9BFD3636F52",1,"01990aa1-82c1-78cc-a679-3895539e817f","01990a83-7673-7c0c-a792-bbd8fbbaf673","2025-09-02_08h33.50.181",NA,NA,555.7176,555.7178,555.7178,556.0677,NA,NA,NA,NA,NA,NA,NA,TRUE,1,0.9857,552.7174,555.7173,NA,NA,NA,NA,NA,95,47,0,18,18,82,1,2,19,"binary"
"DDF654B04475461CAA83D9BFD3636F52",1,"01990aa1-82c1-78cc-a679-3895539e817f","01990a83-7673-7c0c-a792-bbd8fbbaf673","2025-09-02_08h33.50.181",NA,NA,559.0707,559.0707,559.0711,559.4208,NA,NA,NA,NA,NA,NA,NA,TRUE,1,0.8856,556.0708,559.0703,NA,NA,NA,NA,NA,14,26,0,19,19,19,1,2,20,"binary"
"DDF654B04475461CAA83D9BFD3636F52",1,"01990aa1-82c1-78cc-a679-3895539e817f","01990a83-7673-7c0c-a792-bbd8fbbaf673","2025-09-02_08h33.50.181",NA,NA,562.424,562.4243,562.4244,562.774,NA,NA,NA,NA,NA,NA,NA,TRUE,1,0.9133,559.4241,562.4237,NA,NA,NA,NA,NA,7,26,0,20,20,1,1,2,21,"binary"
"DDF654B04475461CAA83D9BFD3636F52",1,"01990aa1-82c1-78cc-a679-3895539e817f","01990a83-7673-7c0c-a792-bbd8fbbaf673","2025-09-02_08h33.50.181",NA,NA,565.7769,565.7771,565.7772,566.1272,NA,NA,NA,NA,NA,NA,NA,TRUE,2,1.2665,562.7772,565.7767,NA,NA,NA,NA,NA,14,32,0,21,21,21,1,2,22,"binary"
"DDF654B04475461CAA83D9BFD3636F52",1,"01990aa1-82c1-78cc-a679-3895539e817f","01990a83-7673-7c0c-a792-bbd8fbbaf673","2025-09-02_08h33.50.181",NA,NA,569.1138,569.1139,569.114,569.4637,NA,NA,NA,NA,NA,NA,NA,TRUE,1,1.113,566.1305,569.1135,NA,NA,NA,NA,NA,50,27,0,22,22,60,1,2,23,"binary"
"DDF654B04475461CAA83D9BFD3636F52",1,"01990aa1-82c1-78cc-a679-3895539e817f","01990a83-7673-7c0c-a792-bbd8fbbaf673","2025-09-02_08h33.50.181",NA,NA,572.4669,572.4671,572.4672,572.8169,NA,NA,NA,NA,NA,NA,NA,TRUE,2,0.8195,569.4671,572.4667,NA,NA,NA,NA,NA,25,46,0,23,23,35,1,2,24,"binary"
"DDF654B04475461CAA83D9BFD3636F52",1,"01990aa1-82c1-78cc-a679-3895539e817f","01990a83-7673-7c0c-a792-bbd8fbbaf673","2025-09-02_08h33.50.181",NA,NA,575.8203,575.8204,575.8204,576.1701,NA,NA,NA,NA,NA,NA,NA,TRUE,1,1.1855,572.82,575.8198,NA,NA,NA,NA,NA,12,28,0,24,24,14,1,2,25,"binary"
"DDF654B04475461CAA83D9BFD3636F52",1,"01990aa1-82c1-78cc-a679-3895539e817f","01990a83-7673-7c0c-a792-bbd8fbbaf673","2025-09-02_08h33.50.181",NA,NA,579.1729,579.173,579.173,579.5234,NA,NA,NA,NA,NA,NA,NA,TRUE,1,0.9505,576.1733,579.1727,NA,NA,NA,NA,NA,60,29,0,25,25,66,1,2,26,"binary"
"DDF654B04475461CAA83D9BFD3636F52",1,"01990aa1-82c1-78cc-a679-3895539e817f","01990a83-7673-7c0c-a792-bbd8fbbaf673","2025-09-02_08h33.50.181",NA,NA,582.5266,582.5268,582.5269,582.8767,NA,NA,NA,NA,NA,NA,NA,TRUE,1,0.8957,579.5268,582.5263,NA,NA,NA,NA,NA,150,31,0,26,26,90,1,2,27,"binary"
"DDF654B04475461CAA83D9BFD3636F52",1,"01990aa1-82c1-78cc-a679-3895539e817f","01990a83-7673-7c0c-a792-bbd8fbbaf673","2025-09-02_08h33.50.181",NA,NA,585.8631,585.8632,585.8632,586.2131,NA,NA,NA,NA,NA,NA,NA,TRUE,2,1.3467,582.88,585.8628,NA,NA,NA,NA,NA,30,38,0,27,27,47,1,2,28,"binary"
"DDF654B04475461CAA83D9BFD3636F52",1,"01990aa1-82c1-78cc-a679-3895539e817f","01990a83-7673-7c0c-a792-bbd8fbbaf673","2025-09-02_08h33.50.181",NA,NA,589.2165,589.2168,589.2168,589.5663,NA,NA,NA,NA,NA,NA,NA,TRUE,1,0.79,586.2163,589.2163,NA,NA,NA,NA,NA,180,46,0,28,28,100,1,2,29,"binary"
"DDF654B04475461CAA83D9BFD3636F52",1,"01990aa1-82c1-78cc-a679-3895539e817f","01990a83-7673-7c0c-a792-bbd8fbbaf673","2025-09-02_08h33.50.181",NA,NA,592.569,592.569,592.569,592.919,NA,NA,NA,NA,NA,NA,NA,TRUE,1,1.1553,589.5693,592.5689,NA,NA,NA,NA,NA,150,35,0,29,29,92,1,2,30,"binary"
"DDF654B04475461CAA83D9BFD3636F52",1,"01990aa1-82c1-78cc-a679-3895539e817f","01990a83-7673-7c0c-a792-bbd8fbbaf673","2025-09-02_08h33.50.181",NA,NA,595.923,595.9231,595.9231,596.2727,NA,NA,NA,NA,NA,NA,NA,TRUE,1,1.5182,592.9202,595.9224,NA,NA,NA,NA,NA,30,27,0,30,30,43,1,2,31,"binary"
"DDF654B04475461CAA83D9BFD3636F52",1,"01990aa1-82c1-78cc-a679-3895539e817f","01990a83-7673-7c0c-a792-bbd8fbbaf673","2025-09-02_08h33.50.181",NA,NA,599.2759,599.2762,599.2762,599.626,NA,NA,NA,NA,NA,NA,NA,TRUE,2,1.9331,596.276,599.2756,NA,NA,NA,NA,NA,7,30,0,31,31,3,1,2,32,"binary"
"DDF654B04475461CAA83D9BFD3636F52",1,"01990aa1-82c1-78cc-a679-3895539e817f","01990a83-7673-7c0c-a792-bbd8fbbaf673","2025-09-02_08h33.50.181",NA,NA,602.6124,602.6128,602.6129,602.9621,NA,NA,NA,NA,NA,NA,NA,TRUE,1,1.0166,599.6291,602.6122,NA,NA,NA,NA,NA,95,31,0,32,32,78,1,2,33,"binary"
"DDF654B04475461CAA83D9BFD3636F52",1,"01990aa1-82c1-78cc-a679-3895539e817f","01990a83-7673-7c0c-a792-bbd8fbbaf673","2025-09-02_08h33.50.181",NA,NA,605.9652,605.9653,605.9653,606.3157,NA,NA,NA,NA,NA,NA,NA,TRUE,1,0.8831,602.9643,605.965,NA,NA,NA,NA,NA,200,28,0,33,33,103,1,2,34,"binary"
"DDF654B04475461CAA83D9BFD3636F52",1,"01990aa1-82c1-78cc-a679-3895539e817f","01990a83-7673-7c0c-a792-bbd8fbbaf673","2025-09-02_08h33.50.181",NA,NA,609.3191,609.3191,609.3191,609.669,NA,NA,NA,NA,NA,NA,NA,TRUE,1,1.5019,606.3189,609.3187,NA,NA,NA,NA,NA,90,33,0,34,34,74,1,2,35,"binary"
"DDF654B04475461CAA83D9BFD3636F52",1,"01990aa1-82c1-78cc-a679-3895539e817f","01990a83-7673-7c0c-a792-bbd8fbbaf673","2025-09-02_08h33.50.181",NA,NA,612.6723,612.6725,612.6726,613.0215,NA,NA,NA,NA,NA,NA,NA,TRUE,1,1.5526,609.6722,612.6721,NA,NA,NA,NA,NA,12,25,0,35,35,12,1,2,36,"binary"
"DDF654B04475461CAA83D9BFD3636F52",1,"01990aa1-82c1-78cc-a679-3895539e817f","01990a83-7673-7c0c-a792-bbd8fbbaf673","2025-09-02_08h33.50.181",NA,NA,616.0247,616.0249,616.0249,616.3754,NA,NA,NA,NA,NA,NA,NA,TRUE,1,1.3211,613.0228,616.0246,NA,NA,NA,NA,NA,21,30,0,36,36,27,1,2,37,"binary"
"DDF654B04475461CAA83D9BFD3636F52",1,"01990aa1-82c1-78cc-a679-3895539e817f","01990a83-7673-7c0c-a792-bbd8fbbaf673","2025-09-02_08h33.50.181",NA,NA,619.378,619.3781,619.3781,619.7118,NA,NA,NA,NA,NA,NA,NA,TRUE,1,1.2634,616.3784,619.3778,NA,NA,NA,NA,NA,200,47,0,37,37,106,1,2,38,"binary"
"DDF654B04475461CAA83D9BFD3636F52",1,"01990aa1-82c1-78cc-a679-3895539e817f","01990a83-7673-7c0c-a792-bbd8fbbaf673","2025-09-02_08h33.50.181",NA,NA,622.715,622.7151,622.7151,623.065,NA,NA,NA,NA,NA,NA,NA,TRUE,2,1.7888,619.7149,622.7147,NA,NA,NA,NA,NA,10,29,0,38,38,9,1,2,39,"binary"
"DDF654B04475461CAA83D9BFD3636F52",1,"01990aa1-82c1-78cc-a679-3895539e817f","01990a83-7673-7c0c-a792-bbd8fbbaf673","2025-09-02_08h33.50.181",NA,NA,626.0678,626.0679,626.0679,626.4183,NA,NA,NA,NA,NA,NA,NA,TRUE,1,1.8197,623.0681,626.0677,NA,NA,NA,NA,NA,12,26,0,39,39,13,1,2,40,"binary"
"DDF654B04475461CAA83D9BFD3636F52",1,"01990aa1-82c1-78cc-a679-3895539e817f","01990a83-7673-7c0c-a792-bbd8fbbaf673","2025-09-02_08h33.50.181",NA,NA,629.4217,629.4218,629.4218,629.7711,NA,NA,NA,NA,NA,NA,NA,TRUE,1,1.1354,626.4216,629.4212,NA,NA,NA,NA,NA,200,39,0,40,40,105,1,2,41,"binary"
"DDF654B04475461CAA83D9BFD3636F52",1,"01990aa1-82c1-78cc-a679-3895539e817f","01990a83-7673-7c0c-a792-bbd8fbbaf673","2025-09-02_08h33.50.181",NA,NA,632.7746,632.7748,632.7749,633.1246,NA,NA,NA,NA,NA,NA,NA,TRUE,1,1.3206,629.7732,632.7743,NA,NA,NA,NA,NA,50,35,0,41,41,62,1,2,42,"binary"
"DDF654B04475461CAA83D9BFD3636F52",1,"01990aa1-82c1-78cc-a679-3895539e817f","01990a83-7673-7c0c-a792-bbd8fbbaf673","2025-09-02_08h33.50.181",NA,NA,636.127,636.1271,636.1271,636.4778,NA,NA,NA,NA,NA,NA,NA,TRUE,1,0.8969,633.1278,636.127,NA,NA,NA,NA,NA,150,33,0,42,42,91,1,2,43,"binary"
"DDF654B04475461CAA83D9BFD3636F52",1,"01990aa1-82c1-78cc-a679-3895539e817f","01990a83-7673-7c0c-a792-bbd8fbbaf673","2025-09-02_08h33.50.181",NA,NA,639.4643,639.4644,639.4645,639.8142,NA,NA,NA,NA,NA,NA,NA,TRUE,1,1.3972,636.4808,639.464,NA,NA,NA,NA,NA,21,29,0,43,43,26,1,2,44,"binary"
"DDF654B04475461CAA83D9BFD3636F52",1,"01990aa1-82c1-78cc-a679-3895539e817f","01990a83-7673-7c0c-a792-bbd8fbbaf673","2025-09-02_08h33.50.181",NA,NA,642.8175,642.8177,642.8177,643.1676,NA,NA,NA,NA,NA,NA,NA,TRUE,2,1.3837,639.8174,642.8173,NA,NA,NA,NA,NA,10,30,0,44,44,10,1,2,45,"binary"
"DDF654B04475461CAA83D9BFD3636F52",1,"01990aa1-82c1-78cc-a679-3895539e817f","01990a83-7673-7c0c-a792-bbd8fbbaf673","2025-09-02_08h33.50.181",NA,NA,646.1705,646.1707,646.1707,646.5203,NA,NA,NA,NA,NA,NA,NA,TRUE,1,1.5142,643.1706,646.1702,NA,NA,NA,NA,NA,25,29,0,45,45,31,1,2,46,"binary"
"DDF654B04475461CAA83D9BFD3636F52",1,"01990aa1-82c1-78cc-a679-3895539e817f","01990a83-7673-7c0c-a792-bbd8fbbaf673","2025-09-02_08h33.50.181",NA,NA,649.5243,649.5247,649.5247,649.8738,NA,NA,NA,NA,NA,NA,NA,TRUE,2,1.3866,646.5213,649.5241,NA,NA,NA,NA,NA,25,35,0,46,46,34,1,2,47,"binary"
"DDF654B04475461CAA83D9BFD3636F52",1,"01990aa1-82c1-78cc-a679-3895539e817f","01990a83-7673-7c0c-a792-bbd8fbbaf673","2025-09-02_08h33.50.181",NA,NA,652.8764,652.8766,652.8766,653.2266,NA,NA,NA,NA,NA,NA,NA,TRUE,1,1.7804,649.8769,652.8764,NA,NA,NA,NA,NA,21,27,0,47,47,25,1,2,48,"binary"
"DDF654B04475461CAA83D9BFD3636F52",1,"01990aa1-82c1-78cc-a679-3895539e817f","01990a83-7673-7c0c-a792-bbd8fbbaf673","2025-09-02_08h33.50.181",NA,NA,656.2137,656.2138,656.2138,656.5634,NA,NA,NA,NA,NA,NA,NA,TRUE,2,1.7699,653.2278,656.2134,NA,NA,NA,NA,NA,28,35,0,48,48,39,1,2,49,"binary"
"DDF654B04475461CAA83D9BFD3636F52",1,"01990aa1-82c1-78cc-a679-3895539e817f","01990a83-7673-7c0c-a792-bbd8fbbaf673","2025-09-02_08h33.50.181",NA,NA,659.5669,659.5671,659.5672,659.9166,NA,NA,NA,NA,NA,NA,NA,TRUE,1,1.4202,656.5655,659.5666,NA,NA,NA,NA,NA,21,26,0,49,49,24,1,2,50,"binary"
"DDF654B04475461CAA83D9BFD3636F52",1,"01990aa1-82c1-78cc-a679-3895539e817f","01990a83-7673-7c0c-a792-bbd8fbbaf673","2025-09-02_08h33.50.181",NA,NA,662.9198,662.9199,662.92,663.2701,NA,NA,NA,NA,NA,NA,NA,TRUE,2,1.056,659.9189,662.9194,NA,NA,NA,NA,NA,21,32,0,50,50,28,1,2,51,"binary"
"DDF654B04475461CAA83D9BFD3636F52",1,"01990aa1-82c1-78cc-a679-3895539e817f","01990a83-7673-7c0c-a792-bbd8fbbaf673","2025-09-02_08h33.50.181",NA,NA,666.2733,666.2735,666.2736,666.6227,NA,NA,NA,NA,NA,NA,NA,TRUE,1,1.5192,663.2731,666.273,NA,NA,NA,NA,NA,14,25,0,51,51,18,1,2,52,"binary"
"DDF654B04475461CAA83D9BFD3636F52",1,"01990aa1-82c1-78cc-a679-3895539e817f","01990a83-7673-7c0c-a792-bbd8fbbaf673","2025-09-02_08h33.50.181",NA,NA,669.6267,669.6269,669.6269,669.9766,NA,NA,NA,NA,NA,NA,NA,TRUE,1,1.9715,666.6238,669.6263,NA,NA,NA,NA,NA,60,47,0,52,52,70,1,2,53,"binary"
"DDF654B04475461CAA83D9BFD3636F52",1,"01990aa1-82c1-78cc-a679-3895539e817f","01990a83-7673-7c0c-a792-bbd8fbbaf673","2025-09-02_08h33.50.181",NA,NA,672.9629,672.9629,672.963,673.313,NA,NA,NA,NA,NA,NA,NA,TRUE,1,1.2965,669.9797,672.9628,NA,NA,NA,NA,NA,50,54,0,53,53,65,1,2,54,"binary"
"DDF654B04475461CAA83D9BFD3636F52",1,"01990aa1-82c1-78cc-a679-3895539e817f","01990a83-7673-7c0c-a792-bbd8fbbaf673","2025-09-02_08h33.50.181",NA,NA,676.3161,676.3163,676.3164,676.6662,NA,NA,NA,NA,NA,NA,NA,TRUE,2,1.4707,673.3162,676.316,NA,NA,NA,NA,NA,25,33,0,54,54,33,1,2,55,"binary"
"DDF654B04475461CAA83D9BFD3636F52",1,"01990aa1-82c1-78cc-a679-3895539e817f","01990a83-7673-7c0c-a792-bbd8fbbaf673","2025-09-02_08h33.50.181",NA,NA,679.6696,679.6697,679.6698,680.0197,NA,NA,NA,NA,NA,NA,NA,TRUE,1,1.5041,676.6686,679.6694,NA,NA,NA,NA,NA,150,54,0,55,55,95,1,2,56,"binary"
"DDF654B04475461CAA83D9BFD3636F52",1,"01990aa1-82c1-78cc-a679-3895539e817f","01990a83-7673-7c0c-a792-bbd8fbbaf673","2025-09-02_08h33.50.181",NA,NA,683.0226,683.0226,683.0227,683.3726,NA,NA,NA,NA,NA,NA,NA,TRUE,1,0.802,680.0234,683.0223,NA,NA,NA,NA,NA,95,54,0,56,56,83,1,2,57,"binary"
"DDF654B04475461CAA83D9BFD3636F52",1,"01990aa1-82c1-78cc-a679-3895539e817f","01990a83-7673-7c0c-a792-bbd8fbbaf673","2025-09-02_08h33.50.181",NA,NA,686.376,686.3765,686.3765,686.7259,NA,NA,NA,NA,NA,NA,NA,TRUE,1,1.1133,683.376,686.3756,NA,NA,NA,NA,NA,90,46,0,57,57,76,1,2,58,"binary"
"DDF654B04475461CAA83D9BFD3636F52",1,"01990aa1-82c1-78cc-a679-3895539e817f","01990a83-7673-7c0c-a792-bbd8fbbaf673","2025-09-02_08h33.50.181",NA,NA,689.7122,689.7124,689.7124,690.0623,NA,NA,NA,NA,NA,NA,NA,TRUE,2,1.4974,686.729,689.7119,NA,NA,NA,NA,NA,12,35,0,58,58,17,1,2,59,"binary"
"DDF654B04475461CAA83D9BFD3636F52",1,"01990aa1-82c1-78cc-a679-3895539e817f","01990a83-7673-7c0c-a792-bbd8fbbaf673","2025-09-02_08h33.50.181",NA,NA,693.0656,693.0659,693.066,693.4156,NA,NA,NA,NA,NA,NA,NA,TRUE,1,1.033,690.0654,693.0653,NA,NA,NA,NA,NA,95,40,0,59,59,81,1,2,60,"binary"
"DDF654B04475461CAA83D9BFD3636F52",1,"01990aa1-82c1-78cc-a679-3895539e817f","01990a83-7673-7c0c-a792-bbd8fbbaf673","2025-09-02_08h33.50.181",NA,NA,696.4189,696.419,696.4191,696.7688,NA,NA,NA,NA,NA,NA,NA,TRUE,1,1.1549,693.419,696.4185,NA,NA,NA,NA,NA,50,30,0,60,60,61,1,2,61,"binary"
"DDF654B04475461CAA83D9BFD3636F52",1,"01990aa1-82c1-78cc-a679-3895539e817f","01990a83-7673-7c0c-a792-bbd8fbbaf673","2025-09-02_08h33.50.181",NA,NA,699.7715,699.7715,699.7715,700.122,NA,NA,NA,NA,NA,NA,NA,TRUE,1,1.2368,696.7719,699.7713,NA,NA,NA,NA,NA,7,28,0,61,61,2,1,2,62,"binary"
"DDF654B04475461CAA83D9BFD3636F52",1,"01990aa1-82c1-78cc-a679-3895539e817f","01990a83-7673-7c0c-a792-bbd8fbbaf673","2025-09-02_08h33.50.181",NA,NA,703.1252,703.1255,703.1256,703.4752,NA,NA,NA,NA,NA,NA,NA,TRUE,2,2.0473,700.1255,703.1249,NA,NA,NA,NA,NA,25,31,0,62,62,32,1,2,63,"binary"
"DDF654B04475461CAA83D9BFD3636F52",1,"01990aa1-82c1-78cc-a679-3895539e817f","01990a83-7673-7c0c-a792-bbd8fbbaf673","2025-09-02_08h33.50.181",NA,NA,706.4783,706.4785,706.4786,706.8282,NA,NA,NA,NA,NA,NA,NA,TRUE,1,1.3836,703.4782,706.478,NA,NA,NA,NA,NA,10,25,0,63,63,6,1,2,64,"binary"
"DDF654B04475461CAA83D9BFD3636F52",1,"01990aa1-82c1-78cc-a679-3895539e817f","01990a83-7673-7c0c-a792-bbd8fbbaf673","2025-09-02_08h33.50.181",NA,NA,709.8149,709.8151,709.8152,710.165,NA,NA,NA,NA,NA,NA,NA,TRUE,1,1.0162,706.8305,709.8146,NA,NA,NA,NA,NA,7,25,0,64,64,0,1,2,65,"binary"
"DDF654B04475461CAA83D9BFD3636F52",1,"01990aa1-82c1-78cc-a679-3895539e817f","01990a83-7673-7c0c-a792-bbd8fbbaf673","2025-09-02_08h33.50.181",NA,NA,713.1674,713.1674,713.1674,713.5181,NA,NA,NA,NA,NA,NA,NA,TRUE,1,1.055,710.1681,713.1673,NA,NA,NA,NA,NA,150,47,0,65,65,94,1,2,66,"binary"
"DDF654B04475461CAA83D9BFD3636F52",1,"01990aa1-82c1-78cc-a679-3895539e817f","01990a83-7673-7c0c-a792-bbd8fbbaf673","2025-09-02_08h33.50.181",NA,NA,716.5213,716.5214,716.5214,716.8713,NA,NA,NA,NA,NA,NA,NA,TRUE,1,1.4056,713.5212,716.5211,NA,NA,NA,NA,NA,60,35,0,66,66,68,1,2,67,"binary"
"DDF654B04475461CAA83D9BFD3636F52",1,"01990aa1-82c1-78cc-a679-3895539e817f","01990a83-7673-7c0c-a792-bbd8fbbaf673","2025-09-02_08h33.50.181",NA,NA,719.8746,719.875,719.8751,720.2245,NA,NA,NA,NA,NA,NA,NA,TRUE,1,1.8502,716.8745,719.8743,NA,NA,NA,NA,NA,28,39,0,67,67,40,1,2,68,"binary"
"DDF654B04475461CAA83D9BFD3636F52",1,"01990aa1-82c1-78cc-a679-3895539e817f","01990a83-7673-7c0c-a792-bbd8fbbaf673","2025-09-02_08h33.50.181",NA,NA,723.2278,723.2281,723.2281,723.5778,NA,NA,NA,NA,NA,NA,NA,TRUE,1,1.0463,720.2275,723.2275,NA,NA,NA,NA,NA,100,54,0,68,68,89,1,2,69,"binary"
"DDF654B04475461CAA83D9BFD3636F52",1,"01990aa1-82c1-78cc-a679-3895539e817f","01990a83-7673-7c0c-a792-bbd8fbbaf673","2025-09-02_08h33.50.181",NA,NA,726.5638,726.5639,726.5639,726.9142,NA,NA,NA,NA,NA,NA,NA,TRUE,1,1.1297,723.5809,726.5636,NA,NA,NA,NA,NA,30,26,0,69,69,42,1,2,70,"binary"
"DDF654B04475461CAA83D9BFD3636F52",1,"01990aa1-82c1-78cc-a679-3895539e817f","01990a83-7673-7c0c-a792-bbd8fbbaf673","2025-09-02_08h33.50.181",NA,NA,729.9171,729.9171,729.9171,730.2671,NA,NA,NA,NA,NA,NA,NA,TRUE,1,1.0738,726.9163,729.9169,NA,NA,NA,NA,NA,95,33,0,70,70,79,1,2,71,"binary"
"DDF654B04475461CAA83D9BFD3636F52",1,"01990aa1-82c1-78cc-a679-3895539e817f","01990a83-7673-7c0c-a792-bbd8fbbaf673","2025-09-02_08h33.50.181",NA,NA,733.2706,733.2707,733.2707,733.6207,NA,NA,NA,NA,NA,NA,NA,TRUE,1,1.4881,730.2686,733.2703,NA,NA,NA,NA,NA,60,54,0,71,71,71,1,2,72,"binary"
"DDF654B04475461CAA83D9BFD3636F52",1,"01990aa1-82c1-78cc-a679-3895539e817f","01990a83-7673-7c0c-a792-bbd8fbbaf673","2025-09-02_08h33.50.181",NA,NA,736.6238,736.624,736.624,736.9738,NA,NA,NA,NA,NA,NA,NA,TRUE,1,1.0857,733.6238,736.6236,NA,NA,NA,NA,NA,100,39,0,72,72,87,1,2,73,"binary"
"DDF654B04475461CAA83D9BFD3636F52",1,"01990aa1-82c1-78cc-a679-3895539e817f","01990a83-7673-7c0c-a792-bbd8fbbaf673","2025-09-02_08h33.50.181",NA,NA,739.9771,739.9773,739.9774,740.3268,NA,NA,NA,NA,NA,NA,NA,TRUE,1,1.4802,736.977,739.9768,NA,NA,NA,NA,NA,180,54,0,73,73,101,1,2,74,"binary"
"DDF654B04475461CAA83D9BFD3636F52",1,"01990aa1-82c1-78cc-a679-3895539e817f","01990a83-7673-7c0c-a792-bbd8fbbaf673","2025-09-02_08h33.50.181",NA,NA,743.314,743.3141,743.3141,743.6636,NA,NA,NA,NA,NA,NA,NA,TRUE,1,1.0843,740.3286,743.3133,NA,NA,NA,NA,NA,90,26,0,74,74,72,1,2,75,"binary"
"DDF654B04475461CAA83D9BFD3636F52",1,"01990aa1-82c1-78cc-a679-3895539e817f","01990a83-7673-7c0c-a792-bbd8fbbaf673","2025-09-02_08h33.50.181",NA,NA,746.667,746.6672,746.6673,747.0167,NA,NA,NA,NA,NA,NA,NA,TRUE,1,0.9987,743.6667,746.6666,NA,NA,NA,NA,NA,40,54,0,75,75,53,1,2,76,"binary"
"DDF654B04475461CAA83D9BFD3636F52",1,"01990aa1-82c1-78cc-a679-3895539e817f","01990a83-7673-7c0c-a792-bbd8fbbaf673","2025-09-02_08h33.50.181",NA,NA,750.0199,750.0201,750.0201,750.37,NA,NA,NA,NA,NA,NA,NA,TRUE,1,1.0742,747.0199,750.0197,NA,NA,NA,NA,NA,28,46,0,76,76,41,1,2,77,"binary"
"DDF654B04475461CAA83D9BFD3636F52",1,"01990aa1-82c1-78cc-a679-3895539e817f","01990a83-7673-7c0c-a792-bbd8fbbaf673","2025-09-02_08h33.50.181",NA,NA,753.373,753.373,753.3732,753.7232,NA,NA,NA,NA,NA,NA,NA,TRUE,1,0.7692,750.373,753.3728,NA,NA,NA,NA,NA,100,26,0,77,77,84,1,2,78,"binary"
"DDF654B04475461CAA83D9BFD3636F52",1,"01990aa1-82c1-78cc-a679-3895539e817f","01990a83-7673-7c0c-a792-bbd8fbbaf673","2025-09-02_08h33.50.181",NA,NA,756.7264,756.7266,756.7267,757.0766,NA,NA,NA,NA,NA,NA,NA,TRUE,1,0.7655,753.7265,756.7261,NA,NA,NA,NA,NA,180,27,0,78,78,96,1,2,79,"binary"
"DDF654B04475461CAA83D9BFD3636F52",1,"01990aa1-82c1-78cc-a679-3895539e817f","01990a83-7673-7c0c-a792-bbd8fbbaf673","2025-09-02_08h33.50.181",NA,NA,760.0629,760.0631,760.0631,760.413,NA,NA,NA,NA,NA,NA,NA,TRUE,1,1.681,757.0797,760.0627,NA,NA,NA,NA,NA,28,32,0,79,79,38,1,2,80,"binary"
"DDF654B04475461CAA83D9BFD3636F52",1,"01990aa1-82c1-78cc-a679-3895539e817f","01990a83-7673-7c0c-a792-bbd8fbbaf673","2025-09-02_08h33.50.181",NA,NA,763.4161,763.4163,763.4164,763.7662,NA,NA,NA,NA,NA,NA,NA,TRUE,1,1.0534,760.4159,763.4159,NA,NA,NA,NA,NA,180,31,0,80,80,97,1,2,81,"binary"
"DDF654B04475461CAA83D9BFD3636F52",1,"01990aa1-82c1-78cc-a679-3895539e817f","01990a83-7673-7c0c-a792-bbd8fbbaf673","2025-09-02_08h33.50.181",NA,NA,766.7694,766.7696,766.7696,767.1194,NA,NA,NA,NA,NA,NA,NA,TRUE,1,0.7355,763.7692,766.7691,NA,NA,NA,NA,NA,180,39,0,81,81,99,1,2,82,"binary"
"DDF654B04475461CAA83D9BFD3636F52",1,"01990aa1-82c1-78cc-a679-3895539e817f","01990a83-7673-7c0c-a792-bbd8fbbaf673","2025-09-02_08h33.50.181",NA,NA,770.1224,770.1225,770.1225,770.4726,NA,NA,NA,NA,NA,NA,NA,TRUE,1,1.0996,767.1225,770.1223,NA,NA,NA,NA,NA,45,26,0,82,82,54,1,2,83,"binary"
"DDF654B04475461CAA83D9BFD3636F52",1,"01990aa1-82c1-78cc-a679-3895539e817f","01990a83-7673-7c0c-a792-bbd8fbbaf673","2025-09-02_08h33.50.181",NA,NA,773.4757,773.476,773.476,773.8259,NA,NA,NA,NA,NA,NA,NA,TRUE,2,1.128,770.4756,773.4755,NA,NA,NA,NA,NA,14,39,0,83,83,23,1,2,84,"binary"
"DDF654B04475461CAA83D9BFD3636F52",1,"01990aa1-82c1-78cc-a679-3895539e817f","01990a83-7673-7c0c-a792-bbd8fbbaf673","2025-09-02_08h33.50.181",NA,NA,776.8123,776.8125,776.8125,777.1623,NA,NA,NA,NA,NA,NA,NA,TRUE,2,1.7313,773.829,776.812,NA,NA,NA,NA,NA,12,31,0,84,84,15,1,2,85,"binary"
"DDF654B04475461CAA83D9BFD3636F52",1,"01990aa1-82c1-78cc-a679-3895539e817f","01990a83-7673-7c0c-a792-bbd8fbbaf673","2025-09-02_08h33.50.181",NA,NA,780.1655,780.1656,780.1657,780.5155,NA,NA,NA,NA,NA,NA,NA,TRUE,1,1.5199,777.1655,780.1653,NA,NA,NA,NA,NA,60,40,0,85,85,69,1,2,86,"binary"
"DDF654B04475461CAA83D9BFD3636F52",1,"01990aa1-82c1-78cc-a679-3895539e817f","01990a83-7673-7c0c-a792-bbd8fbbaf673","2025-09-02_08h33.50.181",NA,NA,783.5187,783.5189,783.519,783.8688,NA,NA,NA,NA,NA,NA,NA,TRUE,1,0.7657,780.5188,783.5184,NA,NA,NA,NA,NA,200,54,0,86,86,107,1,2,87,"binary"
"DDF654B04475461CAA83D9BFD3636F52",1,"01990aa1-82c1-78cc-a679-3895539e817f","01990a83-7673-7c0c-a792-bbd8fbbaf673","2025-09-02_08h33.50.181",NA,NA,786.8719,786.8721,786.8721,787.2218,NA,NA,NA,NA,NA,NA,NA,TRUE,2,1.5872,783.8721,786.8716,NA,NA,NA,NA,NA,50,40,0,87,87,63,1,2,88,"binary"
"DDF654B04475461CAA83D9BFD3636F52",1,"01990aa1-82c1-78cc-a679-3895539e817f","01990a83-7673-7c0c-a792-bbd8fbbaf673","2025-09-02_08h33.50.181",NA,NA,790.2253,790.2256,790.2257,790.5751,NA,NA,NA,NA,NA,NA,NA,TRUE,1,0.913,787.225,790.2251,NA,NA,NA,NA,NA,150,40,0,88,88,93,1,2,89,"binary"
"DDF654B04475461CAA83D9BFD3636F52",1,"01990aa1-82c1-78cc-a679-3895539e817f","01990a83-7673-7c0c-a792-bbd8fbbaf673","2025-09-02_08h33.50.181",NA,NA,793.5618,793.5618,793.5619,793.9115,NA,NA,NA,NA,NA,NA,NA,TRUE,2,1.4503,790.5784,793.5614,NA,NA,NA,NA,NA,7,35,0,89,89,5,1,2,90,"binary"
"DDF654B04475461CAA83D9BFD3636F52",1,"01990aa1-82c1-78cc-a679-3895539e817f","01990a83-7673-7c0c-a792-bbd8fbbaf673","2025-09-02_08h33.50.181",NA,NA,796.9151,796.9153,796.9153,797.2646,NA,NA,NA,NA,NA,NA,NA,TRUE,1,1.3668,793.9149,796.9149,NA,NA,NA,NA,NA,10,26,0,90,90,7,1,2,91,"binary"
"DDF654B04475461CAA83D9BFD3636F52",1,"01990aa1-82c1-78cc-a679-3895539e817f","01990a83-7673-7c0c-a792-bbd8fbbaf673","2025-09-02_08h33.50.181",NA,NA,800.2684,800.2685,800.2685,800.618,NA,NA,NA,NA,NA,NA,NA,TRUE,1,1.1531,797.267,800.2678,NA,NA,NA,NA,NA,60,33,0,91,91,67,1,2,92,"binary"
"DDF654B04475461CAA83D9BFD3636F52",1,"01990aa1-82c1-78cc-a679-3895539e817f","01990a83-7673-7c0c-a792-bbd8fbbaf673","2025-09-02_08h33.50.181",NA,NA,803.6208,803.6209,803.6209,803.9713,NA,NA,NA,NA,NA,NA,NA,TRUE,1,0.8819,800.621,803.6206,NA,NA,NA,NA,NA,10,27,0,92,92,8,1,2,93,"binary"
"DDF654B04475461CAA83D9BFD3636F52",1,"01990aa1-82c1-78cc-a679-3895539e817f","01990a83-7673-7c0c-a792-bbd8fbbaf673","2025-09-02_08h33.50.181",NA,NA,806.9744,806.9746,806.9746,807.3244,NA,NA,NA,NA,NA,NA,NA,TRUE,1,1.0325,803.9743,806.9741,NA,NA,NA,NA,NA,100,38,0,93,93,86,1,2,94,"binary"
"DDF654B04475461CAA83D9BFD3636F52",1,"01990aa1-82c1-78cc-a679-3895539e817f","01990a83-7673-7c0c-a792-bbd8fbbaf673","2025-09-02_08h33.50.181",NA,NA,810.3277,810.3279,810.3279,810.6777,NA,NA,NA,NA,NA,NA,NA,TRUE,2,1.3336,807.3275,810.3274,NA,NA,NA,NA,NA,21,38,0,94,94,29,1,2,95,"binary"
"DDF654B04475461CAA83D9BFD3636F52",1,"01990aa1-82c1-78cc-a679-3895539e817f","01990a83-7673-7c0c-a792-bbd8fbbaf673","2025-09-02_08h33.50.181",NA,NA,813.6641,813.6643,813.6644,814.0142,NA,NA,NA,NA,NA,NA,NA,TRUE,1,0.8966,810.6807,813.6639,NA,NA,NA,NA,NA,95,35,0,95,95,80,1,2,96,"binary"
"DDF654B04475461CAA83D9BFD3636F52",1,"01990aa1-82c1-78cc-a679-3895539e817f","01990a83-7673-7c0c-a792-bbd8fbbaf673","2025-09-02_08h33.50.181",NA,NA,817.0177,817.0178,817.0179,817.3674,NA,NA,NA,NA,NA,NA,NA,TRUE,2,1.1522,814.0175,817.0171,NA,NA,NA,NA,NA,30,32,0,96,96,46,1,2,97,"binary"
"DDF654B04475461CAA83D9BFD3636F52",1,"01990aa1-82c1-78cc-a679-3895539e817f","01990a83-7673-7c0c-a792-bbd8fbbaf673","2025-09-02_08h33.50.181",NA,NA,820.3706,820.3707,820.3707,820.7206,NA,NA,NA,NA,NA,NA,NA,TRUE,1,1.1355,817.3705,820.3703,NA,NA,NA,NA,NA,200,26,0,97,97,102,1,2,98,"binary"
"DDF654B04475461CAA83D9BFD3636F52",1,"01990aa1-82c1-78cc-a679-3895539e817f","01990a83-7673-7c0c-a792-bbd8fbbaf673","2025-09-02_08h33.50.181",NA,NA,823.724,823.7243,823.7243,824.0738,NA,NA,NA,NA,NA,NA,NA,TRUE,2,1.2358,820.7236,823.7235,NA,NA,NA,NA,NA,14,35,0,98,98,22,1,2,99,"binary"
"DDF654B04475461CAA83D9BFD3636F52",1,"01990aa1-82c1-78cc-a679-3895539e817f","01990a83-7673-7c0c-a792-bbd8fbbaf673","2025-09-02_08h33.50.181",NA,NA,827.077,827.0772,827.0773,827.4271,NA,NA,NA,NA,NA,NA,NA,TRUE,1,1.4967,824.0771,827.0767,NA,NA,NA,NA,NA,28,26,0,99,99,36,1,2,100,"binary"
"DDF654B04475461CAA83D9BFD3636F52",1,"01990aa1-82c1-78cc-a679-3895539e817f","01990a83-7673-7c0c-a792-bbd8fbbaf673","2025-09-02_08h33.50.181",NA,NA,830.4133,830.4133,830.4134,830.7635,NA,NA,NA,NA,NA,NA,NA,TRUE,1,1.0031,827.4304,830.4131,NA,NA,NA,NA,NA,25,27,0,100,100,30,1,2,101,"binary"
"DDF654B04475461CAA83D9BFD3636F52",1,"01990aa1-82c1-78cc-a679-3895539e817f","01990a83-7673-7c0c-a792-bbd8fbbaf673","2025-09-02_08h33.50.181",NA,NA,833.7668,833.7668,833.7669,834.1167,NA,NA,NA,NA,NA,NA,NA,TRUE,1,1.0193,830.766,833.7665,NA,NA,NA,NA,NA,28,28,0,101,101,37,1,2,102,"binary"
"DDF654B04475461CAA83D9BFD3636F52",1,"01990aa1-82c1-78cc-a679-3895539e817f","01990a83-7673-7c0c-a792-bbd8fbbaf673","2025-09-02_08h33.50.181",NA,NA,837.12,837.1201,837.1201,837.4696,NA,NA,NA,NA,NA,NA,NA,TRUE,1,1.0021,834.1196,837.1197,NA,NA,NA,NA,NA,90,40,0,102,102,75,1,2,103,"binary"
"DDF654B04475461CAA83D9BFD3636F52",1,"01990aa1-82c1-78cc-a679-3895539e817f","01990a83-7673-7c0c-a792-bbd8fbbaf673","2025-09-02_08h33.50.181",NA,NA,840.473,840.4731,840.4732,840.8231,NA,NA,NA,NA,NA,NA,NA,TRUE,2,1.3737,837.4715,840.4727,NA,NA,NA,NA,NA,12,33,0,103,103,16,1,2,104,"binary"
"DDF654B04475461CAA83D9BFD3636F52",1,"01990aa1-82c1-78cc-a679-3895539e817f","01990a83-7673-7c0c-a792-bbd8fbbaf673","2025-09-02_08h33.50.181",NA,NA,843.8263,843.8266,843.8266,844.1764,NA,NA,NA,NA,NA,NA,NA,TRUE,1,1.25,840.8263,843.8261,NA,NA,NA,NA,NA,40,27,0,104,104,48,1,2,105,"binary"
"DDF654B04475461CAA83D9BFD3636F52",1,"01990aa1-82c1-78cc-a679-3895539e817f","01990a83-7673-7c0c-a792-bbd8fbbaf673","2025-09-02_08h33.50.181",NA,NA,847.1628,847.163,847.163,847.5128,NA,NA,NA,NA,NA,NA,NA,TRUE,1,1.1323,844.1795,847.1626,NA,NA,NA,NA,NA,100,31,0,105,105,85,1,2,106,"binary"
"DDF654B04475461CAA83D9BFD3636F52",1,"01990aa1-82c1-78cc-a679-3895539e817f","01990a83-7673-7c0c-a792-bbd8fbbaf673","2025-09-02_08h33.50.181",NA,NA,850.516,850.5162,850.5162,850.8661,NA,NA,NA,NA,NA,NA,NA,TRUE,1,1.134,847.5161,850.5157,NA,NA,NA,NA,NA,45,46,0,106,106,59,1,2,107,"binary"
"DDF654B04475461CAA83D9BFD3636F52",1,"01990aa1-82c1-78cc-a679-3895539e817f","01990a83-7673-7c0c-a792-bbd8fbbaf673","2025-09-02_08h33.50.181",NA,NA,853.8692,853.8696,853.8697,854.2193,NA,NA,NA,NA,NA,NA,NA,TRUE,1,1.6721,850.869,853.869,NA,NA,NA,NA,NA,45,35,0,107,107,57,1,2,108,"binary"
