"participant","session","assignmentId","projectId","date","practiceTrial.started","practiceTrial.stopped","tooLate.started","tooLate.stopped","blank.started","blank.stopped","trials_pract.thisRepN","trials_pract.thisTrialN","trials_pract.thisN","trials_pract.thisIndex","trials_pract.ran","delay_pract","amount_pract","responseMade","key","rt","trial.started","trial.stopped","trials.thisRepN","trials.thisTrialN","trials.thisN","trials.thisIndex","trials.ran","delay","amount","trials_2.thisRepN","trials_2.thisTrialN","trials_2.thisN","trials_2.thisIndex","trials_2.ran","block","trial","taskType"
"DDF9CC347F5D4544A341532EF7995E62",1,"01990a97-cda7-76b5-b512-bd9704a910b6","01990a83-7673-7c0c-a792-bbd8fbbaf673","2025-09-02_09h22.53.895",22.3443,25.3215,25.3225,25.3312,25.3313,25.6716,0,0,0,3,1,3,27,TRUE,2,2.1752,NA,NA,NA,NA,NA,NA,NA,NA,NA,NA,NA,NA,NA,NA,0,1,"binary"
"DDF9CC347F5D4544A341532EF7995E62",1,"01990a97-cda7-76b5-b512-bd9704a910b6","01990a83-7673-7c0c-a792-bbd8fbbaf673","2025-09-02_09h22.53.895",25.6753,28.6716,28.6717,28.6718,28.6718,29.0213,0,1,1,1,1,100,50,TRUE,2,1.5756,NA,NA,NA,NA,NA,NA,NA,NA,NA,NA,NA,NA,NA,NA,0,2,"binary"
"DDF9CC347F5D4544A341532EF7995E62",1,"01990a97-cda7-76b5-b512-bd9704a910b6","01990a83-7673-7c0c-a792-bbd8fbbaf673","2025-09-02_09h22.53.895",29.0235,32.0208,32.0211,32.0212,32.0212,32.3716,0,2,2,4,1,30,40,TRUE,2,1.2072,NA,NA,NA,NA,NA,NA,NA,NA,NA,NA,NA,NA,NA,NA,0,3,"binary"
"DDF9CC347F5D4544A341532EF7995E62",1,"01990a97-cda7-76b5-b512-bd9704a910b6","01990a83-7673-7c0c-a792-bbd8fbbaf673","2025-09-02_09h22.53.895",32.3741,35.3717,35.3719,35.372,35.372,35.7213,0,3,3,2,1,14,45,TRUE,2,1.5031,NA,NA,NA,NA,NA,NA,NA,NA,NA,NA,NA,NA,NA,NA,0,4,"binary"
"DDF9CC347F5D4544A341532EF7995E62",1,"01990a97-cda7-76b5-b512-bd9704a910b6","01990a83-7673-7c0c-a792-bbd8fbbaf673","2025-09-02_09h22.53.895",35.7233,38.7213,38.7215,38.7216,38.7216,39.0717,0,4,4,0,1,7,30,TRUE,2,1.0192,NA,NA,NA,NA,NA,NA,NA,NA,NA,NA,NA,NA,NA,NA,0,5,"binary"
"DDF9CC347F5D4544A341532EF7995E62",1,"01990a97-cda7-76b5-b512-bd9704a910b6","01990a83-7673-7c0c-a792-bbd8fbbaf673","2025-09-02_09h22.53.895",NA,NA,60.0733,60.3228,60.3231,60.4228,NA,NA,NA,NA,NA,NA,NA,FALSE,NA,NA,57.1032,60.0729,0,0,0,82,1,95,47,NA,NA,NA,NA,NA,1,1,"binary"
"DDF9CC347F5D4544A341532EF7995E62",1,"01990a97-cda7-76b5-b512-bd9704a910b6","01990a83-7673-7c0c-a792-bbd8fbbaf673","2025-09-02_09h22.53.895",NA,NA,63.423,63.423,63.4231,63.7719,NA,NA,NA,NA,NA,NA,NA,TRUE,2,1.4598,60.4248,63.4227,0,1,1,16,1,12,33,NA,NA,NA,NA,NA,1,2,"binary"
"DDF9CC347F5D4544A341532EF7995E62",1,"01990a97-cda7-76b5-b512-bd9704a910b6","01990a83-7673-7c0c-a792-bbd8fbbaf673","2025-09-02_09h22.53.895",NA,NA,66.7731,66.7732,66.7732,67.1229,NA,NA,NA,NA,NA,NA,NA,TRUE,2,0.89,63.774,66.7729,0,2,2,14,1,12,28,NA,NA,NA,NA,NA,1,3,"binary"
"DDF9CC347F5D4544A341532EF7995E62",1,"01990a97-cda7-76b5-b512-bd9704a910b6","01990a83-7673-7c0c-a792-bbd8fbbaf673","2025-09-02_09h22.53.895",NA,NA,70.1233,70.1234,70.1234,70.473,NA,NA,NA,NA,NA,NA,NA,TRUE,2,0.846,67.1251,70.1231,0,3,3,64,1,50,46,NA,NA,NA,NA,NA,1,4,"binary"
"DDF9CC347F5D4544A341532EF7995E62",1,"01990a97-cda7-76b5-b512-bd9704a910b6","01990a83-7673-7c0c-a792-bbd8fbbaf673","2025-09-02_09h22.53.895",NA,NA,73.4734,73.4734,73.4734,73.8231,NA,NA,NA,NA,NA,NA,NA,TRUE,2,0.7082,70.475,73.4732,0,4,4,77,1,90,54,NA,NA,NA,NA,NA,1,5,"binary"
"DDF9CC347F5D4544A341532EF7995E62",1,"01990a97-cda7-76b5-b512-bd9704a910b6","01990a83-7673-7c0c-a792-bbd8fbbaf673","2025-09-02_09h22.53.895",NA,NA,76.823,76.823,76.823,77.1733,NA,NA,NA,NA,NA,NA,NA,TRUE,2,0.928,73.825,76.8229,0,5,5,20,1,14,28,NA,NA,NA,NA,NA,1,6,"binary"
"DDF9CC347F5D4544A341532EF7995E62",1,"01990a97-cda7-76b5-b512-bd9704a910b6","01990a83-7673-7c0c-a792-bbd8fbbaf673","2025-09-02_09h22.53.895",NA,NA,80.1736,80.1737,80.1737,80.5234,NA,NA,NA,NA,NA,NA,NA,TRUE,2,0.675,77.1753,80.1734,0,6,6,102,1,200,26,NA,NA,NA,NA,NA,1,7,"binary"
"DDF9CC347F5D4544A341532EF7995E62",1,"01990a97-cda7-76b5-b512-bd9704a910b6","01990a83-7673-7c0c-a792-bbd8fbbaf673","2025-09-02_09h22.53.895",NA,NA,83.5237,83.5238,83.5239,83.8738,NA,NA,NA,NA,NA,NA,NA,TRUE,2,0.6254,80.5254,83.5236,0,7,7,33,1,25,33,NA,NA,NA,NA,NA,1,8,"binary"
"DDF9CC347F5D4544A341532EF7995E62",1,"01990a97-cda7-76b5-b512-bd9704a910b6","01990a83-7673-7c0c-a792-bbd8fbbaf673","2025-09-02_09h22.53.895",NA,NA,86.8738,86.8739,86.8739,87.2234,NA,NA,NA,NA,NA,NA,NA,TRUE,1,1.4584,83.8763,86.8736,0,8,8,95,1,150,54,NA,NA,NA,NA,NA,1,9,"binary"
"DDF9CC347F5D4544A341532EF7995E62",1,"01990a97-cda7-76b5-b512-bd9704a910b6","01990a83-7673-7c0c-a792-bbd8fbbaf673","2025-09-02_09h22.53.895",NA,NA,90.2239,90.224,90.2241,90.5738,NA,NA,NA,NA,NA,NA,NA,TRUE,2,0.8783,87.2251,90.2237,0,9,9,37,1,28,28,NA,NA,NA,NA,NA,1,10,"binary"
"DDF9CC347F5D4544A341532EF7995E62",1,"01990a97-cda7-76b5-b512-bd9704a910b6","01990a83-7673-7c0c-a792-bbd8fbbaf673","2025-09-02_09h22.53.895",NA,NA,93.5741,93.5741,93.5742,93.9238,NA,NA,NA,NA,NA,NA,NA,TRUE,2,0.7021,90.5758,93.5739,0,10,10,50,1,40,35,NA,NA,NA,NA,NA,1,11,"binary"
"DDF9CC347F5D4544A341532EF7995E62",1,"01990a97-cda7-76b5-b512-bd9704a910b6","01990a83-7673-7c0c-a792-bbd8fbbaf673","2025-09-02_09h22.53.895",NA,NA,96.924,96.9241,96.9241,97.2739,NA,NA,NA,NA,NA,NA,NA,TRUE,2,0.6106,93.9258,96.9239,0,11,11,92,1,150,35,NA,NA,NA,NA,NA,1,12,"binary"
"DDF9CC347F5D4544A341532EF7995E62",1,"01990a97-cda7-76b5-b512-bd9704a910b6","01990a83-7673-7c0c-a792-bbd8fbbaf673","2025-09-02_09h22.53.895",NA,NA,100.2743,100.2743,100.2743,100.6242,NA,NA,NA,NA,NA,NA,NA,TRUE,2,0.7254,97.2757,100.2742,0,12,12,8,1,10,27,NA,NA,NA,NA,NA,1,13,"binary"
"DDF9CC347F5D4544A341532EF7995E62",1,"01990a97-cda7-76b5-b512-bd9704a910b6","01990a83-7673-7c0c-a792-bbd8fbbaf673","2025-09-02_09h22.53.895",NA,NA,103.6243,103.6244,103.6244,103.9737,NA,NA,NA,NA,NA,NA,NA,TRUE,2,0.6106,100.6265,103.6242,0,13,13,5,1,7,35,NA,NA,NA,NA,NA,1,14,"binary"
"DDF9CC347F5D4544A341532EF7995E62",1,"01990a97-cda7-76b5-b512-bd9704a910b6","01990a83-7673-7c0c-a792-bbd8fbbaf673","2025-09-02_09h22.53.895",NA,NA,106.9747,106.9747,106.9748,107.3244,NA,NA,NA,NA,NA,NA,NA,TRUE,2,0.602,103.9757,106.9744,0,14,14,85,1,100,31,NA,NA,NA,NA,NA,1,15,"binary"
"DDF9CC347F5D4544A341532EF7995E62",1,"01990a97-cda7-76b5-b512-bd9704a910b6","01990a83-7673-7c0c-a792-bbd8fbbaf673","2025-09-02_09h22.53.895",NA,NA,110.3246,110.3247,110.3248,110.6735,NA,NA,NA,NA,NA,NA,NA,TRUE,2,0.7454,107.3261,110.3245,0,15,15,12,1,12,25,NA,NA,NA,NA,NA,1,16,"binary"
"DDF9CC347F5D4544A341532EF7995E62",1,"01990a97-cda7-76b5-b512-bd9704a910b6","01990a83-7673-7c0c-a792-bbd8fbbaf673","2025-09-02_09h22.53.895",NA,NA,113.6738,113.6738,113.6739,114.0247,NA,NA,NA,NA,NA,NA,NA,TRUE,2,0.8441,110.6752,113.6737,0,16,16,35,1,25,46,NA,NA,NA,NA,NA,1,17,"binary"
"DDF9CC347F5D4544A341532EF7995E62",1,"01990a97-cda7-76b5-b512-bd9704a910b6","01990a83-7673-7c0c-a792-bbd8fbbaf673","2025-09-02_09h22.53.895",NA,NA,117.025,117.025,117.0251,117.3748,NA,NA,NA,NA,NA,NA,NA,TRUE,2,0.674,114.0267,117.0248,0,17,17,91,1,150,33,NA,NA,NA,NA,NA,1,18,"binary"
"DDF9CC347F5D4544A341532EF7995E62",1,"01990a97-cda7-76b5-b512-bd9704a910b6","01990a83-7673-7c0c-a792-bbd8fbbaf673","2025-09-02_09h22.53.895",NA,NA,120.375,120.3751,120.3751,120.7248,NA,NA,NA,NA,NA,NA,NA,TRUE,2,0.908,117.3771,120.3749,0,18,18,72,1,90,26,NA,NA,NA,NA,NA,1,19,"binary"
"DDF9CC347F5D4544A341532EF7995E62",1,"01990a97-cda7-76b5-b512-bd9704a910b6","01990a83-7673-7c0c-a792-bbd8fbbaf673","2025-09-02_09h22.53.895",NA,NA,123.7251,123.7252,123.7252,124.075,NA,NA,NA,NA,NA,NA,NA,TRUE,2,0.6055,120.7264,123.725,0,19,19,49,1,40,33,NA,NA,NA,NA,NA,1,20,"binary"
"DDF9CC347F5D4544A341532EF7995E62",1,"01990a97-cda7-76b5-b512-bd9704a910b6","01990a83-7673-7c0c-a792-bbd8fbbaf673","2025-09-02_09h22.53.895",NA,NA,127.0754,127.0754,127.0754,127.4251,NA,NA,NA,NA,NA,NA,NA,TRUE,2,0.8427,124.0766,127.0752,0,20,20,83,1,95,54,NA,NA,NA,NA,NA,1,21,"binary"
"DDF9CC347F5D4544A341532EF7995E62",1,"01990a97-cda7-76b5-b512-bd9704a910b6","01990a83-7673-7c0c-a792-bbd8fbbaf673","2025-09-02_09h22.53.895",NA,NA,130.4254,130.4255,130.4255,130.7751,NA,NA,NA,NA,NA,NA,NA,TRUE,2,0.9275,127.4272,130.4252,0,21,21,98,1,180,35,NA,NA,NA,NA,NA,1,22,"binary"
"DDF9CC347F5D4544A341532EF7995E62",1,"01990a97-cda7-76b5-b512-bd9704a910b6","01990a83-7673-7c0c-a792-bbd8fbbaf673","2025-09-02_09h22.53.895",NA,NA,133.7755,133.7756,133.7756,134.1253,NA,NA,NA,NA,NA,NA,NA,TRUE,2,1.8126,130.7767,133.7753,0,22,22,75,1,90,40,NA,NA,NA,NA,NA,1,23,"binary"
"DDF9CC347F5D4544A341532EF7995E62",1,"01990a97-cda7-76b5-b512-bd9704a910b6","01990a83-7673-7c0c-a792-bbd8fbbaf673","2025-09-02_09h22.53.895",NA,NA,137.1256,137.1256,137.1257,137.4754,NA,NA,NA,NA,NA,NA,NA,TRUE,2,0.9459,134.1269,137.1255,0,23,23,17,1,12,35,NA,NA,NA,NA,NA,1,24,"binary"
"DDF9CC347F5D4544A341532EF7995E62",1,"01990a97-cda7-76b5-b512-bd9704a910b6","01990a83-7673-7c0c-a792-bbd8fbbaf673","2025-09-02_09h22.53.895",NA,NA,140.4757,140.4758,140.4758,140.8255,NA,NA,NA,NA,NA,NA,NA,TRUE,1,1.1542,137.4771,140.4755,0,24,24,19,1,14,26,NA,NA,NA,NA,NA,1,25,"binary"
"DDF9CC347F5D4544A341532EF7995E62",1,"01990a97-cda7-76b5-b512-bd9704a910b6","01990a83-7673-7c0c-a792-bbd8fbbaf673","2025-09-02_09h22.53.895",NA,NA,143.8259,143.8259,143.8259,144.1751,NA,NA,NA,NA,NA,NA,NA,TRUE,2,0.7857,140.8266,143.8258,0,25,25,22,1,14,35,NA,NA,NA,NA,NA,1,26,"binary"
"DDF9CC347F5D4544A341532EF7995E62",1,"01990a97-cda7-76b5-b512-bd9704a910b6","01990a83-7673-7c0c-a792-bbd8fbbaf673","2025-09-02_09h22.53.895",NA,NA,147.1754,147.1754,147.1754,147.526,NA,NA,NA,NA,NA,NA,NA,TRUE,2,0.5445,144.1767,147.1752,0,26,26,104,1,200,35,NA,NA,NA,NA,NA,1,27,"binary"
"DDF9CC347F5D4544A341532EF7995E62",1,"01990a97-cda7-76b5-b512-bd9704a910b6","01990a83-7673-7c0c-a792-bbd8fbbaf673","2025-09-02_09h22.53.895",NA,NA,150.5263,150.5265,150.5265,150.876,NA,NA,NA,NA,NA,NA,NA,TRUE,2,1.3264,147.5282,150.5262,0,27,27,89,1,100,54,NA,NA,NA,NA,NA,1,28,"binary"
"DDF9CC347F5D4544A341532EF7995E62",1,"01990a97-cda7-76b5-b512-bd9704a910b6","01990a83-7673-7c0c-a792-bbd8fbbaf673","2025-09-02_09h22.53.895",NA,NA,153.8759,153.8759,153.8759,154.2262,NA,NA,NA,NA,NA,NA,NA,TRUE,2,1.3766,150.8777,153.8757,0,28,28,25,1,21,27,NA,NA,NA,NA,NA,1,29,"binary"
"DDF9CC347F5D4544A341532EF7995E62",1,"01990a97-cda7-76b5-b512-bd9704a910b6","01990a83-7673-7c0c-a792-bbd8fbbaf673","2025-09-02_09h22.53.895",NA,NA,157.2264,157.2264,157.2264,157.5763,NA,NA,NA,NA,NA,NA,NA,TRUE,2,0.8287,154.2281,157.2263,0,29,29,3,1,7,30,NA,NA,NA,NA,NA,1,30,"binary"
"DDF9CC347F5D4544A341532EF7995E62",1,"01990a97-cda7-76b5-b512-bd9704a910b6","01990a83-7673-7c0c-a792-bbd8fbbaf673","2025-09-02_09h22.53.895",NA,NA,160.576,160.576,160.5761,160.9264,NA,NA,NA,NA,NA,NA,NA,TRUE,2,1.1785,157.5781,160.5759,0,30,30,43,1,30,27,NA,NA,NA,NA,NA,1,31,"binary"
"DDF9CC347F5D4544A341532EF7995E62",1,"01990a97-cda7-76b5-b512-bd9704a910b6","01990a83-7673-7c0c-a792-bbd8fbbaf673","2025-09-02_09h22.53.895",NA,NA,163.9264,163.9264,163.9265,164.2766,NA,NA,NA,NA,NA,NA,NA,TRUE,2,1.2419,160.9286,163.9262,0,31,31,26,1,21,29,NA,NA,NA,NA,NA,1,32,"binary"
"DDF9CC347F5D4544A341532EF7995E62",1,"01990a97-cda7-76b5-b512-bd9704a910b6","01990a83-7673-7c0c-a792-bbd8fbbaf673","2025-09-02_09h22.53.895",NA,NA,167.2768,167.2768,167.2769,167.6268,NA,NA,NA,NA,NA,NA,NA,TRUE,2,1.3597,164.2785,167.2766,0,32,32,99,1,180,39,NA,NA,NA,NA,NA,1,33,"binary"
"DDF9CC347F5D4544A341532EF7995E62",1,"01990a97-cda7-76b5-b512-bd9704a910b6","01990a83-7673-7c0c-a792-bbd8fbbaf673","2025-09-02_09h22.53.895",NA,NA,170.6271,170.6272,170.6272,170.9768,NA,NA,NA,NA,NA,NA,NA,TRUE,2,1.3311,167.6286,170.6269,0,33,33,47,1,30,38,NA,NA,NA,NA,NA,1,34,"binary"
"DDF9CC347F5D4544A341532EF7995E62",1,"01990a97-cda7-76b5-b512-bd9704a910b6","01990a83-7673-7c0c-a792-bbd8fbbaf673","2025-09-02_09h22.53.895",NA,NA,173.9771,173.9772,173.9773,174.3267,NA,NA,NA,NA,NA,NA,NA,TRUE,1,0.9777,170.9788,173.977,0,34,34,107,1,200,54,NA,NA,NA,NA,NA,1,35,"binary"
"DDF9CC347F5D4544A341532EF7995E62",1,"01990a97-cda7-76b5-b512-bd9704a910b6","01990a83-7673-7c0c-a792-bbd8fbbaf673","2025-09-02_09h22.53.895",NA,NA,177.3272,177.3273,177.3273,177.6772,NA,NA,NA,NA,NA,NA,NA,TRUE,2,1.1138,174.3281,177.327,0,35,35,69,1,60,40,NA,NA,NA,NA,NA,1,36,"binary"
"DDF9CC347F5D4544A341532EF7995E62",1,"01990a97-cda7-76b5-b512-bd9704a910b6","01990a83-7673-7c0c-a792-bbd8fbbaf673","2025-09-02_09h22.53.895",NA,NA,180.6608,180.6608,180.6608,181.0272,NA,NA,NA,NA,NA,NA,NA,TRUE,1,0.859,177.6792,180.6606,0,36,36,93,1,150,40,NA,NA,NA,NA,NA,1,37,"binary"
"DDF9CC347F5D4544A341532EF7995E62",1,"01990a97-cda7-76b5-b512-bd9704a910b6","01990a83-7673-7c0c-a792-bbd8fbbaf673","2025-09-02_09h22.53.895",NA,NA,184.0109,184.011,184.011,184.3607,NA,NA,NA,NA,NA,NA,NA,TRUE,1,0.8936,181.0295,184.0108,0,37,37,84,1,100,26,NA,NA,NA,NA,NA,1,38,"binary"
"DDF9CC347F5D4544A341532EF7995E62",1,"01990a97-cda7-76b5-b512-bd9704a910b6","01990a83-7673-7c0c-a792-bbd8fbbaf673","2025-09-02_09h22.53.895",NA,NA,187.3611,187.3612,187.3612,187.7109,NA,NA,NA,NA,NA,NA,NA,TRUE,1,1.369,184.3628,187.361,0,38,38,105,1,200,39,NA,NA,NA,NA,NA,1,39,"binary"
"DDF9CC347F5D4544A341532EF7995E62",1,"01990a97-cda7-76b5-b512-bd9704a910b6","01990a83-7673-7c0c-a792-bbd8fbbaf673","2025-09-02_09h22.53.895",NA,NA,190.711,190.711,190.7111,191.0609,NA,NA,NA,NA,NA,NA,NA,TRUE,2,0.9082,187.7128,190.7108,0,39,39,59,1,45,46,NA,NA,NA,NA,NA,1,40,"binary"
"DDF9CC347F5D4544A341532EF7995E62",1,"01990a97-cda7-76b5-b512-bd9704a910b6","01990a83-7673-7c0c-a792-bbd8fbbaf673","2025-09-02_09h22.53.895",NA,NA,194.0614,194.0614,194.0614,194.4112,NA,NA,NA,NA,NA,NA,NA,TRUE,2,1.3244,191.0626,194.0611,0,40,40,62,1,50,35,NA,NA,NA,NA,NA,1,41,"binary"
"DDF9CC347F5D4544A341532EF7995E62",1,"01990a97-cda7-76b5-b512-bd9704a910b6","01990a83-7673-7c0c-a792-bbd8fbbaf673","2025-09-02_09h22.53.895",NA,NA,197.4115,197.4115,197.4115,197.761,NA,NA,NA,NA,NA,NA,NA,TRUE,2,0.8239,194.4131,197.4112,0,41,41,13,1,12,26,NA,NA,NA,NA,NA,1,42,"binary"
"DDF9CC347F5D4544A341532EF7995E62",1,"01990a97-cda7-76b5-b512-bd9704a910b6","01990a83-7673-7c0c-a792-bbd8fbbaf673","2025-09-02_09h22.53.895",NA,NA,200.7614,200.7615,200.7615,201.1113,NA,NA,NA,NA,NA,NA,NA,TRUE,1,1.519,197.7622,200.7613,0,42,42,94,1,150,47,NA,NA,NA,NA,NA,1,43,"binary"
"DDF9CC347F5D4544A341532EF7995E62",1,"01990a97-cda7-76b5-b512-bd9704a910b6","01990a83-7673-7c0c-a792-bbd8fbbaf673","2025-09-02_09h22.53.895",NA,NA,204.1116,204.1116,204.1116,204.4771,NA,NA,NA,NA,NA,NA,NA,TRUE,2,0.8542,201.1135,204.1114,0,43,43,15,1,12,31,NA,NA,NA,NA,NA,1,44,"binary"
"DDF9CC347F5D4544A341532EF7995E62",1,"01990a97-cda7-76b5-b512-bd9704a910b6","01990a83-7673-7c0c-a792-bbd8fbbaf673","2025-09-02_09h22.53.895",NA,NA,207.4619,207.4619,207.4619,207.8117,NA,NA,NA,NA,NA,NA,NA,TRUE,2,0.8128,204.4788,207.4617,0,44,44,38,1,28,32,NA,NA,NA,NA,NA,1,45,"binary"
"DDF9CC347F5D4544A341532EF7995E62",1,"01990a97-cda7-76b5-b512-bd9704a910b6","01990a83-7673-7c0c-a792-bbd8fbbaf673","2025-09-02_09h22.53.895",NA,NA,210.8108,210.8108,210.8109,211.1782,NA,NA,NA,NA,NA,NA,NA,TRUE,2,1.2801,207.8136,210.8107,0,45,45,81,1,95,40,NA,NA,NA,NA,NA,1,46,"binary"
"DDF9CC347F5D4544A341532EF7995E62",1,"01990a97-cda7-76b5-b512-bd9704a910b6","01990a83-7673-7c0c-a792-bbd8fbbaf673","2025-09-02_09h22.53.895",NA,NA,214.1612,214.1612,214.1613,214.5117,NA,NA,NA,NA,NA,NA,NA,TRUE,2,0.633,211.1795,214.1611,0,46,46,52,1,40,47,NA,NA,NA,NA,NA,1,47,"binary"
"DDF9CC347F5D4544A341532EF7995E62",1,"01990a97-cda7-76b5-b512-bd9704a910b6","01990a83-7673-7c0c-a792-bbd8fbbaf673","2025-09-02_09h22.53.895",NA,NA,217.5122,217.5123,217.5123,217.8609,NA,NA,NA,NA,NA,NA,NA,TRUE,2,0.567,214.5136,217.5121,0,47,47,24,1,21,26,NA,NA,NA,NA,NA,1,48,"binary"
"DDF9CC347F5D4544A341532EF7995E62",1,"01990a97-cda7-76b5-b512-bd9704a910b6","01990a83-7673-7c0c-a792-bbd8fbbaf673","2025-09-02_09h22.53.895",NA,NA,220.8622,220.8623,220.8623,221.2121,NA,NA,NA,NA,NA,NA,NA,TRUE,2,1.0203,217.8627,220.862,0,48,48,65,1,50,54,NA,NA,NA,NA,NA,1,49,"binary"
"DDF9CC347F5D4544A341532EF7995E62",1,"01990a97-cda7-76b5-b512-bd9704a910b6","01990a83-7673-7c0c-a792-bbd8fbbaf673","2025-09-02_09h22.53.895",NA,NA,224.2114,224.2114,224.2114,224.5623,NA,NA,NA,NA,NA,NA,NA,TRUE,2,0.8151,221.2138,224.2113,0,49,49,18,1,14,25,NA,NA,NA,NA,NA,1,50,"binary"
"DDF9CC347F5D4544A341532EF7995E62",1,"01990a97-cda7-76b5-b512-bd9704a910b6","01990a83-7673-7c0c-a792-bbd8fbbaf673","2025-09-02_09h22.53.895",NA,NA,227.5626,227.5627,227.5627,227.9114,NA,NA,NA,NA,NA,NA,NA,TRUE,2,0.5514,224.5642,227.5624,0,50,50,1,1,7,26,NA,NA,NA,NA,NA,1,51,"binary"
"DDF9CC347F5D4544A341532EF7995E62",1,"01990a97-cda7-76b5-b512-bd9704a910b6","01990a83-7673-7c0c-a792-bbd8fbbaf673","2025-09-02_09h22.53.895",NA,NA,230.9127,230.9127,230.9127,231.2616,NA,NA,NA,NA,NA,NA,NA,TRUE,2,0.6474,227.9131,230.9125,0,51,51,40,1,28,39,NA,NA,NA,NA,NA,1,52,"binary"
"DDF9CC347F5D4544A341532EF7995E62",1,"01990a97-cda7-76b5-b512-bd9704a910b6","01990a83-7673-7c0c-a792-bbd8fbbaf673","2025-09-02_09h22.53.895",NA,NA,234.2628,234.2628,234.2628,234.6121,NA,NA,NA,NA,NA,NA,NA,TRUE,1,0.9359,231.2631,234.2626,0,52,52,96,1,180,27,NA,NA,NA,NA,NA,1,53,"binary"
"DDF9CC347F5D4544A341532EF7995E62",1,"01990a97-cda7-76b5-b512-bd9704a910b6","01990a83-7673-7c0c-a792-bbd8fbbaf673","2025-09-02_09h22.53.895",NA,NA,237.613,237.613,237.613,237.9628,NA,NA,NA,NA,NA,NA,NA,TRUE,1,1.6021,234.6138,237.6128,0,53,53,97,1,180,31,NA,NA,NA,NA,NA,1,54,"binary"
"DDF9CC347F5D4544A341532EF7995E62",1,"01990a97-cda7-76b5-b512-bd9704a910b6","01990a83-7673-7c0c-a792-bbd8fbbaf673","2025-09-02_09h22.53.895",NA,NA,240.963,240.9631,240.9631,241.3128,NA,NA,NA,NA,NA,NA,NA,TRUE,2,1.0034,237.9646,240.9628,0,54,54,78,1,95,31,NA,NA,NA,NA,NA,1,55,"binary"
"DDF9CC347F5D4544A341532EF7995E62",1,"01990a97-cda7-76b5-b512-bd9704a910b6","01990a83-7673-7c0c-a792-bbd8fbbaf673","2025-09-02_09h22.53.895",NA,NA,244.3132,244.3132,244.3132,244.6631,NA,NA,NA,NA,NA,NA,NA,TRUE,2,1.2366,241.3148,244.3131,0,55,55,76,1,90,46,NA,NA,NA,NA,NA,1,56,"binary"
"DDF9CC347F5D4544A341532EF7995E62",1,"01990a97-cda7-76b5-b512-bd9704a910b6","01990a83-7673-7c0c-a792-bbd8fbbaf673","2025-09-02_09h22.53.895",NA,NA,247.6634,247.6634,247.6635,248.0122,NA,NA,NA,NA,NA,NA,NA,TRUE,1,1.2176,244.6652,247.6632,0,56,56,74,1,90,33,NA,NA,NA,NA,NA,1,57,"binary"
"DDF9CC347F5D4544A341532EF7995E62",1,"01990a97-cda7-76b5-b512-bd9704a910b6","01990a83-7673-7c0c-a792-bbd8fbbaf673","2025-09-02_09h22.53.895",NA,NA,251.0131,251.0131,251.0131,251.3623,NA,NA,NA,NA,NA,NA,NA,TRUE,2,1.635,248.0138,251.0129,0,57,57,66,1,60,29,NA,NA,NA,NA,NA,1,58,"binary"
"DDF9CC347F5D4544A341532EF7995E62",1,"01990a97-cda7-76b5-b512-bd9704a910b6","01990a83-7673-7c0c-a792-bbd8fbbaf673","2025-09-02_09h22.53.895",NA,NA,254.3626,254.3627,254.3627,254.7124,NA,NA,NA,NA,NA,NA,NA,TRUE,2,1.6031,251.364,254.3624,0,58,58,58,1,45,40,NA,NA,NA,NA,NA,1,59,"binary"
"DDF9CC347F5D4544A341532EF7995E62",1,"01990a97-cda7-76b5-b512-bd9704a910b6","01990a83-7673-7c0c-a792-bbd8fbbaf673","2025-09-02_09h22.53.895",NA,NA,257.7136,257.7136,257.7136,258.0636,NA,NA,NA,NA,NA,NA,NA,TRUE,2,0.9178,254.714,257.7135,0,59,59,70,1,60,47,NA,NA,NA,NA,NA,1,60,"binary"
"DDF9CC347F5D4544A341532EF7995E62",1,"01990a97-cda7-76b5-b512-bd9704a910b6","01990a83-7673-7c0c-a792-bbd8fbbaf673","2025-09-02_09h22.53.895",NA,NA,261.0628,261.0629,261.0629,261.4136,NA,NA,NA,NA,NA,NA,NA,TRUE,2,1.6353,258.0656,261.0627,0,60,60,88,1,100,46,NA,NA,NA,NA,NA,1,61,"binary"
"DDF9CC347F5D4544A341532EF7995E62",1,"01990a97-cda7-76b5-b512-bd9704a910b6","01990a83-7673-7c0c-a792-bbd8fbbaf673","2025-09-02_09h22.53.895",NA,NA,264.414,264.414,264.414,264.7635,NA,NA,NA,NA,NA,NA,NA,TRUE,2,0.9522,261.4149,264.4138,0,61,61,67,1,60,33,NA,NA,NA,NA,NA,1,62,"binary"
"DDF9CC347F5D4544A341532EF7995E62",1,"01990a97-cda7-76b5-b512-bd9704a910b6","01990a83-7673-7c0c-a792-bbd8fbbaf673","2025-09-02_09h22.53.895",NA,NA,267.7633,267.7633,267.7633,268.113,NA,NA,NA,NA,NA,NA,NA,TRUE,2,1.5202,264.7652,267.7632,0,62,62,73,1,90,30,NA,NA,NA,NA,NA,1,63,"binary"
"DDF9CC347F5D4544A341532EF7995E62",1,"01990a97-cda7-76b5-b512-bd9704a910b6","01990a83-7673-7c0c-a792-bbd8fbbaf673","2025-09-02_09h22.53.895",NA,NA,271.1142,271.1142,271.1143,271.4641,NA,NA,NA,NA,NA,NA,NA,TRUE,1,1.0484,268.1148,271.1141,0,63,63,103,1,200,28,NA,NA,NA,NA,NA,1,64,"binary"
"DDF9CC347F5D4544A341532EF7995E62",1,"01990a97-cda7-76b5-b512-bd9704a910b6","01990a83-7673-7c0c-a792-bbd8fbbaf673","2025-09-02_09h22.53.895",NA,NA,274.4643,274.4644,274.4644,274.8141,NA,NA,NA,NA,NA,NA,NA,TRUE,2,1.2525,271.4661,274.4642,0,64,64,80,1,95,35,NA,NA,NA,NA,NA,1,65,"binary"
"DDF9CC347F5D4544A341532EF7995E62",1,"01990a97-cda7-76b5-b512-bd9704a910b6","01990a83-7673-7c0c-a792-bbd8fbbaf673","2025-09-02_09h22.53.895",NA,NA,277.8136,277.8136,277.8137,278.1634,NA,NA,NA,NA,NA,NA,NA,TRUE,2,1.4343,274.8158,277.8135,0,65,65,42,1,30,26,NA,NA,NA,NA,NA,1,66,"binary"
"DDF9CC347F5D4544A341532EF7995E62",1,"01990a97-cda7-76b5-b512-bd9704a910b6","01990a83-7673-7c0c-a792-bbd8fbbaf673","2025-09-02_09h22.53.895",NA,NA,281.164,281.164,281.164,281.5145,NA,NA,NA,NA,NA,NA,NA,TRUE,1,0.9191,278.1651,281.1638,0,66,66,100,1,180,46,NA,NA,NA,NA,NA,1,67,"binary"
"DDF9CC347F5D4544A341532EF7995E62",1,"01990a97-cda7-76b5-b512-bd9704a910b6","01990a83-7673-7c0c-a792-bbd8fbbaf673","2025-09-02_09h22.53.895",NA,NA,284.5137,284.5137,284.5137,284.8636,NA,NA,NA,NA,NA,NA,NA,TRUE,2,0.7351,281.5164,284.5136,0,67,67,45,1,30,30,NA,NA,NA,NA,NA,1,68,"binary"
"DDF9CC347F5D4544A341532EF7995E62",1,"01990a97-cda7-76b5-b512-bd9704a910b6","01990a83-7673-7c0c-a792-bbd8fbbaf673","2025-09-02_09h22.53.895",NA,NA,287.8648,287.8648,287.8648,288.2148,NA,NA,NA,NA,NA,NA,NA,TRUE,2,0.8524,284.865,287.8646,0,68,68,4,1,7,32,NA,NA,NA,NA,NA,1,69,"binary"
"DDF9CC347F5D4544A341532EF7995E62",1,"01990a97-cda7-76b5-b512-bd9704a910b6","01990a83-7673-7c0c-a792-bbd8fbbaf673","2025-09-02_09h22.53.895",NA,NA,291.2149,291.215,291.215,291.5639,NA,NA,NA,NA,NA,NA,NA,TRUE,2,1.3011,288.2166,291.2148,0,69,69,68,1,60,35,NA,NA,NA,NA,NA,1,70,"binary"
"DDF9CC347F5D4544A341532EF7995E62",1,"01990a97-cda7-76b5-b512-bd9704a910b6","01990a83-7673-7c0c-a792-bbd8fbbaf673","2025-09-02_09h22.53.895",NA,NA,294.5653,294.5654,294.5654,294.9142,NA,NA,NA,NA,NA,NA,NA,TRUE,1,1.5906,291.5658,294.5651,0,70,70,6,1,10,25,NA,NA,NA,NA,NA,1,71,"binary"
"DDF9CC347F5D4544A341532EF7995E62",1,"01990a97-cda7-76b5-b512-bd9704a910b6","01990a83-7673-7c0c-a792-bbd8fbbaf673","2025-09-02_09h22.53.895",NA,NA,297.9153,297.9154,297.9155,298.2652,NA,NA,NA,NA,NA,NA,NA,TRUE,2,0.9682,294.9159,297.9152,0,71,71,55,1,45,29,NA,NA,NA,NA,NA,1,72,"binary"
"DDF9CC347F5D4544A341532EF7995E62",1,"01990a97-cda7-76b5-b512-bd9704a910b6","01990a83-7673-7c0c-a792-bbd8fbbaf673","2025-09-02_09h22.53.895",NA,NA,301.2654,301.2654,301.2654,301.6153,NA,NA,NA,NA,NA,NA,NA,TRUE,2,1.0202,298.2672,301.2652,0,72,72,46,1,30,32,NA,NA,NA,NA,NA,1,73,"binary"
"DDF9CC347F5D4544A341532EF7995E62",1,"01990a97-cda7-76b5-b512-bd9704a910b6","01990a83-7673-7c0c-a792-bbd8fbbaf673","2025-09-02_09h22.53.895",NA,NA,304.6146,304.6146,304.6146,304.9645,NA,NA,NA,NA,NA,NA,NA,TRUE,2,0.9688,301.6176,304.6145,0,73,73,39,1,28,35,NA,NA,NA,NA,NA,1,74,"binary"
"DDF9CC347F5D4544A341532EF7995E62",1,"01990a97-cda7-76b5-b512-bd9704a910b6","01990a83-7673-7c0c-a792-bbd8fbbaf673","2025-09-02_09h22.53.895",NA,NA,307.9648,307.9649,307.9649,308.3154,NA,NA,NA,NA,NA,NA,NA,TRUE,1,1.2363,304.9666,307.9647,0,74,74,90,1,150,31,NA,NA,NA,NA,NA,1,75,"binary"
"DDF9CC347F5D4544A341532EF7995E62",1,"01990a97-cda7-76b5-b512-bd9704a910b6","01990a83-7673-7c0c-a792-bbd8fbbaf673","2025-09-02_09h22.53.895",NA,NA,311.3158,311.3158,311.3158,311.6657,NA,NA,NA,NA,NA,NA,NA,TRUE,2,0.8018,308.3169,311.3156,0,75,75,63,1,50,40,NA,NA,NA,NA,NA,1,76,"binary"
"DDF9CC347F5D4544A341532EF7995E62",1,"01990a97-cda7-76b5-b512-bd9704a910b6","01990a83-7673-7c0c-a792-bbd8fbbaf673","2025-09-02_09h22.53.895",NA,NA,314.666,314.666,314.666,315.0158,NA,NA,NA,NA,NA,NA,NA,TRUE,2,1.0509,311.6674,314.6658,0,76,76,31,1,25,29,NA,NA,NA,NA,NA,1,77,"binary"
"DDF9CC347F5D4544A341532EF7995E62",1,"01990a97-cda7-76b5-b512-bd9704a910b6","01990a83-7673-7c0c-a792-bbd8fbbaf673","2025-09-02_09h22.53.895",NA,NA,318.0161,318.0162,318.0162,318.3659,NA,NA,NA,NA,NA,NA,NA,TRUE,2,1.0181,315.0173,318.016,0,77,77,87,1,100,39,NA,NA,NA,NA,NA,1,78,"binary"
"DDF9CC347F5D4544A341532EF7995E62",1,"01990a97-cda7-76b5-b512-bd9704a910b6","01990a83-7673-7c0c-a792-bbd8fbbaf673","2025-09-02_09h22.53.895",NA,NA,321.3662,321.3662,321.3663,321.716,NA,NA,NA,NA,NA,NA,NA,TRUE,2,0.852,318.3675,321.3661,0,78,78,36,1,28,26,NA,NA,NA,NA,NA,1,79,"binary"
"DDF9CC347F5D4544A341532EF7995E62",1,"01990a97-cda7-76b5-b512-bd9704a910b6","01990a83-7673-7c0c-a792-bbd8fbbaf673","2025-09-02_09h22.53.895",NA,NA,324.7163,324.7163,324.7163,325.0662,NA,NA,NA,NA,NA,NA,NA,TRUE,2,0.6855,321.7181,324.7162,0,79,79,32,1,25,31,NA,NA,NA,NA,NA,1,80,"binary"
"DDF9CC347F5D4544A341532EF7995E62",1,"01990a97-cda7-76b5-b512-bd9704a910b6","01990a83-7673-7c0c-a792-bbd8fbbaf673","2025-09-02_09h22.53.895",NA,NA,328.0664,328.0664,328.0664,328.4164,NA,NA,NA,NA,NA,NA,NA,TRUE,2,0.9188,325.068,328.0663,0,80,80,53,1,40,54,NA,NA,NA,NA,NA,1,81,"binary"
"DDF9CC347F5D4544A341532EF7995E62",1,"01990a97-cda7-76b5-b512-bd9704a910b6","01990a83-7673-7c0c-a792-bbd8fbbaf673","2025-09-02_09h22.53.895",NA,NA,331.4156,331.4156,331.4156,331.7655,NA,NA,NA,NA,NA,NA,NA,TRUE,2,1.6869,328.4184,331.4155,0,81,81,44,1,30,29,NA,NA,NA,NA,NA,1,82,"binary"
"DDF9CC347F5D4544A341532EF7995E62",1,"01990a97-cda7-76b5-b512-bd9704a910b6","01990a83-7673-7c0c-a792-bbd8fbbaf673","2025-09-02_09h22.53.895",NA,NA,334.7659,334.7659,334.7659,335.1168,NA,NA,NA,NA,NA,NA,NA,TRUE,2,0.6205,331.7668,334.7657,0,82,82,27,1,21,30,NA,NA,NA,NA,NA,1,83,"binary"
"DDF9CC347F5D4544A341532EF7995E62",1,"01990a97-cda7-76b5-b512-bd9704a910b6","01990a83-7673-7c0c-a792-bbd8fbbaf673","2025-09-02_09h22.53.895",NA,NA,338.1169,338.1169,338.1169,338.4667,NA,NA,NA,NA,NA,NA,NA,TRUE,2,0.5979,335.1189,338.1168,0,83,83,28,1,21,32,NA,NA,NA,NA,NA,1,84,"binary"
"DDF9CC347F5D4544A341532EF7995E62",1,"01990a97-cda7-76b5-b512-bd9704a910b6","01990a83-7673-7c0c-a792-bbd8fbbaf673","2025-09-02_09h22.53.895",NA,NA,341.467,341.467,341.467,341.8168,NA,NA,NA,NA,NA,NA,NA,TRUE,2,0.7649,338.4682,341.4669,0,84,84,71,1,60,54,NA,NA,NA,NA,NA,1,85,"binary"
"DDF9CC347F5D4544A341532EF7995E62",1,"01990a97-cda7-76b5-b512-bd9704a910b6","01990a83-7673-7c0c-a792-bbd8fbbaf673","2025-09-02_09h22.53.895",NA,NA,344.817,344.8171,344.8171,345.167,NA,NA,NA,NA,NA,NA,NA,TRUE,2,0.8536,341.8189,344.8169,0,85,85,41,1,28,46,NA,NA,NA,NA,NA,1,86,"binary"
"DDF9CC347F5D4544A341532EF7995E62",1,"01990a97-cda7-76b5-b512-bd9704a910b6","01990a83-7673-7c0c-a792-bbd8fbbaf673","2025-09-02_09h22.53.895",NA,NA,348.1671,348.1671,348.1671,348.5172,NA,NA,NA,NA,NA,NA,NA,TRUE,2,0.8119,345.1689,348.167,0,86,86,11,1,10,32,NA,NA,NA,NA,NA,1,87,"binary"
"DDF9CC347F5D4544A341532EF7995E62",1,"01990a97-cda7-76b5-b512-bd9704a910b6","01990a83-7673-7c0c-a792-bbd8fbbaf673","2025-09-02_09h22.53.895",NA,NA,351.5174,351.5174,351.5174,351.8663,NA,NA,NA,NA,NA,NA,NA,TRUE,2,0.6846,348.5188,351.5173,0,87,87,10,1,10,30,NA,NA,NA,NA,NA,1,88,"binary"
"DDF9CC347F5D4544A341532EF7995E62",1,"01990a97-cda7-76b5-b512-bd9704a910b6","01990a83-7673-7c0c-a792-bbd8fbbaf673","2025-09-02_09h22.53.895",NA,NA,354.8676,354.8676,354.8676,355.2173,NA,NA,NA,NA,NA,NA,NA,TRUE,2,0.7556,351.8679,354.8675,0,88,88,48,1,40,27,NA,NA,NA,NA,NA,1,89,"binary"
"DDF9CC347F5D4544A341532EF7995E62",1,"01990a97-cda7-76b5-b512-bd9704a910b6","01990a83-7673-7c0c-a792-bbd8fbbaf673","2025-09-02_09h22.53.895",NA,NA,358.2177,358.2178,358.2178,358.567,NA,NA,NA,NA,NA,NA,NA,TRUE,2,0.719,355.2193,358.2176,0,89,89,23,1,14,39,NA,NA,NA,NA,NA,1,90,"binary"
"DDF9CC347F5D4544A341532EF7995E62",1,"01990a97-cda7-76b5-b512-bd9704a910b6","01990a83-7673-7c0c-a792-bbd8fbbaf673","2025-09-02_09h22.53.895",NA,NA,361.5673,361.5673,361.5673,361.9176,NA,NA,NA,NA,NA,NA,NA,TRUE,1,1.1303,358.5685,361.5671,0,90,90,54,1,45,26,NA,NA,NA,NA,NA,1,91,"binary"
"DDF9CC347F5D4544A341532EF7995E62",1,"01990a97-cda7-76b5-b512-bd9704a910b6","01990a83-7673-7c0c-a792-bbd8fbbaf673","2025-09-02_09h22.53.895",NA,NA,364.9181,364.9181,364.9181,365.2678,NA,NA,NA,NA,NA,NA,NA,TRUE,2,1.2845,361.9191,364.9179,0,91,91,61,1,50,30,NA,NA,NA,NA,NA,1,92,"binary"
"DDF9CC347F5D4544A341532EF7995E62",1,"01990a97-cda7-76b5-b512-bd9704a910b6","01990a83-7673-7c0c-a792-bbd8fbbaf673","2025-09-02_09h22.53.895",NA,NA,368.2672,368.2672,368.2672,368.618,NA,NA,NA,NA,NA,NA,NA,TRUE,2,0.824,365.2695,368.267,0,92,92,0,1,7,25,NA,NA,NA,NA,NA,1,93,"binary"
"DDF9CC347F5D4544A341532EF7995E62",1,"01990a97-cda7-76b5-b512-bd9704a910b6","01990a83-7673-7c0c-a792-bbd8fbbaf673","2025-09-02_09h22.53.895",NA,NA,371.6181,371.6182,371.6182,371.9672,NA,NA,NA,NA,NA,NA,NA,TRUE,2,1.1687,368.6195,371.618,0,93,93,57,1,45,35,NA,NA,NA,NA,NA,1,94,"binary"
"DDF9CC347F5D4544A341532EF7995E62",1,"01990a97-cda7-76b5-b512-bd9704a910b6","01990a83-7673-7c0c-a792-bbd8fbbaf673","2025-09-02_09h22.53.895",NA,NA,374.9686,374.9686,374.9686,375.3182,NA,NA,NA,NA,NA,NA,NA,TRUE,2,1.3512,371.9692,374.9684,0,94,94,51,1,40,40,NA,NA,NA,NA,NA,1,95,"binary"
"DDF9CC347F5D4544A341532EF7995E62",1,"01990a97-cda7-76b5-b512-bd9704a910b6","01990a83-7673-7c0c-a792-bbd8fbbaf673","2025-09-02_09h22.53.895",NA,NA,378.3185,378.3185,378.3185,378.6683,NA,NA,NA,NA,NA,NA,NA,TRUE,2,0.9518,375.3198,378.3183,0,95,95,21,1,14,32,NA,NA,NA,NA,NA,1,96,"binary"
"DDF9CC347F5D4544A341532EF7995E62",1,"01990a97-cda7-76b5-b512-bd9704a910b6","01990a83-7673-7c0c-a792-bbd8fbbaf673","2025-09-02_09h22.53.895",NA,NA,381.6677,381.6677,381.6677,382.0177,NA,NA,NA,NA,NA,NA,NA,TRUE,2,1.4347,378.6699,381.6675,0,96,96,30,1,25,27,NA,NA,NA,NA,NA,1,97,"binary"
"DDF9CC347F5D4544A341532EF7995E62",1,"01990a97-cda7-76b5-b512-bd9704a910b6","01990a83-7673-7c0c-a792-bbd8fbbaf673","2025-09-02_09h22.53.895",NA,NA,385.0189,385.0189,385.019,385.3684,NA,NA,NA,NA,NA,NA,NA,TRUE,1,0.8124,382.0196,385.0188,0,97,97,106,1,200,47,NA,NA,NA,NA,NA,1,98,"binary"
"DDF9CC347F5D4544A341532EF7995E62",1,"01990a97-cda7-76b5-b512-bd9704a910b6","01990a83-7673-7c0c-a792-bbd8fbbaf673","2025-09-02_09h22.53.895",NA,NA,388.3688,388.3688,388.3689,388.7187,NA,NA,NA,NA,NA,NA,NA,TRUE,2,0.962,385.3703,388.3686,0,98,98,7,1,10,26,NA,NA,NA,NA,NA,1,99,"binary"
"DDF9CC347F5D4544A341532EF7995E62",1,"01990a97-cda7-76b5-b512-bd9704a910b6","01990a83-7673-7c0c-a792-bbd8fbbaf673","2025-09-02_09h22.53.895",NA,NA,391.7191,391.7191,391.7191,392.0679,NA,NA,NA,NA,NA,NA,NA,TRUE,2,0.959,388.7204,391.7189,0,99,99,79,1,95,33,NA,NA,NA,NA,NA,1,100,"binary"
"DDF9CC347F5D4544A341532EF7995E62",1,"01990a97-cda7-76b5-b512-bd9704a910b6","01990a83-7673-7c0c-a792-bbd8fbbaf673","2025-09-02_09h22.53.895",NA,NA,395.0692,395.0692,395.0692,395.419,NA,NA,NA,NA,NA,NA,NA,TRUE,2,1.468,392.0695,395.069,0,100,100,86,1,100,38,NA,NA,NA,NA,NA,1,101,"binary"
"DDF9CC347F5D4544A341532EF7995E62",1,"01990a97-cda7-76b5-b512-bd9704a910b6","01990a83-7673-7c0c-a792-bbd8fbbaf673","2025-09-02_09h22.53.895",NA,NA,398.4182,398.4183,398.4183,398.7692,NA,NA,NA,NA,NA,NA,NA,TRUE,2,1.0859,395.4214,398.4181,0,101,101,2,1,7,28,NA,NA,NA,NA,NA,1,102,"binary"
"DDF9CC347F5D4544A341532EF7995E62",1,"01990a97-cda7-76b5-b512-bd9704a910b6","01990a83-7673-7c0c-a792-bbd8fbbaf673","2025-09-02_09h22.53.895",NA,NA,401.7694,401.7694,401.7695,402.1193,NA,NA,NA,NA,NA,NA,NA,TRUE,2,1.2016,398.771,401.7693,0,102,102,9,1,10,29,NA,NA,NA,NA,NA,1,103,"binary"
"DDF9CC347F5D4544A341532EF7995E62",1,"01990a97-cda7-76b5-b512-bd9704a910b6","01990a83-7673-7c0c-a792-bbd8fbbaf673","2025-09-02_09h22.53.895",NA,NA,405.1188,405.1188,405.1188,405.4694,NA,NA,NA,NA,NA,NA,NA,TRUE,1,0.8317,402.1213,405.1186,0,103,103,101,1,180,54,NA,NA,NA,NA,NA,1,104,"binary"
"DDF9CC347F5D4544A341532EF7995E62",1,"01990a97-cda7-76b5-b512-bd9704a910b6","01990a83-7673-7c0c-a792-bbd8fbbaf673","2025-09-02_09h22.53.895",NA,NA,408.4697,408.4697,408.4697,408.82,NA,NA,NA,NA,NA,NA,NA,TRUE,2,1.4355,405.4712,408.4695,0,104,104,60,1,50,27,NA,NA,NA,NA,NA,1,105,"binary"
"DDF9CC347F5D4544A341532EF7995E62",1,"01990a97-cda7-76b5-b512-bd9704a910b6","01990a83-7673-7c0c-a792-bbd8fbbaf673","2025-09-02_09h22.53.895",NA,NA,411.8189,411.8189,411.8189,412.1687,NA,NA,NA,NA,NA,NA,NA,TRUE,2,1.2364,408.821,411.8188,0,105,105,34,1,25,35,NA,NA,NA,NA,NA,1,106,"binary"
"DDF9CC347F5D4544A341532EF7995E62",1,"01990a97-cda7-76b5-b512-bd9704a910b6","01990a83-7673-7c0c-a792-bbd8fbbaf673","2025-09-02_09h22.53.895",NA,NA,415.1701,415.1701,415.1701,415.5198,NA,NA,NA,NA,NA,NA,NA,TRUE,2,0.768,412.1702,415.1698,0,106,106,29,1,21,38,NA,NA,NA,NA,NA,1,107,"binary"
"DDF9CC347F5D4544A341532EF7995E62",1,"01990a97-cda7-76b5-b512-bd9704a910b6","01990a83-7673-7c0c-a792-bbd8fbbaf673","2025-09-02_09h22.53.895",NA,NA,418.5191,418.5192,418.5192,418.869,NA,NA,NA,NA,NA,NA,NA,TRUE,2,0.7348,415.5221,418.519,0,107,107,56,1,45,31,NA,NA,NA,NA,NA,1,108,"binary"
"DDF9CC347F5D4544A341532EF7995E62",1,"01990a97-cda7-76b5-b512-bd9704a910b6","01990a83-7673-7c0c-a792-bbd8fbbaf673","2025-09-02_09h22.53.895",NA,NA,513.5573,513.5573,513.5573,513.9073,NA,NA,NA,NA,NA,NA,NA,TRUE,2,2.6229,510.5804,513.5572,NA,NA,NA,NA,NA,100,46,0,0,0,88,1,2,1,"binary"
"DDF9CC347F5D4544A341532EF7995E62",1,"01990a97-cda7-76b5-b512-bd9704a910b6","01990a83-7673-7c0c-a792-bbd8fbbaf673","2025-09-02_09h22.53.895",NA,NA,516.9076,516.9077,516.9077,517.2574,NA,NA,NA,NA,NA,NA,NA,TRUE,2,1.2247,513.9094,516.9075,NA,NA,NA,NA,NA,60,40,0,1,1,69,1,2,2,"binary"
"DDF9CC347F5D4544A341532EF7995E62",1,"01990a97-cda7-76b5-b512-bd9704a910b6","01990a83-7673-7c0c-a792-bbd8fbbaf673","2025-09-02_09h22.53.895",NA,NA,520.2577,520.2578,520.2578,520.6075,NA,NA,NA,NA,NA,NA,NA,TRUE,2,1.7243,517.2593,520.2576,NA,NA,NA,NA,NA,90,26,0,2,2,72,1,2,3,"binary"
"DDF9CC347F5D4544A341532EF7995E62",1,"01990a97-cda7-76b5-b512-bd9704a910b6","01990a83-7673-7c0c-a792-bbd8fbbaf673","2025-09-02_09h22.53.895",NA,NA,523.6077,523.6078,523.6078,523.9577,NA,NA,NA,NA,NA,NA,NA,TRUE,2,0.761,520.6096,523.6076,NA,NA,NA,NA,NA,10,29,0,3,3,9,1,2,4,"binary"
"DDF9CC347F5D4544A341532EF7995E62",1,"01990a97-cda7-76b5-b512-bd9704a910b6","01990a83-7673-7c0c-a792-bbd8fbbaf673","2025-09-02_09h22.53.895",NA,NA,526.9581,526.9581,526.9581,527.3078,NA,NA,NA,NA,NA,NA,NA,TRUE,1,1.0918,523.9597,526.9579,NA,NA,NA,NA,NA,14,25,0,4,4,18,1,2,5,"binary"
"DDF9CC347F5D4544A341532EF7995E62",1,"01990a97-cda7-76b5-b512-bd9704a910b6","01990a83-7673-7c0c-a792-bbd8fbbaf673","2025-09-02_09h22.53.895",NA,NA,530.3081,530.3082,530.3082,530.6579,NA,NA,NA,NA,NA,NA,NA,TRUE,2,0.8601,527.3097,530.308,NA,NA,NA,NA,NA,40,47,0,5,5,52,1,2,6,"binary"
"DDF9CC347F5D4544A341532EF7995E62",1,"01990a97-cda7-76b5-b512-bd9704a910b6","01990a83-7673-7c0c-a792-bbd8fbbaf673","2025-09-02_09h22.53.895",NA,NA,533.6581,533.6582,533.6582,534.0081,NA,NA,NA,NA,NA,NA,NA,TRUE,1,1.2772,530.6599,533.658,NA,NA,NA,NA,NA,180,35,0,6,6,98,1,2,7,"binary"
"DDF9CC347F5D4544A341532EF7995E62",1,"01990a97-cda7-76b5-b512-bd9704a910b6","01990a83-7673-7c0c-a792-bbd8fbbaf673","2025-09-02_09h22.53.895",NA,NA,537.0084,537.0085,537.0085,537.3582,NA,NA,NA,NA,NA,NA,NA,TRUE,2,0.8268,534.0104,537.0083,NA,NA,NA,NA,NA,25,33,0,7,7,33,1,2,8,"binary"
"DDF9CC347F5D4544A341532EF7995E62",1,"01990a97-cda7-76b5-b512-bd9704a910b6","01990a83-7673-7c0c-a792-bbd8fbbaf673","2025-09-02_09h22.53.895",NA,NA,540.3585,540.3586,540.3586,540.7083,NA,NA,NA,NA,NA,NA,NA,TRUE,2,0.7588,537.3602,540.3583,NA,NA,NA,NA,NA,40,35,0,8,8,50,1,2,9,"binary"
"DDF9CC347F5D4544A341532EF7995E62",1,"01990a97-cda7-76b5-b512-bd9704a910b6","01990a83-7673-7c0c-a792-bbd8fbbaf673","2025-09-02_09h22.53.895",NA,NA,543.7087,543.7088,543.7088,544.0587,NA,NA,NA,NA,NA,NA,NA,TRUE,2,0.9086,540.7103,543.7085,NA,NA,NA,NA,NA,90,40,0,9,9,75,1,2,10,"binary"
"DDF9CC347F5D4544A341532EF7995E62",1,"01990a97-cda7-76b5-b512-bd9704a910b6","01990a83-7673-7c0c-a792-bbd8fbbaf673","2025-09-02_09h22.53.895",NA,NA,547.0585,547.0585,547.0585,547.4086,NA,NA,NA,NA,NA,NA,NA,TRUE,2,0.6922,544.0609,547.0584,NA,NA,NA,NA,NA,25,31,0,10,10,32,1,2,11,"binary"
"DDF9CC347F5D4544A341532EF7995E62",1,"01990a97-cda7-76b5-b512-bd9704a910b6","01990a83-7673-7c0c-a792-bbd8fbbaf673","2025-09-02_09h22.53.895",NA,NA,550.409,550.4091,550.4091,550.7588,NA,NA,NA,NA,NA,NA,NA,TRUE,2,0.594,547.4105,550.4089,NA,NA,NA,NA,NA,21,30,0,11,11,27,1,2,12,"binary"
"DDF9CC347F5D4544A341532EF7995E62",1,"01990a97-cda7-76b5-b512-bd9704a910b6","01990a83-7673-7c0c-a792-bbd8fbbaf673","2025-09-02_09h22.53.895",NA,NA,553.759,553.759,553.759,554.1089,NA,NA,NA,NA,NA,NA,NA,TRUE,2,1.5594,550.7609,553.7589,NA,NA,NA,NA,NA,7,35,0,12,12,5,1,2,13,"binary"
"DDF9CC347F5D4544A341532EF7995E62",1,"01990a97-cda7-76b5-b512-bd9704a910b6","01990a83-7673-7c0c-a792-bbd8fbbaf673","2025-09-02_09h22.53.895",NA,NA,557.1092,557.1092,557.1092,557.4588,NA,NA,NA,NA,NA,NA,NA,TRUE,2,1.826,554.111,557.109,NA,NA,NA,NA,NA,50,35,0,13,13,62,1,2,14,"binary"
"DDF9CC347F5D4544A341532EF7995E62",1,"01990a97-cda7-76b5-b512-bd9704a910b6","01990a83-7673-7c0c-a792-bbd8fbbaf673","2025-09-02_09h22.53.895",NA,NA,560.4593,560.4593,560.4593,560.8091,NA,NA,NA,NA,NA,NA,NA,TRUE,2,0.8802,557.4602,560.4591,NA,NA,NA,NA,NA,50,54,0,14,14,65,1,2,15,"binary"
"DDF9CC347F5D4544A341532EF7995E62",1,"01990a97-cda7-76b5-b512-bd9704a910b6","01990a83-7673-7c0c-a792-bbd8fbbaf673","2025-09-02_09h22.53.895",NA,NA,563.8095,563.8095,563.8096,564.1593,NA,NA,NA,NA,NA,NA,NA,TRUE,1,1.0241,560.8114,563.8094,NA,NA,NA,NA,NA,150,47,0,15,15,94,1,2,16,"binary"
"DDF9CC347F5D4544A341532EF7995E62",1,"01990a97-cda7-76b5-b512-bd9704a910b6","01990a83-7673-7c0c-a792-bbd8fbbaf673","2025-09-02_09h22.53.895",NA,NA,567.1596,567.1597,567.1598,567.5092,NA,NA,NA,NA,NA,NA,NA,TRUE,1,0.6104,564.1614,567.1595,NA,NA,NA,NA,NA,200,35,0,16,16,104,1,2,17,"binary"
"DDF9CC347F5D4544A341532EF7995E62",1,"01990a97-cda7-76b5-b512-bd9704a910b6","01990a83-7673-7c0c-a792-bbd8fbbaf673","2025-09-02_09h22.53.895",NA,NA,570.5098,570.5099,570.5099,570.8596,NA,NA,NA,NA,NA,NA,NA,TRUE,2,1.7961,567.5104,570.5096,NA,NA,NA,NA,NA,30,30,0,17,17,45,1,2,18,"binary"
"DDF9CC347F5D4544A341532EF7995E62",1,"01990a97-cda7-76b5-b512-bd9704a910b6","01990a83-7673-7c0c-a792-bbd8fbbaf673","2025-09-02_09h22.53.895",NA,NA,573.8597,573.8598,573.8598,574.2097,NA,NA,NA,NA,NA,NA,NA,TRUE,2,1.0587,570.8616,573.8596,NA,NA,NA,NA,NA,25,29,0,18,18,31,1,2,19,"binary"
"DDF9CC347F5D4544A341532EF7995E62",1,"01990a97-cda7-76b5-b512-bd9704a910b6","01990a83-7673-7c0c-a792-bbd8fbbaf673","2025-09-02_09h22.53.895",NA,NA,577.21,577.2101,577.2101,577.5594,NA,NA,NA,NA,NA,NA,NA,TRUE,2,1.3886,574.2118,577.2099,NA,NA,NA,NA,NA,60,47,0,19,19,70,1,2,20,"binary"
"DDF9CC347F5D4544A341532EF7995E62",1,"01990a97-cda7-76b5-b512-bd9704a910b6","01990a83-7673-7c0c-a792-bbd8fbbaf673","2025-09-02_09h22.53.895",NA,NA,580.5601,580.5601,580.5601,580.9099,NA,NA,NA,NA,NA,NA,NA,TRUE,2,0.5435,577.5607,580.5599,NA,NA,NA,NA,NA,28,46,0,20,20,41,1,2,21,"binary"
"DDF9CC347F5D4544A341532EF7995E62",1,"01990a97-cda7-76b5-b512-bd9704a910b6","01990a83-7673-7c0c-a792-bbd8fbbaf673","2025-09-02_09h22.53.895",NA,NA,583.9104,583.9104,583.9104,584.2601,NA,NA,NA,NA,NA,NA,NA,TRUE,2,0.6301,580.9115,583.9102,NA,NA,NA,NA,NA,45,29,0,21,21,55,1,2,22,"binary"
"DDF9CC347F5D4544A341532EF7995E62",1,"01990a97-cda7-76b5-b512-bd9704a910b6","01990a83-7673-7c0c-a792-bbd8fbbaf673","2025-09-02_09h22.53.895",NA,NA,587.2604,587.2604,587.2604,587.6099,NA,NA,NA,NA,NA,NA,NA,TRUE,1,0.5295,584.263,587.2602,NA,NA,NA,NA,NA,200,28,0,22,22,103,1,2,23,"binary"
"DDF9CC347F5D4544A341532EF7995E62",1,"01990a97-cda7-76b5-b512-bd9704a910b6","01990a83-7673-7c0c-a792-bbd8fbbaf673","2025-09-02_09h22.53.895",NA,NA,590.6105,590.6106,590.6107,590.9604,NA,NA,NA,NA,NA,NA,NA,TRUE,1,0.7799,587.6114,590.6104,NA,NA,NA,NA,NA,7,25,0,23,23,0,1,2,24,"binary"
"DDF9CC347F5D4544A341532EF7995E62",1,"01990a97-cda7-76b5-b512-bd9704a910b6","01990a83-7673-7c0c-a792-bbd8fbbaf673","2025-09-02_09h22.53.895",NA,NA,593.9607,593.9607,593.9607,594.3104,NA,NA,NA,NA,NA,NA,NA,TRUE,2,0.8744,590.9625,593.9605,NA,NA,NA,NA,NA,21,29,0,24,24,26,1,2,25,"binary"
"DDF9CC347F5D4544A341532EF7995E62",1,"01990a97-cda7-76b5-b512-bd9704a910b6","01990a83-7673-7c0c-a792-bbd8fbbaf673","2025-09-02_09h22.53.895",NA,NA,597.311,597.311,597.3111,597.6608,NA,NA,NA,NA,NA,NA,NA,TRUE,2,0.694,594.312,597.3108,NA,NA,NA,NA,NA,21,38,0,25,25,29,1,2,26,"binary"
"DDF9CC347F5D4544A341532EF7995E62",1,"01990a97-cda7-76b5-b512-bd9704a910b6","01990a83-7673-7c0c-a792-bbd8fbbaf673","2025-09-02_09h22.53.895",NA,NA,600.661,600.6611,600.6611,601.0108,NA,NA,NA,NA,NA,NA,NA,TRUE,2,0.6752,597.6631,600.6608,NA,NA,NA,NA,NA,10,27,0,26,26,8,1,2,27,"binary"
"DDF9CC347F5D4544A341532EF7995E62",1,"01990a97-cda7-76b5-b512-bd9704a910b6","01990a83-7673-7c0c-a792-bbd8fbbaf673","2025-09-02_09h22.53.895",NA,NA,604.0111,604.0111,604.0111,604.361,NA,NA,NA,NA,NA,NA,NA,TRUE,2,0.612,601.0131,604.0109,NA,NA,NA,NA,NA,12,35,0,27,27,17,1,2,28,"binary"
"DDF9CC347F5D4544A341532EF7995E62",1,"01990a97-cda7-76b5-b512-bd9704a910b6","01990a83-7673-7c0c-a792-bbd8fbbaf673","2025-09-02_09h22.53.895",NA,NA,607.3613,607.3614,607.3614,607.711,NA,NA,NA,NA,NA,NA,NA,TRUE,1,0.4962,604.3633,607.3612,NA,NA,NA,NA,NA,100,54,0,28,28,89,1,2,29,"binary"
"DDF9CC347F5D4544A341532EF7995E62",1,"01990a97-cda7-76b5-b512-bd9704a910b6","01990a83-7673-7c0c-a792-bbd8fbbaf673","2025-09-02_09h22.53.895",NA,NA,610.7113,610.7113,610.7113,611.0611,NA,NA,NA,NA,NA,NA,NA,TRUE,1,0.5787,607.7129,610.7111,NA,NA,NA,NA,NA,150,31,0,29,29,90,1,2,30,"binary"
"DDF9CC347F5D4544A341532EF7995E62",1,"01990a97-cda7-76b5-b512-bd9704a910b6","01990a83-7673-7c0c-a792-bbd8fbbaf673","2025-09-02_09h22.53.895",NA,NA,614.0614,614.0615,614.0615,614.4113,NA,NA,NA,NA,NA,NA,NA,TRUE,2,0.8608,611.0629,614.0613,NA,NA,NA,NA,NA,95,47,0,30,30,82,1,2,31,"binary"
"DDF9CC347F5D4544A341532EF7995E62",1,"01990a97-cda7-76b5-b512-bd9704a910b6","01990a83-7673-7c0c-a792-bbd8fbbaf673","2025-09-02_09h22.53.895",NA,NA,617.4116,617.4116,617.4117,617.7449,NA,NA,NA,NA,NA,NA,NA,TRUE,2,0.742,614.4133,617.4115,NA,NA,NA,NA,NA,28,28,0,31,31,37,1,2,32,"binary"
"DDF9CC347F5D4544A341532EF7995E62",1,"01990a97-cda7-76b5-b512-bd9704a910b6","01990a83-7673-7c0c-a792-bbd8fbbaf673","2025-09-02_09h22.53.895",NA,NA,620.7618,620.762,620.762,621.1116,NA,NA,NA,NA,NA,NA,NA,TRUE,2,0.6389,617.7469,620.7617,NA,NA,NA,NA,NA,30,38,0,32,32,47,1,2,33,"binary"
"DDF9CC347F5D4544A341532EF7995E62",1,"01990a97-cda7-76b5-b512-bd9704a910b6","01990a83-7673-7c0c-a792-bbd8fbbaf673","2025-09-02_09h22.53.895",NA,NA,624.0953,624.0954,624.0954,624.4451,NA,NA,NA,NA,NA,NA,NA,TRUE,2,0.9034,621.1137,624.0951,NA,NA,NA,NA,NA,90,30,0,33,33,73,1,2,34,"binary"
"DDF9CC347F5D4544A341532EF7995E62",1,"01990a97-cda7-76b5-b512-bd9704a910b6","01990a83-7673-7c0c-a792-bbd8fbbaf673","2025-09-02_09h22.53.895",NA,NA,627.4454,627.4455,627.4455,627.8117,NA,NA,NA,NA,NA,NA,NA,TRUE,2,1.3854,624.4472,627.4453,NA,NA,NA,NA,NA,12,28,0,34,34,14,1,2,35,"binary"
"DDF9CC347F5D4544A341532EF7995E62",1,"01990a97-cda7-76b5-b512-bd9704a910b6","01990a83-7673-7c0c-a792-bbd8fbbaf673","2025-09-02_09h22.53.895",NA,NA,630.7954,630.7954,630.7955,631.1619,NA,NA,NA,NA,NA,NA,NA,TRUE,2,0.7495,627.8129,630.7953,NA,NA,NA,NA,NA,40,33,0,35,35,49,1,2,36,"binary"
"DDF9CC347F5D4544A341532EF7995E62",1,"01990a97-cda7-76b5-b512-bd9704a910b6","01990a83-7673-7c0c-a792-bbd8fbbaf673","2025-09-02_09h22.53.895",NA,NA,634.1457,634.1457,634.1457,634.4955,NA,NA,NA,NA,NA,NA,NA,TRUE,2,0.5521,631.1638,634.1455,NA,NA,NA,NA,NA,150,40,0,36,36,93,1,2,37,"binary"
"DDF9CC347F5D4544A341532EF7995E62",1,"01990a97-cda7-76b5-b512-bd9704a910b6","01990a83-7673-7c0c-a792-bbd8fbbaf673","2025-09-02_09h22.53.895",NA,NA,637.4958,637.4958,637.4958,637.8455,NA,NA,NA,NA,NA,NA,NA,TRUE,2,1.1029,634.4979,637.4957,NA,NA,NA,NA,NA,95,54,0,37,37,83,1,2,38,"binary"
"DDF9CC347F5D4544A341532EF7995E62",1,"01990a97-cda7-76b5-b512-bd9704a910b6","01990a83-7673-7c0c-a792-bbd8fbbaf673","2025-09-02_09h22.53.895",NA,NA,640.846,640.846,640.846,641.1957,NA,NA,NA,NA,NA,NA,NA,TRUE,1,2.0197,637.8465,640.8458,NA,NA,NA,NA,NA,100,31,0,38,38,85,1,2,39,"binary"
"DDF9CC347F5D4544A341532EF7995E62",1,"01990a97-cda7-76b5-b512-bd9704a910b6","01990a83-7673-7c0c-a792-bbd8fbbaf673","2025-09-02_09h22.53.895",NA,NA,644.1961,644.1961,644.1961,644.5458,NA,NA,NA,NA,NA,NA,NA,TRUE,2,0.8699,641.1978,644.1959,NA,NA,NA,NA,NA,45,46,0,39,39,59,1,2,40,"binary"
"DDF9CC347F5D4544A341532EF7995E62",1,"01990a97-cda7-76b5-b512-bd9704a910b6","01990a83-7673-7c0c-a792-bbd8fbbaf673","2025-09-02_09h22.53.895",NA,NA,647.5461,647.5461,647.5462,647.896,NA,NA,NA,NA,NA,NA,NA,TRUE,1,1.5029,644.5479,647.546,NA,NA,NA,NA,NA,150,33,0,40,40,91,1,2,41,"binary"
"DDF9CC347F5D4544A341532EF7995E62",1,"01990a97-cda7-76b5-b512-bd9704a910b6","01990a83-7673-7c0c-a792-bbd8fbbaf673","2025-09-02_09h22.53.895",NA,NA,650.8964,650.8964,650.8964,651.2462,NA,NA,NA,NA,NA,NA,NA,TRUE,2,2.0352,647.8979,650.8961,NA,NA,NA,NA,NA,50,46,0,41,41,64,1,2,42,"binary"
"DDF9CC347F5D4544A341532EF7995E62",1,"01990a97-cda7-76b5-b512-bd9704a910b6","01990a83-7673-7c0c-a792-bbd8fbbaf673","2025-09-02_09h22.53.895",NA,NA,654.2464,654.2465,654.2465,654.5962,NA,NA,NA,NA,NA,NA,NA,TRUE,2,1.6317,651.2483,654.2463,NA,NA,NA,NA,NA,50,40,0,42,42,63,1,2,43,"binary"
"DDF9CC347F5D4544A341532EF7995E62",1,"01990a97-cda7-76b5-b512-bd9704a910b6","01990a83-7673-7c0c-a792-bbd8fbbaf673","2025-09-02_09h22.53.895",NA,NA,657.5967,657.5968,657.5968,657.9461,NA,NA,NA,NA,NA,NA,NA,TRUE,2,0.9207,654.5983,657.5966,NA,NA,NA,NA,NA,21,27,0,43,43,25,1,2,44,"binary"
"DDF9CC347F5D4544A341532EF7995E62",1,"01990a97-cda7-76b5-b512-bd9704a910b6","01990a83-7673-7c0c-a792-bbd8fbbaf673","2025-09-02_09h22.53.895",NA,NA,660.9467,660.9467,660.9467,661.2965,NA,NA,NA,NA,NA,NA,NA,TRUE,2,1.504,657.9479,660.9465,NA,NA,NA,NA,NA,14,26,0,44,44,19,1,2,45,"binary"
"DDF9CC347F5D4544A341532EF7995E62",1,"01990a97-cda7-76b5-b512-bd9704a910b6","01990a83-7673-7c0c-a792-bbd8fbbaf673","2025-09-02_09h22.53.895",NA,NA,664.2969,664.2969,664.297,664.6467,NA,NA,NA,NA,NA,NA,NA,TRUE,2,0.7858,661.298,664.2968,NA,NA,NA,NA,NA,21,32,0,45,45,28,1,2,46,"binary"
"DDF9CC347F5D4544A341532EF7995E62",1,"01990a97-cda7-76b5-b512-bd9704a910b6","01990a83-7673-7c0c-a792-bbd8fbbaf673","2025-09-02_09h22.53.895",NA,NA,667.6471,667.6471,667.6471,667.9968,NA,NA,NA,NA,NA,NA,NA,TRUE,2,0.8525,664.649,667.6469,NA,NA,NA,NA,NA,10,30,0,46,46,10,1,2,47,"binary"
"DDF9CC347F5D4544A341532EF7995E62",1,"01990a97-cda7-76b5-b512-bd9704a910b6","01990a83-7673-7c0c-a792-bbd8fbbaf673","2025-09-02_09h22.53.895",NA,NA,670.9972,670.9972,670.9972,671.3471,NA,NA,NA,NA,NA,NA,NA,TRUE,2,1.3693,667.9987,670.997,NA,NA,NA,NA,NA,45,31,0,47,47,56,1,2,48,"binary"
"DDF9CC347F5D4544A341532EF7995E62",1,"01990a97-cda7-76b5-b512-bd9704a910b6","01990a83-7673-7c0c-a792-bbd8fbbaf673","2025-09-02_09h22.53.895",NA,NA,674.3472,674.3473,674.3473,674.6965,NA,NA,NA,NA,NA,NA,NA,TRUE,1,1.002,671.3492,674.3471,NA,NA,NA,NA,NA,60,29,0,48,48,66,1,2,49,"binary"
"DDF9CC347F5D4544A341532EF7995E62",1,"01990a97-cda7-76b5-b512-bd9704a910b6","01990a83-7673-7c0c-a792-bbd8fbbaf673","2025-09-02_09h22.53.895",NA,NA,677.6974,677.6975,677.6975,678.0464,NA,NA,NA,NA,NA,NA,NA,TRUE,2,1.216,674.6981,677.6973,NA,NA,NA,NA,NA,90,46,0,49,49,76,1,2,50,"binary"
"DDF9CC347F5D4544A341532EF7995E62",1,"01990a97-cda7-76b5-b512-bd9704a910b6","01990a83-7673-7c0c-a792-bbd8fbbaf673","2025-09-02_09h22.53.895",NA,NA,681.0476,681.0477,681.0477,681.3974,NA,NA,NA,NA,NA,NA,NA,TRUE,2,1.2197,678.0485,681.0475,NA,NA,NA,NA,NA,90,54,0,50,50,77,1,2,51,"binary"
"DDF9CC347F5D4544A341532EF7995E62",1,"01990a97-cda7-76b5-b512-bd9704a910b6","01990a83-7673-7c0c-a792-bbd8fbbaf673","2025-09-02_09h22.53.895",NA,NA,684.397,684.3971,684.3971,684.7475,NA,NA,NA,NA,NA,NA,NA,TRUE,2,0.6855,681.3993,684.3969,NA,NA,NA,NA,NA,40,27,0,51,51,48,1,2,52,"binary"
"DDF9CC347F5D4544A341532EF7995E62",1,"01990a97-cda7-76b5-b512-bd9704a910b6","01990a83-7673-7c0c-a792-bbd8fbbaf673","2025-09-02_09h22.53.895",NA,NA,687.7478,687.7478,687.7478,688.0976,NA,NA,NA,NA,NA,NA,NA,TRUE,2,0.6363,684.7494,687.7476,NA,NA,NA,NA,NA,45,40,0,52,52,58,1,2,53,"binary"
"DDF9CC347F5D4544A341532EF7995E62",1,"01990a97-cda7-76b5-b512-bd9704a910b6","01990a83-7673-7c0c-a792-bbd8fbbaf673","2025-09-02_09h22.53.895",NA,NA,691.098,691.098,691.098,691.4476,NA,NA,NA,NA,NA,NA,NA,TRUE,2,0.64,688.0998,691.0978,NA,NA,NA,NA,NA,7,28,0,53,53,2,1,2,54,"binary"
"DDF9CC347F5D4544A341532EF7995E62",1,"01990a97-cda7-76b5-b512-bd9704a910b6","01990a83-7673-7c0c-a792-bbd8fbbaf673","2025-09-02_09h22.53.895",NA,NA,694.4481,694.4481,694.4481,694.7979,NA,NA,NA,NA,NA,NA,NA,TRUE,2,0.8066,691.4493,694.4479,NA,NA,NA,NA,NA,30,26,0,54,54,42,1,2,55,"binary"
"DDF9CC347F5D4544A341532EF7995E62",1,"01990a97-cda7-76b5-b512-bd9704a910b6","01990a83-7673-7c0c-a792-bbd8fbbaf673","2025-09-02_09h22.53.895",NA,NA,697.7971,697.7972,697.7972,698.1482,NA,NA,NA,NA,NA,NA,NA,TRUE,2,0.6491,694.8003,697.797,NA,NA,NA,NA,NA,60,33,0,55,55,67,1,2,56,"binary"
"DDF9CC347F5D4544A341532EF7995E62",1,"01990a97-cda7-76b5-b512-bd9704a910b6","01990a83-7673-7c0c-a792-bbd8fbbaf673","2025-09-02_09h22.53.895",NA,NA,701.1475,701.1475,701.1476,701.4981,NA,NA,NA,NA,NA,NA,NA,TRUE,1,1.0077,698.15,701.1474,NA,NA,NA,NA,NA,180,27,0,56,56,96,1,2,57,"binary"
"DDF9CC347F5D4544A341532EF7995E62",1,"01990a97-cda7-76b5-b512-bd9704a910b6","01990a83-7673-7c0c-a792-bbd8fbbaf673","2025-09-02_09h22.53.895",NA,NA,704.4985,704.4985,704.4985,704.8475,NA,NA,NA,NA,NA,NA,NA,TRUE,2,0.9022,701.4997,704.4984,NA,NA,NA,NA,NA,25,35,0,57,57,34,1,2,58,"binary"
"DDF9CC347F5D4544A341532EF7995E62",1,"01990a97-cda7-76b5-b512-bd9704a910b6","01990a83-7673-7c0c-a792-bbd8fbbaf673","2025-09-02_09h22.53.895",NA,NA,707.8485,707.8485,707.8485,708.1984,NA,NA,NA,NA,NA,NA,NA,TRUE,1,0.7184,704.8494,707.8484,NA,NA,NA,NA,NA,200,39,0,58,58,105,1,2,59,"binary"
"DDF9CC347F5D4544A341532EF7995E62",1,"01990a97-cda7-76b5-b512-bd9704a910b6","01990a83-7673-7c0c-a792-bbd8fbbaf673","2025-09-02_09h22.53.895",NA,NA,711.1987,711.1987,711.1987,711.5483,NA,NA,NA,NA,NA,NA,NA,TRUE,2,0.9715,708.2,711.1986,NA,NA,NA,NA,NA,40,40,0,59,59,51,1,2,60,"binary"
"DDF9CC347F5D4544A341532EF7995E62",1,"01990a97-cda7-76b5-b512-bd9704a910b6","01990a83-7673-7c0c-a792-bbd8fbbaf673","2025-09-02_09h22.53.895",NA,NA,714.5488,714.5488,714.5489,714.8986,NA,NA,NA,NA,NA,NA,NA,TRUE,2,1.6225,711.5502,714.5487,NA,NA,NA,NA,NA,25,27,0,60,60,30,1,2,61,"binary"
"DDF9CC347F5D4544A341532EF7995E62",1,"01990a97-cda7-76b5-b512-bd9704a910b6","01990a83-7673-7c0c-a792-bbd8fbbaf673","2025-09-02_09h22.53.895",NA,NA,717.8982,717.8983,717.8983,718.248,NA,NA,NA,NA,NA,NA,NA,TRUE,2,0.923,714.9004,717.8981,NA,NA,NA,NA,NA,45,26,0,61,61,54,1,2,62,"binary"
"DDF9CC347F5D4544A341532EF7995E62",1,"01990a97-cda7-76b5-b512-bd9704a910b6","01990a83-7673-7c0c-a792-bbd8fbbaf673","2025-09-02_09h22.53.895",NA,NA,721.2481,721.2481,721.2482,721.599,NA,NA,NA,NA,NA,NA,NA,TRUE,2,1.2013,718.25,721.2481,NA,NA,NA,NA,NA,50,27,0,62,62,60,1,2,63,"binary"
"DDF9CC347F5D4544A341532EF7995E62",1,"01990a97-cda7-76b5-b512-bd9704a910b6","01990a83-7673-7c0c-a792-bbd8fbbaf673","2025-09-02_09h22.53.895",NA,NA,724.5989,724.5989,724.5989,724.9491,NA,NA,NA,NA,NA,NA,NA,TRUE,1,0.8182,721.6009,724.5989,NA,NA,NA,NA,NA,100,38,0,63,63,86,1,2,64,"binary"
"DDF9CC347F5D4544A341532EF7995E62",1,"01990a97-cda7-76b5-b512-bd9704a910b6","01990a83-7673-7c0c-a792-bbd8fbbaf673","2025-09-02_09h22.53.895",NA,NA,727.9494,727.9494,727.9495,728.2992,NA,NA,NA,NA,NA,NA,NA,TRUE,2,1.1024,724.9521,727.9493,NA,NA,NA,NA,NA,90,33,0,64,64,74,1,2,65,"binary"
"DDF9CC347F5D4544A341532EF7995E62",1,"01990a97-cda7-76b5-b512-bd9704a910b6","01990a83-7673-7c0c-a792-bbd8fbbaf673","2025-09-02_09h22.53.895",NA,NA,731.2995,731.2995,731.2995,731.6494,NA,NA,NA,NA,NA,NA,NA,TRUE,2,0.7578,728.3008,731.2994,NA,NA,NA,NA,NA,7,26,0,65,65,1,1,2,66,"binary"
"DDF9CC347F5D4544A341532EF7995E62",1,"01990a97-cda7-76b5-b512-bd9704a910b6","01990a83-7673-7c0c-a792-bbd8fbbaf673","2025-09-02_09h22.53.895",NA,NA,734.6497,734.6497,734.6497,734.9994,NA,NA,NA,NA,NA,NA,NA,TRUE,2,1.1866,731.6511,734.6495,NA,NA,NA,NA,NA,14,35,0,66,66,22,1,2,67,"binary"
"DDF9CC347F5D4544A341532EF7995E62",1,"01990a97-cda7-76b5-b512-bd9704a910b6","01990a83-7673-7c0c-a792-bbd8fbbaf673","2025-09-02_09h22.53.895",NA,NA,737.999,737.999,737.999,738.3496,NA,NA,NA,NA,NA,NA,NA,TRUE,2,0.719,735.0012,737.9988,NA,NA,NA,NA,NA,21,26,0,67,67,24,1,2,68,"binary"
"DDF9CC347F5D4544A341532EF7995E62",1,"01990a97-cda7-76b5-b512-bd9704a910b6","01990a83-7673-7c0c-a792-bbd8fbbaf673","2025-09-02_09h22.53.895",NA,NA,741.3499,741.35,741.35,741.6998,NA,NA,NA,NA,NA,NA,NA,TRUE,2,0.9528,738.3512,741.3497,NA,NA,NA,NA,NA,30,27,0,68,68,43,1,2,69,"binary"
"DDF9CC347F5D4544A341532EF7995E62",1,"01990a97-cda7-76b5-b512-bd9704a910b6","01990a83-7673-7c0c-a792-bbd8fbbaf673","2025-09-02_09h22.53.895",NA,NA,744.6999,744.6999,744.6999,745.05,NA,NA,NA,NA,NA,NA,NA,TRUE,2,0.6368,741.7015,744.6998,NA,NA,NA,NA,NA,30,29,0,69,69,44,1,2,70,"binary"
"DDF9CC347F5D4544A341532EF7995E62",1,"01990a97-cda7-76b5-b512-bd9704a910b6","01990a83-7673-7c0c-a792-bbd8fbbaf673","2025-09-02_09h22.53.895",NA,NA,748.0501,748.0501,748.0502,748.4001,NA,NA,NA,NA,NA,NA,NA,TRUE,2,0.5848,745.0519,748.05,NA,NA,NA,NA,NA,12,31,0,70,70,15,1,2,71,"binary"
"DDF9CC347F5D4544A341532EF7995E62",1,"01990a97-cda7-76b5-b512-bd9704a910b6","01990a83-7673-7c0c-a792-bbd8fbbaf673","2025-09-02_09h22.53.895",NA,NA,751.3996,751.3996,751.3996,751.7505,NA,NA,NA,NA,NA,NA,NA,TRUE,2,0.6389,748.4022,751.3995,NA,NA,NA,NA,NA,12,25,0,71,71,12,1,2,72,"binary"
"DDF9CC347F5D4544A341532EF7995E62",1,"01990a97-cda7-76b5-b512-bd9704a910b6","01990a83-7673-7c0c-a792-bbd8fbbaf673","2025-09-02_09h22.53.895",NA,NA,754.7504,754.7505,754.7505,755.0995,NA,NA,NA,NA,NA,NA,NA,TRUE,2,1.1311,751.7528,754.7503,NA,NA,NA,NA,NA,60,35,0,72,72,68,1,2,73,"binary"
"DDF9CC347F5D4544A341532EF7995E62",1,"01990a97-cda7-76b5-b512-bd9704a910b6","01990a83-7673-7c0c-a792-bbd8fbbaf673","2025-09-02_09h22.53.895",NA,NA,758.0997,758.0997,758.0997,758.4504,NA,NA,NA,NA,NA,NA,NA,TRUE,2,0.9192,755.1012,758.0996,NA,NA,NA,NA,NA,45,35,0,73,73,57,1,2,74,"binary"
"DDF9CC347F5D4544A341532EF7995E62",1,"01990a97-cda7-76b5-b512-bd9704a910b6","01990a83-7673-7c0c-a792-bbd8fbbaf673","2025-09-02_09h22.53.895",NA,NA,761.4499,761.4499,761.45,761.8002,NA,NA,NA,NA,NA,NA,NA,TRUE,2,0.5903,758.4519,761.4497,NA,NA,NA,NA,NA,10,26,0,74,74,7,1,2,75,"binary"
"DDF9CC347F5D4544A341532EF7995E62",1,"01990a97-cda7-76b5-b512-bd9704a910b6","01990a83-7673-7c0c-a792-bbd8fbbaf673","2025-09-02_09h22.53.895",NA,NA,764.8001,764.8002,764.8002,765.1503,NA,NA,NA,NA,NA,NA,NA,TRUE,1,0.5743,761.8019,764.8,NA,NA,NA,NA,NA,200,26,0,75,75,102,1,2,76,"binary"
"DDF9CC347F5D4544A341532EF7995E62",1,"01990a97-cda7-76b5-b512-bd9704a910b6","01990a83-7673-7c0c-a792-bbd8fbbaf673","2025-09-02_09h22.53.895",NA,NA,768.1502,768.1502,768.1502,768.5008,NA,NA,NA,NA,NA,NA,NA,TRUE,2,0.6364,765.1524,768.1501,NA,NA,NA,NA,NA,10,32,0,76,76,11,1,2,77,"binary"
"DDF9CC347F5D4544A341532EF7995E62",1,"01990a97-cda7-76b5-b512-bd9704a910b6","01990a83-7673-7c0c-a792-bbd8fbbaf673","2025-09-02_09h22.53.895",NA,NA,771.5002,771.5002,771.5002,771.851,NA,NA,NA,NA,NA,NA,NA,TRUE,2,1.7683,768.5024,771.5,NA,NA,NA,NA,NA,95,35,0,77,77,80,1,2,78,"binary"
"DDF9CC347F5D4544A341532EF7995E62",1,"01990a97-cda7-76b5-b512-bd9704a910b6","01990a83-7673-7c0c-a792-bbd8fbbaf673","2025-09-02_09h22.53.895",NA,NA,774.8513,774.8514,774.8514,775.2002,NA,NA,NA,NA,NA,NA,NA,TRUE,2,1.1863,771.8526,774.8512,NA,NA,NA,NA,NA,60,54,0,78,78,71,1,2,79,"binary"
"DDF9CC347F5D4544A341532EF7995E62",1,"01990a97-cda7-76b5-b512-bd9704a910b6","01990a83-7673-7c0c-a792-bbd8fbbaf673","2025-09-02_09h22.53.895",NA,NA,778.2015,778.2016,778.2017,778.5514,NA,NA,NA,NA,NA,NA,NA,TRUE,1,0.7202,775.2019,778.2014,NA,NA,NA,NA,NA,180,39,0,79,79,99,1,2,80,"binary"
"DDF9CC347F5D4544A341532EF7995E62",1,"01990a97-cda7-76b5-b512-bd9704a910b6","01990a83-7673-7c0c-a792-bbd8fbbaf673","2025-09-02_09h22.53.895",NA,NA,781.5517,781.5517,781.5517,781.9015,NA,NA,NA,NA,NA,NA,NA,TRUE,2,0.6323,778.5533,781.5515,NA,NA,NA,NA,NA,12,33,0,80,80,16,1,2,81,"binary"
"DDF9CC347F5D4544A341532EF7995E62",1,"01990a97-cda7-76b5-b512-bd9704a910b6","01990a83-7673-7c0c-a792-bbd8fbbaf673","2025-09-02_09h22.53.895",NA,NA,784.9014,784.9015,784.9015,785.2516,NA,NA,NA,NA,NA,NA,NA,TRUE,1,0.703,781.9039,784.9013,NA,NA,NA,NA,NA,200,47,0,81,81,106,1,2,82,"binary"
"DDF9CC347F5D4544A341532EF7995E62",1,"01990a97-cda7-76b5-b512-bd9704a910b6","01990a83-7673-7c0c-a792-bbd8fbbaf673","2025-09-02_09h22.53.895",NA,NA,788.2519,788.2519,788.2519,788.6013,NA,NA,NA,NA,NA,NA,NA,TRUE,2,1.3476,785.2533,788.2518,NA,NA,NA,NA,NA,95,31,0,82,82,78,1,2,83,"binary"
"DDF9CC347F5D4544A341532EF7995E62",1,"01990a97-cda7-76b5-b512-bd9704a910b6","01990a83-7673-7c0c-a792-bbd8fbbaf673","2025-09-02_09h22.53.895",NA,NA,791.6021,791.6021,791.6021,791.9519,NA,NA,NA,NA,NA,NA,NA,TRUE,2,0.7369,788.6019,791.6019,NA,NA,NA,NA,NA,28,32,0,83,83,38,1,2,84,"binary"
"DDF9CC347F5D4544A341532EF7995E62",1,"01990a97-cda7-76b5-b512-bd9704a910b6","01990a83-7673-7c0c-a792-bbd8fbbaf673","2025-09-02_09h22.53.895",NA,NA,794.9522,794.9522,794.9523,795.302,NA,NA,NA,NA,NA,NA,NA,TRUE,1,0.6812,791.9542,794.952,NA,NA,NA,NA,NA,150,54,0,84,84,95,1,2,85,"binary"
"DDF9CC347F5D4544A341532EF7995E62",1,"01990a97-cda7-76b5-b512-bd9704a910b6","01990a83-7673-7c0c-a792-bbd8fbbaf673","2025-09-02_09h22.53.895",NA,NA,798.3025,798.3025,798.3025,798.6522,NA,NA,NA,NA,NA,NA,NA,TRUE,1,0.889,795.3042,798.3023,NA,NA,NA,NA,NA,180,54,0,85,85,101,1,2,86,"binary"
"DDF9CC347F5D4544A341532EF7995E62",1,"01990a97-cda7-76b5-b512-bd9704a910b6","01990a83-7673-7c0c-a792-bbd8fbbaf673","2025-09-02_09h22.53.895",NA,NA,801.6525,801.6525,801.6526,802.0024,NA,NA,NA,NA,NA,NA,NA,TRUE,2,0.6693,798.6547,801.6524,NA,NA,NA,NA,NA,14,32,0,86,86,21,1,2,87,"binary"
"DDF9CC347F5D4544A341532EF7995E62",1,"01990a97-cda7-76b5-b512-bd9704a910b6","01990a83-7673-7c0c-a792-bbd8fbbaf673","2025-09-02_09h22.53.895",NA,NA,805.0027,805.0027,805.0027,805.3525,NA,NA,NA,NA,NA,NA,NA,TRUE,2,1.119,802.0045,805.0025,NA,NA,NA,NA,NA,95,33,0,87,87,79,1,2,88,"binary"
"DDF9CC347F5D4544A341532EF7995E62",1,"01990a97-cda7-76b5-b512-bd9704a910b6","01990a83-7673-7c0c-a792-bbd8fbbaf673","2025-09-02_09h22.53.895",NA,NA,808.3527,808.3527,808.3527,808.7026,NA,NA,NA,NA,NA,NA,NA,TRUE,1,2.6189,805.3543,808.3526,NA,NA,NA,NA,NA,10,25,0,88,88,6,1,2,89,"binary"
"DDF9CC347F5D4544A341532EF7995E62",1,"01990a97-cda7-76b5-b512-bd9704a910b6","01990a83-7673-7c0c-a792-bbd8fbbaf673","2025-09-02_09h22.53.895",NA,NA,811.7027,811.7027,811.7027,812.0527,NA,NA,NA,NA,NA,NA,NA,TRUE,2,1.0231,808.7051,811.7026,NA,NA,NA,NA,NA,95,40,0,89,89,81,1,2,90,"binary"
"DDF9CC347F5D4544A341532EF7995E62",1,"01990a97-cda7-76b5-b512-bd9704a910b6","01990a83-7673-7c0c-a792-bbd8fbbaf673","2025-09-02_09h22.53.895",NA,NA,815.053,815.053,815.0531,815.4029,NA,NA,NA,NA,NA,NA,NA,TRUE,2,0.6886,812.0546,815.0528,NA,NA,NA,NA,NA,30,32,0,90,90,46,1,2,91,"binary"
"DDF9CC347F5D4544A341532EF7995E62",1,"01990a97-cda7-76b5-b512-bd9704a910b6","01990a83-7673-7c0c-a792-bbd8fbbaf673","2025-09-02_09h22.53.895",NA,NA,818.4033,818.4033,818.4034,818.7527,NA,NA,NA,NA,NA,NA,NA,TRUE,2,0.6131,815.4048,818.4031,NA,NA,NA,NA,NA,14,28,0,91,91,20,1,2,92,"binary"
"DDF9CC347F5D4544A341532EF7995E62",1,"01990a97-cda7-76b5-b512-bd9704a910b6","01990a83-7673-7c0c-a792-bbd8fbbaf673","2025-09-02_09h22.53.895",NA,NA,821.7534,821.7534,821.7534,822.1031,NA,NA,NA,NA,NA,NA,NA,TRUE,2,1.2694,818.7548,821.7532,NA,NA,NA,NA,NA,28,26,0,92,92,36,1,2,93,"binary"
"DDF9CC347F5D4544A341532EF7995E62",1,"01990a97-cda7-76b5-b512-bd9704a910b6","01990a83-7673-7c0c-a792-bbd8fbbaf673","2025-09-02_09h22.53.895",NA,NA,825.1034,825.1034,825.1035,825.4532,NA,NA,NA,NA,NA,NA,NA,TRUE,1,2.0857,822.1052,825.1032,NA,NA,NA,NA,NA,180,46,0,93,93,100,1,2,94,"binary"
"DDF9CC347F5D4544A341532EF7995E62",1,"01990a97-cda7-76b5-b512-bd9704a910b6","01990a83-7673-7c0c-a792-bbd8fbbaf673","2025-09-02_09h22.53.895",NA,NA,828.4536,828.4536,828.4537,828.8034,NA,NA,NA,NA,NA,NA,NA,TRUE,1,1.1885,825.4549,828.4535,NA,NA,NA,NA,NA,100,39,0,94,94,87,1,2,95,"binary"
"DDF9CC347F5D4544A341532EF7995E62",1,"01990a97-cda7-76b5-b512-bd9704a910b6","01990a83-7673-7c0c-a792-bbd8fbbaf673","2025-09-02_09h22.53.895",NA,NA,831.8038,831.8038,831.8038,832.1537,NA,NA,NA,NA,NA,NA,NA,TRUE,2,2.3959,828.8053,831.8036,NA,NA,NA,NA,NA,12,26,0,95,95,13,1,2,96,"binary"
"DDF9CC347F5D4544A341532EF7995E62",1,"01990a97-cda7-76b5-b512-bd9704a910b6","01990a83-7673-7c0c-a792-bbd8fbbaf673","2025-09-02_09h22.53.895",NA,NA,835.1538,835.154,835.154,835.5037,NA,NA,NA,NA,NA,NA,NA,TRUE,2,1.4357,832.1557,835.1537,NA,NA,NA,NA,NA,40,54,0,96,96,53,1,2,97,"binary"
"DDF9CC347F5D4544A341532EF7995E62",1,"01990a97-cda7-76b5-b512-bd9704a910b6","01990a83-7673-7c0c-a792-bbd8fbbaf673","2025-09-02_09h22.53.895",NA,NA,838.504,838.5041,838.5041,838.8539,NA,NA,NA,NA,NA,NA,NA,TRUE,2,1.6908,835.5057,838.5039,NA,NA,NA,NA,NA,50,30,0,97,97,61,1,2,98,"binary"
"DDF9CC347F5D4544A341532EF7995E62",1,"01990a97-cda7-76b5-b512-bd9704a910b6","01990a83-7673-7c0c-a792-bbd8fbbaf673","2025-09-02_09h22.53.895",NA,NA,841.854,841.854,841.854,842.2039,NA,NA,NA,NA,NA,NA,NA,TRUE,1,1.1693,838.8557,841.8538,NA,NA,NA,NA,NA,100,26,0,98,98,84,1,2,99,"binary"
"DDF9CC347F5D4544A341532EF7995E62",1,"01990a97-cda7-76b5-b512-bd9704a910b6","01990a83-7673-7c0c-a792-bbd8fbbaf673","2025-09-02_09h22.53.895",NA,NA,845.2043,845.2044,845.2044,845.5541,NA,NA,NA,NA,NA,NA,NA,TRUE,2,1.6857,842.2059,845.2042,NA,NA,NA,NA,NA,180,31,0,99,99,97,1,2,100,"binary"
"DDF9CC347F5D4544A341532EF7995E62",1,"01990a97-cda7-76b5-b512-bd9704a910b6","01990a83-7673-7c0c-a792-bbd8fbbaf673","2025-09-02_09h22.53.895",NA,NA,848.5544,848.5545,848.5545,848.9042,NA,NA,NA,NA,NA,NA,NA,TRUE,2,2.5033,845.5564,848.5543,NA,NA,NA,NA,NA,28,35,0,100,100,39,1,2,101,"binary"
"DDF9CC347F5D4544A341532EF7995E62",1,"01990a97-cda7-76b5-b512-bd9704a910b6","01990a83-7673-7c0c-a792-bbd8fbbaf673","2025-09-02_09h22.53.895",NA,NA,851.9046,851.9046,851.9046,852.2544,NA,NA,NA,NA,NA,NA,NA,TRUE,2,1.9288,848.9062,851.9045,NA,NA,NA,NA,NA,14,39,0,101,101,23,1,2,102,"binary"
"DDF9CC347F5D4544A341532EF7995E62",1,"01990a97-cda7-76b5-b512-bd9704a910b6","01990a83-7673-7c0c-a792-bbd8fbbaf673","2025-09-02_09h22.53.895",NA,NA,855.2547,855.2547,855.2547,855.6046,NA,NA,NA,NA,NA,NA,NA,TRUE,1,0.7729,852.2563,855.2545,NA,NA,NA,NA,NA,150,35,0,102,102,92,1,2,103,"binary"
"DDF9CC347F5D4544A341532EF7995E62",1,"01990a97-cda7-76b5-b512-bd9704a910b6","01990a83-7673-7c0c-a792-bbd8fbbaf673","2025-09-02_09h22.53.895",NA,NA,858.6047,858.6048,858.6048,858.9546,NA,NA,NA,NA,NA,NA,NA,TRUE,1,0.736,855.6065,858.6046,NA,NA,NA,NA,NA,200,54,0,103,103,107,1,2,104,"binary"
"DDF9CC347F5D4544A341532EF7995E62",1,"01990a97-cda7-76b5-b512-bd9704a910b6","01990a83-7673-7c0c-a792-bbd8fbbaf673","2025-09-02_09h22.53.895",NA,NA,861.9548,861.9548,861.9548,862.3048,NA,NA,NA,NA,NA,NA,NA,TRUE,2,1.1396,858.9565,861.9547,NA,NA,NA,NA,NA,25,46,0,104,104,35,1,2,105,"binary"
"DDF9CC347F5D4544A341532EF7995E62",1,"01990a97-cda7-76b5-b512-bd9704a910b6","01990a83-7673-7c0c-a792-bbd8fbbaf673","2025-09-02_09h22.53.895",NA,NA,865.3051,865.3051,865.3051,865.6549,NA,NA,NA,NA,NA,NA,NA,TRUE,2,0.9656,862.3068,865.3049,NA,NA,NA,NA,NA,28,39,0,105,105,40,1,2,106,"binary"
"DDF9CC347F5D4544A341532EF7995E62",1,"01990a97-cda7-76b5-b512-bd9704a910b6","01990a83-7673-7c0c-a792-bbd8fbbaf673","2025-09-02_09h22.53.895",NA,NA,868.6551,868.6551,868.6551,869.0051,NA,NA,NA,NA,NA,NA,NA,TRUE,2,0.9521,865.6567,868.655,NA,NA,NA,NA,NA,7,30,0,106,106,3,1,2,107,"binary"
"DDF9CC347F5D4544A341532EF7995E62",1,"01990a97-cda7-76b5-b512-bd9704a910b6","01990a83-7673-7c0c-a792-bbd8fbbaf673","2025-09-02_09h22.53.895",NA,NA,872.0044,872.0044,872.0044,872.3552,NA,NA,NA,NA,NA,NA,NA,TRUE,2,0.5381,869.0069,872.0042,NA,NA,NA,NA,NA,7,32,0,107,107,4,1,2,108,"binary"
