"participant","session","assignmentId","projectId","date","practiceTrial.started","practiceTrial.stopped","tooLate.started","tooLate.stopped","blank.started","blank.stopped","trials_pract.thisRepN","trials_pract.thisTrialN","trials_pract.thisN","trials_pract.thisIndex","trials_pract.ran","delay_pract","amount_pract","responseMade","key","rt","trial.started","trial.stopped","trials.thisRepN","trials.thisTrialN","trials.thisN","trials.thisIndex","trials.ran","delay","amount","trials_2.thisRepN","trials_2.thisTrialN","trials_2.thisN","trials_2.thisIndex","trials_2.ran","block","trial","taskType"
"E04F76281CC649BEAB8D61800201D3F2",1,"01990a9b-6831-739c-a85b-af2d802dff14","01990a83-7673-7c0c-a792-bbd8fbbaf673","2025-09-02_09h26.40.929",28.8821,31.8711,31.8714,32.1212,32.1212,32.2184,0,0,0,2,1,14,45,FALSE,NA,NA,NA,NA,NA,NA,NA,NA,NA,NA,NA,NA,NA,NA,NA,NA,0,1,"binary"
"E04F76281CC649BEAB8D61800201D3F2",1,"01990a9b-6831-739c-a85b-af2d802dff14","01990a83-7673-7c0c-a792-bbd8fbbaf673","2025-09-02_09h26.40.929",32.2195,35.2183,35.2184,35.2184,35.2184,35.5724,0,1,1,0,1,7,30,TRUE,2,1.4452,NA,NA,NA,NA,NA,NA,NA,NA,NA,NA,NA,NA,NA,NA,0,2,"binary"
"E04F76281CC649BEAB8D61800201D3F2",1,"01990a9b-6831-739c-a85b-af2d802dff14","01990a83-7673-7c0c-a792-bbd8fbbaf673","2025-09-02_09h26.40.929",35.5731,38.5724,38.5726,38.5726,38.5726,38.9198,0,2,2,3,1,3,27,TRUE,2,1.9669,NA,NA,NA,NA,NA,NA,NA,NA,NA,NA,NA,NA,NA,NA,0,3,"binary"
"E04F76281CC649BEAB8D61800201D3F2",1,"01990a9b-6831-739c-a85b-af2d802dff14","01990a83-7673-7c0c-a792-bbd8fbbaf673","2025-09-02_09h26.40.929",38.9204,41.9229,41.9231,41.9231,41.9231,42.267,0,3,3,4,1,30,40,TRUE,1,1.5237,NA,NA,NA,NA,NA,NA,NA,NA,NA,NA,NA,NA,NA,NA,0,4,"binary"
"E04F76281CC649BEAB8D61800201D3F2",1,"01990a9b-6831-739c-a85b-af2d802dff14","01990a83-7673-7c0c-a792-bbd8fbbaf673","2025-09-02_09h26.40.929",42.2676,45.267,45.267,45.267,45.267,45.6212,0,4,4,1,1,100,50,TRUE,1,1.5677,NA,NA,NA,NA,NA,NA,NA,NA,NA,NA,NA,NA,NA,NA,0,5,"binary"
"E04F76281CC649BEAB8D61800201D3F2",1,"01990a9b-6831-739c-a85b-af2d802dff14","01990a83-7673-7c0c-a792-bbd8fbbaf673","2025-09-02_09h26.40.929",NA,NA,67.5242,67.5243,67.5243,67.8714,NA,NA,NA,NA,NA,NA,NA,TRUE,1,1.8217,64.534,67.5241,0,0,0,14,1,12,28,NA,NA,NA,NA,NA,1,1,"binary"
"E04F76281CC649BEAB8D61800201D3F2",1,"01990a9b-6831-739c-a85b-af2d802dff14","01990a83-7673-7c0c-a792-bbd8fbbaf673","2025-09-02_09h26.40.929",NA,NA,70.8714,70.8714,70.8714,71.2255,NA,NA,NA,NA,NA,NA,NA,TRUE,1,1.2096,67.8722,70.8714,0,1,1,67,1,60,33,NA,NA,NA,NA,NA,1,2,"binary"
"E04F76281CC649BEAB8D61800201D3F2",1,"01990a9b-6831-739c-a85b-af2d802dff14","01990a83-7673-7c0c-a792-bbd8fbbaf673","2025-09-02_09h26.40.929",NA,NA,74.2256,74.2256,74.2256,74.5727,NA,NA,NA,NA,NA,NA,NA,TRUE,2,1.93,71.2266,74.2256,0,2,2,71,1,60,54,NA,NA,NA,NA,NA,1,3,"binary"
"E04F76281CC649BEAB8D61800201D3F2",1,"01990a9b-6831-739c-a85b-af2d802dff14","01990a83-7673-7c0c-a792-bbd8fbbaf673","2025-09-02_09h26.40.929",NA,NA,77.5728,77.5728,77.5728,77.9198,NA,NA,NA,NA,NA,NA,NA,TRUE,2,1.977,74.5733,77.5727,0,3,3,35,1,25,46,NA,NA,NA,NA,NA,1,4,"binary"
"E04F76281CC649BEAB8D61800201D3F2",1,"01990a9b-6831-739c-a85b-af2d802dff14","01990a83-7673-7c0c-a792-bbd8fbbaf673","2025-09-02_09h26.40.929",NA,NA,80.92,80.92,80.92,81.2741,NA,NA,NA,NA,NA,NA,NA,TRUE,2,1.5678,77.9203,80.92,0,4,4,5,1,7,35,NA,NA,NA,NA,NA,1,5,"binary"
"E04F76281CC649BEAB8D61800201D3F2",1,"01990a9b-6831-739c-a85b-af2d802dff14","01990a83-7673-7c0c-a792-bbd8fbbaf673","2025-09-02_09h26.40.929",NA,NA,84.2741,84.2741,84.2741,84.6212,NA,NA,NA,NA,NA,NA,NA,TRUE,1,0.864,81.2748,84.2741,0,5,5,1,1,7,26,NA,NA,NA,NA,NA,1,6,"binary"
"E04F76281CC649BEAB8D61800201D3F2",1,"01990a9b-6831-739c-a85b-af2d802dff14","01990a83-7673-7c0c-a792-bbd8fbbaf673","2025-09-02_09h26.40.929",NA,NA,87.6214,87.6214,87.6214,87.9755,NA,NA,NA,NA,NA,NA,NA,TRUE,1,1.1707,84.622,87.6213,0,6,6,74,1,90,33,NA,NA,NA,NA,NA,1,7,"binary"
"E04F76281CC649BEAB8D61800201D3F2",1,"01990a9b-6831-739c-a85b-af2d802dff14","01990a83-7673-7c0c-a792-bbd8fbbaf673","2025-09-02_09h26.40.929",NA,NA,90.9756,90.9756,90.9756,91.3228,NA,NA,NA,NA,NA,NA,NA,TRUE,2,1.3852,87.9761,90.9755,0,7,7,47,1,30,38,NA,NA,NA,NA,NA,1,8,"binary"
"E04F76281CC649BEAB8D61800201D3F2",1,"01990a9b-6831-739c-a85b-af2d802dff14","01990a83-7673-7c0c-a792-bbd8fbbaf673","2025-09-02_09h26.40.929",NA,NA,94.3227,94.3227,94.3228,94.6699,NA,NA,NA,NA,NA,NA,NA,TRUE,2,1.583,91.3234,94.3226,0,8,8,63,1,50,40,NA,NA,NA,NA,NA,1,9,"binary"
"E04F76281CC649BEAB8D61800201D3F2",1,"01990a9b-6831-739c-a85b-af2d802dff14","01990a83-7673-7c0c-a792-bbd8fbbaf673","2025-09-02_09h26.40.929",NA,NA,97.67,97.67,97.67,98.024,NA,NA,NA,NA,NA,NA,NA,TRUE,1,1.3108,94.6705,97.6699,0,9,9,18,1,14,25,NA,NA,NA,NA,NA,1,10,"binary"
"E04F76281CC649BEAB8D61800201D3F2",1,"01990a9b-6831-739c-a85b-af2d802dff14","01990a83-7673-7c0c-a792-bbd8fbbaf673","2025-09-02_09h26.40.929",NA,NA,101.0242,101.0242,101.0243,101.3714,NA,NA,NA,NA,NA,NA,NA,TRUE,1,1.0506,98.0246,101.0242,0,10,10,26,1,21,29,NA,NA,NA,NA,NA,1,11,"binary"
"E04F76281CC649BEAB8D61800201D3F2",1,"01990a9b-6831-739c-a85b-af2d802dff14","01990a83-7673-7c0c-a792-bbd8fbbaf673","2025-09-02_09h26.40.929",NA,NA,104.3746,104.3747,104.3747,104.7255,NA,NA,NA,NA,NA,NA,NA,TRUE,1,2.4906,101.3719,104.3746,0,11,11,94,1,150,47,NA,NA,NA,NA,NA,1,12,"binary"
"E04F76281CC649BEAB8D61800201D3F2",1,"01990a9b-6831-739c-a85b-af2d802dff14","01990a83-7673-7c0c-a792-bbd8fbbaf673","2025-09-02_09h26.40.929",NA,NA,107.7256,107.7256,107.7256,108.0729,NA,NA,NA,NA,NA,NA,NA,TRUE,2,2.6954,104.7261,107.7256,0,12,12,83,1,95,54,NA,NA,NA,NA,NA,1,13,"binary"
"E04F76281CC649BEAB8D61800201D3F2",1,"01990a9b-6831-739c-a85b-af2d802dff14","01990a83-7673-7c0c-a792-bbd8fbbaf673","2025-09-02_09h26.40.929",NA,NA,111.0729,111.0729,111.0729,111.4205,NA,NA,NA,NA,NA,NA,NA,TRUE,2,1.626,108.0739,111.0727,0,13,13,58,1,45,40,NA,NA,NA,NA,NA,1,14,"binary"
"E04F76281CC649BEAB8D61800201D3F2",1,"01990a9b-6831-739c-a85b-af2d802dff14","01990a83-7673-7c0c-a792-bbd8fbbaf673","2025-09-02_09h26.40.929",NA,NA,114.42,114.42,114.42,114.7742,NA,NA,NA,NA,NA,NA,NA,TRUE,1,1.3456,111.4228,114.42,0,14,14,34,1,25,35,NA,NA,NA,NA,NA,1,15,"binary"
"E04F76281CC649BEAB8D61800201D3F2",1,"01990a9b-6831-739c-a85b-af2d802dff14","01990a83-7673-7c0c-a792-bbd8fbbaf673","2025-09-02_09h26.40.929",NA,NA,117.7743,117.7743,117.7743,118.1214,NA,NA,NA,NA,NA,NA,NA,TRUE,1,1.187,114.7747,117.7742,0,15,15,106,1,200,47,NA,NA,NA,NA,NA,1,16,"binary"
"E04F76281CC649BEAB8D61800201D3F2",1,"01990a9b-6831-739c-a85b-af2d802dff14","01990a83-7673-7c0c-a792-bbd8fbbaf673","2025-09-02_09h26.40.929",NA,NA,121.1214,121.1214,121.1214,121.4756,NA,NA,NA,NA,NA,NA,NA,TRUE,2,1.2294,118.1221,121.1214,0,16,16,64,1,50,46,NA,NA,NA,NA,NA,1,17,"binary"
"E04F76281CC649BEAB8D61800201D3F2",1,"01990a9b-6831-739c-a85b-af2d802dff14","01990a83-7673-7c0c-a792-bbd8fbbaf673","2025-09-02_09h26.40.929",NA,NA,124.4757,124.4757,124.4757,124.8228,NA,NA,NA,NA,NA,NA,NA,TRUE,1,0.9664,121.4762,124.4756,0,17,17,87,1,100,39,NA,NA,NA,NA,NA,1,18,"binary"
"E04F76281CC649BEAB8D61800201D3F2",1,"01990a9b-6831-739c-a85b-af2d802dff14","01990a83-7673-7c0c-a792-bbd8fbbaf673","2025-09-02_09h26.40.929",NA,NA,127.8235,127.8235,127.8236,128.17,NA,NA,NA,NA,NA,NA,NA,TRUE,2,2.3032,124.8233,127.8233,0,18,18,29,1,21,38,NA,NA,NA,NA,NA,1,19,"binary"
"E04F76281CC649BEAB8D61800201D3F2",1,"01990a9b-6831-739c-a85b-af2d802dff14","01990a83-7673-7c0c-a792-bbd8fbbaf673","2025-09-02_09h26.40.929",NA,NA,131.17,131.17,131.17,131.5242,NA,NA,NA,NA,NA,NA,NA,TRUE,2,2.2619,128.1705,131.17,0,19,19,32,1,25,31,NA,NA,NA,NA,NA,1,20,"binary"
"E04F76281CC649BEAB8D61800201D3F2",1,"01990a9b-6831-739c-a85b-af2d802dff14","01990a83-7673-7c0c-a792-bbd8fbbaf673","2025-09-02_09h26.40.929",NA,NA,134.5243,134.5243,134.5243,134.8715,NA,NA,NA,NA,NA,NA,NA,TRUE,1,0.9516,131.5247,134.5242,0,20,20,99,1,180,39,NA,NA,NA,NA,NA,1,21,"binary"
"E04F76281CC649BEAB8D61800201D3F2",1,"01990a9b-6831-739c-a85b-af2d802dff14","01990a83-7673-7c0c-a792-bbd8fbbaf673","2025-09-02_09h26.40.929",NA,NA,137.8716,137.8716,137.8716,138.2257,NA,NA,NA,NA,NA,NA,NA,TRUE,1,1.2857,134.872,137.8716,0,21,21,80,1,95,35,NA,NA,NA,NA,NA,1,22,"binary"
"E04F76281CC649BEAB8D61800201D3F2",1,"01990a9b-6831-739c-a85b-af2d802dff14","01990a83-7673-7c0c-a792-bbd8fbbaf673","2025-09-02_09h26.40.929",NA,NA,141.2257,141.2257,141.2257,141.5729,NA,NA,NA,NA,NA,NA,NA,TRUE,1,1.654,138.2262,141.2256,0,22,22,82,1,95,47,NA,NA,NA,NA,NA,1,23,"binary"
"E04F76281CC649BEAB8D61800201D3F2",1,"01990a9b-6831-739c-a85b-af2d802dff14","01990a83-7673-7c0c-a792-bbd8fbbaf673","2025-09-02_09h26.40.929",NA,NA,144.573,144.573,144.573,144.92,NA,NA,NA,NA,NA,NA,NA,TRUE,2,1.2541,141.5734,144.573,0,23,23,15,1,12,31,NA,NA,NA,NA,NA,1,24,"binary"
"E04F76281CC649BEAB8D61800201D3F2",1,"01990a9b-6831-739c-a85b-af2d802dff14","01990a83-7673-7c0c-a792-bbd8fbbaf673","2025-09-02_09h26.40.929",NA,NA,147.9201,147.9201,147.9201,148.2743,NA,NA,NA,NA,NA,NA,NA,TRUE,1,0.9559,144.9205,147.9201,0,24,24,103,1,200,28,NA,NA,NA,NA,NA,1,25,"binary"
"E04F76281CC649BEAB8D61800201D3F2",1,"01990a9b-6831-739c-a85b-af2d802dff14","01990a83-7673-7c0c-a792-bbd8fbbaf673","2025-09-02_09h26.40.929",NA,NA,151.2744,151.2744,151.2744,151.6216,NA,NA,NA,NA,NA,NA,NA,TRUE,1,2.0693,148.2749,151.2743,0,25,25,28,1,21,32,NA,NA,NA,NA,NA,1,26,"binary"
"E04F76281CC649BEAB8D61800201D3F2",1,"01990a9b-6831-739c-a85b-af2d802dff14","01990a83-7673-7c0c-a792-bbd8fbbaf673","2025-09-02_09h26.40.929",NA,NA,154.6222,154.6222,154.6223,154.9757,NA,NA,NA,NA,NA,NA,NA,TRUE,2,1.7758,151.6221,154.622,0,26,26,46,1,30,32,NA,NA,NA,NA,NA,1,27,"binary"
"E04F76281CC649BEAB8D61800201D3F2",1,"01990a9b-6831-739c-a85b-af2d802dff14","01990a83-7673-7c0c-a792-bbd8fbbaf673","2025-09-02_09h26.40.929",NA,NA,157.9758,157.9758,157.9758,158.323,NA,NA,NA,NA,NA,NA,NA,TRUE,1,1.2563,154.9762,157.9757,0,27,27,72,1,90,26,NA,NA,NA,NA,NA,1,28,"binary"
"E04F76281CC649BEAB8D61800201D3F2",1,"01990a9b-6831-739c-a85b-af2d802dff14","01990a83-7673-7c0c-a792-bbd8fbbaf673","2025-09-02_09h26.40.929",NA,NA,161.323,161.3231,161.3231,161.6701,NA,NA,NA,NA,NA,NA,NA,TRUE,1,0.9038,158.3237,161.323,0,28,28,20,1,14,28,NA,NA,NA,NA,NA,1,29,"binary"
"E04F76281CC649BEAB8D61800201D3F2",1,"01990a9b-6831-739c-a85b-af2d802dff14","01990a83-7673-7c0c-a792-bbd8fbbaf673","2025-09-02_09h26.40.929",NA,NA,164.6703,164.6703,164.6703,165.0244,NA,NA,NA,NA,NA,NA,NA,TRUE,1,1.0485,161.6706,164.6701,0,29,29,42,1,30,26,NA,NA,NA,NA,NA,1,30,"binary"
"E04F76281CC649BEAB8D61800201D3F2",1,"01990a9b-6831-739c-a85b-af2d802dff14","01990a83-7673-7c0c-a792-bbd8fbbaf673","2025-09-02_09h26.40.929",NA,NA,168.0243,168.0243,168.0243,168.3716,NA,NA,NA,NA,NA,NA,NA,TRUE,1,1.3906,165.0249,168.0242,0,30,30,27,1,21,30,NA,NA,NA,NA,NA,1,31,"binary"
"E04F76281CC649BEAB8D61800201D3F2",1,"01990a9b-6831-739c-a85b-af2d802dff14","01990a83-7673-7c0c-a792-bbd8fbbaf673","2025-09-02_09h26.40.929",NA,NA,171.3716,171.3717,171.3717,171.7188,NA,NA,NA,NA,NA,NA,NA,TRUE,2,1.3523,168.372,171.3716,0,31,31,16,1,12,33,NA,NA,NA,NA,NA,1,32,"binary"
"E04F76281CC649BEAB8D61800201D3F2",1,"01990a9b-6831-739c-a85b-af2d802dff14","01990a83-7673-7c0c-a792-bbd8fbbaf673","2025-09-02_09h26.40.929",NA,NA,174.7191,174.7191,174.7191,175.073,NA,NA,NA,NA,NA,NA,NA,TRUE,2,1.383,171.7193,174.719,0,32,32,88,1,100,46,NA,NA,NA,NA,NA,1,33,"binary"
"E04F76281CC649BEAB8D61800201D3F2",1,"01990a9b-6831-739c-a85b-af2d802dff14","01990a83-7673-7c0c-a792-bbd8fbbaf673","2025-09-02_09h26.40.929",NA,NA,178.073,178.073,178.073,178.4202,NA,NA,NA,NA,NA,NA,NA,TRUE,1,1.418,175.0735,178.073,0,33,33,73,1,90,30,NA,NA,NA,NA,NA,1,34,"binary"
"E04F76281CC649BEAB8D61800201D3F2",1,"01990a9b-6831-739c-a85b-af2d802dff14","01990a83-7673-7c0c-a792-bbd8fbbaf673","2025-09-02_09h26.40.929",NA,NA,181.4203,181.4203,181.4203,181.7744,NA,NA,NA,NA,NA,NA,NA,TRUE,2,1.9696,178.4207,181.4202,0,34,34,57,1,45,35,NA,NA,NA,NA,NA,1,35,"binary"
"E04F76281CC649BEAB8D61800201D3F2",1,"01990a9b-6831-739c-a85b-af2d802dff14","01990a83-7673-7c0c-a792-bbd8fbbaf673","2025-09-02_09h26.40.929",NA,NA,184.7745,184.7745,184.7745,185.1215,NA,NA,NA,NA,NA,NA,NA,TRUE,1,1.4752,181.7749,184.7745,0,35,35,45,1,30,30,NA,NA,NA,NA,NA,1,36,"binary"
"E04F76281CC649BEAB8D61800201D3F2",1,"01990a9b-6831-739c-a85b-af2d802dff14","01990a83-7673-7c0c-a792-bbd8fbbaf673","2025-09-02_09h26.40.929",NA,NA,188.1217,188.1217,188.1217,188.4757,NA,NA,NA,NA,NA,NA,NA,TRUE,1,0.9651,185.122,188.1216,0,36,36,78,1,95,31,NA,NA,NA,NA,NA,1,37,"binary"
"E04F76281CC649BEAB8D61800201D3F2",1,"01990a9b-6831-739c-a85b-af2d802dff14","01990a83-7673-7c0c-a792-bbd8fbbaf673","2025-09-02_09h26.40.929",NA,NA,191.4758,191.4758,191.4758,191.823,NA,NA,NA,NA,NA,NA,NA,TRUE,1,0.8711,188.4764,191.4757,0,37,37,19,1,14,26,NA,NA,NA,NA,NA,1,38,"binary"
"E04F76281CC649BEAB8D61800201D3F2",1,"01990a9b-6831-739c-a85b-af2d802dff14","01990a83-7673-7c0c-a792-bbd8fbbaf673","2025-09-02_09h26.40.929",NA,NA,194.8231,194.8231,194.8232,195.1703,NA,NA,NA,NA,NA,NA,NA,TRUE,1,1.1431,191.8235,194.8231,0,38,38,39,1,28,35,NA,NA,NA,NA,NA,1,39,"binary"
"E04F76281CC649BEAB8D61800201D3F2",1,"01990a9b-6831-739c-a85b-af2d802dff14","01990a83-7673-7c0c-a792-bbd8fbbaf673","2025-09-02_09h26.40.929",NA,NA,198.1739,198.1739,198.1739,198.5244,NA,NA,NA,NA,NA,NA,NA,TRUE,1,1.2061,195.1708,198.1738,0,39,39,6,1,10,25,NA,NA,NA,NA,NA,1,40,"binary"
"E04F76281CC649BEAB8D61800201D3F2",1,"01990a9b-6831-739c-a85b-af2d802dff14","01990a83-7673-7c0c-a792-bbd8fbbaf673","2025-09-02_09h26.40.929",NA,NA,201.5245,201.5245,201.5245,201.872,NA,NA,NA,NA,NA,NA,NA,TRUE,1,0.8535,198.5249,201.5245,0,40,40,98,1,180,35,NA,NA,NA,NA,NA,1,41,"binary"
"E04F76281CC649BEAB8D61800201D3F2",1,"01990a9b-6831-739c-a85b-af2d802dff14","01990a83-7673-7c0c-a792-bbd8fbbaf673","2025-09-02_09h26.40.929",NA,NA,204.8717,204.8717,204.8717,205.2189,NA,NA,NA,NA,NA,NA,NA,TRUE,1,0.7704,201.8737,204.8716,0,41,41,97,1,180,31,NA,NA,NA,NA,NA,1,42,"binary"
"E04F76281CC649BEAB8D61800201D3F2",1,"01990a9b-6831-739c-a85b-af2d802dff14","01990a83-7673-7c0c-a792-bbd8fbbaf673","2025-09-02_09h26.40.929",NA,NA,208.219,208.219,208.219,208.5736,NA,NA,NA,NA,NA,NA,NA,TRUE,1,1.1294,205.2194,208.2189,0,42,42,43,1,30,27,NA,NA,NA,NA,NA,1,43,"binary"
"E04F76281CC649BEAB8D61800201D3F2",1,"01990a9b-6831-739c-a85b-af2d802dff14","01990a83-7673-7c0c-a792-bbd8fbbaf673","2025-09-02_09h26.40.929",NA,NA,211.5731,211.5731,211.5731,211.9203,NA,NA,NA,NA,NA,NA,NA,TRUE,1,0.8659,208.5759,211.573,0,43,43,54,1,45,26,NA,NA,NA,NA,NA,1,44,"binary"
"E04F76281CC649BEAB8D61800201D3F2",1,"01990a9b-6831-739c-a85b-af2d802dff14","01990a83-7673-7c0c-a792-bbd8fbbaf673","2025-09-02_09h26.40.929",NA,NA,214.9204,214.9204,214.9204,215.2745,NA,NA,NA,NA,NA,NA,NA,TRUE,2,1.2198,211.9208,214.9204,0,44,44,23,1,14,39,NA,NA,NA,NA,NA,1,45,"binary"
"E04F76281CC649BEAB8D61800201D3F2",1,"01990a9b-6831-739c-a85b-af2d802dff14","01990a83-7673-7c0c-a792-bbd8fbbaf673","2025-09-02_09h26.40.929",NA,NA,218.2746,218.2746,218.2746,218.6218,NA,NA,NA,NA,NA,NA,NA,TRUE,2,1.0482,215.2751,218.2746,0,45,45,41,1,28,46,NA,NA,NA,NA,NA,1,46,"binary"
"E04F76281CC649BEAB8D61800201D3F2",1,"01990a9b-6831-739c-a85b-af2d802dff14","01990a83-7673-7c0c-a792-bbd8fbbaf673","2025-09-02_09h26.40.929",NA,NA,221.6218,221.6218,221.6218,221.969,NA,NA,NA,NA,NA,NA,NA,TRUE,2,1.1133,218.6226,221.6217,0,46,46,59,1,45,46,NA,NA,NA,NA,NA,1,47,"binary"
"E04F76281CC649BEAB8D61800201D3F2",1,"01990a9b-6831-739c-a85b-af2d802dff14","01990a83-7673-7c0c-a792-bbd8fbbaf673","2025-09-02_09h26.40.929",NA,NA,224.9691,224.9691,224.9691,225.323,NA,NA,NA,NA,NA,NA,NA,TRUE,2,1.3169,221.9696,224.969,0,47,47,3,1,7,30,NA,NA,NA,NA,NA,1,48,"binary"
"E04F76281CC649BEAB8D61800201D3F2",1,"01990a9b-6831-739c-a85b-af2d802dff14","01990a83-7673-7c0c-a792-bbd8fbbaf673","2025-09-02_09h26.40.929",NA,NA,228.3233,228.3233,228.3233,228.6709,NA,NA,NA,NA,NA,NA,NA,TRUE,1,0.9076,225.3236,228.3231,0,48,48,12,1,12,25,NA,NA,NA,NA,NA,1,49,"binary"
"E04F76281CC649BEAB8D61800201D3F2",1,"01990a9b-6831-739c-a85b-af2d802dff14","01990a83-7673-7c0c-a792-bbd8fbbaf673","2025-09-02_09h26.40.929",NA,NA,231.6704,231.6704,231.6704,232.0245,NA,NA,NA,NA,NA,NA,NA,TRUE,1,0.954,228.6731,231.6703,0,49,49,66,1,60,29,NA,NA,NA,NA,NA,1,50,"binary"
"E04F76281CC649BEAB8D61800201D3F2",1,"01990a9b-6831-739c-a85b-af2d802dff14","01990a83-7673-7c0c-a792-bbd8fbbaf673","2025-09-02_09h26.40.929",NA,NA,235.0246,235.0246,235.0246,235.3717,NA,NA,NA,NA,NA,NA,NA,TRUE,1,0.8405,232.0251,235.0246,0,50,50,102,1,200,26,NA,NA,NA,NA,NA,1,51,"binary"
"E04F76281CC649BEAB8D61800201D3F2",1,"01990a9b-6831-739c-a85b-af2d802dff14","01990a83-7673-7c0c-a792-bbd8fbbaf673","2025-09-02_09h26.40.929",NA,NA,238.3718,238.3718,238.3718,238.719,NA,NA,NA,NA,NA,NA,NA,TRUE,1,1.1227,235.3724,238.3718,0,51,51,81,1,95,40,NA,NA,NA,NA,NA,1,52,"binary"
"E04F76281CC649BEAB8D61800201D3F2",1,"01990a9b-6831-739c-a85b-af2d802dff14","01990a83-7673-7c0c-a792-bbd8fbbaf673","2025-09-02_09h26.40.929",NA,NA,241.7191,241.7192,241.7192,242.0732,NA,NA,NA,NA,NA,NA,NA,TRUE,1,0.9179,238.7197,241.7191,0,52,52,9,1,10,29,NA,NA,NA,NA,NA,1,53,"binary"
"E04F76281CC649BEAB8D61800201D3F2",1,"01990a9b-6831-739c-a85b-af2d802dff14","01990a83-7673-7c0c-a792-bbd8fbbaf673","2025-09-02_09h26.40.929",NA,NA,245.0738,245.0739,245.0739,245.4204,NA,NA,NA,NA,NA,NA,NA,TRUE,1,1.7338,242.0737,245.0736,0,53,53,79,1,95,33,NA,NA,NA,NA,NA,1,54,"binary"
"E04F76281CC649BEAB8D61800201D3F2",1,"01990a9b-6831-739c-a85b-af2d802dff14","01990a83-7673-7c0c-a792-bbd8fbbaf673","2025-09-02_09h26.40.929",NA,NA,248.4204,248.4204,248.4204,248.7746,NA,NA,NA,NA,NA,NA,NA,TRUE,1,1.0133,245.4209,248.4204,0,54,54,55,1,45,29,NA,NA,NA,NA,NA,1,55,"binary"
"E04F76281CC649BEAB8D61800201D3F2",1,"01990a9b-6831-739c-a85b-af2d802dff14","01990a83-7673-7c0c-a792-bbd8fbbaf673","2025-09-02_09h26.40.929",NA,NA,251.7747,251.7747,251.7747,252.1219,NA,NA,NA,NA,NA,NA,NA,TRUE,2,1.8491,248.775,251.7747,0,55,55,38,1,28,32,NA,NA,NA,NA,NA,1,56,"binary"
"E04F76281CC649BEAB8D61800201D3F2",1,"01990a9b-6831-739c-a85b-af2d802dff14","01990a83-7673-7c0c-a792-bbd8fbbaf673","2025-09-02_09h26.40.929",NA,NA,255.1218,255.1218,255.1218,255.4692,NA,NA,NA,NA,NA,NA,NA,TRUE,1,0.6291,252.1224,255.1217,0,56,56,70,1,60,47,NA,NA,NA,NA,NA,1,57,"binary"
"E04F76281CC649BEAB8D61800201D3F2",1,"01990a9b-6831-739c-a85b-af2d802dff14","01990a83-7673-7c0c-a792-bbd8fbbaf673","2025-09-02_09h26.40.929",NA,NA,258.4691,258.4691,258.4691,258.8233,NA,NA,NA,NA,NA,NA,NA,TRUE,1,0.8198,255.4697,258.4691,0,57,57,104,1,200,35,NA,NA,NA,NA,NA,1,58,"binary"
"E04F76281CC649BEAB8D61800201D3F2",1,"01990a9b-6831-739c-a85b-af2d802dff14","01990a83-7673-7c0c-a792-bbd8fbbaf673","2025-09-02_09h26.40.929",NA,NA,261.8197,261.8197,261.8197,262.1705,NA,NA,NA,NA,NA,NA,NA,TRUE,1,0.8198,258.8238,261.8196,0,58,58,86,1,100,38,NA,NA,NA,NA,NA,1,59,"binary"
"E04F76281CC649BEAB8D61800201D3F2",1,"01990a9b-6831-739c-a85b-af2d802dff14","01990a83-7673-7c0c-a792-bbd8fbbaf673","2025-09-02_09h26.40.929",NA,NA,265.1706,265.1706,265.1706,265.5251,NA,NA,NA,NA,NA,NA,NA,TRUE,1,0.7515,262.1714,265.1706,0,59,59,100,1,180,46,NA,NA,NA,NA,NA,1,60,"binary"
"E04F76281CC649BEAB8D61800201D3F2",1,"01990a9b-6831-739c-a85b-af2d802dff14","01990a83-7673-7c0c-a792-bbd8fbbaf673","2025-09-02_09h26.40.929",NA,NA,268.5248,268.5248,268.5248,268.8723,NA,NA,NA,NA,NA,NA,NA,TRUE,2,0.7357,265.5276,268.5247,0,60,60,4,1,7,32,NA,NA,NA,NA,NA,1,61,"binary"
"E04F76281CC649BEAB8D61800201D3F2",1,"01990a9b-6831-739c-a85b-af2d802dff14","01990a83-7673-7c0c-a792-bbd8fbbaf673","2025-09-02_09h26.40.929",NA,NA,271.8719,271.872,271.872,272.2192,NA,NA,NA,NA,NA,NA,NA,TRUE,1,0.8047,268.875,271.8719,0,61,61,0,1,7,25,NA,NA,NA,NA,NA,1,62,"binary"
"E04F76281CC649BEAB8D61800201D3F2",1,"01990a9b-6831-739c-a85b-af2d802dff14","01990a83-7673-7c0c-a792-bbd8fbbaf673","2025-09-02_09h26.40.929",NA,NA,275.2192,275.2192,275.2192,275.5734,NA,NA,NA,NA,NA,NA,NA,TRUE,1,0.6229,272.2197,275.2191,0,62,62,85,1,100,31,NA,NA,NA,NA,NA,1,63,"binary"
"E04F76281CC649BEAB8D61800201D3F2",1,"01990a9b-6831-739c-a85b-af2d802dff14","01990a83-7673-7c0c-a792-bbd8fbbaf673","2025-09-02_09h26.40.929",NA,NA,278.5734,278.5734,278.5734,278.9205,NA,NA,NA,NA,NA,NA,NA,TRUE,1,1.4257,275.5748,278.5734,0,63,63,61,1,50,30,NA,NA,NA,NA,NA,1,64,"binary"
"E04F76281CC649BEAB8D61800201D3F2",1,"01990a9b-6831-739c-a85b-af2d802dff14","01990a83-7673-7c0c-a792-bbd8fbbaf673","2025-09-02_09h26.40.929",NA,NA,281.9206,281.9206,281.9206,282.2747,NA,NA,NA,NA,NA,NA,NA,TRUE,1,0.8245,278.921,281.9206,0,64,64,65,1,50,54,NA,NA,NA,NA,NA,1,65,"binary"
"E04F76281CC649BEAB8D61800201D3F2",1,"01990a9b-6831-739c-a85b-af2d802dff14","01990a83-7673-7c0c-a792-bbd8fbbaf673","2025-09-02_09h26.40.929",NA,NA,285.2748,285.2748,285.2748,285.6223,NA,NA,NA,NA,NA,NA,NA,TRUE,1,1.043,282.2752,285.2748,0,65,65,91,1,150,33,NA,NA,NA,NA,NA,1,66,"binary"
"E04F76281CC649BEAB8D61800201D3F2",1,"01990a9b-6831-739c-a85b-af2d802dff14","01990a83-7673-7c0c-a792-bbd8fbbaf673","2025-09-02_09h26.40.929",NA,NA,288.6227,288.6227,288.6227,288.9692,NA,NA,NA,NA,NA,NA,NA,TRUE,1,1.0075,285.6247,288.6225,0,66,66,68,1,60,35,NA,NA,NA,NA,NA,1,67,"binary"
"E04F76281CC649BEAB8D61800201D3F2",1,"01990a9b-6831-739c-a85b-af2d802dff14","01990a83-7673-7c0c-a792-bbd8fbbaf673","2025-09-02_09h26.40.929",NA,NA,291.9694,291.9694,291.9694,292.3234,NA,NA,NA,NA,NA,NA,NA,TRUE,1,0.9087,288.9696,291.9693,0,67,67,8,1,10,27,NA,NA,NA,NA,NA,1,68,"binary"
"E04F76281CC649BEAB8D61800201D3F2",1,"01990a9b-6831-739c-a85b-af2d802dff14","01990a83-7673-7c0c-a792-bbd8fbbaf673","2025-09-02_09h26.40.929",NA,NA,295.3233,295.3233,295.3233,295.6706,NA,NA,NA,NA,NA,NA,NA,TRUE,1,0.6675,292.3239,295.3233,0,68,68,11,1,10,32,NA,NA,NA,NA,NA,1,69,"binary"
"E04F76281CC649BEAB8D61800201D3F2",1,"01990a9b-6831-739c-a85b-af2d802dff14","01990a83-7673-7c0c-a792-bbd8fbbaf673","2025-09-02_09h26.40.929",NA,NA,298.6707,298.6707,298.6707,299.0252,NA,NA,NA,NA,NA,NA,NA,TRUE,2,1.2361,295.6711,298.6706,0,69,69,75,1,90,40,NA,NA,NA,NA,NA,1,70,"binary"
"E04F76281CC649BEAB8D61800201D3F2",1,"01990a9b-6831-739c-a85b-af2d802dff14","01990a83-7673-7c0c-a792-bbd8fbbaf673","2025-09-02_09h26.40.929",NA,NA,302.0248,302.0249,302.0249,302.372,NA,NA,NA,NA,NA,NA,NA,TRUE,1,1.0416,299.0274,302.0247,0,70,70,93,1,150,40,NA,NA,NA,NA,NA,1,71,"binary"
"E04F76281CC649BEAB8D61800201D3F2",1,"01990a9b-6831-739c-a85b-af2d802dff14","01990a83-7673-7c0c-a792-bbd8fbbaf673","2025-09-02_09h26.40.929",NA,NA,305.372,305.372,305.372,305.7192,NA,NA,NA,NA,NA,NA,NA,TRUE,1,1.0499,302.3726,305.372,0,71,71,33,1,25,33,NA,NA,NA,NA,NA,1,72,"binary"
"E04F76281CC649BEAB8D61800201D3F2",1,"01990a9b-6831-739c-a85b-af2d802dff14","01990a83-7673-7c0c-a792-bbd8fbbaf673","2025-09-02_09h26.40.929",NA,NA,308.7193,308.7193,308.7193,309.0734,NA,NA,NA,NA,NA,NA,NA,TRUE,1,1.0348,305.7198,308.7192,0,72,72,77,1,90,54,NA,NA,NA,NA,NA,1,73,"binary"
"E04F76281CC649BEAB8D61800201D3F2",1,"01990a9b-6831-739c-a85b-af2d802dff14","01990a83-7673-7c0c-a792-bbd8fbbaf673","2025-09-02_09h26.40.929",NA,NA,312.0734,312.0734,312.0734,312.4205,NA,NA,NA,NA,NA,NA,NA,TRUE,1,0.6654,309.0739,312.0733,0,73,73,25,1,21,27,NA,NA,NA,NA,NA,1,74,"binary"
"E04F76281CC649BEAB8D61800201D3F2",1,"01990a9b-6831-739c-a85b-af2d802dff14","01990a83-7673-7c0c-a792-bbd8fbbaf673","2025-09-02_09h26.40.929",NA,NA,315.4205,315.4205,315.4205,315.7748,NA,NA,NA,NA,NA,NA,NA,TRUE,2,1.0267,312.4211,315.4205,0,74,74,22,1,14,35,NA,NA,NA,NA,NA,1,75,"binary"
"E04F76281CC649BEAB8D61800201D3F2",1,"01990a9b-6831-739c-a85b-af2d802dff14","01990a83-7673-7c0c-a792-bbd8fbbaf673","2025-09-02_09h26.40.929",NA,NA,318.7748,318.7748,318.7749,319.1221,NA,NA,NA,NA,NA,NA,NA,TRUE,1,1.0132,315.7754,318.7747,0,75,75,37,1,28,28,NA,NA,NA,NA,NA,1,76,"binary"
"E04F76281CC649BEAB8D61800201D3F2",1,"01990a9b-6831-739c-a85b-af2d802dff14","01990a83-7673-7c0c-a792-bbd8fbbaf673","2025-09-02_09h26.40.929",NA,NA,322.1221,322.1221,322.1221,322.4692,NA,NA,NA,NA,NA,NA,NA,TRUE,1,0.5757,319.1225,322.122,0,76,76,7,1,10,26,NA,NA,NA,NA,NA,1,77,"binary"
"E04F76281CC649BEAB8D61800201D3F2",1,"01990a9b-6831-739c-a85b-af2d802dff14","01990a83-7673-7c0c-a792-bbd8fbbaf673","2025-09-02_09h26.40.929",NA,NA,325.4694,325.4694,325.4694,325.8234,NA,NA,NA,NA,NA,NA,NA,TRUE,1,0.8724,322.4697,325.4693,0,77,77,51,1,40,40,NA,NA,NA,NA,NA,1,78,"binary"
"E04F76281CC649BEAB8D61800201D3F2",1,"01990a9b-6831-739c-a85b-af2d802dff14","01990a83-7673-7c0c-a792-bbd8fbbaf673","2025-09-02_09h26.40.929",NA,NA,328.8235,328.8236,328.8236,329.1707,NA,NA,NA,NA,NA,NA,NA,TRUE,1,0.8055,325.8239,328.8235,0,78,78,92,1,150,35,NA,NA,NA,NA,NA,1,79,"binary"
"E04F76281CC649BEAB8D61800201D3F2",1,"01990a9b-6831-739c-a85b-af2d802dff14","01990a83-7673-7c0c-a792-bbd8fbbaf673","2025-09-02_09h26.40.929",NA,NA,332.1706,332.1706,332.1706,332.5254,NA,NA,NA,NA,NA,NA,NA,TRUE,1,0.4931,329.1712,332.1706,0,79,79,105,1,200,39,NA,NA,NA,NA,NA,1,80,"binary"
"E04F76281CC649BEAB8D61800201D3F2",1,"01990a9b-6831-739c-a85b-af2d802dff14","01990a83-7673-7c0c-a792-bbd8fbbaf673","2025-09-02_09h26.40.929",NA,NA,335.5249,335.5249,335.5249,335.872,NA,NA,NA,NA,NA,NA,NA,TRUE,2,1.6537,332.5276,335.5248,0,80,80,10,1,10,30,NA,NA,NA,NA,NA,1,81,"binary"
"E04F76281CC649BEAB8D61800201D3F2",1,"01990a9b-6831-739c-a85b-af2d802dff14","01990a83-7673-7c0c-a792-bbd8fbbaf673","2025-09-02_09h26.40.929",NA,NA,338.8722,338.8722,338.8722,339.2193,NA,NA,NA,NA,NA,NA,NA,TRUE,1,0.8011,335.8725,338.8721,0,81,81,21,1,14,32,NA,NA,NA,NA,NA,1,82,"binary"
"E04F76281CC649BEAB8D61800201D3F2",1,"01990a9b-6831-739c-a85b-af2d802dff14","01990a83-7673-7c0c-a792-bbd8fbbaf673","2025-09-02_09h26.40.929",NA,NA,342.2193,342.2193,342.2193,342.5734,NA,NA,NA,NA,NA,NA,NA,TRUE,1,1.3465,339.2198,342.2193,0,82,82,69,1,60,40,NA,NA,NA,NA,NA,1,83,"binary"
"E04F76281CC649BEAB8D61800201D3F2",1,"01990a9b-6831-739c-a85b-af2d802dff14","01990a83-7673-7c0c-a792-bbd8fbbaf673","2025-09-02_09h26.40.929",NA,NA,345.5697,345.5697,345.5697,345.9207,NA,NA,NA,NA,NA,NA,NA,TRUE,1,0.5141,342.5742,345.5697,0,83,83,89,1,100,54,NA,NA,NA,NA,NA,1,84,"binary"
"E04F76281CC649BEAB8D61800201D3F2",1,"01990a9b-6831-739c-a85b-af2d802dff14","01990a83-7673-7c0c-a792-bbd8fbbaf673","2025-09-02_09h26.40.929",NA,NA,348.9213,348.9213,348.9214,349.2753,NA,NA,NA,NA,NA,NA,NA,TRUE,2,1.6716,345.9212,348.9211,0,84,84,53,1,40,54,NA,NA,NA,NA,NA,1,85,"binary"
"E04F76281CC649BEAB8D61800201D3F2",1,"01990a9b-6831-739c-a85b-af2d802dff14","01990a83-7673-7c0c-a792-bbd8fbbaf673","2025-09-02_09h26.40.929",NA,NA,352.2749,352.2749,352.2749,352.6226,NA,NA,NA,NA,NA,NA,NA,TRUE,1,1.2098,349.2777,352.2749,0,85,85,30,1,25,27,NA,NA,NA,NA,NA,1,86,"binary"
"E04F76281CC649BEAB8D61800201D3F2",1,"01990a9b-6831-739c-a85b-af2d802dff14","01990a83-7673-7c0c-a792-bbd8fbbaf673","2025-09-02_09h26.40.929",NA,NA,355.6221,355.6222,355.6222,355.9692,NA,NA,NA,NA,NA,NA,NA,TRUE,1,1.2235,352.6248,355.6221,0,86,86,48,1,40,27,NA,NA,NA,NA,NA,1,87,"binary"
"E04F76281CC649BEAB8D61800201D3F2",1,"01990a9b-6831-739c-a85b-af2d802dff14","01990a83-7673-7c0c-a792-bbd8fbbaf673","2025-09-02_09h26.40.929",NA,NA,358.9693,358.9694,358.9694,359.3234,NA,NA,NA,NA,NA,NA,NA,TRUE,2,1.9232,355.97,358.9693,0,87,87,76,1,90,46,NA,NA,NA,NA,NA,1,88,"binary"
"E04F76281CC649BEAB8D61800201D3F2",1,"01990a9b-6831-739c-a85b-af2d802dff14","01990a83-7673-7c0c-a792-bbd8fbbaf673","2025-09-02_09h26.40.929",NA,NA,362.3236,362.3236,362.3237,362.6708,NA,NA,NA,NA,NA,NA,NA,TRUE,1,0.6836,359.3242,362.3236,0,88,88,107,1,200,54,NA,NA,NA,NA,NA,1,89,"binary"
"E04F76281CC649BEAB8D61800201D3F2",1,"01990a9b-6831-739c-a85b-af2d802dff14","01990a83-7673-7c0c-a792-bbd8fbbaf673","2025-09-02_09h26.40.929",NA,NA,365.6709,365.6709,365.6709,366.0248,NA,NA,NA,NA,NA,NA,NA,TRUE,1,0.7287,362.6712,365.6708,0,89,89,36,1,28,26,NA,NA,NA,NA,NA,1,90,"binary"
"E04F76281CC649BEAB8D61800201D3F2",1,"01990a9b-6831-739c-a85b-af2d802dff14","01990a83-7673-7c0c-a792-bbd8fbbaf673","2025-09-02_09h26.40.929",NA,NA,369.0248,369.0249,369.0249,369.3726,NA,NA,NA,NA,NA,NA,NA,TRUE,1,2.149,366.0254,369.0248,0,90,90,13,1,12,26,NA,NA,NA,NA,NA,1,91,"binary"
"E04F76281CC649BEAB8D61800201D3F2",1,"01990a9b-6831-739c-a85b-af2d802dff14","01990a83-7673-7c0c-a792-bbd8fbbaf673","2025-09-02_09h26.40.929",NA,NA,372.3726,372.3726,372.3726,372.7195,NA,NA,NA,NA,NA,NA,NA,TRUE,1,0.9984,369.3748,372.3724,0,91,91,56,1,45,31,NA,NA,NA,NA,NA,1,92,"binary"
"E04F76281CC649BEAB8D61800201D3F2",1,"01990a9b-6831-739c-a85b-af2d802dff14","01990a83-7673-7c0c-a792-bbd8fbbaf673","2025-09-02_09h26.40.929",NA,NA,375.7194,375.7194,375.7194,376.0735,NA,NA,NA,NA,NA,NA,NA,TRUE,1,0.8264,372.7207,375.7193,0,92,92,62,1,50,35,NA,NA,NA,NA,NA,1,93,"binary"
"E04F76281CC649BEAB8D61800201D3F2",1,"01990a9b-6831-739c-a85b-af2d802dff14","01990a83-7673-7c0c-a792-bbd8fbbaf673","2025-09-02_09h26.40.929",NA,NA,379.0736,379.0736,379.0736,379.4207,NA,NA,NA,NA,NA,NA,NA,TRUE,1,1.053,376.074,379.0736,0,93,93,90,1,150,31,NA,NA,NA,NA,NA,1,94,"binary"
"E04F76281CC649BEAB8D61800201D3F2",1,"01990a9b-6831-739c-a85b-af2d802dff14","01990a83-7673-7c0c-a792-bbd8fbbaf673","2025-09-02_09h26.40.929",NA,NA,382.4208,382.4208,382.4208,382.775,NA,NA,NA,NA,NA,NA,NA,TRUE,2,0.9281,379.4212,382.4207,0,94,94,17,1,12,35,NA,NA,NA,NA,NA,1,95,"binary"
"E04F76281CC649BEAB8D61800201D3F2",1,"01990a9b-6831-739c-a85b-af2d802dff14","01990a83-7673-7c0c-a792-bbd8fbbaf673","2025-09-02_09h26.40.929",NA,NA,385.775,385.775,385.775,386.1221,NA,NA,NA,NA,NA,NA,NA,TRUE,1,1.3007,382.7755,385.7749,0,95,95,60,1,50,27,NA,NA,NA,NA,NA,1,96,"binary"
"E04F76281CC649BEAB8D61800201D3F2",1,"01990a9b-6831-739c-a85b-af2d802dff14","01990a83-7673-7c0c-a792-bbd8fbbaf673","2025-09-02_09h26.40.929",NA,NA,389.1222,389.1222,389.1222,389.4695,NA,NA,NA,NA,NA,NA,NA,TRUE,2,1.1716,386.1226,389.1221,0,96,96,49,1,40,33,NA,NA,NA,NA,NA,1,97,"binary"
"E04F76281CC649BEAB8D61800201D3F2",1,"01990a9b-6831-739c-a85b-af2d802dff14","01990a83-7673-7c0c-a792-bbd8fbbaf673","2025-09-02_09h26.40.929",NA,NA,392.4695,392.4695,392.4695,392.8235,NA,NA,NA,NA,NA,NA,NA,TRUE,1,0.5066,389.4699,392.4694,0,97,97,95,1,150,54,NA,NA,NA,NA,NA,1,98,"binary"
"E04F76281CC649BEAB8D61800201D3F2",1,"01990a9b-6831-739c-a85b-af2d802dff14","01990a83-7673-7c0c-a792-bbd8fbbaf673","2025-09-02_09h26.40.929",NA,NA,395.8269,395.8269,395.8269,396.1713,NA,NA,NA,NA,NA,NA,NA,TRUE,1,0.8078,392.8241,395.8268,0,98,98,96,1,180,27,NA,NA,NA,NA,NA,1,99,"binary"
"E04F76281CC649BEAB8D61800201D3F2",1,"01990a9b-6831-739c-a85b-af2d802dff14","01990a83-7673-7c0c-a792-bbd8fbbaf673","2025-09-02_09h26.40.929",NA,NA,399.1709,399.1709,399.171,399.525,NA,NA,NA,NA,NA,NA,NA,TRUE,2,1.8261,396.1736,399.1708,0,99,99,2,1,7,28,NA,NA,NA,NA,NA,1,100,"binary"
"E04F76281CC649BEAB8D61800201D3F2",1,"01990a9b-6831-739c-a85b-af2d802dff14","01990a83-7673-7c0c-a792-bbd8fbbaf673","2025-09-02_09h26.40.929",NA,NA,402.525,402.525,402.525,402.8722,NA,NA,NA,NA,NA,NA,NA,TRUE,1,0.7574,399.5255,402.525,0,100,100,84,1,100,26,NA,NA,NA,NA,NA,1,101,"binary"
"E04F76281CC649BEAB8D61800201D3F2",1,"01990a9b-6831-739c-a85b-af2d802dff14","01990a83-7673-7c0c-a792-bbd8fbbaf673","2025-09-02_09h26.40.929",NA,NA,405.8723,405.8723,405.8723,406.2195,NA,NA,NA,NA,NA,NA,NA,TRUE,1,1.4094,402.8728,405.8722,0,101,101,31,1,25,29,NA,NA,NA,NA,NA,1,102,"binary"
"E04F76281CC649BEAB8D61800201D3F2",1,"01990a9b-6831-739c-a85b-af2d802dff14","01990a83-7673-7c0c-a792-bbd8fbbaf673","2025-09-02_09h26.40.929",NA,NA,409.2194,409.2195,409.2195,409.5736,NA,NA,NA,NA,NA,NA,NA,TRUE,1,0.7333,406.2203,409.2194,0,102,102,24,1,21,26,NA,NA,NA,NA,NA,1,103,"binary"
"E04F76281CC649BEAB8D61800201D3F2",1,"01990a9b-6831-739c-a85b-af2d802dff14","01990a83-7673-7c0c-a792-bbd8fbbaf673","2025-09-02_09h26.40.929",NA,NA,412.5735,412.5735,412.5735,412.9208,NA,NA,NA,NA,NA,NA,NA,TRUE,2,1.199,409.5741,412.5735,0,103,103,52,1,40,47,NA,NA,NA,NA,NA,1,104,"binary"
"E04F76281CC649BEAB8D61800201D3F2",1,"01990a9b-6831-739c-a85b-af2d802dff14","01990a83-7673-7c0c-a792-bbd8fbbaf673","2025-09-02_09h26.40.929",NA,NA,415.9207,415.9208,415.9208,416.275,NA,NA,NA,NA,NA,NA,NA,TRUE,1,0.7531,412.9214,415.9207,0,104,104,101,1,180,54,NA,NA,NA,NA,NA,1,105,"binary"
"E04F76281CC649BEAB8D61800201D3F2",1,"01990a9b-6831-739c-a85b-af2d802dff14","01990a83-7673-7c0c-a792-bbd8fbbaf673","2025-09-02_09h26.40.929",NA,NA,419.275,419.275,419.275,419.6223,NA,NA,NA,NA,NA,NA,NA,TRUE,2,0.7353,416.2756,419.275,0,105,105,50,1,40,35,NA,NA,NA,NA,NA,1,106,"binary"
"E04F76281CC649BEAB8D61800201D3F2",1,"01990a9b-6831-739c-a85b-af2d802dff14","01990a83-7673-7c0c-a792-bbd8fbbaf673","2025-09-02_09h26.40.929",NA,NA,422.6223,422.6223,422.6223,422.9696,NA,NA,NA,NA,NA,NA,NA,TRUE,1,0.9348,419.6233,422.6222,0,106,106,44,1,30,29,NA,NA,NA,NA,NA,1,107,"binary"
"E04F76281CC649BEAB8D61800201D3F2",1,"01990a9b-6831-739c-a85b-af2d802dff14","01990a83-7673-7c0c-a792-bbd8fbbaf673","2025-09-02_09h26.40.929",NA,NA,425.9695,425.9695,425.9695,426.3236,NA,NA,NA,NA,NA,NA,NA,TRUE,2,0.8138,422.97,425.9695,0,107,107,40,1,28,39,NA,NA,NA,NA,NA,1,108,"binary"
"E04F76281CC649BEAB8D61800201D3F2",1,"01990a9b-6831-739c-a85b-af2d802dff14","01990a83-7673-7c0c-a792-bbd8fbbaf673","2025-09-02_09h26.40.929",NA,NA,439.7126,439.7126,439.7126,440.0599,NA,NA,NA,NA,NA,NA,NA,TRUE,2,2.3508,436.7214,439.7125,NA,NA,NA,NA,NA,95,47,0,0,0,82,1,2,1,"binary"
"E04F76281CC649BEAB8D61800201D3F2",1,"01990a9b-6831-739c-a85b-af2d802dff14","01990a83-7673-7c0c-a792-bbd8fbbaf673","2025-09-02_09h26.40.929",NA,NA,443.0598,443.0598,443.0599,443.414,NA,NA,NA,NA,NA,NA,NA,TRUE,1,0.9728,440.0607,443.0598,NA,NA,NA,NA,NA,180,39,0,1,1,99,1,2,2,"binary"
"E04F76281CC649BEAB8D61800201D3F2",1,"01990a9b-6831-739c-a85b-af2d802dff14","01990a83-7673-7c0c-a792-bbd8fbbaf673","2025-09-02_09h26.40.929",NA,NA,446.414,446.4141,446.4141,446.7613,NA,NA,NA,NA,NA,NA,NA,TRUE,1,0.6603,443.4146,446.4139,NA,NA,NA,NA,NA,150,47,0,2,2,94,1,2,3,"binary"
"E04F76281CC649BEAB8D61800201D3F2",1,"01990a9b-6831-739c-a85b-af2d802dff14","01990a83-7673-7c0c-a792-bbd8fbbaf673","2025-09-02_09h26.40.929",NA,NA,449.7614,449.7614,449.7614,450.1085,NA,NA,NA,NA,NA,NA,NA,TRUE,1,1.1138,446.7627,449.7613,NA,NA,NA,NA,NA,12,28,0,3,3,14,1,2,4,"binary"
"E04F76281CC649BEAB8D61800201D3F2",1,"01990a9b-6831-739c-a85b-af2d802dff14","01990a83-7673-7c0c-a792-bbd8fbbaf673","2025-09-02_09h26.40.929",NA,NA,453.1086,453.1086,453.1086,453.4626,NA,NA,NA,NA,NA,NA,NA,TRUE,1,0.5765,450.109,453.1085,NA,NA,NA,NA,NA,200,47,0,4,4,106,1,2,5,"binary"
"E04F76281CC649BEAB8D61800201D3F2",1,"01990a9b-6831-739c-a85b-af2d802dff14","01990a83-7673-7c0c-a792-bbd8fbbaf673","2025-09-02_09h26.40.929",NA,NA,456.4625,456.4626,456.4626,456.8099,NA,NA,NA,NA,NA,NA,NA,TRUE,1,1.5704,453.4631,456.4625,NA,NA,NA,NA,NA,21,29,0,5,5,26,1,2,6,"binary"
"E04F76281CC649BEAB8D61800201D3F2",1,"01990a9b-6831-739c-a85b-af2d802dff14","01990a83-7673-7c0c-a792-bbd8fbbaf673","2025-09-02_09h26.40.929",NA,NA,459.8099,459.8099,459.8099,460.164,NA,NA,NA,NA,NA,NA,NA,TRUE,1,0.7568,456.8104,459.8098,NA,NA,NA,NA,NA,40,54,0,6,6,53,1,2,7,"binary"
"E04F76281CC649BEAB8D61800201D3F2",1,"01990a9b-6831-739c-a85b-af2d802dff14","01990a83-7673-7c0c-a792-bbd8fbbaf673","2025-09-02_09h26.40.929",NA,NA,463.1639,463.1639,463.1639,463.5112,NA,NA,NA,NA,NA,NA,NA,TRUE,1,0.9594,460.1645,463.1639,NA,NA,NA,NA,NA,7,25,0,7,7,0,1,2,8,"binary"
"E04F76281CC649BEAB8D61800201D3F2",1,"01990a9b-6831-739c-a85b-af2d802dff14","01990a83-7673-7c0c-a792-bbd8fbbaf673","2025-09-02_09h26.40.929",NA,NA,466.5113,466.5113,466.5113,466.8589,NA,NA,NA,NA,NA,NA,NA,TRUE,2,1.1063,463.5117,466.5112,NA,NA,NA,NA,NA,45,40,0,8,8,58,1,2,9,"binary"
"E04F76281CC649BEAB8D61800201D3F2",1,"01990a9b-6831-739c-a85b-af2d802dff14","01990a83-7673-7c0c-a792-bbd8fbbaf673","2025-09-02_09h26.40.929",NA,NA,469.8587,469.8587,469.8587,470.2127,NA,NA,NA,NA,NA,NA,NA,TRUE,1,1.5155,466.8613,469.8585,NA,NA,NA,NA,NA,30,27,0,9,9,43,1,2,10,"binary"
"E04F76281CC649BEAB8D61800201D3F2",1,"01990a9b-6831-739c-a85b-af2d802dff14","01990a83-7673-7c0c-a792-bbd8fbbaf673","2025-09-02_09h26.40.929",NA,NA,473.2127,473.2127,473.2127,473.5598,NA,NA,NA,NA,NA,NA,NA,TRUE,1,1.3183,470.2132,473.2126,NA,NA,NA,NA,NA,10,26,0,10,10,7,1,2,11,"binary"
"E04F76281CC649BEAB8D61800201D3F2",1,"01990a9b-6831-739c-a85b-af2d802dff14","01990a83-7673-7c0c-a792-bbd8fbbaf673","2025-09-02_09h26.40.929",NA,NA,476.56,476.56,476.56,476.9076,NA,NA,NA,NA,NA,NA,NA,TRUE,1,1.0214,473.5604,476.5599,NA,NA,NA,NA,NA,28,26,0,11,11,36,1,2,12,"binary"
"E04F76281CC649BEAB8D61800201D3F2",1,"01990a9b-6831-739c-a85b-af2d802dff14","01990a83-7673-7c0c-a792-bbd8fbbaf673","2025-09-02_09h26.40.929",NA,NA,479.9078,479.9079,479.9079,480.2612,NA,NA,NA,NA,NA,NA,NA,TRUE,1,0.9593,476.9098,479.9077,NA,NA,NA,NA,NA,100,38,0,12,12,86,1,2,13,"binary"
"E04F76281CC649BEAB8D61800201D3F2",1,"01990a9b-6831-739c-a85b-af2d802dff14","01990a83-7673-7c0c-a792-bbd8fbbaf673","2025-09-02_09h26.40.929",NA,NA,483.2613,483.2613,483.2613,483.6086,NA,NA,NA,NA,NA,NA,NA,TRUE,1,0.6811,480.2616,483.2613,NA,NA,NA,NA,NA,100,39,0,13,13,87,1,2,14,"binary"
"E04F76281CC649BEAB8D61800201D3F2",1,"01990a9b-6831-739c-a85b-af2d802dff14","01990a83-7673-7c0c-a792-bbd8fbbaf673","2025-09-02_09h26.40.929",NA,NA,486.6087,486.6087,486.6087,486.9628,NA,NA,NA,NA,NA,NA,NA,TRUE,2,1.0574,483.6095,486.6086,NA,NA,NA,NA,NA,25,31,0,14,14,32,1,2,15,"binary"
"E04F76281CC649BEAB8D61800201D3F2",1,"01990a9b-6831-739c-a85b-af2d802dff14","01990a83-7673-7c0c-a792-bbd8fbbaf673","2025-09-02_09h26.40.929",NA,NA,489.9626,489.9627,489.9627,490.3099,NA,NA,NA,NA,NA,NA,NA,TRUE,2,0.8459,486.9633,489.9626,NA,NA,NA,NA,NA,7,30,0,15,15,3,1,2,16,"binary"
"E04F76281CC649BEAB8D61800201D3F2",1,"01990a9b-6831-739c-a85b-af2d802dff14","01990a83-7673-7c0c-a792-bbd8fbbaf673","2025-09-02_09h26.40.929",NA,NA,493.31,493.31,493.3101,493.6641,NA,NA,NA,NA,NA,NA,NA,TRUE,1,0.8016,490.3104,493.31,NA,NA,NA,NA,NA,200,54,0,16,16,107,1,2,17,"binary"
"E04F76281CC649BEAB8D61800201D3F2",1,"01990a9b-6831-739c-a85b-af2d802dff14","01990a83-7673-7c0c-a792-bbd8fbbaf673","2025-09-02_09h26.40.929",NA,NA,496.6641,496.6641,496.6641,497.0112,NA,NA,NA,NA,NA,NA,NA,TRUE,1,0.7159,493.6651,496.6641,NA,NA,NA,NA,NA,180,31,0,17,17,97,1,2,18,"binary"
"E04F76281CC649BEAB8D61800201D3F2",1,"01990a9b-6831-739c-a85b-af2d802dff14","01990a83-7673-7c0c-a792-bbd8fbbaf673","2025-09-02_09h26.40.929",NA,NA,500.0115,500.0115,500.0115,500.3586,NA,NA,NA,NA,NA,NA,NA,TRUE,1,0.5241,497.0118,500.0114,NA,NA,NA,NA,NA,200,39,0,18,18,105,1,2,19,"binary"
"E04F76281CC649BEAB8D61800201D3F2",1,"01990a9b-6831-739c-a85b-af2d802dff14","01990a83-7673-7c0c-a792-bbd8fbbaf673","2025-09-02_09h26.40.929",NA,NA,503.3585,503.3585,503.3585,503.7127,NA,NA,NA,NA,NA,NA,NA,TRUE,2,0.5975,500.3591,503.3585,NA,NA,NA,NA,NA,12,26,0,19,19,13,1,2,20,"binary"
"E04F76281CC649BEAB8D61800201D3F2",1,"01990a9b-6831-739c-a85b-af2d802dff14","01990a83-7673-7c0c-a792-bbd8fbbaf673","2025-09-02_09h26.40.929",NA,NA,506.7132,506.7132,506.7132,507.0604,NA,NA,NA,NA,NA,NA,NA,TRUE,2,1.3188,503.7136,506.7131,NA,NA,NA,NA,NA,45,29,0,20,20,55,1,2,21,"binary"
"E04F76281CC649BEAB8D61800201D3F2",1,"01990a9b-6831-739c-a85b-af2d802dff14","01990a83-7673-7c0c-a792-bbd8fbbaf673","2025-09-02_09h26.40.929",NA,NA,510.06,510.06,510.0601,510.4146,NA,NA,NA,NA,NA,NA,NA,TRUE,2,0.8686,507.0628,510.06,NA,NA,NA,NA,NA,40,47,0,21,21,52,1,2,22,"binary"
"E04F76281CC649BEAB8D61800201D3F2",1,"01990a9b-6831-739c-a85b-af2d802dff14","01990a83-7673-7c0c-a792-bbd8fbbaf673","2025-09-02_09h26.40.929",NA,NA,513.4142,513.4142,513.4142,513.7619,NA,NA,NA,NA,NA,NA,NA,TRUE,1,0.7359,510.417,513.4142,NA,NA,NA,NA,NA,200,26,0,22,22,102,1,2,23,"binary"
"E04F76281CC649BEAB8D61800201D3F2",1,"01990a9b-6831-739c-a85b-af2d802dff14","01990a83-7673-7c0c-a792-bbd8fbbaf673","2025-09-02_09h26.40.929",NA,NA,516.7642,516.7642,516.7642,517.1112,NA,NA,NA,NA,NA,NA,NA,TRUE,2,1.6642,513.7642,516.7641,NA,NA,NA,NA,NA,50,35,0,23,23,62,1,2,24,"binary"
"E04F76281CC649BEAB8D61800201D3F2",1,"01990a9b-6831-739c-a85b-af2d802dff14","01990a83-7673-7c0c-a792-bbd8fbbaf673","2025-09-02_09h26.40.929",NA,NA,520.1115,520.1115,520.1115,520.4586,NA,NA,NA,NA,NA,NA,NA,TRUE,2,0.778,517.1118,520.1115,NA,NA,NA,NA,NA,14,39,0,24,24,23,1,2,25,"binary"
"E04F76281CC649BEAB8D61800201D3F2",1,"01990a9b-6831-739c-a85b-af2d802dff14","01990a83-7673-7c0c-a792-bbd8fbbaf673","2025-09-02_09h26.40.929",NA,NA,523.459,523.459,523.459,523.813,NA,NA,NA,NA,NA,NA,NA,TRUE,2,1.4242,520.459,523.4589,NA,NA,NA,NA,NA,95,31,0,25,25,78,1,2,26,"binary"
"E04F76281CC649BEAB8D61800201D3F2",1,"01990a9b-6831-739c-a85b-af2d802dff14","01990a83-7673-7c0c-a792-bbd8fbbaf673","2025-09-02_09h26.40.929",NA,NA,526.8129,526.8129,526.8129,527.1601,NA,NA,NA,NA,NA,NA,NA,TRUE,2,0.7013,523.8135,526.8128,NA,NA,NA,NA,NA,25,35,0,26,26,34,1,2,27,"binary"
"E04F76281CC649BEAB8D61800201D3F2",1,"01990a9b-6831-739c-a85b-af2d802dff14","01990a83-7673-7c0c-a792-bbd8fbbaf673","2025-09-02_09h26.40.929",NA,NA,530.1608,530.1608,530.1608,530.5142,NA,NA,NA,NA,NA,NA,NA,TRUE,2,0.6875,527.1606,530.1607,NA,NA,NA,NA,NA,28,32,0,27,27,38,1,2,28,"binary"
"E04F76281CC649BEAB8D61800201D3F2",1,"01990a9b-6831-739c-a85b-af2d802dff14","01990a83-7673-7c0c-a792-bbd8fbbaf673","2025-09-02_09h26.40.929",NA,NA,533.5144,533.5144,533.5144,533.8615,NA,NA,NA,NA,NA,NA,NA,TRUE,2,0.9721,530.5147,533.5144,NA,NA,NA,NA,NA,10,30,0,28,28,10,1,2,29,"binary"
"E04F76281CC649BEAB8D61800201D3F2",1,"01990a9b-6831-739c-a85b-af2d802dff14","01990a83-7673-7c0c-a792-bbd8fbbaf673","2025-09-02_09h26.40.929",NA,NA,536.8616,536.8616,536.8616,537.2087,NA,NA,NA,NA,NA,NA,NA,TRUE,1,0.9931,533.862,536.8616,NA,NA,NA,NA,NA,150,31,0,29,29,90,1,2,30,"binary"
"E04F76281CC649BEAB8D61800201D3F2",1,"01990a9b-6831-739c-a85b-af2d802dff14","01990a83-7673-7c0c-a792-bbd8fbbaf673","2025-09-02_09h26.40.929",NA,NA,540.2089,540.2089,540.209,540.5629,NA,NA,NA,NA,NA,NA,NA,TRUE,2,0.882,537.2092,540.2089,NA,NA,NA,NA,NA,21,30,0,30,30,27,1,2,31,"binary"
"E04F76281CC649BEAB8D61800201D3F2",1,"01990a9b-6831-739c-a85b-af2d802dff14","01990a83-7673-7c0c-a792-bbd8fbbaf673","2025-09-02_09h26.40.929",NA,NA,543.5628,543.5628,543.5628,543.9099,NA,NA,NA,NA,NA,NA,NA,TRUE,2,0.9085,540.5634,543.5628,NA,NA,NA,NA,NA,50,40,0,31,31,63,1,2,32,"binary"
"E04F76281CC649BEAB8D61800201D3F2",1,"01990a9b-6831-739c-a85b-af2d802dff14","01990a83-7673-7c0c-a792-bbd8fbbaf673","2025-09-02_09h26.40.929",NA,NA,546.91,546.91,546.91,547.2643,NA,NA,NA,NA,NA,NA,NA,TRUE,2,0.9238,543.9104,546.9099,NA,NA,NA,NA,NA,45,35,0,32,32,57,1,2,33,"binary"
"E04F76281CC649BEAB8D61800201D3F2",1,"01990a9b-6831-739c-a85b-af2d802dff14","01990a83-7673-7c0c-a792-bbd8fbbaf673","2025-09-02_09h26.40.929",NA,NA,550.2644,550.2644,550.2644,550.6115,NA,NA,NA,NA,NA,NA,NA,TRUE,2,1.2499,547.2648,550.2644,NA,NA,NA,NA,NA,95,40,0,33,33,81,1,2,34,"binary"
"E04F76281CC649BEAB8D61800201D3F2",1,"01990a9b-6831-739c-a85b-af2d802dff14","01990a83-7673-7c0c-a792-bbd8fbbaf673","2025-09-02_09h26.40.929",NA,NA,553.6116,553.6116,553.6116,553.9588,NA,NA,NA,NA,NA,NA,NA,TRUE,2,0.9579,550.612,553.6116,NA,NA,NA,NA,NA,12,31,0,34,34,15,1,2,35,"binary"
"E04F76281CC649BEAB8D61800201D3F2",1,"01990a9b-6831-739c-a85b-af2d802dff14","01990a83-7673-7c0c-a792-bbd8fbbaf673","2025-09-02_09h26.40.929",NA,NA,556.9588,556.9588,556.9588,557.3129,NA,NA,NA,NA,NA,NA,NA,TRUE,2,0.7012,553.9594,556.9588,NA,NA,NA,NA,NA,12,35,0,35,35,17,1,2,36,"binary"
"E04F76281CC649BEAB8D61800201D3F2",1,"01990a9b-6831-739c-a85b-af2d802dff14","01990a83-7673-7c0c-a792-bbd8fbbaf673","2025-09-02_09h26.40.929",NA,NA,560.313,560.313,560.313,560.66,NA,NA,NA,NA,NA,NA,NA,TRUE,2,0.7985,557.3134,560.313,NA,NA,NA,NA,NA,50,30,0,36,36,61,1,2,37,"binary"
"E04F76281CC649BEAB8D61800201D3F2",1,"01990a9b-6831-739c-a85b-af2d802dff14","01990a83-7673-7c0c-a792-bbd8fbbaf673","2025-09-02_09h26.40.929",NA,NA,563.6603,563.6603,563.6603,564.0144,NA,NA,NA,NA,NA,NA,NA,TRUE,2,0.5976,560.6606,563.6603,NA,NA,NA,NA,NA,12,25,0,37,37,12,1,2,38,"binary"
"E04F76281CC649BEAB8D61800201D3F2",1,"01990a9b-6831-739c-a85b-af2d802dff14","01990a83-7673-7c0c-a792-bbd8fbbaf673","2025-09-02_09h26.40.929",NA,NA,567.0143,567.0143,567.0143,567.3618,NA,NA,NA,NA,NA,NA,NA,TRUE,1,0.8464,564.0148,567.0143,NA,NA,NA,NA,NA,40,27,0,38,38,48,1,2,39,"binary"
"E04F76281CC649BEAB8D61800201D3F2",1,"01990a9b-6831-739c-a85b-af2d802dff14","01990a83-7673-7c0c-a792-bbd8fbbaf673","2025-09-02_09h26.40.929",NA,NA,570.3619,570.3619,570.3619,570.7088,NA,NA,NA,NA,NA,NA,NA,TRUE,2,0.8821,567.3625,570.3618,NA,NA,NA,NA,NA,40,40,0,39,39,51,1,2,40,"binary"
"E04F76281CC649BEAB8D61800201D3F2",1,"01990a9b-6831-739c-a85b-af2d802dff14","01990a83-7673-7c0c-a792-bbd8fbbaf673","2025-09-02_09h26.40.929",NA,NA,573.7089,573.7089,573.7089,574.0629,NA,NA,NA,NA,NA,NA,NA,TRUE,2,1.4724,570.7092,573.7088,NA,NA,NA,NA,NA,90,33,0,40,40,74,1,2,41,"binary"
"E04F76281CC649BEAB8D61800201D3F2",1,"01990a9b-6831-739c-a85b-af2d802dff14","01990a83-7673-7c0c-a792-bbd8fbbaf673","2025-09-02_09h26.40.929",NA,NA,577.0632,577.0633,577.0633,577.4109,NA,NA,NA,NA,NA,NA,NA,TRUE,2,0.7916,574.0635,577.0632,NA,NA,NA,NA,NA,95,35,0,41,41,80,1,2,42,"binary"
"E04F76281CC649BEAB8D61800201D3F2",1,"01990a9b-6831-739c-a85b-af2d802dff14","01990a83-7673-7c0c-a792-bbd8fbbaf673","2025-09-02_09h26.40.929",NA,NA,580.4104,580.4104,580.4104,580.7577,NA,NA,NA,NA,NA,NA,NA,TRUE,2,1.1877,577.4113,580.4104,NA,NA,NA,NA,NA,95,54,0,42,42,83,1,2,43,"binary"
"E04F76281CC649BEAB8D61800201D3F2",1,"01990a9b-6831-739c-a85b-af2d802dff14","01990a83-7673-7c0c-a792-bbd8fbbaf673","2025-09-02_09h26.40.929",NA,NA,583.7576,583.7576,583.7576,584.1114,NA,NA,NA,NA,NA,NA,NA,TRUE,1,0.6946,580.7582,583.7576,NA,NA,NA,NA,NA,28,28,0,43,43,37,1,2,44,"binary"
"E04F76281CC649BEAB8D61800201D3F2",1,"01990a9b-6831-739c-a85b-af2d802dff14","01990a83-7673-7c0c-a792-bbd8fbbaf673","2025-09-02_09h26.40.929",NA,NA,587.1114,587.1114,587.1114,587.4587,NA,NA,NA,NA,NA,NA,NA,TRUE,1,0.6945,584.112,587.1114,NA,NA,NA,NA,NA,10,27,0,44,44,8,1,2,45,"binary"
"E04F76281CC649BEAB8D61800201D3F2",1,"01990a9b-6831-739c-a85b-af2d802dff14","01990a83-7673-7c0c-a792-bbd8fbbaf673","2025-09-02_09h26.40.929",NA,NA,590.4587,590.4587,590.4587,590.8132,NA,NA,NA,NA,NA,NA,NA,TRUE,1,0.6808,587.4591,590.4587,NA,NA,NA,NA,NA,10,29,0,45,45,9,1,2,46,"binary"
"E04F76281CC649BEAB8D61800201D3F2",1,"01990a9b-6831-739c-a85b-af2d802dff14","01990a83-7673-7c0c-a792-bbd8fbbaf673","2025-09-02_09h26.40.929",NA,NA,593.8133,593.8134,593.8134,594.1602,NA,NA,NA,NA,NA,NA,NA,TRUE,1,0.9933,590.8138,593.8133,NA,NA,NA,NA,NA,150,33,0,46,46,91,1,2,47,"binary"
"E04F76281CC649BEAB8D61800201D3F2",1,"01990a9b-6831-739c-a85b-af2d802dff14","01990a83-7673-7c0c-a792-bbd8fbbaf673","2025-09-02_09h26.40.929",NA,NA,597.1603,597.1603,597.1604,597.5142,NA,NA,NA,NA,NA,NA,NA,TRUE,1,0.8471,594.1607,597.1603,NA,NA,NA,NA,NA,150,54,0,47,47,95,1,2,48,"binary"
"E04F76281CC649BEAB8D61800201D3F2",1,"01990a9b-6831-739c-a85b-af2d802dff14","01990a83-7673-7c0c-a792-bbd8fbbaf673","2025-09-02_09h26.40.929",NA,NA,600.5076,600.5076,600.5076,600.8615,NA,NA,NA,NA,NA,NA,NA,TRUE,1,1.2914,597.5146,600.5076,NA,NA,NA,NA,NA,7,28,0,48,48,2,1,2,49,"binary"
"E04F76281CC649BEAB8D61800201D3F2",1,"01990a9b-6831-739c-a85b-af2d802dff14","01990a83-7673-7c0c-a792-bbd8fbbaf673","2025-09-02_09h26.40.929",NA,NA,603.8617,603.8617,603.8617,604.2092,NA,NA,NA,NA,NA,NA,NA,TRUE,1,1.7713,600.8621,603.8616,NA,NA,NA,NA,NA,21,27,0,49,49,25,1,2,50,"binary"
"E04F76281CC649BEAB8D61800201D3F2",1,"01990a9b-6831-739c-a85b-af2d802dff14","01990a83-7673-7c0c-a792-bbd8fbbaf673","2025-09-02_09h26.40.929",NA,NA,607.2088,607.2089,607.2089,607.563,NA,NA,NA,NA,NA,NA,NA,TRUE,1,0.6462,604.2096,607.2088,NA,NA,NA,NA,NA,100,26,0,50,50,84,1,2,51,"binary"
"E04F76281CC649BEAB8D61800201D3F2",1,"01990a9b-6831-739c-a85b-af2d802dff14","01990a83-7673-7c0c-a792-bbd8fbbaf673","2025-09-02_09h26.40.929",NA,NA,610.563,610.563,610.563,610.9102,NA,NA,NA,NA,NA,NA,NA,TRUE,1,0.597,607.5635,610.5629,NA,NA,NA,NA,NA,200,28,0,51,51,103,1,2,52,"binary"
"E04F76281CC649BEAB8D61800201D3F2",1,"01990a9b-6831-739c-a85b-af2d802dff14","01990a83-7673-7c0c-a792-bbd8fbbaf673","2025-09-02_09h26.40.929",NA,NA,613.9103,613.9103,613.9103,614.2645,NA,NA,NA,NA,NA,NA,NA,TRUE,2,1.0558,610.9108,613.9102,NA,NA,NA,NA,NA,25,33,0,52,52,33,1,2,53,"binary"
"E04F76281CC649BEAB8D61800201D3F2",1,"01990a9b-6831-739c-a85b-af2d802dff14","01990a83-7673-7c0c-a792-bbd8fbbaf673","2025-09-02_09h26.40.929",NA,NA,617.2576,617.2576,617.2576,617.6118,NA,NA,NA,NA,NA,NA,NA,TRUE,2,1.2222,614.265,617.2575,NA,NA,NA,NA,NA,30,32,0,53,53,46,1,2,54,"binary"
"E04F76281CC649BEAB8D61800201D3F2",1,"01990a9b-6831-739c-a85b-af2d802dff14","01990a83-7673-7c0c-a792-bbd8fbbaf673","2025-09-02_09h26.40.929",NA,NA,620.6118,620.6118,620.6118,620.959,NA,NA,NA,NA,NA,NA,NA,TRUE,1,0.7292,617.6122,620.6118,NA,NA,NA,NA,NA,14,25,0,54,54,18,1,2,55,"binary"
"E04F76281CC649BEAB8D61800201D3F2",1,"01990a9b-6831-739c-a85b-af2d802dff14","01990a83-7673-7c0c-a792-bbd8fbbaf673","2025-09-02_09h26.40.929",NA,NA,623.959,623.959,623.959,624.3129,NA,NA,NA,NA,NA,NA,NA,TRUE,1,0.6178,620.9596,623.9589,NA,NA,NA,NA,NA,100,54,0,55,55,89,1,2,56,"binary"
"E04F76281CC649BEAB8D61800201D3F2",1,"01990a9b-6831-739c-a85b-af2d802dff14","01990a83-7673-7c0c-a792-bbd8fbbaf673","2025-09-02_09h26.40.929",NA,NA,627.313,627.313,627.313,627.6601,NA,NA,NA,NA,NA,NA,NA,TRUE,2,1.0275,624.3134,627.3129,NA,NA,NA,NA,NA,60,35,0,56,56,68,1,2,57,"binary"
"E04F76281CC649BEAB8D61800201D3F2",1,"01990a9b-6831-739c-a85b-af2d802dff14","01990a83-7673-7c0c-a792-bbd8fbbaf673","2025-09-02_09h26.40.929",NA,NA,630.6602,630.6602,630.6602,631.0146,NA,NA,NA,NA,NA,NA,NA,TRUE,1,0.9517,627.6606,630.6601,NA,NA,NA,NA,NA,180,27,0,57,57,96,1,2,58,"binary"
"E04F76281CC649BEAB8D61800201D3F2",1,"01990a9b-6831-739c-a85b-af2d802dff14","01990a83-7673-7c0c-a792-bbd8fbbaf673","2025-09-02_09h26.40.929",NA,NA,634.0146,634.0147,634.0147,634.3617,NA,NA,NA,NA,NA,NA,NA,TRUE,2,1.1389,631.0151,634.0146,NA,NA,NA,NA,NA,21,38,0,58,58,29,1,2,59,"binary"
"E04F76281CC649BEAB8D61800201D3F2",1,"01990a9b-6831-739c-a85b-af2d802dff14","01990a83-7673-7c0c-a792-bbd8fbbaf673","2025-09-02_09h26.40.929",NA,NA,637.3626,637.3626,637.3627,637.709,NA,NA,NA,NA,NA,NA,NA,TRUE,1,0.8749,634.3623,637.3626,NA,NA,NA,NA,NA,150,40,0,59,59,93,1,2,60,"binary"
"E04F76281CC649BEAB8D61800201D3F2",1,"01990a9b-6831-739c-a85b-af2d802dff14","01990a83-7673-7c0c-a792-bbd8fbbaf673","2025-09-02_09h26.40.929",NA,NA,640.7091,640.7091,640.7091,641.063,NA,NA,NA,NA,NA,NA,NA,TRUE,1,1.2361,637.7096,640.709,NA,NA,NA,NA,NA,30,29,0,60,60,44,1,2,61,"binary"
"E04F76281CC649BEAB8D61800201D3F2",1,"01990a9b-6831-739c-a85b-af2d802dff14","01990a83-7673-7c0c-a792-bbd8fbbaf673","2025-09-02_09h26.40.929",NA,NA,644.0632,644.0633,644.0633,644.4103,NA,NA,NA,NA,NA,NA,NA,TRUE,1,1.3403,641.0636,644.0632,NA,NA,NA,NA,NA,25,46,0,61,61,35,1,2,62,"binary"
"E04F76281CC649BEAB8D61800201D3F2",1,"01990a9b-6831-739c-a85b-af2d802dff14","01990a83-7673-7c0c-a792-bbd8fbbaf673","2025-09-02_09h26.40.929",NA,NA,647.4106,647.4106,647.4106,647.7576,NA,NA,NA,NA,NA,NA,NA,TRUE,2,0.8611,644.4108,647.4105,NA,NA,NA,NA,NA,60,33,0,62,62,67,1,2,63,"binary"
"E04F76281CC649BEAB8D61800201D3F2",1,"01990a9b-6831-739c-a85b-af2d802dff14","01990a83-7673-7c0c-a792-bbd8fbbaf673","2025-09-02_09h26.40.929",NA,NA,650.7577,650.7577,650.7577,651.1117,NA,NA,NA,NA,NA,NA,NA,TRUE,1,0.9861,647.7582,650.7576,NA,NA,NA,NA,NA,90,26,0,63,63,72,1,2,64,"binary"
"E04F76281CC649BEAB8D61800201D3F2",1,"01990a9b-6831-739c-a85b-af2d802dff14","01990a83-7673-7c0c-a792-bbd8fbbaf673","2025-09-02_09h26.40.929",NA,NA,654.1119,654.1119,654.1119,654.459,NA,NA,NA,NA,NA,NA,NA,TRUE,1,1.3126,651.1123,654.1118,NA,NA,NA,NA,NA,60,29,0,64,64,66,1,2,65,"binary"
"E04F76281CC649BEAB8D61800201D3F2",1,"01990a9b-6831-739c-a85b-af2d802dff14","01990a83-7673-7c0c-a792-bbd8fbbaf673","2025-09-02_09h26.40.929",NA,NA,657.459,657.459,657.459,657.8131,NA,NA,NA,NA,NA,NA,NA,TRUE,2,1.3613,654.4594,657.459,NA,NA,NA,NA,NA,30,38,0,65,65,47,1,2,66,"binary"
"E04F76281CC649BEAB8D61800201D3F2",1,"01990a9b-6831-739c-a85b-af2d802dff14","01990a83-7673-7c0c-a792-bbd8fbbaf673","2025-09-02_09h26.40.929",NA,NA,660.8134,660.8134,660.8134,661.1604,NA,NA,NA,NA,NA,NA,NA,TRUE,1,0.7291,657.8137,660.8133,NA,NA,NA,NA,NA,150,35,0,66,66,92,1,2,67,"binary"
"E04F76281CC649BEAB8D61800201D3F2",1,"01990a9b-6831-739c-a85b-af2d802dff14","01990a83-7673-7c0c-a792-bbd8fbbaf673","2025-09-02_09h26.40.929",NA,NA,664.1605,664.1605,664.1605,664.5076,NA,NA,NA,NA,NA,NA,NA,TRUE,2,0.7708,661.161,664.1605,NA,NA,NA,NA,NA,45,31,0,67,67,56,1,2,68,"binary"
"E04F76281CC649BEAB8D61800201D3F2",1,"01990a9b-6831-739c-a85b-af2d802dff14","01990a83-7673-7c0c-a792-bbd8fbbaf673","2025-09-02_09h26.40.929",NA,NA,667.5078,667.5078,667.5078,667.8615,NA,NA,NA,NA,NA,NA,NA,TRUE,2,0.7222,664.5082,667.5078,NA,NA,NA,NA,NA,28,46,0,68,68,41,1,2,69,"binary"
"E04F76281CC649BEAB8D61800201D3F2",1,"01990a9b-6831-739c-a85b-af2d802dff14","01990a83-7673-7c0c-a792-bbd8fbbaf673","2025-09-02_09h26.40.929",NA,NA,670.8617,670.8617,670.8617,671.2088,NA,NA,NA,NA,NA,NA,NA,TRUE,1,0.7362,667.8621,670.8617,NA,NA,NA,NA,NA,200,35,0,69,69,104,1,2,70,"binary"
"E04F76281CC649BEAB8D61800201D3F2",1,"01990a9b-6831-739c-a85b-af2d802dff14","01990a83-7673-7c0c-a792-bbd8fbbaf673","2025-09-02_09h26.40.929",NA,NA,674.2089,674.2089,674.2089,674.5632,NA,NA,NA,NA,NA,NA,NA,TRUE,1,1.4517,671.2093,674.2088,NA,NA,NA,NA,NA,100,46,0,70,70,88,1,2,71,"binary"
"E04F76281CC649BEAB8D61800201D3F2",1,"01990a9b-6831-739c-a85b-af2d802dff14","01990a83-7673-7c0c-a792-bbd8fbbaf673","2025-09-02_09h26.40.929",NA,NA,677.5633,677.5633,677.5633,677.9104,NA,NA,NA,NA,NA,NA,NA,TRUE,2,0.6938,674.5638,677.5632,NA,NA,NA,NA,NA,25,29,0,71,71,31,1,2,72,"binary"
"E04F76281CC649BEAB8D61800201D3F2",1,"01990a9b-6831-739c-a85b-af2d802dff14","01990a83-7673-7c0c-a792-bbd8fbbaf673","2025-09-02_09h26.40.929",NA,NA,680.9105,680.9105,680.9105,681.2578,NA,NA,NA,NA,NA,NA,NA,TRUE,1,0.7223,677.9109,680.9105,NA,NA,NA,NA,NA,180,54,0,72,72,101,1,2,73,"binary"
"E04F76281CC649BEAB8D61800201D3F2",1,"01990a9b-6831-739c-a85b-af2d802dff14","01990a83-7673-7c0c-a792-bbd8fbbaf673","2025-09-02_09h26.40.929",NA,NA,684.2578,684.2578,684.2578,684.6124,NA,NA,NA,NA,NA,NA,NA,TRUE,2,0.882,681.2582,684.2577,NA,NA,NA,NA,NA,10,32,0,73,73,11,1,2,74,"binary"
"E04F76281CC649BEAB8D61800201D3F2",1,"01990a9b-6831-739c-a85b-af2d802dff14","01990a83-7673-7c0c-a792-bbd8fbbaf673","2025-09-02_09h26.40.929",NA,NA,687.6119,687.6119,687.6119,687.9591,NA,NA,NA,NA,NA,NA,NA,TRUE,1,1.0549,684.6129,687.6119,NA,NA,NA,NA,NA,14,26,0,74,74,19,1,2,75,"binary"
"E04F76281CC649BEAB8D61800201D3F2",1,"01990a9b-6831-739c-a85b-af2d802dff14","01990a83-7673-7c0c-a792-bbd8fbbaf673","2025-09-02_09h26.40.929",NA,NA,690.9593,690.9593,690.9593,691.3132,NA,NA,NA,NA,NA,NA,NA,TRUE,2,0.7082,687.9596,690.9592,NA,NA,NA,NA,NA,95,33,0,75,75,79,1,2,76,"binary"
"E04F76281CC649BEAB8D61800201D3F2",1,"01990a9b-6831-739c-a85b-af2d802dff14","01990a83-7673-7c0c-a792-bbd8fbbaf673","2025-09-02_09h26.40.929",NA,NA,694.3133,694.3133,694.3133,694.6605,NA,NA,NA,NA,NA,NA,NA,TRUE,2,0.7984,691.3137,694.3133,NA,NA,NA,NA,NA,28,35,0,76,76,39,1,2,77,"binary"
"E04F76281CC649BEAB8D61800201D3F2",1,"01990a9b-6831-739c-a85b-af2d802dff14","01990a83-7673-7c0c-a792-bbd8fbbaf673","2025-09-02_09h26.40.929",NA,NA,697.6608,697.6608,697.6608,698.0078,NA,NA,NA,NA,NA,NA,NA,TRUE,1,0.6391,694.6611,697.6608,NA,NA,NA,NA,NA,25,27,0,77,77,30,1,2,78,"binary"
"E04F76281CC649BEAB8D61800201D3F2",1,"01990a9b-6831-739c-a85b-af2d802dff14","01990a83-7673-7c0c-a792-bbd8fbbaf673","2025-09-02_09h26.40.929",NA,NA,701.0076,701.0076,701.0076,701.362,NA,NA,NA,NA,NA,NA,NA,TRUE,1,0.6459,698.0083,701.0076,NA,NA,NA,NA,NA,10,25,0,78,78,6,1,2,79,"binary"
"E04F76281CC649BEAB8D61800201D3F2",1,"01990a9b-6831-739c-a85b-af2d802dff14","01990a83-7673-7c0c-a792-bbd8fbbaf673","2025-09-02_09h26.40.929",NA,NA,704.3621,704.3621,704.3621,704.709,NA,NA,NA,NA,NA,NA,NA,TRUE,2,0.7776,701.3625,704.3619,NA,NA,NA,NA,NA,50,46,0,79,79,64,1,2,80,"binary"
"E04F76281CC649BEAB8D61800201D3F2",1,"01990a9b-6831-739c-a85b-af2d802dff14","01990a83-7673-7c0c-a792-bbd8fbbaf673","2025-09-02_09h26.40.929",NA,NA,707.7092,707.7092,707.7093,708.0631,NA,NA,NA,NA,NA,NA,NA,TRUE,2,1.4861,704.7096,707.7092,NA,NA,NA,NA,NA,30,30,0,80,80,45,1,2,81,"binary"
"E04F76281CC649BEAB8D61800201D3F2",1,"01990a9b-6831-739c-a85b-af2d802dff14","01990a83-7673-7c0c-a792-bbd8fbbaf673","2025-09-02_09h26.40.929",NA,NA,711.0632,711.0633,711.0633,711.4103,NA,NA,NA,NA,NA,NA,NA,TRUE,1,0.9371,708.0636,711.0631,NA,NA,NA,NA,NA,180,35,0,81,81,98,1,2,82,"binary"
"E04F76281CC649BEAB8D61800201D3F2",1,"01990a9b-6831-739c-a85b-af2d802dff14","01990a83-7673-7c0c-a792-bbd8fbbaf673","2025-09-02_09h26.40.929",NA,NA,714.4105,714.4105,714.4105,714.7647,NA,NA,NA,NA,NA,NA,NA,TRUE,2,0.6739,711.4107,714.4103,NA,NA,NA,NA,NA,90,54,0,82,82,77,1,2,83,"binary"
"E04F76281CC649BEAB8D61800201D3F2",1,"01990a9b-6831-739c-a85b-af2d802dff14","01990a83-7673-7c0c-a792-bbd8fbbaf673","2025-09-02_09h26.40.929",NA,NA,717.7577,717.7578,717.7578,718.1119,NA,NA,NA,NA,NA,NA,NA,TRUE,1,1.0278,714.7652,717.7577,NA,NA,NA,NA,NA,180,46,0,83,83,100,1,2,84,"binary"
"E04F76281CC649BEAB8D61800201D3F2",1,"01990a9b-6831-739c-a85b-af2d802dff14","01990a83-7673-7c0c-a792-bbd8fbbaf673","2025-09-02_09h26.40.929",NA,NA,721.1127,721.1127,721.1127,721.4592,NA,NA,NA,NA,NA,NA,NA,TRUE,2,0.7012,718.1126,721.1126,NA,NA,NA,NA,NA,50,54,0,84,84,65,1,2,85,"binary"
"E04F76281CC649BEAB8D61800201D3F2",1,"01990a9b-6831-739c-a85b-af2d802dff14","01990a83-7673-7c0c-a792-bbd8fbbaf673","2025-09-02_09h26.40.929",NA,NA,724.4592,724.4592,724.4592,724.8134,NA,NA,NA,NA,NA,NA,NA,TRUE,2,0.9931,721.4598,724.4592,NA,NA,NA,NA,NA,90,46,0,85,85,76,1,2,86,"binary"
"E04F76281CC649BEAB8D61800201D3F2",1,"01990a9b-6831-739c-a85b-af2d802dff14","01990a83-7673-7c0c-a792-bbd8fbbaf673","2025-09-02_09h26.40.929",NA,NA,727.8135,727.8135,727.8135,728.1604,NA,NA,NA,NA,NA,NA,NA,TRUE,2,0.7915,724.8139,727.8134,NA,NA,NA,NA,NA,14,32,0,86,86,21,1,2,87,"binary"
"E04F76281CC649BEAB8D61800201D3F2",1,"01990a9b-6831-739c-a85b-af2d802dff14","01990a83-7673-7c0c-a792-bbd8fbbaf673","2025-09-02_09h26.40.929",NA,NA,731.1607,731.1607,731.1607,731.5079,NA,NA,NA,NA,NA,NA,NA,TRUE,2,0.7082,728.1609,731.1607,NA,NA,NA,NA,NA,7,35,0,87,87,5,1,2,88,"binary"
"E04F76281CC649BEAB8D61800201D3F2",1,"01990a9b-6831-739c-a85b-af2d802dff14","01990a83-7673-7c0c-a792-bbd8fbbaf673","2025-09-02_09h26.40.929",NA,NA,734.508,734.508,734.508,734.8618,NA,NA,NA,NA,NA,NA,NA,TRUE,2,0.7777,731.5083,734.5079,NA,NA,NA,NA,NA,30,26,0,88,88,42,1,2,89,"binary"
"E04F76281CC649BEAB8D61800201D3F2",1,"01990a9b-6831-739c-a85b-af2d802dff14","01990a83-7673-7c0c-a792-bbd8fbbaf673","2025-09-02_09h26.40.929",NA,NA,737.862,737.862,737.862,738.2091,NA,NA,NA,NA,NA,NA,NA,TRUE,2,0.8821,734.8623,737.862,NA,NA,NA,NA,NA,45,46,0,89,89,59,1,2,90,"binary"
"E04F76281CC649BEAB8D61800201D3F2",1,"01990a9b-6831-739c-a85b-af2d802dff14","01990a83-7673-7c0c-a792-bbd8fbbaf673","2025-09-02_09h26.40.929",NA,NA,741.2091,741.2091,741.2091,741.5635,NA,NA,NA,NA,NA,NA,NA,TRUE,2,0.7779,738.2095,741.2091,NA,NA,NA,NA,NA,14,35,0,90,90,22,1,2,91,"binary"
"E04F76281CC649BEAB8D61800201D3F2",1,"01990a9b-6831-739c-a85b-af2d802dff14","01990a83-7673-7c0c-a792-bbd8fbbaf673","2025-09-02_09h26.40.929",NA,NA,744.5649,744.565,744.565,744.9107,NA,NA,NA,NA,NA,NA,NA,TRUE,2,0.7639,741.564,744.5648,NA,NA,NA,NA,NA,12,33,0,91,91,16,1,2,92,"binary"
"E04F76281CC649BEAB8D61800201D3F2",1,"01990a9b-6831-739c-a85b-af2d802dff14","01990a83-7673-7c0c-a792-bbd8fbbaf673","2025-09-02_09h26.40.929",NA,NA,747.9108,747.9108,747.9108,748.2579,NA,NA,NA,NA,NA,NA,NA,TRUE,2,0.8471,744.9112,747.9108,NA,NA,NA,NA,NA,90,30,0,92,92,73,1,2,93,"binary"
"E04F76281CC649BEAB8D61800201D3F2",1,"01990a9b-6831-739c-a85b-af2d802dff14","01990a83-7673-7c0c-a792-bbd8fbbaf673","2025-09-02_09h26.40.929",NA,NA,751.2579,751.2579,751.2579,751.6118,NA,NA,NA,NA,NA,NA,NA,TRUE,1,0.6667,748.2584,751.2579,NA,NA,NA,NA,NA,21,26,0,93,93,24,1,2,94,"binary"
"E04F76281CC649BEAB8D61800201D3F2",1,"01990a9b-6831-739c-a85b-af2d802dff14","01990a83-7673-7c0c-a792-bbd8fbbaf673","2025-09-02_09h26.40.929",NA,NA,754.6118,754.6118,754.6119,754.9591,NA,NA,NA,NA,NA,NA,NA,TRUE,2,0.9656,751.6123,754.6118,NA,NA,NA,NA,NA,7,32,0,94,94,4,1,2,95,"binary"
"E04F76281CC649BEAB8D61800201D3F2",1,"01990a9b-6831-739c-a85b-af2d802dff14","01990a83-7673-7c0c-a792-bbd8fbbaf673","2025-09-02_09h26.40.929",NA,NA,757.9593,757.9593,757.9593,758.3136,NA,NA,NA,NA,NA,NA,NA,TRUE,1,0.6806,754.9597,757.9592,NA,NA,NA,NA,NA,45,26,0,95,95,54,1,2,96,"binary"
"E04F76281CC649BEAB8D61800201D3F2",1,"01990a9b-6831-739c-a85b-af2d802dff14","01990a83-7673-7c0c-a792-bbd8fbbaf673","2025-09-02_09h26.40.929",NA,NA,761.3135,761.3135,761.3135,761.6607,NA,NA,NA,NA,NA,NA,NA,TRUE,1,0.5694,758.3142,761.3135,NA,NA,NA,NA,NA,50,27,0,96,96,60,1,2,97,"binary"
"E04F76281CC649BEAB8D61800201D3F2",1,"01990a9b-6831-739c-a85b-af2d802dff14","01990a83-7673-7c0c-a792-bbd8fbbaf673","2025-09-02_09h26.40.929",NA,NA,764.6607,764.6607,764.6607,765.0078,NA,NA,NA,NA,NA,NA,NA,TRUE,1,0.8748,761.6612,764.6607,NA,NA,NA,NA,NA,60,47,0,97,97,70,1,2,98,"binary"
"E04F76281CC649BEAB8D61800201D3F2",1,"01990a9b-6831-739c-a85b-af2d802dff14","01990a83-7673-7c0c-a792-bbd8fbbaf673","2025-09-02_09h26.40.929",NA,NA,768.008,768.008,768.008,768.3619,NA,NA,NA,NA,NA,NA,NA,TRUE,1,0.3473,765.0082,768.008,NA,NA,NA,NA,NA,90,40,0,98,98,75,1,2,99,"binary"
"E04F76281CC649BEAB8D61800201D3F2",1,"01990a9b-6831-739c-a85b-af2d802dff14","01990a83-7673-7c0c-a792-bbd8fbbaf673","2025-09-02_09h26.40.929",NA,NA,771.3622,771.3622,771.3622,771.7093,NA,NA,NA,NA,NA,NA,NA,TRUE,1,0.4585,768.3625,771.3622,NA,NA,NA,NA,NA,14,28,0,99,99,20,1,2,100,"binary"
"E04F76281CC649BEAB8D61800201D3F2",1,"01990a9b-6831-739c-a85b-af2d802dff14","01990a83-7673-7c0c-a792-bbd8fbbaf673","2025-09-02_09h26.40.929",NA,NA,774.7094,774.7095,774.7095,775.0635,NA,NA,NA,NA,NA,NA,NA,TRUE,1,0.2502,771.7098,774.7093,NA,NA,NA,NA,NA,60,54,0,100,100,71,1,2,101,"binary"
"E04F76281CC649BEAB8D61800201D3F2",1,"01990a9b-6831-739c-a85b-af2d802dff14","01990a83-7673-7c0c-a792-bbd8fbbaf673","2025-09-02_09h26.40.929",NA,NA,778.0633,778.0634,778.0634,778.4105,NA,NA,NA,NA,NA,NA,NA,TRUE,1,0.2151,775.064,778.0633,NA,NA,NA,NA,NA,100,31,0,101,101,85,1,2,102,"binary"
"E04F76281CC649BEAB8D61800201D3F2",1,"01990a9b-6831-739c-a85b-af2d802dff14","01990a83-7673-7c0c-a792-bbd8fbbaf673","2025-09-02_09h26.40.929",NA,NA,781.4104,781.4104,781.4104,781.7578,NA,NA,NA,NA,NA,NA,NA,TRUE,1,0.2572,778.4109,781.4104,NA,NA,NA,NA,NA,40,35,0,102,102,50,1,2,103,"binary"
"E04F76281CC649BEAB8D61800201D3F2",1,"01990a9b-6831-739c-a85b-af2d802dff14","01990a83-7673-7c0c-a792-bbd8fbbaf673","2025-09-02_09h26.40.929",NA,NA,784.7578,784.7578,784.7578,785.1121,NA,NA,NA,NA,NA,NA,NA,TRUE,2,0.6321,781.7583,784.7578,NA,NA,NA,NA,NA,40,33,0,103,103,49,1,2,104,"binary"
"E04F76281CC649BEAB8D61800201D3F2",1,"01990a9b-6831-739c-a85b-af2d802dff14","01990a83-7673-7c0c-a792-bbd8fbbaf673","2025-09-02_09h26.40.929",NA,NA,788.1122,788.1122,788.1122,788.4594,NA,NA,NA,NA,NA,NA,NA,TRUE,1,0.5903,785.1126,788.1122,NA,NA,NA,NA,NA,7,26,0,104,104,1,1,2,105,"binary"
"E04F76281CC649BEAB8D61800201D3F2",1,"01990a9b-6831-739c-a85b-af2d802dff14","01990a83-7673-7c0c-a792-bbd8fbbaf673","2025-09-02_09h26.40.929",NA,NA,791.4595,791.4595,791.4595,791.814,NA,NA,NA,NA,NA,NA,NA,TRUE,2,0.8265,788.46,791.4595,NA,NA,NA,NA,NA,60,40,0,105,105,69,1,2,106,"binary"
"E04F76281CC649BEAB8D61800201D3F2",1,"01990a9b-6831-739c-a85b-af2d802dff14","01990a83-7673-7c0c-a792-bbd8fbbaf673","2025-09-02_09h26.40.929",NA,NA,794.8134,794.8134,794.8134,795.1605,NA,NA,NA,NA,NA,NA,NA,TRUE,2,0.9645,791.8145,794.8134,NA,NA,NA,NA,NA,21,32,0,106,106,28,1,2,107,"binary"
"E04F76281CC649BEAB8D61800201D3F2",1,"01990a9b-6831-739c-a85b-af2d802dff14","01990a83-7673-7c0c-a792-bbd8fbbaf673","2025-09-02_09h26.40.929",NA,NA,798.1607,798.1607,798.1607,798.5078,NA,NA,NA,NA,NA,NA,NA,TRUE,2,0.6392,795.161,798.1607,NA,NA,NA,NA,NA,28,39,0,107,107,40,1,2,108,"binary"
