"participant","session","assignmentId","projectId","date","practiceTrial.started","practiceTrial.stopped","tooLate.started","tooLate.stopped","blank.started","blank.stopped","trials_pract.thisRepN","trials_pract.thisTrialN","trials_pract.thisN","trials_pract.thisIndex","trials_pract.ran","delay_pract","amount_pract","responseMade","key","rt","trial.started","trial.stopped","trials.thisRepN","trials.thisTrialN","trials.thisN","trials.thisIndex","trials.ran","delay","amount","trials_2.thisRepN","trials_2.thisTrialN","trials_2.thisN","trials_2.thisIndex","trials_2.ran","block","trial","taskType"
"E42BD53D392D4B6299133CD75DCC9AB2",1,"01990a98-e6b4-723b-9609-9eb19b9df618","01990a83-7673-7c0c-a792-bbd8fbbaf673","2025-09-02_09h26.44.706",78.091,81.084,81.085,81.089,81.089,81.313,0,0,0,2,1,14,45,TRUE,2,1.507,NA,NA,NA,NA,NA,NA,NA,NA,NA,NA,NA,NA,NA,NA,0,1,"binary"
"E42BD53D392D4B6299133CD75DCC9AB2",1,"01990a98-e6b4-723b-9609-9eb19b9df618","01990a83-7673-7c0c-a792-bbd8fbbaf673","2025-09-02_09h26.44.706",81.315,84.234,84.235,84.235,84.235,84.694,0,1,1,3,1,3,27,TRUE,2,0.513,NA,NA,NA,NA,NA,NA,NA,NA,NA,NA,NA,NA,NA,NA,0,2,"binary"
"E42BD53D392D4B6299133CD75DCC9AB2",1,"01990a98-e6b4-723b-9609-9eb19b9df618","01990a83-7673-7c0c-a792-bbd8fbbaf673","2025-09-02_09h26.44.706",84.704,87.775,87.775,87.776,87.776,88.011,0,2,2,1,1,100,50,TRUE,1,0.012,NA,NA,NA,NA,NA,NA,NA,NA,NA,NA,NA,NA,NA,NA,0,3,"binary"
"E42BD53D392D4B6299133CD75DCC9AB2",1,"01990a98-e6b4-723b-9609-9eb19b9df618","01990a83-7673-7c0c-a792-bbd8fbbaf673","2025-09-02_09h26.44.706",88.014,90.917,90.917,90.918,90.918,91.36,0,3,3,0,1,7,30,TRUE,1,0.522,NA,NA,NA,NA,NA,NA,NA,NA,NA,NA,NA,NA,NA,NA,0,4,"binary"
"E42BD53D392D4B6299133CD75DCC9AB2",1,"01990a98-e6b4-723b-9609-9eb19b9df618","01990a83-7673-7c0c-a792-bbd8fbbaf673","2025-09-02_09h26.44.706",91.37,94.261,94.262,94.262,94.262,94.71,0,4,4,4,1,30,40,TRUE,1,0.516,NA,NA,NA,NA,NA,NA,NA,NA,NA,NA,NA,NA,NA,NA,0,5,"binary"
"E42BD53D392D4B6299133CD75DCC9AB2",1,"01990a98-e6b4-723b-9609-9eb19b9df618","01990a83-7673-7c0c-a792-bbd8fbbaf673","2025-09-02_09h26.44.706",NA,NA,167.161,167.162,167.162,167.613,NA,NA,NA,NA,NA,NA,NA,TRUE,1,1.274,164.212,167.161,0,0,0,6,1,10,25,NA,NA,NA,NA,NA,1,1,"binary"
"E42BD53D392D4B6299133CD75DCC9AB2",1,"01990a98-e6b4-723b-9609-9eb19b9df618","01990a83-7673-7c0c-a792-bbd8fbbaf673","2025-09-02_09h26.44.706",NA,NA,170.544,170.544,170.544,170.811,NA,NA,NA,NA,NA,NA,NA,TRUE,1,0.738,167.622,170.543,0,1,1,16,1,12,33,NA,NA,NA,NA,NA,1,2,"binary"
"E42BD53D392D4B6299133CD75DCC9AB2",1,"01990a98-e6b4-723b-9609-9eb19b9df618","01990a83-7673-7c0c-a792-bbd8fbbaf673","2025-09-02_09h26.44.706",NA,NA,173.805,173.805,173.805,174.263,NA,NA,NA,NA,NA,NA,NA,TRUE,1,0.497,170.814,173.805,0,2,2,14,1,12,28,NA,NA,NA,NA,NA,1,3,"binary"
"E42BD53D392D4B6299133CD75DCC9AB2",1,"01990a98-e6b4-723b-9609-9eb19b9df618","01990a83-7673-7c0c-a792-bbd8fbbaf673","2025-09-02_09h26.44.706",NA,NA,177.082,177.082,177.082,177.549,NA,NA,NA,NA,NA,NA,NA,TRUE,1,0.755,174.266,177.081,0,3,3,99,1,180,39,NA,NA,NA,NA,NA,1,4,"binary"
"E42BD53D392D4B6299133CD75DCC9AB2",1,"01990a98-e6b4-723b-9609-9eb19b9df618","01990a83-7673-7c0c-a792-bbd8fbbaf673","2025-09-02_09h26.44.706",NA,NA,180.535,180.536,180.536,181.002,NA,NA,NA,NA,NA,NA,NA,TRUE,1,0.553,177.557,180.535,0,4,4,95,1,150,54,NA,NA,NA,NA,NA,1,5,"binary"
"E42BD53D392D4B6299133CD75DCC9AB2",1,"01990a98-e6b4-723b-9609-9eb19b9df618","01990a83-7673-7c0c-a792-bbd8fbbaf673","2025-09-02_09h26.44.706",NA,NA,183.91,183.91,183.91,184.363,NA,NA,NA,NA,NA,NA,NA,TRUE,1,0.746,181.005,183.91,0,5,5,30,1,25,27,NA,NA,NA,NA,NA,1,6,"binary"
"E42BD53D392D4B6299133CD75DCC9AB2",1,"01990a98-e6b4-723b-9609-9eb19b9df618","01990a83-7673-7c0c-a792-bbd8fbbaf673","2025-09-02_09h26.44.706",NA,NA,187.235,187.235,187.235,187.684,NA,NA,NA,NA,NA,NA,NA,TRUE,1,0.749,184.371,187.234,0,6,6,12,1,12,25,NA,NA,NA,NA,NA,1,7,"binary"
"E42BD53D392D4B6299133CD75DCC9AB2",1,"01990a98-e6b4-723b-9609-9eb19b9df618","01990a83-7673-7c0c-a792-bbd8fbbaf673","2025-09-02_09h26.44.706",NA,NA,190.516,190.516,190.516,190.976,NA,NA,NA,NA,NA,NA,NA,TRUE,1,0.273,187.687,190.516,0,7,7,11,1,10,32,NA,NA,NA,NA,NA,1,8,"binary"
"E42BD53D392D4B6299133CD75DCC9AB2",1,"01990a98-e6b4-723b-9609-9eb19b9df618","01990a83-7673-7c0c-a792-bbd8fbbaf673","2025-09-02_09h26.44.706",NA,NA,193.834,193.834,193.834,194.272,NA,NA,NA,NA,NA,NA,NA,TRUE,1,0.539,190.978,193.833,0,8,8,21,1,14,32,NA,NA,NA,NA,NA,1,9,"binary"
"E42BD53D392D4B6299133CD75DCC9AB2",1,"01990a98-e6b4-723b-9609-9eb19b9df618","01990a83-7673-7c0c-a792-bbd8fbbaf673","2025-09-02_09h26.44.706",NA,NA,197.363,197.363,197.363,197.606,NA,NA,NA,NA,NA,NA,NA,TRUE,1,0.512,194.282,197.363,0,9,9,46,1,30,32,NA,NA,NA,NA,NA,1,10,"binary"
"E42BD53D392D4B6299133CD75DCC9AB2",1,"01990a98-e6b4-723b-9609-9eb19b9df618","01990a83-7673-7c0c-a792-bbd8fbbaf673","2025-09-02_09h26.44.706",NA,NA,200.519,200.519,200.519,200.99,NA,NA,NA,NA,NA,NA,NA,TRUE,1,0.502,197.608,200.519,0,10,10,53,1,40,54,NA,NA,NA,NA,NA,1,11,"binary"
"E42BD53D392D4B6299133CD75DCC9AB2",1,"01990a98-e6b4-723b-9609-9eb19b9df618","01990a83-7673-7c0c-a792-bbd8fbbaf673","2025-09-02_09h26.44.706",NA,NA,203.9,203.9,203.9,204.368,NA,NA,NA,NA,NA,NA,NA,TRUE,1,0.012,200.999,203.899,0,11,11,9,1,10,29,NA,NA,NA,NA,NA,1,12,"binary"
"E42BD53D392D4B6299133CD75DCC9AB2",1,"01990a98-e6b4-723b-9609-9eb19b9df618","01990a83-7673-7c0c-a792-bbd8fbbaf673","2025-09-02_09h26.44.706",NA,NA,207.248,207.248,207.248,207.706,NA,NA,NA,NA,NA,NA,NA,TRUE,1,0.505,204.37,207.248,0,12,12,81,1,95,40,NA,NA,NA,NA,NA,1,13,"binary"
"E42BD53D392D4B6299133CD75DCC9AB2",1,"01990a98-e6b4-723b-9609-9eb19b9df618","01990a83-7673-7c0c-a792-bbd8fbbaf673","2025-09-02_09h26.44.706",NA,NA,210.717,210.717,210.717,211.18,NA,NA,NA,NA,NA,NA,NA,TRUE,1,0.56,207.71,210.716,0,13,13,76,1,90,46,NA,NA,NA,NA,NA,1,14,"binary"
"E42BD53D392D4B6299133CD75DCC9AB2",1,"01990a98-e6b4-723b-9609-9eb19b9df618","01990a83-7673-7c0c-a792-bbd8fbbaf673","2025-09-02_09h26.44.706",NA,NA,214.041,214.041,214.041,214.501,NA,NA,NA,NA,NA,NA,NA,TRUE,1,0.77,211.19,214.04,0,14,14,23,1,14,39,NA,NA,NA,NA,NA,1,15,"binary"
"E42BD53D392D4B6299133CD75DCC9AB2",1,"01990a98-e6b4-723b-9609-9eb19b9df618","01990a83-7673-7c0c-a792-bbd8fbbaf673","2025-09-02_09h26.44.706",NA,NA,217.393,217.393,217.393,217.848,NA,NA,NA,NA,NA,NA,NA,TRUE,1,0.754,214.504,217.392,0,15,15,104,1,200,35,NA,NA,NA,NA,NA,1,16,"binary"
"E42BD53D392D4B6299133CD75DCC9AB2",1,"01990a98-e6b4-723b-9609-9eb19b9df618","01990a83-7673-7c0c-a792-bbd8fbbaf673","2025-09-02_09h26.44.706",NA,NA,220.772,220.773,220.773,221.21,NA,NA,NA,NA,NA,NA,NA,TRUE,1,0.748,217.859,220.772,0,16,16,88,1,100,46,NA,NA,NA,NA,NA,1,17,"binary"
"E42BD53D392D4B6299133CD75DCC9AB2",1,"01990a98-e6b4-723b-9609-9eb19b9df618","01990a83-7673-7c0c-a792-bbd8fbbaf673","2025-09-02_09h26.44.706",NA,NA,224.061,224.061,224.062,224.528,NA,NA,NA,NA,NA,NA,NA,TRUE,1,0.734,221.213,224.061,0,17,17,48,1,40,27,NA,NA,NA,NA,NA,1,18,"binary"
"E42BD53D392D4B6299133CD75DCC9AB2",1,"01990a98-e6b4-723b-9609-9eb19b9df618","01990a83-7673-7c0c-a792-bbd8fbbaf673","2025-09-02_09h26.44.706",NA,NA,227.338,227.338,227.338,227.807,NA,NA,NA,NA,NA,NA,NA,TRUE,1,0.761,224.537,227.337,0,18,18,47,1,30,38,NA,NA,NA,NA,NA,1,19,"binary"
"E42BD53D392D4B6299133CD75DCC9AB2",1,"01990a98-e6b4-723b-9609-9eb19b9df618","01990a83-7673-7c0c-a792-bbd8fbbaf673","2025-09-02_09h26.44.706",NA,NA,230.705,230.705,230.705,231.187,NA,NA,NA,NA,NA,NA,NA,TRUE,1,0.52,227.809,230.705,0,19,19,80,1,95,35,NA,NA,NA,NA,NA,1,20,"binary"
"E42BD53D392D4B6299133CD75DCC9AB2",1,"01990a98-e6b4-723b-9609-9eb19b9df618","01990a83-7673-7c0c-a792-bbd8fbbaf673","2025-09-02_09h26.44.706",NA,NA,234.099,234.099,234.1,234.561,NA,NA,NA,NA,NA,NA,NA,TRUE,1,0.982,231.196,234.099,0,20,20,90,1,150,31,NA,NA,NA,NA,NA,1,21,"binary"
"E42BD53D392D4B6299133CD75DCC9AB2",1,"01990a98-e6b4-723b-9609-9eb19b9df618","01990a83-7673-7c0c-a792-bbd8fbbaf673","2025-09-02_09h26.44.706",NA,NA,237.422,237.422,237.422,237.882,NA,NA,NA,NA,NA,NA,NA,TRUE,1,0.746,234.563,237.422,0,21,21,107,1,200,54,NA,NA,NA,NA,NA,1,22,"binary"
"E42BD53D392D4B6299133CD75DCC9AB2",1,"01990a98-e6b4-723b-9609-9eb19b9df618","01990a83-7673-7c0c-a792-bbd8fbbaf673","2025-09-02_09h26.44.706",NA,NA,240.775,240.775,240.775,241.22,NA,NA,NA,NA,NA,NA,NA,TRUE,1,0.778,237.884,240.774,0,22,22,8,1,10,27,NA,NA,NA,NA,NA,1,23,"binary"
"E42BD53D392D4B6299133CD75DCC9AB2",1,"01990a98-e6b4-723b-9609-9eb19b9df618","01990a83-7673-7c0c-a792-bbd8fbbaf673","2025-09-02_09h26.44.706",NA,NA,244.14,244.14,244.14,244.587,NA,NA,NA,NA,NA,NA,NA,TRUE,1,0.518,241.23,244.139,0,23,23,77,1,90,54,NA,NA,NA,NA,NA,1,24,"binary"
"E42BD53D392D4B6299133CD75DCC9AB2",1,"01990a98-e6b4-723b-9609-9eb19b9df618","01990a83-7673-7c0c-a792-bbd8fbbaf673","2025-09-02_09h26.44.706",NA,NA,247.41,247.41,247.41,247.848,NA,NA,NA,NA,NA,NA,NA,TRUE,1,0.753,244.589,247.41,0,24,24,25,1,21,27,NA,NA,NA,NA,NA,1,25,"binary"
"E42BD53D392D4B6299133CD75DCC9AB2",1,"01990a98-e6b4-723b-9609-9eb19b9df618","01990a83-7673-7c0c-a792-bbd8fbbaf673","2025-09-02_09h26.44.706",NA,NA,250.958,250.958,250.959,251.223,NA,NA,NA,NA,NA,NA,NA,TRUE,1,0.487,247.85,250.958,0,25,25,27,1,21,30,NA,NA,NA,NA,NA,1,26,"binary"
"E42BD53D392D4B6299133CD75DCC9AB2",1,"01990a98-e6b4-723b-9609-9eb19b9df618","01990a83-7673-7c0c-a792-bbd8fbbaf673","2025-09-02_09h26.44.706",NA,NA,254.311,254.311,254.311,254.54,NA,NA,NA,NA,NA,NA,NA,TRUE,1,0.249,251.232,254.31,0,26,26,52,1,40,47,NA,NA,NA,NA,NA,1,27,"binary"
"E42BD53D392D4B6299133CD75DCC9AB2",1,"01990a98-e6b4-723b-9609-9eb19b9df618","01990a83-7673-7c0c-a792-bbd8fbbaf673","2025-09-02_09h26.44.706",NA,NA,257.468,257.468,257.468,257.918,NA,NA,NA,NA,NA,NA,NA,TRUE,1,0.27,254.542,257.468,0,27,27,44,1,30,29,NA,NA,NA,NA,NA,1,28,"binary"
"E42BD53D392D4B6299133CD75DCC9AB2",1,"01990a98-e6b4-723b-9609-9eb19b9df618","01990a83-7673-7c0c-a792-bbd8fbbaf673","2025-09-02_09h26.44.706",NA,NA,260.849,260.849,260.85,261.314,NA,NA,NA,NA,NA,NA,NA,TRUE,1,0.013,257.92,260.849,0,28,28,73,1,90,30,NA,NA,NA,NA,NA,1,29,"binary"
"E42BD53D392D4B6299133CD75DCC9AB2",1,"01990a98-e6b4-723b-9609-9eb19b9df618","01990a83-7673-7c0c-a792-bbd8fbbaf673","2025-09-02_09h26.44.706",NA,NA,264.203,264.203,264.204,264.675,NA,NA,NA,NA,NA,NA,NA,TRUE,1,0.248,261.326,264.203,0,29,29,0,1,7,25,NA,NA,NA,NA,NA,1,30,"binary"
"E42BD53D392D4B6299133CD75DCC9AB2",1,"01990a98-e6b4-723b-9609-9eb19b9df618","01990a83-7673-7c0c-a792-bbd8fbbaf673","2025-09-02_09h26.44.706",NA,NA,267.551,267.551,267.551,268.014,NA,NA,NA,NA,NA,NA,NA,TRUE,1,0.24,264.677,267.55,0,30,30,5,1,7,35,NA,NA,NA,NA,NA,1,31,"binary"
"E42BD53D392D4B6299133CD75DCC9AB2",1,"01990a98-e6b4-723b-9609-9eb19b9df618","01990a83-7673-7c0c-a792-bbd8fbbaf673","2025-09-02_09h26.44.706",NA,NA,271.046,271.046,271.046,271.487,NA,NA,NA,NA,NA,NA,NA,TRUE,1,0.244,268.023,271.045,0,31,31,84,1,100,26,NA,NA,NA,NA,NA,1,32,"binary"
"E42BD53D392D4B6299133CD75DCC9AB2",1,"01990a98-e6b4-723b-9609-9eb19b9df618","01990a83-7673-7c0c-a792-bbd8fbbaf673","2025-09-02_09h26.44.706",NA,NA,274.242,274.242,274.242,274.694,NA,NA,NA,NA,NA,NA,NA,TRUE,1,0.262,271.489,274.242,0,32,32,83,1,95,54,NA,NA,NA,NA,NA,1,33,"binary"
"E42BD53D392D4B6299133CD75DCC9AB2",1,"01990a98-e6b4-723b-9609-9eb19b9df618","01990a83-7673-7c0c-a792-bbd8fbbaf673","2025-09-02_09h26.44.706",NA,NA,277.86,277.86,277.86,278.101,NA,NA,NA,NA,NA,NA,NA,TRUE,1,0.491,274.696,277.859,0,33,33,98,1,180,35,NA,NA,NA,NA,NA,1,34,"binary"
"E42BD53D392D4B6299133CD75DCC9AB2",1,"01990a98-e6b4-723b-9609-9eb19b9df618","01990a83-7673-7c0c-a792-bbd8fbbaf673","2025-09-02_09h26.44.706",NA,NA,280.931,280.931,280.931,281.396,NA,NA,NA,NA,NA,NA,NA,TRUE,1,0.973,278.11,280.931,0,34,34,71,1,60,54,NA,NA,NA,NA,NA,1,35,"binary"
"E42BD53D392D4B6299133CD75DCC9AB2",1,"01990a98-e6b4-723b-9609-9eb19b9df618","01990a83-7673-7c0c-a792-bbd8fbbaf673","2025-09-02_09h26.44.706",NA,NA,284.31,284.31,284.31,284.789,NA,NA,NA,NA,NA,NA,NA,TRUE,1,0.518,281.399,284.309,0,35,35,96,1,180,27,NA,NA,NA,NA,NA,1,36,"binary"
"E42BD53D392D4B6299133CD75DCC9AB2",1,"01990a98-e6b4-723b-9609-9eb19b9df618","01990a83-7673-7c0c-a792-bbd8fbbaf673","2025-09-02_09h26.44.706",NA,NA,287.692,287.692,287.692,288.178,NA,NA,NA,NA,NA,NA,NA,TRUE,1,0.014,284.792,287.691,0,36,36,19,1,14,26,NA,NA,NA,NA,NA,1,37,"binary"
"E42BD53D392D4B6299133CD75DCC9AB2",1,"01990a98-e6b4-723b-9609-9eb19b9df618","01990a83-7673-7c0c-a792-bbd8fbbaf673","2025-09-02_09h26.44.706",NA,NA,291.11,291.11,291.11,291.603,NA,NA,NA,NA,NA,NA,NA,TRUE,1,2.693,288.179,291.109,0,37,37,45,1,30,30,NA,NA,NA,NA,NA,1,38,"binary"
"E42BD53D392D4B6299133CD75DCC9AB2",1,"01990a98-e6b4-723b-9609-9eb19b9df618","01990a83-7673-7c0c-a792-bbd8fbbaf673","2025-09-02_09h26.44.706",NA,NA,294.317,294.317,294.317,294.785,NA,NA,NA,NA,NA,NA,NA,TRUE,1,0.781,291.605,294.317,0,38,38,50,1,40,35,NA,NA,NA,NA,NA,1,39,"binary"
"E42BD53D392D4B6299133CD75DCC9AB2",1,"01990a98-e6b4-723b-9609-9eb19b9df618","01990a83-7673-7c0c-a792-bbd8fbbaf673","2025-09-02_09h26.44.706",NA,NA,297.771,297.771,297.771,298.228,NA,NA,NA,NA,NA,NA,NA,TRUE,1,0.799,294.787,297.77,0,39,39,69,1,60,40,NA,NA,NA,NA,NA,1,40,"binary"
"E42BD53D392D4B6299133CD75DCC9AB2",1,"01990a98-e6b4-723b-9609-9eb19b9df618","01990a83-7673-7c0c-a792-bbd8fbbaf673","2025-09-02_09h26.44.706",NA,NA,301.185,301.185,301.185,301.648,NA,NA,NA,NA,NA,NA,NA,TRUE,1,0.726,298.238,301.184,0,40,40,13,1,12,26,NA,NA,NA,NA,NA,1,41,"binary"
"E42BD53D392D4B6299133CD75DCC9AB2",1,"01990a98-e6b4-723b-9609-9eb19b9df618","01990a83-7673-7c0c-a792-bbd8fbbaf673","2025-09-02_09h26.44.706",NA,NA,304.542,304.542,304.542,305.015,NA,NA,NA,NA,NA,NA,NA,TRUE,1,0.254,301.651,304.541,0,41,41,22,1,14,35,NA,NA,NA,NA,NA,1,42,"binary"
"E42BD53D392D4B6299133CD75DCC9AB2",1,"01990a98-e6b4-723b-9609-9eb19b9df618","01990a83-7673-7c0c-a792-bbd8fbbaf673","2025-09-02_09h26.44.706",NA,NA,307.883,307.883,307.883,308.38,NA,NA,NA,NA,NA,NA,NA,TRUE,1,0.253,305.018,307.882,0,42,42,33,1,25,33,NA,NA,NA,NA,NA,1,43,"binary"
"E42BD53D392D4B6299133CD75DCC9AB2",1,"01990a98-e6b4-723b-9609-9eb19b9df618","01990a83-7673-7c0c-a792-bbd8fbbaf673","2025-09-02_09h26.44.706",NA,NA,311.296,311.297,311.297,311.53,NA,NA,NA,NA,NA,NA,NA,TRUE,1,0.799,308.389,311.296,0,43,43,17,1,12,35,NA,NA,NA,NA,NA,1,44,"binary"
"E42BD53D392D4B6299133CD75DCC9AB2",1,"01990a98-e6b4-723b-9609-9eb19b9df618","01990a83-7673-7c0c-a792-bbd8fbbaf673","2025-09-02_09h26.44.706",NA,NA,314.46,314.46,314.46,314.924,NA,NA,NA,NA,NA,NA,NA,TRUE,1,1.967,311.532,314.46,0,44,44,85,1,100,31,NA,NA,NA,NA,NA,1,45,"binary"
"E42BD53D392D4B6299133CD75DCC9AB2",1,"01990a98-e6b4-723b-9609-9eb19b9df618","01990a83-7673-7c0c-a792-bbd8fbbaf673","2025-09-02_09h26.44.706",NA,NA,317.858,317.858,317.858,318.319,NA,NA,NA,NA,NA,NA,NA,TRUE,1,0.979,314.933,317.857,0,45,45,62,1,50,35,NA,NA,NA,NA,NA,1,46,"binary"
"E42BD53D392D4B6299133CD75DCC9AB2",1,"01990a98-e6b4-723b-9609-9eb19b9df618","01990a83-7673-7c0c-a792-bbd8fbbaf673","2025-09-02_09h26.44.706",NA,NA,321.236,321.236,321.236,321.691,NA,NA,NA,NA,NA,NA,NA,TRUE,1,0.769,318.322,321.236,0,46,46,42,1,30,26,NA,NA,NA,NA,NA,1,47,"binary"
"E42BD53D392D4B6299133CD75DCC9AB2",1,"01990a98-e6b4-723b-9609-9eb19b9df618","01990a83-7673-7c0c-a792-bbd8fbbaf673","2025-09-02_09h26.44.706",NA,NA,324.626,324.626,324.626,325.136,NA,NA,NA,NA,NA,NA,NA,TRUE,1,1.022,321.693,324.625,0,47,47,106,1,200,47,NA,NA,NA,NA,NA,1,48,"binary"
"E42BD53D392D4B6299133CD75DCC9AB2",1,"01990a98-e6b4-723b-9609-9eb19b9df618","01990a83-7673-7c0c-a792-bbd8fbbaf673","2025-09-02_09h26.44.706",NA,NA,327.855,327.855,327.855,328.338,NA,NA,NA,NA,NA,NA,NA,TRUE,1,1.26,325.144,327.854,0,48,48,86,1,100,38,NA,NA,NA,NA,NA,1,49,"binary"
"E42BD53D392D4B6299133CD75DCC9AB2",1,"01990a98-e6b4-723b-9609-9eb19b9df618","01990a83-7673-7c0c-a792-bbd8fbbaf673","2025-09-02_09h26.44.706",NA,NA,331.266,331.266,331.266,331.711,NA,NA,NA,NA,NA,NA,NA,TRUE,1,0.747,328.339,331.266,0,49,49,34,1,25,35,NA,NA,NA,NA,NA,1,50,"binary"
"E42BD53D392D4B6299133CD75DCC9AB2",1,"01990a98-e6b4-723b-9609-9eb19b9df618","01990a83-7673-7c0c-a792-bbd8fbbaf673","2025-09-02_09h26.44.706",NA,NA,334.604,334.604,334.604,335.084,NA,NA,NA,NA,NA,NA,NA,TRUE,1,0.729,331.713,334.603,0,50,50,59,1,45,46,NA,NA,NA,NA,NA,1,51,"binary"
"E42BD53D392D4B6299133CD75DCC9AB2",1,"01990a98-e6b4-723b-9609-9eb19b9df618","01990a83-7673-7c0c-a792-bbd8fbbaf673","2025-09-02_09h26.44.706",NA,NA,337.982,337.982,337.982,338.447,NA,NA,NA,NA,NA,NA,NA,TRUE,1,0.013,335.093,337.981,0,51,51,66,1,60,29,NA,NA,NA,NA,NA,1,52,"binary"
"E42BD53D392D4B6299133CD75DCC9AB2",1,"01990a98-e6b4-723b-9609-9eb19b9df618","01990a83-7673-7c0c-a792-bbd8fbbaf673","2025-09-02_09h26.44.706",NA,NA,341.388,341.388,341.388,341.855,NA,NA,NA,NA,NA,NA,NA,TRUE,1,1.238,338.449,341.387,0,52,52,87,1,100,39,NA,NA,NA,NA,NA,1,53,"binary"
"E42BD53D392D4B6299133CD75DCC9AB2",1,"01990a98-e6b4-723b-9609-9eb19b9df618","01990a83-7673-7c0c-a792-bbd8fbbaf673","2025-09-02_09h26.44.706",NA,NA,344.727,344.727,344.727,345.172,NA,NA,NA,NA,NA,NA,NA,TRUE,1,1.218,341.865,344.727,0,53,53,74,1,90,33,NA,NA,NA,NA,NA,1,54,"binary"
"E42BD53D392D4B6299133CD75DCC9AB2",1,"01990a98-e6b4-723b-9609-9eb19b9df618","01990a83-7673-7c0c-a792-bbd8fbbaf673","2025-09-02_09h26.44.706",NA,NA,348.022,348.022,348.022,348.473,NA,NA,NA,NA,NA,NA,NA,TRUE,1,1.008,345.174,348.022,0,54,54,55,1,45,29,NA,NA,NA,NA,NA,1,55,"binary"
"E42BD53D392D4B6299133CD75DCC9AB2",1,"01990a98-e6b4-723b-9609-9eb19b9df618","01990a83-7673-7c0c-a792-bbd8fbbaf673","2025-09-02_09h26.44.706",NA,NA,351.393,351.393,351.393,351.85,NA,NA,NA,NA,NA,NA,NA,TRUE,1,1.234,348.482,351.392,0,55,55,82,1,95,47,NA,NA,NA,NA,NA,1,56,"binary"
"E42BD53D392D4B6299133CD75DCC9AB2",1,"01990a98-e6b4-723b-9609-9eb19b9df618","01990a83-7673-7c0c-a792-bbd8fbbaf673","2025-09-02_09h26.44.706",NA,NA,354.698,354.698,354.698,355.178,NA,NA,NA,NA,NA,NA,NA,TRUE,1,0.728,351.852,354.698,0,56,56,40,1,28,39,NA,NA,NA,NA,NA,1,57,"binary"
"E42BD53D392D4B6299133CD75DCC9AB2",1,"01990a98-e6b4-723b-9609-9eb19b9df618","01990a83-7673-7c0c-a792-bbd8fbbaf673","2025-09-02_09h26.44.706",NA,NA,358.083,358.083,358.083,358.558,NA,NA,NA,NA,NA,NA,NA,TRUE,1,0.732,355.18,358.082,0,57,57,26,1,21,29,NA,NA,NA,NA,NA,1,58,"binary"
"E42BD53D392D4B6299133CD75DCC9AB2",1,"01990a98-e6b4-723b-9609-9eb19b9df618","01990a83-7673-7c0c-a792-bbd8fbbaf673","2025-09-02_09h26.44.706",NA,NA,361.487,361.487,361.487,361.961,NA,NA,NA,NA,NA,NA,NA,TRUE,1,0.978,358.566,361.487,0,58,58,36,1,28,26,NA,NA,NA,NA,NA,1,59,"binary"
"E42BD53D392D4B6299133CD75DCC9AB2",1,"01990a98-e6b4-723b-9609-9eb19b9df618","01990a83-7673-7c0c-a792-bbd8fbbaf673","2025-09-02_09h26.44.706",NA,NA,364.769,364.769,364.769,365.24,NA,NA,NA,NA,NA,NA,NA,TRUE,1,0.721,361.963,364.769,0,59,59,63,1,50,40,NA,NA,NA,NA,NA,1,60,"binary"
"E42BD53D392D4B6299133CD75DCC9AB2",1,"01990a98-e6b4-723b-9609-9eb19b9df618","01990a83-7673-7c0c-a792-bbd8fbbaf673","2025-09-02_09h26.44.706",NA,NA,368.076,368.076,368.076,368.559,NA,NA,NA,NA,NA,NA,NA,TRUE,1,0.714,365.242,368.075,0,60,60,56,1,45,31,NA,NA,NA,NA,NA,1,61,"binary"
"E42BD53D392D4B6299133CD75DCC9AB2",1,"01990a98-e6b4-723b-9609-9eb19b9df618","01990a83-7673-7c0c-a792-bbd8fbbaf673","2025-09-02_09h26.44.706",NA,NA,371.505,371.505,371.505,372.02,NA,NA,NA,NA,NA,NA,NA,TRUE,1,0.812,368.57,371.504,0,61,61,79,1,95,33,NA,NA,NA,NA,NA,1,62,"binary"
"E42BD53D392D4B6299133CD75DCC9AB2",1,"01990a98-e6b4-723b-9609-9eb19b9df618","01990a83-7673-7c0c-a792-bbd8fbbaf673","2025-09-02_09h26.44.706",NA,NA,374.896,374.896,374.896,375.336,NA,NA,NA,NA,NA,NA,NA,TRUE,1,0.753,372.023,374.894,0,62,62,31,1,25,29,NA,NA,NA,NA,NA,1,63,"binary"
"E42BD53D392D4B6299133CD75DCC9AB2",1,"01990a98-e6b4-723b-9609-9eb19b9df618","01990a83-7673-7c0c-a792-bbd8fbbaf673","2025-09-02_09h26.44.706",NA,NA,378.069,378.069,378.069,378.525,NA,NA,NA,NA,NA,NA,NA,TRUE,1,0.506,375.346,378.069,0,63,63,91,1,150,33,NA,NA,NA,NA,NA,1,64,"binary"
"E42BD53D392D4B6299133CD75DCC9AB2",1,"01990a98-e6b4-723b-9609-9eb19b9df618","01990a83-7673-7c0c-a792-bbd8fbbaf673","2025-09-02_09h26.44.706",NA,NA,381.44,381.44,381.44,381.891,NA,NA,NA,NA,NA,NA,NA,TRUE,1,0.526,378.527,381.44,0,64,64,28,1,21,32,NA,NA,NA,NA,NA,1,65,"binary"
"E42BD53D392D4B6299133CD75DCC9AB2",1,"01990a98-e6b4-723b-9609-9eb19b9df618","01990a83-7673-7c0c-a792-bbd8fbbaf673","2025-09-02_09h26.44.706",NA,NA,384.968,384.968,384.968,385.233,NA,NA,NA,NA,NA,NA,NA,TRUE,1,0.015,381.893,384.968,0,65,65,7,1,10,26,NA,NA,NA,NA,NA,1,66,"binary"
"E42BD53D392D4B6299133CD75DCC9AB2",1,"01990a98-e6b4-723b-9609-9eb19b9df618","01990a83-7673-7c0c-a792-bbd8fbbaf673","2025-09-02_09h26.44.706",NA,NA,388.12,388.12,388.12,388.579,NA,NA,NA,NA,NA,NA,NA,TRUE,1,0.473,385.243,388.119,0,66,66,32,1,25,31,NA,NA,NA,NA,NA,1,67,"binary"
"E42BD53D392D4B6299133CD75DCC9AB2",1,"01990a98-e6b4-723b-9609-9eb19b9df618","01990a83-7673-7c0c-a792-bbd8fbbaf673","2025-09-02_09h26.44.706",NA,NA,391.478,391.478,391.478,391.936,NA,NA,NA,NA,NA,NA,NA,TRUE,1,0.477,388.581,391.478,0,67,67,54,1,45,26,NA,NA,NA,NA,NA,1,68,"binary"
"E42BD53D392D4B6299133CD75DCC9AB2",1,"01990a98-e6b4-723b-9609-9eb19b9df618","01990a83-7673-7c0c-a792-bbd8fbbaf673","2025-09-02_09h26.44.706",NA,NA,394.835,394.835,394.835,395.305,NA,NA,NA,NA,NA,NA,NA,TRUE,1,0.486,391.938,394.834,0,68,68,20,1,14,28,NA,NA,NA,NA,NA,1,69,"binary"
"E42BD53D392D4B6299133CD75DCC9AB2",1,"01990a98-e6b4-723b-9609-9eb19b9df618","01990a83-7673-7c0c-a792-bbd8fbbaf673","2025-09-02_09h26.44.706",NA,NA,398.192,398.192,398.192,398.676,NA,NA,NA,NA,NA,NA,NA,TRUE,1,0.255,395.313,398.191,0,69,69,60,1,50,27,NA,NA,NA,NA,NA,1,70,"binary"
"E42BD53D392D4B6299133CD75DCC9AB2",1,"01990a98-e6b4-723b-9609-9eb19b9df618","01990a83-7673-7c0c-a792-bbd8fbbaf673","2025-09-02_09h26.44.706",NA,NA,401.762,401.762,401.762,401.985,NA,NA,NA,NA,NA,NA,NA,TRUE,1,0.49,398.679,401.761,0,70,70,1,1,7,26,NA,NA,NA,NA,NA,1,71,"binary"
"E42BD53D392D4B6299133CD75DCC9AB2",1,"01990a98-e6b4-723b-9609-9eb19b9df618","01990a83-7673-7c0c-a792-bbd8fbbaf673","2025-09-02_09h26.44.706",NA,NA,404.877,404.877,404.877,405.357,NA,NA,NA,NA,NA,NA,NA,TRUE,1,0.48,401.995,404.876,0,71,71,29,1,21,38,NA,NA,NA,NA,NA,1,72,"binary"
"E42BD53D392D4B6299133CD75DCC9AB2",1,"01990a98-e6b4-723b-9609-9eb19b9df618","01990a83-7673-7c0c-a792-bbd8fbbaf673","2025-09-02_09h26.44.706",NA,NA,408.216,408.216,408.216,408.672,NA,NA,NA,NA,NA,NA,NA,TRUE,1,0.503,405.359,408.215,0,72,72,18,1,14,25,NA,NA,NA,NA,NA,1,73,"binary"
"E42BD53D392D4B6299133CD75DCC9AB2",1,"01990a98-e6b4-723b-9609-9eb19b9df618","01990a83-7673-7c0c-a792-bbd8fbbaf673","2025-09-02_09h26.44.706",NA,NA,411.764,411.764,411.764,411.989,NA,NA,NA,NA,NA,NA,NA,TRUE,1,0.759,408.675,411.764,0,73,73,58,1,45,40,NA,NA,NA,NA,NA,1,74,"binary"
"E42BD53D392D4B6299133CD75DCC9AB2",1,"01990a98-e6b4-723b-9609-9eb19b9df618","01990a83-7673-7c0c-a792-bbd8fbbaf673","2025-09-02_09h26.44.706",NA,NA,415.115,415.115,415.115,415.347,NA,NA,NA,NA,NA,NA,NA,TRUE,1,0.505,411.998,415.115,0,74,74,70,1,60,47,NA,NA,NA,NA,NA,1,75,"binary"
"E42BD53D392D4B6299133CD75DCC9AB2",1,"01990a98-e6b4-723b-9609-9eb19b9df618","01990a83-7673-7c0c-a792-bbd8fbbaf673","2025-09-02_09h26.44.706",NA,NA,418.426,418.426,418.426,418.869,NA,NA,NA,NA,NA,NA,NA,TRUE,1,0.484,415.349,418.425,0,75,75,35,1,25,46,NA,NA,NA,NA,NA,1,76,"binary"
"E42BD53D392D4B6299133CD75DCC9AB2",1,"01990a98-e6b4-723b-9609-9eb19b9df618","01990a83-7673-7c0c-a792-bbd8fbbaf673","2025-09-02_09h26.44.706",NA,NA,421.658,421.658,421.658,422.124,NA,NA,NA,NA,NA,NA,NA,TRUE,1,0.722,418.879,421.657,0,76,76,65,1,50,54,NA,NA,NA,NA,NA,1,77,"binary"
"E42BD53D392D4B6299133CD75DCC9AB2",1,"01990a98-e6b4-723b-9609-9eb19b9df618","01990a83-7673-7c0c-a792-bbd8fbbaf673","2025-09-02_09h26.44.706",NA,NA,424.996,424.996,424.996,425.485,NA,NA,NA,NA,NA,NA,NA,TRUE,1,0.498,422.127,424.996,0,77,77,10,1,10,30,NA,NA,NA,NA,NA,1,78,"binary"
"E42BD53D392D4B6299133CD75DCC9AB2",1,"01990a98-e6b4-723b-9609-9eb19b9df618","01990a83-7673-7c0c-a792-bbd8fbbaf673","2025-09-02_09h26.44.706",NA,NA,428.434,428.434,428.434,428.906,NA,NA,NA,NA,NA,NA,NA,TRUE,1,0.783,425.494,428.434,0,78,78,78,1,95,31,NA,NA,NA,NA,NA,1,79,"binary"
"E42BD53D392D4B6299133CD75DCC9AB2",1,"01990a98-e6b4-723b-9609-9eb19b9df618","01990a83-7673-7c0c-a792-bbd8fbbaf673","2025-09-02_09h26.44.706",NA,NA,431.762,431.762,431.762,432.224,NA,NA,NA,NA,NA,NA,NA,TRUE,1,0.98,428.909,431.761,0,79,79,37,1,28,28,NA,NA,NA,NA,NA,1,80,"binary"
"E42BD53D392D4B6299133CD75DCC9AB2",1,"01990a98-e6b4-723b-9609-9eb19b9df618","01990a83-7673-7c0c-a792-bbd8fbbaf673","2025-09-02_09h26.44.706",NA,NA,435.079,435.079,435.079,435.558,NA,NA,NA,NA,NA,NA,NA,TRUE,1,0.759,432.227,435.078,0,80,80,51,1,40,40,NA,NA,NA,NA,NA,1,81,"binary"
"E42BD53D392D4B6299133CD75DCC9AB2",1,"01990a98-e6b4-723b-9609-9eb19b9df618","01990a83-7673-7c0c-a792-bbd8fbbaf673","2025-09-02_09h26.44.706",NA,NA,438.489,438.489,438.489,438.933,NA,NA,NA,NA,NA,NA,NA,TRUE,1,0.734,435.567,438.488,0,81,81,102,1,200,26,NA,NA,NA,NA,NA,1,82,"binary"
"E42BD53D392D4B6299133CD75DCC9AB2",1,"01990a98-e6b4-723b-9609-9eb19b9df618","01990a83-7673-7c0c-a792-bbd8fbbaf673","2025-09-02_09h26.44.706",NA,NA,441.844,441.844,441.844,442.323,NA,NA,NA,NA,NA,NA,NA,TRUE,1,0.792,438.936,441.844,0,82,82,38,1,28,32,NA,NA,NA,NA,NA,1,83,"binary"
"E42BD53D392D4B6299133CD75DCC9AB2",1,"01990a98-e6b4-723b-9609-9eb19b9df618","01990a83-7673-7c0c-a792-bbd8fbbaf673","2025-09-02_09h26.44.706",NA,NA,445.269,445.269,445.269,445.492,NA,NA,NA,NA,NA,NA,NA,TRUE,1,0.772,442.331,445.268,0,83,83,61,1,50,30,NA,NA,NA,NA,NA,1,84,"binary"
"E42BD53D392D4B6299133CD75DCC9AB2",1,"01990a98-e6b4-723b-9609-9eb19b9df618","01990a83-7673-7c0c-a792-bbd8fbbaf673","2025-09-02_09h26.44.706",NA,NA,448.574,448.574,448.574,449.059,NA,NA,NA,NA,NA,NA,NA,TRUE,1,0.744,445.494,448.574,0,84,84,93,1,150,40,NA,NA,NA,NA,NA,1,85,"binary"
"E42BD53D392D4B6299133CD75DCC9AB2",1,"01990a98-e6b4-723b-9609-9eb19b9df618","01990a83-7673-7c0c-a792-bbd8fbbaf673","2025-09-02_09h26.44.706",NA,NA,452.006,452.006,452.006,452.24,NA,NA,NA,NA,NA,NA,NA,TRUE,1,1.02,449.061,452.005,0,85,85,97,1,180,31,NA,NA,NA,NA,NA,1,86,"binary"
"E42BD53D392D4B6299133CD75DCC9AB2",1,"01990a98-e6b4-723b-9609-9eb19b9df618","01990a83-7673-7c0c-a792-bbd8fbbaf673","2025-09-02_09h26.44.706",NA,NA,455.197,455.197,455.197,455.634,NA,NA,NA,NA,NA,NA,NA,TRUE,1,0.251,452.249,455.197,0,86,86,39,1,28,35,NA,NA,NA,NA,NA,1,87,"binary"
"E42BD53D392D4B6299133CD75DCC9AB2",1,"01990a98-e6b4-723b-9609-9eb19b9df618","01990a83-7673-7c0c-a792-bbd8fbbaf673","2025-09-02_09h26.44.706",NA,NA,458.534,458.534,458.534,458.997,NA,NA,NA,NA,NA,NA,NA,TRUE,1,1.026,455.637,458.533,0,87,87,4,1,7,32,NA,NA,NA,NA,NA,1,88,"binary"
"E42BD53D392D4B6299133CD75DCC9AB2",1,"01990a98-e6b4-723b-9609-9eb19b9df618","01990a83-7673-7c0c-a792-bbd8fbbaf673","2025-09-02_09h26.44.706",NA,NA,461.864,461.864,461.864,462.354,NA,NA,NA,NA,NA,NA,NA,TRUE,1,0.491,459,461.864,0,88,88,94,1,150,47,NA,NA,NA,NA,NA,1,89,"binary"
"E42BD53D392D4B6299133CD75DCC9AB2",1,"01990a98-e6b4-723b-9609-9eb19b9df618","01990a83-7673-7c0c-a792-bbd8fbbaf673","2025-09-02_09h26.44.706",NA,NA,465.194,465.194,465.194,465.663,NA,NA,NA,NA,NA,NA,NA,TRUE,1,0.25,462.357,465.194,0,89,89,100,1,180,46,NA,NA,NA,NA,NA,1,90,"binary"
"E42BD53D392D4B6299133CD75DCC9AB2",1,"01990a98-e6b4-723b-9609-9eb19b9df618","01990a83-7673-7c0c-a792-bbd8fbbaf673","2025-09-02_09h26.44.706",NA,NA,468.646,468.646,468.646,469.105,NA,NA,NA,NA,NA,NA,NA,TRUE,1,0.504,465.673,468.645,0,90,90,15,1,12,31,NA,NA,NA,NA,NA,1,91,"binary"
"E42BD53D392D4B6299133CD75DCC9AB2",1,"01990a98-e6b4-723b-9609-9eb19b9df618","01990a83-7673-7c0c-a792-bbd8fbbaf673","2025-09-02_09h26.44.706",NA,NA,472.084,472.085,472.085,472.315,NA,NA,NA,NA,NA,NA,NA,TRUE,1,0.244,469.108,472.084,0,91,91,75,1,90,40,NA,NA,NA,NA,NA,1,92,"binary"
"E42BD53D392D4B6299133CD75DCC9AB2",1,"01990a98-e6b4-723b-9609-9eb19b9df618","01990a83-7673-7c0c-a792-bbd8fbbaf673","2025-09-02_09h26.44.706",NA,NA,475.428,475.428,475.428,475.657,NA,NA,NA,NA,NA,NA,NA,TRUE,1,0.48,472.324,475.428,0,92,92,103,1,200,28,NA,NA,NA,NA,NA,1,93,"binary"
"E42BD53D392D4B6299133CD75DCC9AB2",1,"01990a98-e6b4-723b-9609-9eb19b9df618","01990a83-7673-7c0c-a792-bbd8fbbaf673","2025-09-02_09h26.44.706",NA,NA,478.673,478.673,478.673,479.153,NA,NA,NA,NA,NA,NA,NA,TRUE,1,1.504,475.659,478.673,0,93,93,41,1,28,46,NA,NA,NA,NA,NA,1,94,"binary"
"E42BD53D392D4B6299133CD75DCC9AB2",1,"01990a98-e6b4-723b-9609-9eb19b9df618","01990a83-7673-7c0c-a792-bbd8fbbaf673","2025-09-02_09h26.44.706",NA,NA,482.064,482.064,482.064,482.574,NA,NA,NA,NA,NA,NA,NA,TRUE,1,2.422,479.156,482.064,0,94,94,2,1,7,28,NA,NA,NA,NA,NA,1,95,"binary"
"E42BD53D392D4B6299133CD75DCC9AB2",1,"01990a98-e6b4-723b-9609-9eb19b9df618","01990a83-7673-7c0c-a792-bbd8fbbaf673","2025-09-02_09h26.44.706",NA,NA,485.453,485.453,485.453,485.693,NA,NA,NA,NA,NA,NA,NA,TRUE,1,0.764,482.584,485.452,0,95,95,101,1,180,54,NA,NA,NA,NA,NA,1,96,"binary"
"E42BD53D392D4B6299133CD75DCC9AB2",1,"01990a98-e6b4-723b-9609-9eb19b9df618","01990a83-7673-7c0c-a792-bbd8fbbaf673","2025-09-02_09h26.44.706",NA,NA,488.805,488.805,488.805,489.034,NA,NA,NA,NA,NA,NA,NA,TRUE,1,0.274,485.695,488.804,0,96,96,72,1,90,26,NA,NA,NA,NA,NA,1,97,"binary"
"E42BD53D392D4B6299133CD75DCC9AB2",1,"01990a98-e6b4-723b-9609-9eb19b9df618","01990a83-7673-7c0c-a792-bbd8fbbaf673","2025-09-02_09h26.44.706",NA,NA,492.057,492.059,492.059,492.542,NA,NA,NA,NA,NA,NA,NA,TRUE,1,0.013,489.036,492.057,0,97,97,89,1,100,54,NA,NA,NA,NA,NA,1,98,"binary"
"E42BD53D392D4B6299133CD75DCC9AB2",1,"01990a98-e6b4-723b-9609-9eb19b9df618","01990a83-7673-7c0c-a792-bbd8fbbaf673","2025-09-02_09h26.44.706",NA,NA,495.455,495.673,495.673,495.914,NA,NA,NA,NA,NA,NA,NA,FALSE,NA,NA,492.552,495.455,0,98,98,67,1,60,33,NA,NA,NA,NA,NA,1,99,"binary"
"E42BD53D392D4B6299133CD75DCC9AB2",1,"01990a98-e6b4-723b-9609-9eb19b9df618","01990a83-7673-7c0c-a792-bbd8fbbaf673","2025-09-02_09h26.44.706",NA,NA,498.88,499.108,499.108,499.108,NA,NA,NA,NA,NA,NA,NA,FALSE,NA,NA,495.917,498.88,0,99,99,92,1,150,35,NA,NA,NA,NA,NA,1,100,"binary"
"E42BD53D392D4B6299133CD75DCC9AB2",1,"01990a98-e6b4-723b-9609-9eb19b9df618","01990a83-7673-7c0c-a792-bbd8fbbaf673","2025-09-02_09h26.44.706",NA,NA,502.048,502.267,502.267,502.527,NA,NA,NA,NA,NA,NA,NA,FALSE,NA,NA,499.11,502.048,0,100,100,105,1,200,39,NA,NA,NA,NA,NA,1,101,"binary"
"E42BD53D392D4B6299133CD75DCC9AB2",1,"01990a98-e6b4-723b-9609-9eb19b9df618","01990a83-7673-7c0c-a792-bbd8fbbaf673","2025-09-02_09h26.44.706",NA,NA,505.418,505.418,505.418,505.85,NA,NA,NA,NA,NA,NA,NA,TRUE,1,1.206,502.538,505.417,0,101,101,24,1,21,26,NA,NA,NA,NA,NA,1,102,"binary"
"E42BD53D392D4B6299133CD75DCC9AB2",1,"01990a98-e6b4-723b-9609-9eb19b9df618","01990a83-7673-7c0c-a792-bbd8fbbaf673","2025-09-02_09h26.44.706",NA,NA,508.852,509.1,509.1,509.347,NA,NA,NA,NA,NA,NA,NA,FALSE,NA,NA,505.852,508.852,0,102,102,57,1,45,35,NA,NA,NA,NA,NA,1,103,"binary"
"E42BD53D392D4B6299133CD75DCC9AB2",1,"01990a98-e6b4-723b-9609-9eb19b9df618","01990a83-7673-7c0c-a792-bbd8fbbaf673","2025-09-02_09h26.44.706",NA,NA,512.091,512.322,512.322,512.548,NA,NA,NA,NA,NA,NA,NA,FALSE,NA,NA,509.357,512.091,0,103,103,49,1,40,33,NA,NA,NA,NA,NA,1,104,"binary"
"E42BD53D392D4B6299133CD75DCC9AB2",1,"01990a98-e6b4-723b-9609-9eb19b9df618","01990a83-7673-7c0c-a792-bbd8fbbaf673","2025-09-02_09h26.44.706",NA,NA,515.431,515.875,515.875,515.875,NA,NA,NA,NA,NA,NA,NA,FALSE,NA,NA,512.55,515.431,0,104,104,3,1,7,30,NA,NA,NA,NA,NA,1,105,"binary"
"E42BD53D392D4B6299133CD75DCC9AB2",1,"01990a98-e6b4-723b-9609-9eb19b9df618","01990a83-7673-7c0c-a792-bbd8fbbaf673","2025-09-02_09h26.44.706",NA,NA,518.816,518.816,518.816,519.302,NA,NA,NA,NA,NA,NA,NA,TRUE,1,2.206,515.877,518.816,0,105,105,68,1,60,35,NA,NA,NA,NA,NA,1,106,"binary"
"E42BD53D392D4B6299133CD75DCC9AB2",1,"01990a98-e6b4-723b-9609-9eb19b9df618","01990a83-7673-7c0c-a792-bbd8fbbaf673","2025-09-02_09h26.44.706",NA,NA,522.335,522.335,522.335,522.565,NA,NA,NA,NA,NA,NA,NA,TRUE,1,2.797,519.311,522.334,0,106,106,64,1,50,46,NA,NA,NA,NA,NA,1,107,"binary"
"E42BD53D392D4B6299133CD75DCC9AB2",1,"01990a98-e6b4-723b-9609-9eb19b9df618","01990a83-7673-7c0c-a792-bbd8fbbaf673","2025-09-02_09h26.44.706",NA,NA,525.681,525.681,525.681,525.901,NA,NA,NA,NA,NA,NA,NA,TRUE,1,0.964,522.568,525.68,0,107,107,43,1,30,27,NA,NA,NA,NA,NA,1,108,"binary"
"E42BD53D392D4B6299133CD75DCC9AB2",1,"01990a98-e6b4-723b-9609-9eb19b9df618","01990a83-7673-7c0c-a792-bbd8fbbaf673","2025-09-02_09h26.44.706",NA,NA,558.741,558.741,558.741,559.192,NA,NA,NA,NA,NA,NA,NA,TRUE,2,2.444,555.828,558.74,NA,NA,NA,NA,NA,150,47,0,0,0,94,1,2,1,"binary"
"E42BD53D392D4B6299133CD75DCC9AB2",1,"01990a98-e6b4-723b-9609-9eb19b9df618","01990a83-7673-7c0c-a792-bbd8fbbaf673","2025-09-02_09h26.44.706",NA,NA,562.021,562.244,562.244,562.503,NA,NA,NA,NA,NA,NA,NA,FALSE,NA,NA,559.195,562.02,NA,NA,NA,NA,NA,60,47,0,1,1,70,1,2,2,"binary"
"E42BD53D392D4B6299133CD75DCC9AB2",1,"01990a98-e6b4-723b-9609-9eb19b9df618","01990a83-7673-7c0c-a792-bbd8fbbaf673","2025-09-02_09h26.44.706",NA,NA,565.547,565.798,565.798,565.798,NA,NA,NA,NA,NA,NA,NA,FALSE,NA,NA,562.505,565.547,NA,NA,NA,NA,NA,45,29,0,2,2,55,1,2,3,"binary"
"E42BD53D392D4B6299133CD75DCC9AB2",1,"01990a98-e6b4-723b-9609-9eb19b9df618","01990a83-7673-7c0c-a792-bbd8fbbaf673","2025-09-02_09h26.44.706",NA,NA,568.709,568.93,568.93,569.15,NA,NA,NA,NA,NA,NA,NA,FALSE,NA,NA,565.807,568.709,NA,NA,NA,NA,NA,28,46,0,3,3,41,1,2,4,"binary"
"E42BD53D392D4B6299133CD75DCC9AB2",1,"01990a98-e6b4-723b-9609-9eb19b9df618","01990a83-7673-7c0c-a792-bbd8fbbaf673","2025-09-02_09h26.44.706",NA,NA,572.126,572.126,572.126,572.596,NA,NA,NA,NA,NA,NA,NA,TRUE,2,2.474,569.152,572.125,NA,NA,NA,NA,NA,200,35,0,4,4,104,1,2,5,"binary"
"E42BD53D392D4B6299133CD75DCC9AB2",1,"01990a98-e6b4-723b-9609-9eb19b9df618","01990a83-7673-7c0c-a792-bbd8fbbaf673","2025-09-02_09h26.44.706",NA,NA,575.507,575.507,575.507,575.956,NA,NA,NA,NA,NA,NA,NA,TRUE,2,1.21,572.605,575.507,NA,NA,NA,NA,NA,7,28,0,5,5,2,1,2,6,"binary"
"E42BD53D392D4B6299133CD75DCC9AB2",1,"01990a98-e6b4-723b-9609-9eb19b9df618","01990a83-7673-7c0c-a792-bbd8fbbaf673","2025-09-02_09h26.44.706",NA,NA,578.856,578.856,578.856,579.311,NA,NA,NA,NA,NA,NA,NA,TRUE,1,1.001,575.958,578.855,NA,NA,NA,NA,NA,45,35,0,6,6,57,1,2,7,"binary"
"E42BD53D392D4B6299133CD75DCC9AB2",1,"01990a98-e6b4-723b-9609-9eb19b9df618","01990a83-7673-7c0c-a792-bbd8fbbaf673","2025-09-02_09h26.44.706",NA,NA,582.154,582.154,582.154,582.606,NA,NA,NA,NA,NA,NA,NA,TRUE,2,0.248,579.313,582.153,NA,NA,NA,NA,NA,45,46,0,7,7,59,1,2,8,"binary"
"E42BD53D392D4B6299133CD75DCC9AB2",1,"01990a98-e6b4-723b-9609-9eb19b9df618","01990a83-7673-7c0c-a792-bbd8fbbaf673","2025-09-02_09h26.44.706",NA,NA,585.477,585.477,585.477,585.947,NA,NA,NA,NA,NA,NA,NA,TRUE,2,0.264,582.614,585.477,NA,NA,NA,NA,NA,95,35,0,8,8,80,1,2,9,"binary"
"E42BD53D392D4B6299133CD75DCC9AB2",1,"01990a98-e6b4-723b-9609-9eb19b9df618","01990a83-7673-7c0c-a792-bbd8fbbaf673","2025-09-02_09h26.44.706",NA,NA,588.803,588.803,588.803,589.286,NA,NA,NA,NA,NA,NA,NA,TRUE,1,0.532,585.949,588.803,NA,NA,NA,NA,NA,40,54,0,9,9,53,1,2,10,"binary"
"E42BD53D392D4B6299133CD75DCC9AB2",1,"01990a98-e6b4-723b-9609-9eb19b9df618","01990a83-7673-7c0c-a792-bbd8fbbaf673","2025-09-02_09h26.44.706",NA,NA,592.183,592.183,592.183,592.664,NA,NA,NA,NA,NA,NA,NA,TRUE,2,0.013,589.288,592.183,NA,NA,NA,NA,NA,28,39,0,10,10,40,1,2,11,"binary"
"E42BD53D392D4B6299133CD75DCC9AB2",1,"01990a98-e6b4-723b-9609-9eb19b9df618","01990a83-7673-7c0c-a792-bbd8fbbaf673","2025-09-02_09h26.44.706",NA,NA,595.566,595.566,595.566,596.012,NA,NA,NA,NA,NA,NA,NA,TRUE,2,0.517,592.672,595.565,NA,NA,NA,NA,NA,14,25,0,11,11,18,1,2,12,"binary"
"E42BD53D392D4B6299133CD75DCC9AB2",1,"01990a98-e6b4-723b-9609-9eb19b9df618","01990a83-7673-7c0c-a792-bbd8fbbaf673","2025-09-02_09h26.44.706",NA,NA,598.945,598.945,598.945,599.396,NA,NA,NA,NA,NA,NA,NA,TRUE,2,0.753,596.014,598.945,NA,NA,NA,NA,NA,95,31,0,12,12,78,1,2,13,"binary"
"E42BD53D392D4B6299133CD75DCC9AB2",1,"01990a98-e6b4-723b-9609-9eb19b9df618","01990a83-7673-7c0c-a792-bbd8fbbaf673","2025-09-02_09h26.44.706",NA,NA,602.279,602.279,602.28,602.768,NA,NA,NA,NA,NA,NA,NA,TRUE,1,2.704,599.399,602.279,NA,NA,NA,NA,NA,150,31,0,13,13,90,1,2,14,"binary"
"E42BD53D392D4B6299133CD75DCC9AB2",1,"01990a98-e6b4-723b-9609-9eb19b9df618","01990a83-7673-7c0c-a792-bbd8fbbaf673","2025-09-02_09h26.44.706",NA,NA,605.653,605.653,605.653,606.101,NA,NA,NA,NA,NA,NA,NA,TRUE,1,0.745,602.776,605.653,NA,NA,NA,NA,NA,7,32,0,14,14,4,1,2,15,"binary"
"E42BD53D392D4B6299133CD75DCC9AB2",1,"01990a98-e6b4-723b-9609-9eb19b9df618","01990a83-7673-7c0c-a792-bbd8fbbaf673","2025-09-02_09h26.44.706",NA,NA,608.966,608.966,608.966,609.408,NA,NA,NA,NA,NA,NA,NA,TRUE,2,0.255,606.103,608.965,NA,NA,NA,NA,NA,100,54,0,15,15,89,1,2,16,"binary"
"E42BD53D392D4B6299133CD75DCC9AB2",1,"01990a98-e6b4-723b-9609-9eb19b9df618","01990a83-7673-7c0c-a792-bbd8fbbaf673","2025-09-02_09h26.44.706",NA,NA,612.354,612.354,612.354,612.806,NA,NA,NA,NA,NA,NA,NA,TRUE,1,0.74,609.417,612.353,NA,NA,NA,NA,NA,14,35,0,16,16,22,1,2,17,"binary"
"E42BD53D392D4B6299133CD75DCC9AB2",1,"01990a98-e6b4-723b-9609-9eb19b9df618","01990a83-7673-7c0c-a792-bbd8fbbaf673","2025-09-02_09h26.44.706",NA,NA,615.553,615.553,615.553,616.021,NA,NA,NA,NA,NA,NA,NA,TRUE,2,0.519,612.809,615.552,NA,NA,NA,NA,NA,150,40,0,17,17,93,1,2,18,"binary"
"E42BD53D392D4B6299133CD75DCC9AB2",1,"01990a98-e6b4-723b-9609-9eb19b9df618","01990a83-7673-7c0c-a792-bbd8fbbaf673","2025-09-02_09h26.44.706",NA,NA,619.076,619.076,619.076,619.546,NA,NA,NA,NA,NA,NA,NA,TRUE,2,0.015,616.023,619.075,NA,NA,NA,NA,NA,25,35,0,18,18,34,1,2,19,"binary"
"E42BD53D392D4B6299133CD75DCC9AB2",1,"01990a98-e6b4-723b-9609-9eb19b9df618","01990a83-7673-7c0c-a792-bbd8fbbaf673","2025-09-02_09h26.44.706",NA,NA,622.485,622.747,622.747,622.747,NA,NA,NA,NA,NA,NA,NA,FALSE,NA,NA,619.555,622.485,NA,NA,NA,NA,NA,21,32,0,19,19,28,1,2,20,"binary"
"E42BD53D392D4B6299133CD75DCC9AB2",1,"01990a98-e6b4-723b-9609-9eb19b9df618","01990a83-7673-7c0c-a792-bbd8fbbaf673","2025-09-02_09h26.44.706",NA,NA,625.683,625.683,625.683,626.136,NA,NA,NA,NA,NA,NA,NA,TRUE,2,1.748,622.75,625.682,NA,NA,NA,NA,NA,60,35,0,20,20,68,1,2,21,"binary"
"E42BD53D392D4B6299133CD75DCC9AB2",1,"01990a98-e6b4-723b-9609-9eb19b9df618","01990a83-7673-7c0c-a792-bbd8fbbaf673","2025-09-02_09h26.44.706",NA,NA,629.082,629.082,629.082,629.526,NA,NA,NA,NA,NA,NA,NA,TRUE,1,0.806,626.138,629.081,NA,NA,NA,NA,NA,60,33,0,21,21,67,1,2,22,"binary"
"E42BD53D392D4B6299133CD75DCC9AB2",1,"01990a98-e6b4-723b-9609-9eb19b9df618","01990a83-7673-7c0c-a792-bbd8fbbaf673","2025-09-02_09h26.44.706",NA,NA,632.464,632.464,632.464,632.908,NA,NA,NA,NA,NA,NA,NA,TRUE,2,0.256,629.536,632.463,NA,NA,NA,NA,NA,40,27,0,22,22,48,1,2,23,"binary"
"E42BD53D392D4B6299133CD75DCC9AB2",1,"01990a98-e6b4-723b-9609-9eb19b9df618","01990a83-7673-7c0c-a792-bbd8fbbaf673","2025-09-02_09h26.44.706",NA,NA,635.729,635.729,635.729,636.179,NA,NA,NA,NA,NA,NA,NA,TRUE,1,0.968,632.91,635.729,NA,NA,NA,NA,NA,10,30,0,23,23,10,1,2,24,"binary"
"E42BD53D392D4B6299133CD75DCC9AB2",1,"01990a98-e6b4-723b-9609-9eb19b9df618","01990a83-7673-7c0c-a792-bbd8fbbaf673","2025-09-02_09h26.44.706",NA,NA,639.217,639.217,639.218,639.453,NA,NA,NA,NA,NA,NA,NA,TRUE,2,1.025,636.187,639.217,NA,NA,NA,NA,NA,10,32,0,24,24,11,1,2,25,"binary"
"E42BD53D392D4B6299133CD75DCC9AB2",1,"01990a98-e6b4-723b-9609-9eb19b9df618","01990a83-7673-7c0c-a792-bbd8fbbaf673","2025-09-02_09h26.44.706",NA,NA,642.379,642.379,642.379,642.837,NA,NA,NA,NA,NA,NA,NA,TRUE,1,0.762,639.455,642.378,NA,NA,NA,NA,NA,30,32,0,25,25,46,1,2,26,"binary"
"E42BD53D392D4B6299133CD75DCC9AB2",1,"01990a98-e6b4-723b-9609-9eb19b9df618","01990a83-7673-7c0c-a792-bbd8fbbaf673","2025-09-02_09h26.44.706",NA,NA,645.827,645.827,645.827,646.267,NA,NA,NA,NA,NA,NA,NA,TRUE,2,0.792,642.84,645.826,NA,NA,NA,NA,NA,28,35,0,26,26,39,1,2,27,"binary"
"E42BD53D392D4B6299133CD75DCC9AB2",1,"01990a98-e6b4-723b-9609-9eb19b9df618","01990a83-7673-7c0c-a792-bbd8fbbaf673","2025-09-02_09h26.44.706",NA,NA,649.265,649.265,649.265,649.734,NA,NA,NA,NA,NA,NA,NA,TRUE,2,0.728,646.277,649.265,NA,NA,NA,NA,NA,95,54,0,27,27,83,1,2,28,"binary"
"E42BD53D392D4B6299133CD75DCC9AB2",1,"01990a98-e6b4-723b-9609-9eb19b9df618","01990a83-7673-7c0c-a792-bbd8fbbaf673","2025-09-02_09h26.44.706",NA,NA,652.415,652.415,652.415,652.88,NA,NA,NA,NA,NA,NA,NA,TRUE,2,0.013,649.737,652.414,NA,NA,NA,NA,NA,50,30,0,28,28,61,1,2,29,"binary"
"E42BD53D392D4B6299133CD75DCC9AB2",1,"01990a98-e6b4-723b-9609-9eb19b9df618","01990a83-7673-7c0c-a792-bbd8fbbaf673","2025-09-02_09h26.44.706",NA,NA,656.007,656.007,656.007,656.233,NA,NA,NA,NA,NA,NA,NA,TRUE,1,0.509,652.889,656.007,NA,NA,NA,NA,NA,60,54,0,29,29,71,1,2,30,"binary"
"E42BD53D392D4B6299133CD75DCC9AB2",1,"01990a98-e6b4-723b-9609-9eb19b9df618","01990a83-7673-7c0c-a792-bbd8fbbaf673","2025-09-02_09h26.44.706",NA,NA,659.116,659.116,659.116,659.593,NA,NA,NA,NA,NA,NA,NA,TRUE,2,0.481,656.235,659.115,NA,NA,NA,NA,NA,95,40,0,30,30,81,1,2,31,"binary"
"E42BD53D392D4B6299133CD75DCC9AB2",1,"01990a98-e6b4-723b-9609-9eb19b9df618","01990a83-7673-7c0c-a792-bbd8fbbaf673","2025-09-02_09h26.44.706",NA,NA,662.572,662.572,662.572,663.022,NA,NA,NA,NA,NA,NA,NA,TRUE,1,0.583,659.595,662.571,NA,NA,NA,NA,NA,50,27,0,31,31,60,1,2,32,"binary"
"E42BD53D392D4B6299133CD75DCC9AB2",1,"01990a98-e6b4-723b-9609-9eb19b9df618","01990a83-7673-7c0c-a792-bbd8fbbaf673","2025-09-02_09h26.44.706",NA,NA,665.94,665.94,665.94,666.387,NA,NA,NA,NA,NA,NA,NA,TRUE,2,1.248,663.032,665.94,NA,NA,NA,NA,NA,200,54,0,32,32,107,1,2,33,"binary"
"E42BD53D392D4B6299133CD75DCC9AB2",1,"01990a98-e6b4-723b-9609-9eb19b9df618","01990a83-7673-7c0c-a792-bbd8fbbaf673","2025-09-02_09h26.44.706",NA,NA,669.276,669.276,669.276,669.736,NA,NA,NA,NA,NA,NA,NA,TRUE,1,0.724,666.39,669.276,NA,NA,NA,NA,NA,21,29,0,33,33,26,1,2,34,"binary"
"E42BD53D392D4B6299133CD75DCC9AB2",1,"01990a98-e6b4-723b-9609-9eb19b9df618","01990a83-7673-7c0c-a792-bbd8fbbaf673","2025-09-02_09h26.44.706",NA,NA,672.657,672.657,672.657,673.127,NA,NA,NA,NA,NA,NA,NA,TRUE,2,0.952,669.738,672.657,NA,NA,NA,NA,NA,60,29,0,34,34,66,1,2,35,"binary"
"E42BD53D392D4B6299133CD75DCC9AB2",1,"01990a98-e6b4-723b-9609-9eb19b9df618","01990a83-7673-7c0c-a792-bbd8fbbaf673","2025-09-02_09h26.44.706",NA,NA,676.041,676.041,676.041,676.485,NA,NA,NA,NA,NA,NA,NA,TRUE,1,1.004,673.136,676.041,NA,NA,NA,NA,NA,30,30,0,35,35,45,1,2,36,"binary"
"E42BD53D392D4B6299133CD75DCC9AB2",1,"01990a98-e6b4-723b-9609-9eb19b9df618","01990a83-7673-7c0c-a792-bbd8fbbaf673","2025-09-02_09h26.44.706",NA,NA,679.385,679.385,679.385,679.856,NA,NA,NA,NA,NA,NA,NA,TRUE,2,0.989,676.488,679.385,NA,NA,NA,NA,NA,50,35,0,36,36,62,1,2,37,"binary"
"E42BD53D392D4B6299133CD75DCC9AB2",1,"01990a98-e6b4-723b-9609-9eb19b9df618","01990a83-7673-7c0c-a792-bbd8fbbaf673","2025-09-02_09h26.44.706",NA,NA,682.747,682.747,682.747,683.198,NA,NA,NA,NA,NA,NA,NA,TRUE,1,0.74,679.871,682.747,NA,NA,NA,NA,NA,30,26,0,37,37,42,1,2,38,"binary"
"E42BD53D392D4B6299133CD75DCC9AB2",1,"01990a98-e6b4-723b-9609-9eb19b9df618","01990a83-7673-7c0c-a792-bbd8fbbaf673","2025-09-02_09h26.44.706",NA,NA,686.146,686.146,686.146,686.397,NA,NA,NA,NA,NA,NA,NA,TRUE,2,0.751,683.2,686.146,NA,NA,NA,NA,NA,40,35,0,38,38,50,1,2,39,"binary"
"E42BD53D392D4B6299133CD75DCC9AB2",1,"01990a98-e6b4-723b-9609-9eb19b9df618","01990a83-7673-7c0c-a792-bbd8fbbaf673","2025-09-02_09h26.44.706",NA,NA,689.345,689.345,689.345,689.814,NA,NA,NA,NA,NA,NA,NA,TRUE,1,0.734,686.399,689.344,NA,NA,NA,NA,NA,25,27,0,39,39,30,1,2,40,"binary"
"E42BD53D392D4B6299133CD75DCC9AB2",1,"01990a98-e6b4-723b-9609-9eb19b9df618","01990a83-7673-7c0c-a792-bbd8fbbaf673","2025-09-02_09h26.44.706",NA,NA,692.797,692.797,692.797,693.255,NA,NA,NA,NA,NA,NA,NA,TRUE,2,0.813,689.823,692.797,NA,NA,NA,NA,NA,25,33,0,40,40,33,1,2,41,"binary"
"E42BD53D392D4B6299133CD75DCC9AB2",1,"01990a98-e6b4-723b-9609-9eb19b9df618","01990a83-7673-7c0c-a792-bbd8fbbaf673","2025-09-02_09h26.44.706",NA,NA,696.249,696.249,696.249,696.503,NA,NA,NA,NA,NA,NA,NA,TRUE,1,0.809,693.257,696.248,NA,NA,NA,NA,NA,21,38,0,41,41,29,1,2,42,"binary"
"E42BD53D392D4B6299133CD75DCC9AB2",1,"01990a98-e6b4-723b-9609-9eb19b9df618","01990a83-7673-7c0c-a792-bbd8fbbaf673","2025-09-02_09h26.44.706",NA,NA,699.483,699.483,699.483,699.945,NA,NA,NA,NA,NA,NA,NA,TRUE,2,0.79,696.506,699.482,NA,NA,NA,NA,NA,7,26,0,42,42,1,1,2,43,"binary"
"E42BD53D392D4B6299133CD75DCC9AB2",1,"01990a98-e6b4-723b-9609-9eb19b9df618","01990a83-7673-7c0c-a792-bbd8fbbaf673","2025-09-02_09h26.44.706",NA,NA,702.729,702.729,702.729,703.188,NA,NA,NA,NA,NA,NA,NA,TRUE,2,2.3,699.955,702.728,NA,NA,NA,NA,NA,200,26,0,43,43,102,1,2,44,"binary"
"E42BD53D392D4B6299133CD75DCC9AB2",1,"01990a98-e6b4-723b-9609-9eb19b9df618","01990a83-7673-7c0c-a792-bbd8fbbaf673","2025-09-02_09h26.44.706",NA,NA,706.07,706.07,706.07,706.519,NA,NA,NA,NA,NA,NA,NA,TRUE,2,0.497,703.191,706.07,NA,NA,NA,NA,NA,50,54,0,44,44,65,1,2,45,"binary"
"E42BD53D392D4B6299133CD75DCC9AB2",1,"01990a98-e6b4-723b-9609-9eb19b9df618","01990a83-7673-7c0c-a792-bbd8fbbaf673","2025-09-02_09h26.44.706",NA,NA,709.566,709.566,709.566,710.027,NA,NA,NA,NA,NA,NA,NA,TRUE,1,0.486,706.521,709.565,NA,NA,NA,NA,NA,200,47,0,45,45,106,1,2,46,"binary"
"E42BD53D392D4B6299133CD75DCC9AB2",1,"01990a98-e6b4-723b-9609-9eb19b9df618","01990a83-7673-7c0c-a792-bbd8fbbaf673","2025-09-02_09h26.44.706",NA,NA,712.933,712.933,712.933,713.164,NA,NA,NA,NA,NA,NA,NA,TRUE,2,0.753,710.027,712.933,NA,NA,NA,NA,NA,200,39,0,46,46,105,1,2,47,"binary"
"E42BD53D392D4B6299133CD75DCC9AB2",1,"01990a98-e6b4-723b-9609-9eb19b9df618","01990a83-7673-7c0c-a792-bbd8fbbaf673","2025-09-02_09h26.44.706",NA,NA,716.093,716.093,716.093,716.551,NA,NA,NA,NA,NA,NA,NA,TRUE,2,0.751,713.166,716.093,NA,NA,NA,NA,NA,90,26,0,47,47,72,1,2,48,"binary"
"E42BD53D392D4B6299133CD75DCC9AB2",1,"01990a98-e6b4-723b-9609-9eb19b9df618","01990a83-7673-7c0c-a792-bbd8fbbaf673","2025-09-02_09h26.44.706",NA,NA,719.516,719.516,719.516,719.979,NA,NA,NA,NA,NA,NA,NA,TRUE,2,0.508,716.559,719.516,NA,NA,NA,NA,NA,180,27,0,48,48,96,1,2,49,"binary"
"E42BD53D392D4B6299133CD75DCC9AB2",1,"01990a98-e6b4-723b-9609-9eb19b9df618","01990a83-7673-7c0c-a792-bbd8fbbaf673","2025-09-02_09h26.44.706",NA,NA,722.884,722.884,722.884,723.35,NA,NA,NA,NA,NA,NA,NA,TRUE,2,0.753,719.981,722.884,NA,NA,NA,NA,NA,200,28,0,49,49,103,1,2,50,"binary"
"E42BD53D392D4B6299133CD75DCC9AB2",1,"01990a98-e6b4-723b-9609-9eb19b9df618","01990a83-7673-7c0c-a792-bbd8fbbaf673","2025-09-02_09h26.44.706",NA,NA,726.193,726.194,726.194,726.669,NA,NA,NA,NA,NA,NA,NA,TRUE,1,0.263,723.353,726.193,NA,NA,NA,NA,NA,10,26,0,50,50,7,1,2,51,"binary"
"E42BD53D392D4B6299133CD75DCC9AB2",1,"01990a98-e6b4-723b-9609-9eb19b9df618","01990a83-7673-7c0c-a792-bbd8fbbaf673","2025-09-02_09h26.44.706",NA,NA,729.695,729.695,729.695,729.923,NA,NA,NA,NA,NA,NA,NA,TRUE,2,0.495,726.677,729.694,NA,NA,NA,NA,NA,21,30,0,51,51,27,1,2,52,"binary"
"E42BD53D392D4B6299133CD75DCC9AB2",1,"01990a98-e6b4-723b-9609-9eb19b9df618","01990a83-7673-7c0c-a792-bbd8fbbaf673","2025-09-02_09h26.44.706",NA,NA,733.008,733.008,733.008,733.462,NA,NA,NA,NA,NA,NA,NA,TRUE,2,0.735,729.926,733.008,NA,NA,NA,NA,NA,50,46,0,52,52,64,1,2,53,"binary"
"E42BD53D392D4B6299133CD75DCC9AB2",1,"01990a98-e6b4-723b-9609-9eb19b9df618","01990a83-7673-7c0c-a792-bbd8fbbaf673","2025-09-02_09h26.44.706",NA,NA,736.313,736.313,736.313,736.771,NA,NA,NA,NA,NA,NA,NA,TRUE,2,0.744,733.464,736.312,NA,NA,NA,NA,NA,30,27,0,53,53,43,1,2,54,"binary"
"E42BD53D392D4B6299133CD75DCC9AB2",1,"01990a98-e6b4-723b-9609-9eb19b9df618","01990a83-7673-7c0c-a792-bbd8fbbaf673","2025-09-02_09h26.44.706",NA,NA,739.724,739.724,739.724,739.968,NA,NA,NA,NA,NA,NA,NA,TRUE,2,0.753,736.78,739.724,NA,NA,NA,NA,NA,95,47,0,54,54,82,1,2,55,"binary"
"E42BD53D392D4B6299133CD75DCC9AB2",1,"01990a98-e6b4-723b-9609-9eb19b9df618","01990a83-7673-7c0c-a792-bbd8fbbaf673","2025-09-02_09h26.44.706",NA,NA,742.899,743.127,743.127,743.35,NA,NA,NA,NA,NA,NA,NA,FALSE,NA,NA,739.97,742.899,NA,NA,NA,NA,NA,12,31,0,55,55,15,1,2,56,"binary"
"E42BD53D392D4B6299133CD75DCC9AB2",1,"01990a98-e6b4-723b-9609-9eb19b9df618","01990a83-7673-7c0c-a792-bbd8fbbaf673","2025-09-02_09h26.44.706",NA,NA,746.194,746.669,746.669,746.669,NA,NA,NA,NA,NA,NA,NA,FALSE,NA,NA,743.36,746.193,NA,NA,NA,NA,NA,40,40,0,56,56,51,1,2,57,"binary"
"E42BD53D392D4B6299133CD75DCC9AB2",1,"01990a98-e6b4-723b-9609-9eb19b9df618","01990a83-7673-7c0c-a792-bbd8fbbaf673","2025-09-02_09h26.44.706",NA,NA,749.702,749.937,749.937,750.178,NA,NA,NA,NA,NA,NA,NA,FALSE,NA,NA,746.669,749.701,NA,NA,NA,NA,NA,12,25,0,57,57,12,1,2,58,"binary"
"E42BD53D392D4B6299133CD75DCC9AB2",1,"01990a98-e6b4-723b-9609-9eb19b9df618","01990a83-7673-7c0c-a792-bbd8fbbaf673","2025-09-02_09h26.44.706",NA,NA,753.147,753.372,753.372,753.373,NA,NA,NA,NA,NA,NA,NA,FALSE,NA,NA,750.179,753.147,NA,NA,NA,NA,NA,10,29,0,58,58,9,1,2,59,"binary"
"E42BD53D392D4B6299133CD75DCC9AB2",1,"01990a98-e6b4-723b-9609-9eb19b9df618","01990a83-7673-7c0c-a792-bbd8fbbaf673","2025-09-02_09h26.44.706",NA,NA,756.365,756.592,756.592,756.82,NA,NA,NA,NA,NA,NA,NA,FALSE,NA,NA,753.381,756.365,NA,NA,NA,NA,NA,45,40,0,59,59,58,1,2,60,"binary"
"E42BD53D392D4B6299133CD75DCC9AB2",1,"01990a98-e6b4-723b-9609-9eb19b9df618","01990a83-7673-7c0c-a792-bbd8fbbaf673","2025-09-02_09h26.44.706",NA,NA,759.771,760.001,760.001,760.224,NA,NA,NA,NA,NA,NA,NA,FALSE,NA,NA,756.822,759.771,NA,NA,NA,NA,NA,28,26,0,60,60,36,1,2,61,"binary"
"E42BD53D392D4B6299133CD75DCC9AB2",1,"01990a98-e6b4-723b-9609-9eb19b9df618","01990a83-7673-7c0c-a792-bbd8fbbaf673","2025-09-02_09h26.44.706",NA,NA,762.981,762.981,762.981,763.451,NA,NA,NA,NA,NA,NA,NA,TRUE,2,1.045,760.232,762.98,NA,NA,NA,NA,NA,100,26,0,61,61,84,1,2,62,"binary"
"E42BD53D392D4B6299133CD75DCC9AB2",1,"01990a98-e6b4-723b-9609-9eb19b9df618","01990a83-7673-7c0c-a792-bbd8fbbaf673","2025-09-02_09h26.44.706",NA,NA,766.336,766.336,766.336,766.82,NA,NA,NA,NA,NA,NA,NA,TRUE,2,1.721,763.453,766.336,NA,NA,NA,NA,NA,180,46,0,62,62,100,1,2,63,"binary"
"E42BD53D392D4B6299133CD75DCC9AB2",1,"01990a98-e6b4-723b-9609-9eb19b9df618","01990a83-7673-7c0c-a792-bbd8fbbaf673","2025-09-02_09h26.44.706",NA,NA,769.72,769.72,769.72,770.175,NA,NA,NA,NA,NA,NA,NA,TRUE,2,0.745,766.822,769.719,NA,NA,NA,NA,NA,30,38,0,63,63,47,1,2,64,"binary"
"E42BD53D392D4B6299133CD75DCC9AB2",1,"01990a98-e6b4-723b-9609-9eb19b9df618","01990a83-7673-7c0c-a792-bbd8fbbaf673","2025-09-02_09h26.44.706",NA,NA,773.041,773.041,773.041,773.476,NA,NA,NA,NA,NA,NA,NA,TRUE,1,0.986,770.184,773.041,NA,NA,NA,NA,NA,7,30,0,64,64,3,1,2,65,"binary"
"E42BD53D392D4B6299133CD75DCC9AB2",1,"01990a98-e6b4-723b-9609-9eb19b9df618","01990a83-7673-7c0c-a792-bbd8fbbaf673","2025-09-02_09h26.44.706",NA,NA,776.412,776.412,776.412,776.87,NA,NA,NA,NA,NA,NA,NA,TRUE,2,0.765,773.478,776.412,NA,NA,NA,NA,NA,12,35,0,65,65,17,1,2,66,"binary"
"E42BD53D392D4B6299133CD75DCC9AB2",1,"01990a98-e6b4-723b-9609-9eb19b9df618","01990a83-7673-7c0c-a792-bbd8fbbaf673","2025-09-02_09h26.44.706",NA,NA,779.843,779.843,779.843,780.3,NA,NA,NA,NA,NA,NA,NA,TRUE,2,2.02,776.879,779.842,NA,NA,NA,NA,NA,12,33,0,66,66,16,1,2,67,"binary"
"E42BD53D392D4B6299133CD75DCC9AB2",1,"01990a98-e6b4-723b-9609-9eb19b9df618","01990a83-7673-7c0c-a792-bbd8fbbaf673","2025-09-02_09h26.44.706",NA,NA,783.198,783.198,783.198,783.644,NA,NA,NA,NA,NA,NA,NA,TRUE,2,1.484,780.301,783.197,NA,NA,NA,NA,NA,28,28,0,67,67,37,1,2,68,"binary"
"E42BD53D392D4B6299133CD75DCC9AB2",1,"01990a98-e6b4-723b-9609-9eb19b9df618","01990a83-7673-7c0c-a792-bbd8fbbaf673","2025-09-02_09h26.44.706",NA,NA,786.49,786.49,786.49,786.944,NA,NA,NA,NA,NA,NA,NA,TRUE,2,1.884,783.653,786.49,NA,NA,NA,NA,NA,14,39,0,68,68,23,1,2,69,"binary"
"E42BD53D392D4B6299133CD75DCC9AB2",1,"01990a98-e6b4-723b-9609-9eb19b9df618","01990a83-7673-7c0c-a792-bbd8fbbaf673","2025-09-02_09h26.44.706",NA,NA,789.798,789.799,789.799,790.265,NA,NA,NA,NA,NA,NA,NA,TRUE,1,0.741,786.946,789.798,NA,NA,NA,NA,NA,180,54,0,69,69,101,1,2,70,"binary"
"E42BD53D392D4B6299133CD75DCC9AB2",1,"01990a98-e6b4-723b-9609-9eb19b9df618","01990a83-7673-7c0c-a792-bbd8fbbaf673","2025-09-02_09h26.44.706",NA,NA,793.132,793.57,793.57,793.57,NA,NA,NA,NA,NA,NA,NA,FALSE,NA,NA,790.267,793.131,NA,NA,NA,NA,NA,150,33,0,70,70,91,1,2,71,"binary"
"E42BD53D392D4B6299133CD75DCC9AB2",1,"01990a98-e6b4-723b-9609-9eb19b9df618","01990a83-7673-7c0c-a792-bbd8fbbaf673","2025-09-02_09h26.44.706",NA,NA,796.685,796.685,796.685,797.001,NA,NA,NA,NA,NA,NA,NA,TRUE,2,0.742,793.584,796.685,NA,NA,NA,NA,NA,14,28,0,71,71,20,1,2,72,"binary"
"E42BD53D392D4B6299133CD75DCC9AB2",1,"01990a98-e6b4-723b-9609-9eb19b9df618","01990a83-7673-7c0c-a792-bbd8fbbaf673","2025-09-02_09h26.44.706",NA,NA,799.932,799.932,799.932,800.38,NA,NA,NA,NA,NA,NA,NA,TRUE,1,0.842,797.004,799.932,NA,NA,NA,NA,NA,40,33,0,72,72,49,1,2,73,"binary"
"E42BD53D392D4B6299133CD75DCC9AB2",1,"01990a98-e6b4-723b-9609-9eb19b9df618","01990a83-7673-7c0c-a792-bbd8fbbaf673","2025-09-02_09h26.44.706",NA,NA,803.381,803.381,803.381,803.625,NA,NA,NA,NA,NA,NA,NA,TRUE,1,1.014,800.391,803.38,NA,NA,NA,NA,NA,90,30,0,73,73,73,1,2,74,"binary"
"E42BD53D392D4B6299133CD75DCC9AB2",1,"01990a98-e6b4-723b-9609-9eb19b9df618","01990a83-7673-7c0c-a792-bbd8fbbaf673","2025-09-02_09h26.44.706",NA,NA,806.545,806.545,806.545,806.994,NA,NA,NA,NA,NA,NA,NA,TRUE,2,1.23,803.628,806.545,NA,NA,NA,NA,NA,25,31,0,74,74,32,1,2,75,"binary"
"E42BD53D392D4B6299133CD75DCC9AB2",1,"01990a98-e6b4-723b-9609-9eb19b9df618","01990a83-7673-7c0c-a792-bbd8fbbaf673","2025-09-02_09h26.44.706",NA,NA,809.976,809.976,809.976,810.499,NA,NA,NA,NA,NA,NA,NA,TRUE,2,0.52,807.003,809.975,NA,NA,NA,NA,NA,12,28,0,75,75,14,1,2,76,"binary"
"E42BD53D392D4B6299133CD75DCC9AB2",1,"01990a98-e6b4-723b-9609-9eb19b9df618","01990a83-7673-7c0c-a792-bbd8fbbaf673","2025-09-02_09h26.44.706",NA,NA,813.472,813.473,813.473,813.713,NA,NA,NA,NA,NA,NA,NA,TRUE,2,0.768,810.502,813.472,NA,NA,NA,NA,NA,180,35,0,76,76,98,1,2,77,"binary"
"E42BD53D392D4B6299133CD75DCC9AB2",1,"01990a98-e6b4-723b-9609-9eb19b9df618","01990a83-7673-7c0c-a792-bbd8fbbaf673","2025-09-02_09h26.44.706",NA,NA,816.653,816.654,816.654,817.116,NA,NA,NA,NA,NA,NA,NA,TRUE,2,0.754,813.722,816.653,NA,NA,NA,NA,NA,25,46,0,77,77,35,1,2,78,"binary"
"E42BD53D392D4B6299133CD75DCC9AB2",1,"01990a98-e6b4-723b-9609-9eb19b9df618","01990a83-7673-7c0c-a792-bbd8fbbaf673","2025-09-02_09h26.44.706",NA,NA,820.023,820.023,820.023,820.471,NA,NA,NA,NA,NA,NA,NA,TRUE,2,1.487,817.119,820.023,NA,NA,NA,NA,NA,10,27,0,78,78,8,1,2,79,"binary"
"E42BD53D392D4B6299133CD75DCC9AB2",1,"01990a98-e6b4-723b-9609-9eb19b9df618","01990a83-7673-7c0c-a792-bbd8fbbaf673","2025-09-02_09h26.44.706",NA,NA,823.321,823.321,823.321,823.828,NA,NA,NA,NA,NA,NA,NA,TRUE,2,0.973,820.473,823.321,NA,NA,NA,NA,NA,7,35,0,79,79,5,1,2,80,"binary"
"E42BD53D392D4B6299133CD75DCC9AB2",1,"01990a98-e6b4-723b-9609-9eb19b9df618","01990a83-7673-7c0c-a792-bbd8fbbaf673","2025-09-02_09h26.44.706",NA,NA,826.697,826.697,826.697,827.146,NA,NA,NA,NA,NA,NA,NA,TRUE,1,0.74,823.838,826.697,NA,NA,NA,NA,NA,45,31,0,80,80,56,1,2,81,"binary"
"E42BD53D392D4B6299133CD75DCC9AB2",1,"01990a98-e6b4-723b-9609-9eb19b9df618","01990a83-7673-7c0c-a792-bbd8fbbaf673","2025-09-02_09h26.44.706",NA,NA,830.157,830.157,830.157,830.631,NA,NA,NA,NA,NA,NA,NA,TRUE,2,0.756,827.149,830.156,NA,NA,NA,NA,NA,25,29,0,81,81,31,1,2,82,"binary"
"E42BD53D392D4B6299133CD75DCC9AB2",1,"01990a98-e6b4-723b-9609-9eb19b9df618","01990a83-7673-7c0c-a792-bbd8fbbaf673","2025-09-02_09h26.44.706",NA,NA,833.503,833.503,833.503,833.964,NA,NA,NA,NA,NA,NA,NA,TRUE,1,0.745,830.64,833.503,NA,NA,NA,NA,NA,12,26,0,82,82,13,1,2,83,"binary"
"E42BD53D392D4B6299133CD75DCC9AB2",1,"01990a98-e6b4-723b-9609-9eb19b9df618","01990a83-7673-7c0c-a792-bbd8fbbaf673","2025-09-02_09h26.44.706",NA,NA,836.651,836.651,836.651,837.107,NA,NA,NA,NA,NA,NA,NA,TRUE,2,0.753,833.967,836.651,NA,NA,NA,NA,NA,60,40,0,83,83,69,1,2,84,"binary"
"E42BD53D392D4B6299133CD75DCC9AB2",1,"01990a98-e6b4-723b-9609-9eb19b9df618","01990a83-7673-7c0c-a792-bbd8fbbaf673","2025-09-02_09h26.44.706",NA,NA,840.214,840.214,840.214,840.465,NA,NA,NA,NA,NA,NA,NA,TRUE,1,0.737,837.11,840.214,NA,NA,NA,NA,NA,40,47,0,84,84,52,1,2,85,"binary"
"E42BD53D392D4B6299133CD75DCC9AB2",1,"01990a98-e6b4-723b-9609-9eb19b9df618","01990a83-7673-7c0c-a792-bbd8fbbaf673","2025-09-02_09h26.44.706",NA,NA,843.427,843.427,843.427,843.867,NA,NA,NA,NA,NA,NA,NA,TRUE,2,0.794,840.473,843.426,NA,NA,NA,NA,NA,45,26,0,85,85,54,1,2,86,"binary"
"E42BD53D392D4B6299133CD75DCC9AB2",1,"01990a98-e6b4-723b-9609-9eb19b9df618","01990a83-7673-7c0c-a792-bbd8fbbaf673","2025-09-02_09h26.44.706",NA,NA,846.955,846.955,846.955,847.172,NA,NA,NA,NA,NA,NA,NA,TRUE,1,0.502,843.869,846.954,NA,NA,NA,NA,NA,90,40,0,86,86,75,1,2,87,"binary"
"E42BD53D392D4B6299133CD75DCC9AB2",1,"01990a98-e6b4-723b-9609-9eb19b9df618","01990a83-7673-7c0c-a792-bbd8fbbaf673","2025-09-02_09h26.44.706",NA,NA,850.136,850.136,850.136,850.571,NA,NA,NA,NA,NA,NA,NA,TRUE,2,1.004,847.18,850.136,NA,NA,NA,NA,NA,100,39,0,87,87,87,1,2,88,"binary"
"E42BD53D392D4B6299133CD75DCC9AB2",1,"01990a98-e6b4-723b-9609-9eb19b9df618","01990a83-7673-7c0c-a792-bbd8fbbaf673","2025-09-02_09h26.44.706",NA,NA,853.485,853.485,853.485,853.937,NA,NA,NA,NA,NA,NA,NA,TRUE,2,2.209,850.573,853.484,NA,NA,NA,NA,NA,28,32,0,88,88,38,1,2,89,"binary"
"E42BD53D392D4B6299133CD75DCC9AB2",1,"01990a98-e6b4-723b-9609-9eb19b9df618","01990a83-7673-7c0c-a792-bbd8fbbaf673","2025-09-02_09h26.44.706",NA,NA,856.935,856.935,856.935,857.402,NA,NA,NA,NA,NA,NA,NA,TRUE,2,2.205,853.947,856.935,NA,NA,NA,NA,NA,180,31,0,89,89,97,1,2,90,"binary"
"E42BD53D392D4B6299133CD75DCC9AB2",1,"01990a98-e6b4-723b-9609-9eb19b9df618","01990a83-7673-7c0c-a792-bbd8fbbaf673","2025-09-02_09h26.44.706",NA,NA,860.141,860.385,860.385,860.621,NA,NA,NA,NA,NA,NA,NA,FALSE,NA,NA,857.404,860.141,NA,NA,NA,NA,NA,30,29,0,90,90,44,1,2,91,"binary"
"E42BD53D392D4B6299133CD75DCC9AB2",1,"01990a98-e6b4-723b-9609-9eb19b9df618","01990a83-7673-7c0c-a792-bbd8fbbaf673","2025-09-02_09h26.44.706",NA,NA,863.495,863.495,863.495,863.967,NA,NA,NA,NA,NA,NA,NA,TRUE,1,1,860.624,863.494,NA,NA,NA,NA,NA,14,32,0,91,91,21,1,2,92,"binary"
"E42BD53D392D4B6299133CD75DCC9AB2",1,"01990a98-e6b4-723b-9609-9eb19b9df618","01990a83-7673-7c0c-a792-bbd8fbbaf673","2025-09-02_09h26.44.706",NA,NA,866.855,866.855,866.855,867.331,NA,NA,NA,NA,NA,NA,NA,TRUE,2,1.66,863.976,866.854,NA,NA,NA,NA,NA,180,39,0,92,92,99,1,2,93,"binary"
"E42BD53D392D4B6299133CD75DCC9AB2",1,"01990a98-e6b4-723b-9609-9eb19b9df618","01990a83-7673-7c0c-a792-bbd8fbbaf673","2025-09-02_09h26.44.706",NA,NA,870.242,870.242,870.242,870.7,NA,NA,NA,NA,NA,NA,NA,TRUE,2,0.737,867.334,870.242,NA,NA,NA,NA,NA,90,33,0,93,93,74,1,2,94,"binary"
"E42BD53D392D4B6299133CD75DCC9AB2",1,"01990a98-e6b4-723b-9609-9eb19b9df618","01990a83-7673-7c0c-a792-bbd8fbbaf673","2025-09-02_09h26.44.706",NA,NA,873.683,873.904,873.904,874.127,NA,NA,NA,NA,NA,NA,NA,FALSE,NA,NA,870.711,873.683,NA,NA,NA,NA,NA,150,54,0,94,94,95,1,2,95,"binary"
"E42BD53D392D4B6299133CD75DCC9AB2",1,"01990a98-e6b4-723b-9609-9eb19b9df618","01990a83-7673-7c0c-a792-bbd8fbbaf673","2025-09-02_09h26.44.706",NA,NA,877.046,877.046,877.046,877.538,NA,NA,NA,NA,NA,NA,NA,TRUE,2,2.219,874.129,877.046,NA,NA,NA,NA,NA,100,38,0,95,95,86,1,2,96,"binary"
"E42BD53D392D4B6299133CD75DCC9AB2",1,"01990a98-e6b4-723b-9609-9eb19b9df618","01990a83-7673-7c0c-a792-bbd8fbbaf673","2025-09-02_09h26.44.706",NA,NA,880.412,880.412,880.412,880.868,NA,NA,NA,NA,NA,NA,NA,TRUE,1,0.723,877.548,880.412,NA,NA,NA,NA,NA,21,26,0,96,96,24,1,2,97,"binary"
"E42BD53D392D4B6299133CD75DCC9AB2",1,"01990a98-e6b4-723b-9609-9eb19b9df618","01990a83-7673-7c0c-a792-bbd8fbbaf673","2025-09-02_09h26.44.706",NA,NA,883.709,883.709,883.709,884.15,NA,NA,NA,NA,NA,NA,NA,TRUE,2,0.249,880.87,883.709,NA,NA,NA,NA,NA,100,31,0,97,97,85,1,2,98,"binary"
"E42BD53D392D4B6299133CD75DCC9AB2",1,"01990a98-e6b4-723b-9609-9eb19b9df618","01990a83-7673-7c0c-a792-bbd8fbbaf673","2025-09-02_09h26.44.706",NA,NA,887.007,887.008,887.008,887.449,NA,NA,NA,NA,NA,NA,NA,TRUE,2,0.532,884.152,887.007,NA,NA,NA,NA,NA,90,54,0,98,98,77,1,2,99,"binary"
"E42BD53D392D4B6299133CD75DCC9AB2",1,"01990a98-e6b4-723b-9609-9eb19b9df618","01990a83-7673-7c0c-a792-bbd8fbbaf673","2025-09-02_09h26.44.706",NA,NA,890.303,890.303,890.303,890.773,NA,NA,NA,NA,NA,NA,NA,TRUE,2,0.74,887.458,890.303,NA,NA,NA,NA,NA,50,40,0,99,99,63,1,2,100,"binary"
"E42BD53D392D4B6299133CD75DCC9AB2",1,"01990a98-e6b4-723b-9609-9eb19b9df618","01990a83-7673-7c0c-a792-bbd8fbbaf673","2025-09-02_09h26.44.706",NA,NA,893.646,893.646,893.646,894.137,NA,NA,NA,NA,NA,NA,NA,TRUE,2,1.201,890.776,893.645,NA,NA,NA,NA,NA,14,26,0,100,100,19,1,2,101,"binary"
"E42BD53D392D4B6299133CD75DCC9AB2",1,"01990a98-e6b4-723b-9609-9eb19b9df618","01990a83-7673-7c0c-a792-bbd8fbbaf673","2025-09-02_09h26.44.706",NA,NA,896.998,896.998,896.998,897.435,NA,NA,NA,NA,NA,NA,NA,TRUE,2,2.381,894.146,896.998,NA,NA,NA,NA,NA,90,46,0,101,101,76,1,2,102,"binary"
"E42BD53D392D4B6299133CD75DCC9AB2",1,"01990a98-e6b4-723b-9609-9eb19b9df618","01990a83-7673-7c0c-a792-bbd8fbbaf673","2025-09-02_09h26.44.706",NA,NA,900.504,900.504,900.504,900.959,NA,NA,NA,NA,NA,NA,NA,TRUE,2,1.666,897.437,900.503,NA,NA,NA,NA,NA,10,25,0,102,102,6,1,2,103,"binary"
"E42BD53D392D4B6299133CD75DCC9AB2",1,"01990a98-e6b4-723b-9609-9eb19b9df618","01990a83-7673-7c0c-a792-bbd8fbbaf673","2025-09-02_09h26.44.706",NA,NA,903.796,903.796,903.796,904.244,NA,NA,NA,NA,NA,NA,NA,TRUE,1,0.726,900.969,903.796,NA,NA,NA,NA,NA,95,33,0,103,103,79,1,2,104,"binary"
"E42BD53D392D4B6299133CD75DCC9AB2",1,"01990a98-e6b4-723b-9609-9eb19b9df618","01990a83-7673-7c0c-a792-bbd8fbbaf673","2025-09-02_09h26.44.706",NA,NA,907.109,907.109,907.109,907.562,NA,NA,NA,NA,NA,NA,NA,TRUE,2,0.771,904.246,907.108,NA,NA,NA,NA,NA,21,27,0,104,104,25,1,2,105,"binary"
"E42BD53D392D4B6299133CD75DCC9AB2",1,"01990a98-e6b4-723b-9609-9eb19b9df618","01990a83-7673-7c0c-a792-bbd8fbbaf673","2025-09-02_09h26.44.706",NA,NA,910.462,910.462,910.462,910.897,NA,NA,NA,NA,NA,NA,NA,TRUE,1,0.727,907.564,910.461,NA,NA,NA,NA,NA,100,46,0,105,105,88,1,2,106,"binary"
"E42BD53D392D4B6299133CD75DCC9AB2",1,"01990a98-e6b4-723b-9609-9eb19b9df618","01990a83-7673-7c0c-a792-bbd8fbbaf673","2025-09-02_09h26.44.706",NA,NA,913.737,913.737,913.737,914.211,NA,NA,NA,NA,NA,NA,NA,TRUE,2,0.012,910.906,913.737,NA,NA,NA,NA,NA,7,25,0,106,106,0,1,2,107,"binary"
"E42BD53D392D4B6299133CD75DCC9AB2",1,"01990a98-e6b4-723b-9609-9eb19b9df618","01990a83-7673-7c0c-a792-bbd8fbbaf673","2025-09-02_09h26.44.706",NA,NA,917.132,917.132,917.132,917.581,NA,NA,NA,NA,NA,NA,NA,TRUE,2,0.54,914.214,917.132,NA,NA,NA,NA,NA,150,35,0,107,107,92,1,2,108,"binary"
