"participant","session","assignmentId","projectId","date","practiceTrial.started","practiceTrial.stopped","tooLate.started","tooLate.stopped","blank.started","blank.stopped","trials_pract.thisRepN","trials_pract.thisTrialN","trials_pract.thisN","trials_pract.thisIndex","trials_pract.ran","delay_pract","amount_pract","responseMade","key","rt","trial.started","trial.stopped","trials.thisRepN","trials.thisTrialN","trials.thisN","trials.thisIndex","trials.ran","delay","amount","trials_2.thisRepN","trials_2.thisTrialN","trials_2.thisN","trials_2.thisIndex","trials_2.ran","block","trial","taskType"
"E6FBD82DDFCF477286614D9F80D9FE11",1,"01990aa2-1c70-77cd-8a07-dcb4bed240e8","01990a83-7673-7c0c-a792-bbd8fbbaf673","2025-09-02_09h34.05.047",40.5508,43.4811,43.483,43.4837,43.484,43.8296,0,0,0,0,1,7,30,TRUE,2,1.7412,NA,NA,NA,NA,NA,NA,NA,NA,NA,NA,NA,NA,NA,NA,0,1,"binary"
"E6FBD82DDFCF477286614D9F80D9FE11",1,"01990aa2-1c70-77cd-8a07-dcb4bed240e8","01990a83-7673-7c0c-a792-bbd8fbbaf673","2025-09-02_09h34.05.047",43.8354,46.8207,46.8213,46.8213,46.8213,47.1776,0,1,1,1,1,100,50,TRUE,2,1.1659,NA,NA,NA,NA,NA,NA,NA,NA,NA,NA,NA,NA,NA,NA,0,2,"binary"
"E6FBD82DDFCF477286614D9F80D9FE11",1,"01990aa2-1c70-77cd-8a07-dcb4bed240e8","01990a83-7673-7c0c-a792-bbd8fbbaf673","2025-09-02_09h34.05.047",47.1805,50.1775,50.1787,50.1788,50.1789,50.5272,0,2,2,3,1,3,27,TRUE,2,1.0704,NA,NA,NA,NA,NA,NA,NA,NA,NA,NA,NA,NA,NA,NA,0,3,"binary"
"E6FBD82DDFCF477286614D9F80D9FE11",1,"01990aa2-1c70-77cd-8a07-dcb4bed240e8","01990a83-7673-7c0c-a792-bbd8fbbaf673","2025-09-02_09h34.05.047",50.5338,53.5352,53.5362,53.5749,53.5749,53.8781,0,3,3,4,1,30,40,TRUE,2,0.747,NA,NA,NA,NA,NA,NA,NA,NA,NA,NA,NA,NA,NA,NA,0,4,"binary"
"E6FBD82DDFCF477286614D9F80D9FE11",1,"01990aa2-1c70-77cd-8a07-dcb4bed240e8","01990a83-7673-7c0c-a792-bbd8fbbaf673","2025-09-02_09h34.05.047",53.8847,56.8764,56.8774,56.8776,56.8776,57.2269,0,4,4,2,1,14,45,TRUE,2,1.1028,NA,NA,NA,NA,NA,NA,NA,NA,NA,NA,NA,NA,NA,NA,0,5,"binary"
"E6FBD82DDFCF477286614D9F80D9FE11",1,"01990aa2-1c70-77cd-8a07-dcb4bed240e8","01990a83-7673-7c0c-a792-bbd8fbbaf673","2025-09-02_09h34.05.047",NA,NA,95.1481,95.1491,95.1495,95.4957,NA,NA,NA,NA,NA,NA,NA,TRUE,2,1.0724,92.2032,95.146,0,0,0,1,1,7,26,NA,NA,NA,NA,NA,1,1,"binary"
"E6FBD82DDFCF477286614D9F80D9FE11",1,"01990aa2-1c70-77cd-8a07-dcb4bed240e8","01990a83-7673-7c0c-a792-bbd8fbbaf673","2025-09-02_09h34.05.047",NA,NA,98.4853,98.4853,98.4854,98.8344,NA,NA,NA,NA,NA,NA,NA,TRUE,2,0.9726,95.5032,98.4845,0,1,1,44,1,30,29,NA,NA,NA,NA,NA,1,2,"binary"
"E6FBD82DDFCF477286614D9F80D9FE11",1,"01990aa2-1c70-77cd-8a07-dcb4bed240e8","01990a83-7673-7c0c-a792-bbd8fbbaf673","2025-09-02_09h34.05.047",NA,NA,101.8391,101.8393,101.8393,102.1909,NA,NA,NA,NA,NA,NA,NA,TRUE,2,0.8841,98.8369,101.8385,0,2,2,55,1,45,29,NA,NA,NA,NA,NA,1,3,"binary"
"E6FBD82DDFCF477286614D9F80D9FE11",1,"01990aa2-1c70-77cd-8a07-dcb4bed240e8","01990a83-7673-7c0c-a792-bbd8fbbaf673","2025-09-02_09h34.05.047",NA,NA,105.185,105.1851,105.1852,105.5337,NA,NA,NA,NA,NA,NA,NA,TRUE,1,1.0073,102.1947,105.1839,0,3,3,72,1,90,26,NA,NA,NA,NA,NA,1,4,"binary"
"E6FBD82DDFCF477286614D9F80D9FE11",1,"01990aa2-1c70-77cd-8a07-dcb4bed240e8","01990a83-7673-7c0c-a792-bbd8fbbaf673","2025-09-02_09h34.05.047",NA,NA,108.5333,108.5334,108.5334,108.8828,NA,NA,NA,NA,NA,NA,NA,TRUE,1,1.0438,105.5364,108.5327,0,4,4,4,1,7,32,NA,NA,NA,NA,NA,1,5,"binary"
"E6FBD82DDFCF477286614D9F80D9FE11",1,"01990aa2-1c70-77cd-8a07-dcb4bed240e8","01990a83-7673-7c0c-a792-bbd8fbbaf673","2025-09-02_09h34.05.047",NA,NA,111.8844,112.1478,112.1479,112.2339,NA,NA,NA,NA,NA,NA,NA,FALSE,NA,NA,108.8869,111.8837,0,5,5,103,1,200,28,NA,NA,NA,NA,NA,1,6,"binary"
"E6FBD82DDFCF477286614D9F80D9FE11",1,"01990aa2-1c70-77cd-8a07-dcb4bed240e8","01990a83-7673-7c0c-a792-bbd8fbbaf673","2025-09-02_09h34.05.047",NA,NA,115.2423,115.2427,115.2428,115.591,NA,NA,NA,NA,NA,NA,NA,TRUE,2,1.4657,112.2365,115.2413,0,6,6,39,1,28,35,NA,NA,NA,NA,NA,1,7,"binary"
"E6FBD82DDFCF477286614D9F80D9FE11",1,"01990aa2-1c70-77cd-8a07-dcb4bed240e8","01990a83-7673-7c0c-a792-bbd8fbbaf673","2025-09-02_09h34.05.047",NA,NA,118.5829,118.5831,118.5832,118.9327,NA,NA,NA,NA,NA,NA,NA,TRUE,2,0.7065,115.5955,118.5826,0,7,7,78,1,95,31,NA,NA,NA,NA,NA,1,8,"binary"
"E6FBD82DDFCF477286614D9F80D9FE11",1,"01990aa2-1c70-77cd-8a07-dcb4bed240e8","01990a83-7673-7c0c-a792-bbd8fbbaf673","2025-09-02_09h34.05.047",NA,NA,121.9323,121.9325,121.9325,122.2817,NA,NA,NA,NA,NA,NA,NA,TRUE,2,0.751,118.9363,121.9321,0,8,8,47,1,30,38,NA,NA,NA,NA,NA,1,9,"binary"
"E6FBD82DDFCF477286614D9F80D9FE11",1,"01990aa2-1c70-77cd-8a07-dcb4bed240e8","01990a83-7673-7c0c-a792-bbd8fbbaf673","2025-09-02_09h34.05.047",NA,NA,125.2819,125.282,125.2821,125.6313,NA,NA,NA,NA,NA,NA,NA,TRUE,2,0.577,122.2854,125.2816,0,9,9,94,1,150,47,NA,NA,NA,NA,NA,1,10,"binary"
"E6FBD82DDFCF477286614D9F80D9FE11",1,"01990aa2-1c70-77cd-8a07-dcb4bed240e8","01990a83-7673-7c0c-a792-bbd8fbbaf673","2025-09-02_09h34.05.047",NA,NA,128.6312,128.6312,128.6313,128.9811,NA,NA,NA,NA,NA,NA,NA,TRUE,2,0.6669,125.6356,128.6303,0,10,10,82,1,95,47,NA,NA,NA,NA,NA,1,11,"binary"
"E6FBD82DDFCF477286614D9F80D9FE11",1,"01990aa2-1c70-77cd-8a07-dcb4bed240e8","01990a83-7673-7c0c-a792-bbd8fbbaf673","2025-09-02_09h34.05.047",NA,NA,131.9808,131.9809,131.981,132.3304,NA,NA,NA,NA,NA,NA,NA,TRUE,1,0.8218,128.9853,131.9805,0,11,11,42,1,30,26,NA,NA,NA,NA,NA,1,12,"binary"
"E6FBD82DDFCF477286614D9F80D9FE11",1,"01990aa2-1c70-77cd-8a07-dcb4bed240e8","01990a83-7673-7c0c-a792-bbd8fbbaf673","2025-09-02_09h34.05.047",NA,NA,135.3387,135.3388,135.3388,135.6845,NA,NA,NA,NA,NA,NA,NA,TRUE,2,0.7827,132.335,135.3376,0,12,12,43,1,30,27,NA,NA,NA,NA,NA,1,13,"binary"
"E6FBD82DDFCF477286614D9F80D9FE11",1,"01990aa2-1c70-77cd-8a07-dcb4bed240e8","01990a83-7673-7c0c-a792-bbd8fbbaf673","2025-09-02_09h34.05.047",NA,NA,138.6958,138.696,138.696,139.0445,NA,NA,NA,NA,NA,NA,NA,TRUE,2,0.7293,135.6906,138.6948,0,13,13,67,1,60,33,NA,NA,NA,NA,NA,1,14,"binary"
"E6FBD82DDFCF477286614D9F80D9FE11",1,"01990aa2-1c70-77cd-8a07-dcb4bed240e8","01990a83-7673-7c0c-a792-bbd8fbbaf673","2025-09-02_09h34.05.047",NA,NA,142.0376,142.0378,142.0378,142.3843,NA,NA,NA,NA,NA,NA,NA,TRUE,2,0.9079,139.0501,142.0364,0,14,14,26,1,21,29,NA,NA,NA,NA,NA,1,15,"binary"
"E6FBD82DDFCF477286614D9F80D9FE11",1,"01990aa2-1c70-77cd-8a07-dcb4bed240e8","01990a83-7673-7c0c-a792-bbd8fbbaf673","2025-09-02_09h34.05.047",NA,NA,145.3944,145.3947,145.3947,145.7432,NA,NA,NA,NA,NA,NA,NA,TRUE,2,0.6895,142.3902,145.3934,0,15,15,71,1,60,54,NA,NA,NA,NA,NA,1,16,"binary"
"E6FBD82DDFCF477286614D9F80D9FE11",1,"01990aa2-1c70-77cd-8a07-dcb4bed240e8","01990a83-7673-7c0c-a792-bbd8fbbaf673","2025-09-02_09h34.05.047",NA,NA,148.743,148.7431,148.7431,149.0917,NA,NA,NA,NA,NA,NA,NA,TRUE,2,0.9544,145.7486,148.7423,0,16,16,28,1,21,32,NA,NA,NA,NA,NA,1,17,"binary"
"E6FBD82DDFCF477286614D9F80D9FE11",1,"01990aa2-1c70-77cd-8a07-dcb4bed240e8","01990a83-7673-7c0c-a792-bbd8fbbaf673","2025-09-02_09h34.05.047",NA,NA,152.0917,152.0917,152.0917,152.4411,NA,NA,NA,NA,NA,NA,NA,TRUE,2,0.7326,149.0956,152.0912,0,17,17,74,1,90,33,NA,NA,NA,NA,NA,1,18,"binary"
"E6FBD82DDFCF477286614D9F80D9FE11",1,"01990aa2-1c70-77cd-8a07-dcb4bed240e8","01990a83-7673-7c0c-a792-bbd8fbbaf673","2025-09-02_09h34.05.047",NA,NA,155.4425,155.4427,155.4429,155.7912,NA,NA,NA,NA,NA,NA,NA,TRUE,1,1.0134,152.4437,155.4417,0,18,18,21,1,14,32,NA,NA,NA,NA,NA,1,19,"binary"
"E6FBD82DDFCF477286614D9F80D9FE11",1,"01990aa2-1c70-77cd-8a07-dcb4bed240e8","01990a83-7673-7c0c-a792-bbd8fbbaf673","2025-09-02_09h34.05.047",NA,NA,158.7903,158.7903,158.7903,159.1397,NA,NA,NA,NA,NA,NA,NA,TRUE,2,0.8489,155.7963,158.7898,0,19,19,73,1,90,30,NA,NA,NA,NA,NA,1,20,"binary"
"E6FBD82DDFCF477286614D9F80D9FE11",1,"01990aa2-1c70-77cd-8a07-dcb4bed240e8","01990a83-7673-7c0c-a792-bbd8fbbaf673","2025-09-02_09h34.05.047",NA,NA,162.1408,162.1408,162.1409,162.4899,NA,NA,NA,NA,NA,NA,NA,TRUE,2,0.6335,159.1423,162.1398,0,20,20,89,1,100,54,NA,NA,NA,NA,NA,1,21,"binary"
"E6FBD82DDFCF477286614D9F80D9FE11",1,"01990aa2-1c70-77cd-8a07-dcb4bed240e8","01990a83-7673-7c0c-a792-bbd8fbbaf673","2025-09-02_09h34.05.047",NA,NA,165.4902,165.4902,165.4902,165.8393,NA,NA,NA,NA,NA,NA,NA,TRUE,1,0.8029,162.4949,165.4892,0,21,21,48,1,40,27,NA,NA,NA,NA,NA,1,22,"binary"
"E6FBD82DDFCF477286614D9F80D9FE11",1,"01990aa2-1c70-77cd-8a07-dcb4bed240e8","01990a83-7673-7c0c-a792-bbd8fbbaf673","2025-09-02_09h34.05.047",NA,NA,168.8396,168.8397,168.8398,169.1886,NA,NA,NA,NA,NA,NA,NA,TRUE,1,0.6343,165.8442,168.8386,0,22,22,8,1,10,27,NA,NA,NA,NA,NA,1,23,"binary"
"E6FBD82DDFCF477286614D9F80D9FE11",1,"01990aa2-1c70-77cd-8a07-dcb4bed240e8","01990a83-7673-7c0c-a792-bbd8fbbaf673","2025-09-02_09h34.05.047",NA,NA,172.189,172.189,172.1891,172.5379,NA,NA,NA,NA,NA,NA,NA,TRUE,2,1.5312,169.1932,172.1879,0,23,23,70,1,60,47,NA,NA,NA,NA,NA,1,24,"binary"
"E6FBD82DDFCF477286614D9F80D9FE11",1,"01990aa2-1c70-77cd-8a07-dcb4bed240e8","01990a83-7673-7c0c-a792-bbd8fbbaf673","2025-09-02_09h34.05.047",NA,NA,175.5389,175.539,175.5392,175.8874,NA,NA,NA,NA,NA,NA,NA,TRUE,2,0.5835,172.5456,175.538,0,24,24,56,1,45,31,NA,NA,NA,NA,NA,1,25,"binary"
"E6FBD82DDFCF477286614D9F80D9FE11",1,"01990aa2-1c70-77cd-8a07-dcb4bed240e8","01990a83-7673-7c0c-a792-bbd8fbbaf673","2025-09-02_09h34.05.047",NA,NA,178.8881,178.8881,178.8882,179.2368,NA,NA,NA,NA,NA,NA,NA,TRUE,2,0.7405,175.8932,178.8869,0,25,25,88,1,100,46,NA,NA,NA,NA,NA,1,26,"binary"
"E6FBD82DDFCF477286614D9F80D9FE11",1,"01990aa2-1c70-77cd-8a07-dcb4bed240e8","01990a83-7673-7c0c-a792-bbd8fbbaf673","2025-09-02_09h34.05.047",NA,NA,182.2374,182.2374,182.2375,182.5861,NA,NA,NA,NA,NA,NA,NA,TRUE,2,0.4002,179.2421,182.2363,0,26,26,69,1,60,40,NA,NA,NA,NA,NA,1,27,"binary"
"E6FBD82DDFCF477286614D9F80D9FE11",1,"01990aa2-1c70-77cd-8a07-dcb4bed240e8","01990a83-7673-7c0c-a792-bbd8fbbaf673","2025-09-02_09h34.05.047",NA,NA,185.5853,185.5853,185.5853,185.9354,NA,NA,NA,NA,NA,NA,NA,TRUE,2,0.5123,182.5914,185.5847,0,27,27,32,1,25,31,NA,NA,NA,NA,NA,1,28,"binary"
"E6FBD82DDFCF477286614D9F80D9FE11",1,"01990aa2-1c70-77cd-8a07-dcb4bed240e8","01990a83-7673-7c0c-a792-bbd8fbbaf673","2025-09-02_09h34.05.047",NA,NA,188.9358,188.9359,188.936,189.2847,NA,NA,NA,NA,NA,NA,NA,TRUE,2,0.4561,185.9402,188.9349,0,28,28,3,1,7,30,NA,NA,NA,NA,NA,1,29,"binary"
"E6FBD82DDFCF477286614D9F80D9FE11",1,"01990aa2-1c70-77cd-8a07-dcb4bed240e8","01990a83-7673-7c0c-a792-bbd8fbbaf673","2025-09-02_09h34.05.047",NA,NA,192.2841,192.2841,192.2841,192.6337,NA,NA,NA,NA,NA,NA,NA,TRUE,2,0.6089,189.29,192.2835,0,29,29,83,1,95,54,NA,NA,NA,NA,NA,1,30,"binary"
"E6FBD82DDFCF477286614D9F80D9FE11",1,"01990aa2-1c70-77cd-8a07-dcb4bed240e8","01990a83-7673-7c0c-a792-bbd8fbbaf673","2025-09-02_09h34.05.047",NA,NA,195.6396,195.6396,195.6396,195.9915,NA,NA,NA,NA,NA,NA,NA,TRUE,2,0.419,192.6365,195.639,0,30,30,92,1,150,35,NA,NA,NA,NA,NA,1,31,"binary"
"E6FBD82DDFCF477286614D9F80D9FE11",1,"01990aa2-1c70-77cd-8a07-dcb4bed240e8","01990a83-7673-7c0c-a792-bbd8fbbaf673","2025-09-02_09h34.05.047",NA,NA,198.9829,198.9829,198.9829,199.3326,NA,NA,NA,NA,NA,NA,NA,TRUE,2,0.3881,195.9983,198.9828,0,31,31,84,1,100,26,NA,NA,NA,NA,NA,1,32,"binary"
"E6FBD82DDFCF477286614D9F80D9FE11",1,"01990aa2-1c70-77cd-8a07-dcb4bed240e8","01990a83-7673-7c0c-a792-bbd8fbbaf673","2025-09-02_09h34.05.047",NA,NA,202.328,202.3282,202.3282,202.6735,NA,NA,NA,NA,NA,NA,NA,TRUE,2,0.6534,199.3361,202.3275,0,32,32,14,1,12,28,NA,NA,NA,NA,NA,1,33,"binary"
"E6FBD82DDFCF477286614D9F80D9FE11",1,"01990aa2-1c70-77cd-8a07-dcb4bed240e8","01990a83-7673-7c0c-a792-bbd8fbbaf673","2025-09-02_09h34.05.047",NA,NA,205.6829,205.6829,205.6829,206.0394,NA,NA,NA,NA,NA,NA,NA,TRUE,2,0.6626,202.6766,205.6826,0,33,33,98,1,180,35,NA,NA,NA,NA,NA,1,34,"binary"
"E6FBD82DDFCF477286614D9F80D9FE11",1,"01990aa2-1c70-77cd-8a07-dcb4bed240e8","01990a83-7673-7c0c-a792-bbd8fbbaf673","2025-09-02_09h34.05.047",NA,NA,209.0382,209.0383,209.0383,209.3877,NA,NA,NA,NA,NA,NA,NA,TRUE,2,0.5101,206.042,209.038,0,34,34,79,1,95,33,NA,NA,NA,NA,NA,1,35,"binary"
"E6FBD82DDFCF477286614D9F80D9FE11",1,"01990aa2-1c70-77cd-8a07-dcb4bed240e8","01990a83-7673-7c0c-a792-bbd8fbbaf673","2025-09-02_09h34.05.047",NA,NA,212.3907,212.3908,212.3908,212.7394,NA,NA,NA,NA,NA,NA,NA,TRUE,2,0.3736,209.3923,212.3896,0,35,35,22,1,14,35,NA,NA,NA,NA,NA,1,36,"binary"
"E6FBD82DDFCF477286614D9F80D9FE11",1,"01990aa2-1c70-77cd-8a07-dcb4bed240e8","01990a83-7673-7c0c-a792-bbd8fbbaf673","2025-09-02_09h34.05.047",NA,NA,215.7363,215.7365,215.7365,216.0888,NA,NA,NA,NA,NA,NA,NA,TRUE,1,0.7715,212.7449,215.7352,0,36,36,13,1,12,26,NA,NA,NA,NA,NA,1,37,"binary"
"E6FBD82DDFCF477286614D9F80D9FE11",1,"01990aa2-1c70-77cd-8a07-dcb4bed240e8","01990a83-7673-7c0c-a792-bbd8fbbaf673","2025-09-02_09h34.05.047",NA,NA,219.0956,219.0957,219.0958,219.4306,NA,NA,NA,NA,NA,NA,NA,TRUE,2,0.7211,216.0942,219.0953,0,37,37,75,1,90,40,NA,NA,NA,NA,NA,1,38,"binary"
"E6FBD82DDFCF477286614D9F80D9FE11",1,"01990aa2-1c70-77cd-8a07-dcb4bed240e8","01990a83-7673-7c0c-a792-bbd8fbbaf673","2025-09-02_09h34.05.047",NA,NA,222.4452,222.4453,222.4453,222.7949,NA,NA,NA,NA,NA,NA,NA,TRUE,2,0.5472,219.4345,222.4449,0,38,38,59,1,45,46,NA,NA,NA,NA,NA,1,39,"binary"
"E6FBD82DDFCF477286614D9F80D9FE11",1,"01990aa2-1c70-77cd-8a07-dcb4bed240e8","01990a83-7673-7c0c-a792-bbd8fbbaf673","2025-09-02_09h34.05.047",NA,NA,225.7805,225.7806,225.7806,226.1503,NA,NA,NA,NA,NA,NA,NA,TRUE,2,0.6754,222.797,225.7804,0,39,39,17,1,12,35,NA,NA,NA,NA,NA,1,40,"binary"
"E6FBD82DDFCF477286614D9F80D9FE11",1,"01990aa2-1c70-77cd-8a07-dcb4bed240e8","01990a83-7673-7c0c-a792-bbd8fbbaf673","2025-09-02_09h34.05.047",NA,NA,229.1371,229.1372,229.1372,229.4979,NA,NA,NA,NA,NA,NA,NA,TRUE,2,0.6171,226.1535,229.1365,0,40,40,64,1,50,46,NA,NA,NA,NA,NA,1,41,"binary"
"E6FBD82DDFCF477286614D9F80D9FE11",1,"01990aa2-1c70-77cd-8a07-dcb4bed240e8","01990a83-7673-7c0c-a792-bbd8fbbaf673","2025-09-02_09h34.05.047",NA,NA,232.485,232.485,232.4851,232.835,NA,NA,NA,NA,NA,NA,NA,TRUE,2,0.4738,229.5009,232.4842,0,41,41,31,1,25,29,NA,NA,NA,NA,NA,1,42,"binary"
"E6FBD82DDFCF477286614D9F80D9FE11",1,"01990aa2-1c70-77cd-8a07-dcb4bed240e8","01990a83-7673-7c0c-a792-bbd8fbbaf673","2025-09-02_09h34.05.047",NA,NA,235.8482,235.8483,235.8483,236.1826,NA,NA,NA,NA,NA,NA,NA,TRUE,1,0.4459,232.8382,235.8477,0,42,42,66,1,60,29,NA,NA,NA,NA,NA,1,43,"binary"
"E6FBD82DDFCF477286614D9F80D9FE11",1,"01990aa2-1c70-77cd-8a07-dcb4bed240e8","01990a83-7673-7c0c-a792-bbd8fbbaf673","2025-09-02_09h34.05.047",NA,NA,239.1818,239.1819,239.1819,239.5424,NA,NA,NA,NA,NA,NA,NA,TRUE,2,0.59,236.1857,239.1812,0,43,43,10,1,10,30,NA,NA,NA,NA,NA,1,44,"binary"
"E6FBD82DDFCF477286614D9F80D9FE11",1,"01990aa2-1c70-77cd-8a07-dcb4bed240e8","01990a83-7673-7c0c-a792-bbd8fbbaf673","2025-09-02_09h34.05.047",NA,NA,242.5466,242.5467,242.5467,242.8986,NA,NA,NA,NA,NA,NA,NA,TRUE,2,0.7515,239.5455,242.546,0,44,44,46,1,30,32,NA,NA,NA,NA,NA,1,45,"binary"
"E6FBD82DDFCF477286614D9F80D9FE11",1,"01990aa2-1c70-77cd-8a07-dcb4bed240e8","01990a83-7673-7c0c-a792-bbd8fbbaf673","2025-09-02_09h34.05.047",NA,NA,245.8896,245.8897,245.8897,246.2486,NA,NA,NA,NA,NA,NA,NA,TRUE,2,0.7997,242.9016,245.8889,0,45,45,105,1,200,39,NA,NA,NA,NA,NA,1,46,"binary"
"E6FBD82DDFCF477286614D9F80D9FE11",1,"01990aa2-1c70-77cd-8a07-dcb4bed240e8","01990a83-7673-7c0c-a792-bbd8fbbaf673","2025-09-02_09h34.05.047",NA,NA,249.2481,249.2483,249.2483,249.5829,NA,NA,NA,NA,NA,NA,NA,TRUE,2,0.5694,246.2519,249.2474,0,46,46,0,1,7,25,NA,NA,NA,NA,NA,1,47,"binary"
"E6FBD82DDFCF477286614D9F80D9FE11",1,"01990aa2-1c70-77cd-8a07-dcb4bed240e8","01990a83-7673-7c0c-a792-bbd8fbbaf673","2025-09-02_09h34.05.047",NA,NA,252.6066,252.6067,252.6067,252.936,NA,NA,NA,NA,NA,NA,NA,TRUE,2,0.6822,249.5851,252.606,0,47,47,106,1,200,47,NA,NA,NA,NA,NA,1,48,"binary"
"E6FBD82DDFCF477286614D9F80D9FE11",1,"01990aa2-1c70-77cd-8a07-dcb4bed240e8","01990a83-7673-7c0c-a792-bbd8fbbaf673","2025-09-02_09h34.05.047",NA,NA,255.941,255.941,255.9411,256.2866,NA,NA,NA,NA,NA,NA,NA,TRUE,2,0.6349,252.9399,255.9405,0,48,48,58,1,45,40,NA,NA,NA,NA,NA,1,49,"binary"
"E6FBD82DDFCF477286614D9F80D9FE11",1,"01990aa2-1c70-77cd-8a07-dcb4bed240e8","01990a83-7673-7c0c-a792-bbd8fbbaf673","2025-09-02_09h34.05.047",NA,NA,259.2852,259.2852,259.2852,259.6476,NA,NA,NA,NA,NA,NA,NA,TRUE,1,1.1268,256.2892,259.2848,0,49,49,20,1,14,28,NA,NA,NA,NA,NA,1,50,"binary"
"E6FBD82DDFCF477286614D9F80D9FE11",1,"01990aa2-1c70-77cd-8a07-dcb4bed240e8","01990a83-7673-7c0c-a792-bbd8fbbaf673","2025-09-02_09h34.05.047",NA,NA,262.6283,262.6283,262.6283,262.9923,NA,NA,NA,NA,NA,NA,NA,TRUE,2,0.7729,259.6507,262.6276,0,50,50,86,1,100,38,NA,NA,NA,NA,NA,1,51,"binary"
"E6FBD82DDFCF477286614D9F80D9FE11",1,"01990aa2-1c70-77cd-8a07-dcb4bed240e8","01990a83-7673-7c0c-a792-bbd8fbbaf673","2025-09-02_09h34.05.047",NA,NA,265.9808,265.9808,265.9809,266.3312,NA,NA,NA,NA,NA,NA,NA,TRUE,2,0.4875,262.9956,265.9802,0,51,51,93,1,150,40,NA,NA,NA,NA,NA,1,52,"binary"
"E6FBD82DDFCF477286614D9F80D9FE11",1,"01990aa2-1c70-77cd-8a07-dcb4bed240e8","01990a83-7673-7c0c-a792-bbd8fbbaf673","2025-09-02_09h34.05.047",NA,NA,269.3299,269.33,269.33,269.6835,NA,NA,NA,NA,NA,NA,NA,TRUE,2,0.5931,266.3342,269.3292,0,52,52,99,1,180,39,NA,NA,NA,NA,NA,1,53,"binary"
"E6FBD82DDFCF477286614D9F80D9FE11",1,"01990aa2-1c70-77cd-8a07-dcb4bed240e8","01990a83-7673-7c0c-a792-bbd8fbbaf673","2025-09-02_09h34.05.047",NA,NA,272.6905,272.6905,272.6905,273.0424,NA,NA,NA,NA,NA,NA,NA,TRUE,2,0.6827,269.6871,272.6896,0,53,53,61,1,50,30,NA,NA,NA,NA,NA,1,54,"binary"
"E6FBD82DDFCF477286614D9F80D9FE11",1,"01990aa2-1c70-77cd-8a07-dcb4bed240e8","01990a83-7673-7c0c-a792-bbd8fbbaf673","2025-09-02_09h34.05.047",NA,NA,276.0438,276.044,276.0441,276.3925,NA,NA,NA,NA,NA,NA,NA,TRUE,2,0.4586,273.047,276.0427,0,54,54,11,1,10,32,NA,NA,NA,NA,NA,1,55,"binary"
"E6FBD82DDFCF477286614D9F80D9FE11",1,"01990aa2-1c70-77cd-8a07-dcb4bed240e8","01990a83-7673-7c0c-a792-bbd8fbbaf673","2025-09-02_09h34.05.047",NA,NA,279.3937,279.394,279.3941,279.7432,NA,NA,NA,NA,NA,NA,NA,TRUE,2,0.7846,276.3982,279.3928,0,55,55,9,1,10,29,NA,NA,NA,NA,NA,1,56,"binary"
"E6FBD82DDFCF477286614D9F80D9FE11",1,"01990aa2-1c70-77cd-8a07-dcb4bed240e8","01990a83-7673-7c0c-a792-bbd8fbbaf673","2025-09-02_09h34.05.047",NA,NA,282.7436,282.7437,282.7438,283.0926,NA,NA,NA,NA,NA,NA,NA,TRUE,2,0.6084,279.7487,282.7426,0,56,56,5,1,7,35,NA,NA,NA,NA,NA,1,57,"binary"
"E6FBD82DDFCF477286614D9F80D9FE11",1,"01990aa2-1c70-77cd-8a07-dcb4bed240e8","01990a83-7673-7c0c-a792-bbd8fbbaf673","2025-09-02_09h34.05.047",NA,NA,286.093,286.0932,286.0932,286.4417,NA,NA,NA,NA,NA,NA,NA,TRUE,1,0.6743,283.0975,286.092,0,57,57,36,1,28,26,NA,NA,NA,NA,NA,1,58,"binary"
"E6FBD82DDFCF477286614D9F80D9FE11",1,"01990aa2-1c70-77cd-8a07-dcb4bed240e8","01990a83-7673-7c0c-a792-bbd8fbbaf673","2025-09-02_09h34.05.047",NA,NA,289.4422,289.4423,289.4424,289.7902,NA,NA,NA,NA,NA,NA,NA,TRUE,2,0.7044,286.4477,289.4413,0,58,58,41,1,28,46,NA,NA,NA,NA,NA,1,59,"binary"
"E6FBD82DDFCF477286614D9F80D9FE11",1,"01990aa2-1c70-77cd-8a07-dcb4bed240e8","01990a83-7673-7c0c-a792-bbd8fbbaf673","2025-09-02_09h34.05.047",NA,NA,292.7914,292.7915,292.7915,293.1403,NA,NA,NA,NA,NA,NA,NA,TRUE,1,0.8551,289.7953,292.7904,0,59,59,60,1,50,27,NA,NA,NA,NA,NA,1,60,"binary"
"E6FBD82DDFCF477286614D9F80D9FE11",1,"01990aa2-1c70-77cd-8a07-dcb4bed240e8","01990a83-7673-7c0c-a792-bbd8fbbaf673","2025-09-02_09h34.05.047",NA,NA,296.1415,296.1416,296.1416,296.4897,NA,NA,NA,NA,NA,NA,NA,TRUE,1,0.8893,293.1452,296.1406,0,60,60,6,1,10,25,NA,NA,NA,NA,NA,1,61,"binary"
"E6FBD82DDFCF477286614D9F80D9FE11",1,"01990aa2-1c70-77cd-8a07-dcb4bed240e8","01990a83-7673-7c0c-a792-bbd8fbbaf673","2025-09-02_09h34.05.047",NA,NA,299.4905,299.4906,299.4906,299.8396,NA,NA,NA,NA,NA,NA,NA,TRUE,2,0.8723,296.4949,299.4896,0,61,61,30,1,25,27,NA,NA,NA,NA,NA,1,62,"binary"
"E6FBD82DDFCF477286614D9F80D9FE11",1,"01990aa2-1c70-77cd-8a07-dcb4bed240e8","01990a83-7673-7c0c-a792-bbd8fbbaf673","2025-09-02_09h34.05.047",NA,NA,302.8393,302.8394,302.8394,303.188,NA,NA,NA,NA,NA,NA,NA,TRUE,2,1.0211,299.8448,302.8385,0,62,62,49,1,40,33,NA,NA,NA,NA,NA,1,63,"binary"
"E6FBD82DDFCF477286614D9F80D9FE11",1,"01990aa2-1c70-77cd-8a07-dcb4bed240e8","01990a83-7673-7c0c-a792-bbd8fbbaf673","2025-09-02_09h34.05.047",NA,NA,306.1869,306.1869,306.187,306.5359,NA,NA,NA,NA,NA,NA,NA,TRUE,2,0.8389,303.1925,306.186,0,63,63,57,1,45,35,NA,NA,NA,NA,NA,1,64,"binary"
"E6FBD82DDFCF477286614D9F80D9FE11",1,"01990aa2-1c70-77cd-8a07-dcb4bed240e8","01990a83-7673-7c0c-a792-bbd8fbbaf673","2025-09-02_09h34.05.047",NA,NA,309.5389,309.539,309.539,309.8882,NA,NA,NA,NA,NA,NA,NA,TRUE,1,0.983,306.5406,309.5379,0,64,64,54,1,45,26,NA,NA,NA,NA,NA,1,65,"binary"
"E6FBD82DDFCF477286614D9F80D9FE11",1,"01990aa2-1c70-77cd-8a07-dcb4bed240e8","01990a83-7673-7c0c-a792-bbd8fbbaf673","2025-09-02_09h34.05.047",NA,NA,312.896,312.8961,312.8962,313.2448,NA,NA,NA,NA,NA,NA,NA,TRUE,2,1.6026,309.895,312.8949,0,65,65,24,1,21,26,NA,NA,NA,NA,NA,1,66,"binary"
"E6FBD82DDFCF477286614D9F80D9FE11",1,"01990aa2-1c70-77cd-8a07-dcb4bed240e8","01990a83-7673-7c0c-a792-bbd8fbbaf673","2025-09-02_09h34.05.047",NA,NA,316.2454,316.2455,316.2458,316.5941,NA,NA,NA,NA,NA,NA,NA,TRUE,2,0.8558,313.2506,316.2444,0,66,66,29,1,21,38,NA,NA,NA,NA,NA,1,67,"binary"
"E6FBD82DDFCF477286614D9F80D9FE11",1,"01990aa2-1c70-77cd-8a07-dcb4bed240e8","01990a83-7673-7c0c-a792-bbd8fbbaf673","2025-09-02_09h34.05.047",NA,NA,319.599,319.5992,319.5992,319.9432,NA,NA,NA,NA,NA,NA,NA,TRUE,2,0.8541,316.6001,319.5986,0,67,67,35,1,25,46,NA,NA,NA,NA,NA,1,68,"binary"
"E6FBD82DDFCF477286614D9F80D9FE11",1,"01990aa2-1c70-77cd-8a07-dcb4bed240e8","01990a83-7673-7c0c-a792-bbd8fbbaf673","2025-09-02_09h34.05.047",NA,NA,322.9434,322.9436,322.9437,323.2928,NA,NA,NA,NA,NA,NA,NA,TRUE,2,0.8496,319.9501,322.9426,0,68,68,107,1,200,54,NA,NA,NA,NA,NA,1,69,"binary"
"E6FBD82DDFCF477286614D9F80D9FE11",1,"01990aa2-1c70-77cd-8a07-dcb4bed240e8","01990a83-7673-7c0c-a792-bbd8fbbaf673","2025-09-02_09h34.05.047",NA,NA,326.2933,326.2937,326.2937,326.6422,NA,NA,NA,NA,NA,NA,NA,TRUE,2,1.0513,323.2976,326.2923,0,69,69,102,1,200,26,NA,NA,NA,NA,NA,1,70,"binary"
"E6FBD82DDFCF477286614D9F80D9FE11",1,"01990aa2-1c70-77cd-8a07-dcb4bed240e8","01990a83-7673-7c0c-a792-bbd8fbbaf673","2025-09-02_09h34.05.047",NA,NA,329.6421,329.6423,329.6424,329.9914,NA,NA,NA,NA,NA,NA,NA,TRUE,1,1.0453,326.6475,329.6411,0,70,70,12,1,12,25,NA,NA,NA,NA,NA,1,71,"binary"
"E6FBD82DDFCF477286614D9F80D9FE11",1,"01990aa2-1c70-77cd-8a07-dcb4bed240e8","01990a83-7673-7c0c-a792-bbd8fbbaf673","2025-09-02_09h34.05.047",NA,NA,332.9917,332.9917,332.9918,333.3406,NA,NA,NA,NA,NA,NA,NA,TRUE,1,0.8181,329.9962,332.9907,0,71,71,7,1,10,26,NA,NA,NA,NA,NA,1,72,"binary"
"E6FBD82DDFCF477286614D9F80D9FE11",1,"01990aa2-1c70-77cd-8a07-dcb4bed240e8","01990a83-7673-7c0c-a792-bbd8fbbaf673","2025-09-02_09h34.05.047",NA,NA,336.3413,336.3413,336.3414,336.6902,NA,NA,NA,NA,NA,NA,NA,TRUE,2,1.1362,333.3455,336.3402,0,72,72,97,1,180,31,NA,NA,NA,NA,NA,1,73,"binary"
"E6FBD82DDFCF477286614D9F80D9FE11",1,"01990aa2-1c70-77cd-8a07-dcb4bed240e8","01990a83-7673-7c0c-a792-bbd8fbbaf673","2025-09-02_09h34.05.047",NA,NA,339.6903,339.6904,339.6904,340.0393,NA,NA,NA,NA,NA,NA,NA,TRUE,2,0.8261,336.6954,339.6894,0,73,73,53,1,40,54,NA,NA,NA,NA,NA,1,74,"binary"
"E6FBD82DDFCF477286614D9F80D9FE11",1,"01990aa2-1c70-77cd-8a07-dcb4bed240e8","01990a83-7673-7c0c-a792-bbd8fbbaf673","2025-09-02_09h34.05.047",NA,NA,343.0406,343.0407,343.0407,343.3888,NA,NA,NA,NA,NA,NA,NA,TRUE,1,0.9545,340.0442,343.0391,0,74,74,45,1,30,30,NA,NA,NA,NA,NA,1,75,"binary"
"E6FBD82DDFCF477286614D9F80D9FE11",1,"01990aa2-1c70-77cd-8a07-dcb4bed240e8","01990a83-7673-7c0c-a792-bbd8fbbaf673","2025-09-02_09h34.05.047",NA,NA,346.3889,346.3889,346.389,346.7384,NA,NA,NA,NA,NA,NA,NA,TRUE,2,1.0349,343.3936,346.3879,0,75,75,87,1,100,39,NA,NA,NA,NA,NA,1,76,"binary"
"E6FBD82DDFCF477286614D9F80D9FE11",1,"01990aa2-1c70-77cd-8a07-dcb4bed240e8","01990a83-7673-7c0c-a792-bbd8fbbaf673","2025-09-02_09h34.05.047",NA,NA,349.7386,349.7386,349.7388,350.0871,NA,NA,NA,NA,NA,NA,NA,TRUE,1,0.9529,346.7435,349.7377,0,76,76,37,1,28,28,NA,NA,NA,NA,NA,1,77,"binary"
"E6FBD82DDFCF477286614D9F80D9FE11",1,"01990aa2-1c70-77cd-8a07-dcb4bed240e8","01990a83-7673-7c0c-a792-bbd8fbbaf673","2025-09-02_09h34.05.047",NA,NA,353.0879,353.0879,353.088,353.4368,NA,NA,NA,NA,NA,NA,NA,TRUE,2,0.7852,350.0922,353.0868,0,77,77,63,1,50,40,NA,NA,NA,NA,NA,1,78,"binary"
"E6FBD82DDFCF477286614D9F80D9FE11",1,"01990aa2-1c70-77cd-8a07-dcb4bed240e8","01990a83-7673-7c0c-a792-bbd8fbbaf673","2025-09-02_09h34.05.047",NA,NA,356.4461,356.4463,356.4463,356.7821,NA,NA,NA,NA,NA,NA,NA,TRUE,1,1.6296,353.4416,356.4452,0,78,78,62,1,50,35,NA,NA,NA,NA,NA,1,79,"binary"
"E6FBD82DDFCF477286614D9F80D9FE11",1,"01990aa2-1c70-77cd-8a07-dcb4bed240e8","01990a83-7673-7c0c-a792-bbd8fbbaf673","2025-09-02_09h34.05.047",NA,NA,359.7943,359.7944,359.7945,360.1434,NA,NA,NA,NA,NA,NA,NA,TRUE,1,1.2271,356.7864,359.7931,0,79,79,18,1,14,25,NA,NA,NA,NA,NA,1,80,"binary"
"E6FBD82DDFCF477286614D9F80D9FE11",1,"01990aa2-1c70-77cd-8a07-dcb4bed240e8","01990a83-7673-7c0c-a792-bbd8fbbaf673","2025-09-02_09h34.05.047",NA,NA,363.1358,363.1359,363.1359,363.4852,NA,NA,NA,NA,NA,NA,NA,TRUE,1,1.0595,360.1488,363.1347,0,80,80,25,1,21,27,NA,NA,NA,NA,NA,1,81,"binary"
"E6FBD82DDFCF477286614D9F80D9FE11",1,"01990aa2-1c70-77cd-8a07-dcb4bed240e8","01990a83-7673-7c0c-a792-bbd8fbbaf673","2025-09-02_09h34.05.047",NA,NA,366.4856,366.4857,366.4857,366.8346,NA,NA,NA,NA,NA,NA,NA,TRUE,2,0.8063,363.4902,366.4843,0,81,81,76,1,90,46,NA,NA,NA,NA,NA,1,82,"binary"
"E6FBD82DDFCF477286614D9F80D9FE11",1,"01990aa2-1c70-77cd-8a07-dcb4bed240e8","01990a83-7673-7c0c-a792-bbd8fbbaf673","2025-09-02_09h34.05.047",NA,NA,369.8351,369.8351,369.8352,370.184,NA,NA,NA,NA,NA,NA,NA,TRUE,2,0.6196,366.8398,369.8341,0,82,82,101,1,180,54,NA,NA,NA,NA,NA,1,83,"binary"
"E6FBD82DDFCF477286614D9F80D9FE11",1,"01990aa2-1c70-77cd-8a07-dcb4bed240e8","01990a83-7673-7c0c-a792-bbd8fbbaf673","2025-09-02_09h34.05.047",NA,NA,373.1937,373.1939,373.194,373.5416,NA,NA,NA,NA,NA,NA,NA,TRUE,2,0.7153,370.189,373.1926,0,83,83,95,1,150,54,NA,NA,NA,NA,NA,1,84,"binary"
"E6FBD82DDFCF477286614D9F80D9FE11",1,"01990aa2-1c70-77cd-8a07-dcb4bed240e8","01990a83-7673-7c0c-a792-bbd8fbbaf673","2025-09-02_09h34.05.047",NA,NA,376.5351,376.5353,376.5354,376.8897,NA,NA,NA,NA,NA,NA,NA,TRUE,2,0.6167,373.5465,376.5341,0,84,84,23,1,14,39,NA,NA,NA,NA,NA,1,85,"binary"
"E6FBD82DDFCF477286614D9F80D9FE11",1,"01990aa2-1c70-77cd-8a07-dcb4bed240e8","01990a83-7673-7c0c-a792-bbd8fbbaf673","2025-09-02_09h34.05.047",NA,NA,379.8913,379.8914,379.8914,380.2408,NA,NA,NA,NA,NA,NA,NA,TRUE,1,2.2838,376.8952,379.8903,0,85,85,85,1,100,31,NA,NA,NA,NA,NA,1,86,"binary"
"E6FBD82DDFCF477286614D9F80D9FE11",1,"01990aa2-1c70-77cd-8a07-dcb4bed240e8","01990a83-7673-7c0c-a792-bbd8fbbaf673","2025-09-02_09h34.05.047",NA,NA,383.2389,383.239,383.239,383.5866,NA,NA,NA,NA,NA,NA,NA,TRUE,1,1.0088,380.2456,383.2385,0,86,86,96,1,180,27,NA,NA,NA,NA,NA,1,87,"binary"
"E6FBD82DDFCF477286614D9F80D9FE11",1,"01990aa2-1c70-77cd-8a07-dcb4bed240e8","01990a83-7673-7c0c-a792-bbd8fbbaf673","2025-09-02_09h34.05.047",NA,NA,386.5896,386.5897,386.5897,386.9374,NA,NA,NA,NA,NA,NA,NA,TRUE,2,0.5362,383.5891,386.5887,0,87,87,68,1,60,35,NA,NA,NA,NA,NA,1,88,"binary"
"E6FBD82DDFCF477286614D9F80D9FE11",1,"01990aa2-1c70-77cd-8a07-dcb4bed240e8","01990a83-7673-7c0c-a792-bbd8fbbaf673","2025-09-02_09h34.05.047",NA,NA,389.9392,389.9394,389.9394,390.2891,NA,NA,NA,NA,NA,NA,NA,TRUE,1,0.646,386.9421,389.9384,0,88,88,19,1,14,26,NA,NA,NA,NA,NA,1,89,"binary"
"E6FBD82DDFCF477286614D9F80D9FE11",1,"01990aa2-1c70-77cd-8a07-dcb4bed240e8","01990a83-7673-7c0c-a792-bbd8fbbaf673","2025-09-02_09h34.05.047",NA,NA,393.2872,393.2872,393.2872,393.6349,NA,NA,NA,NA,NA,NA,NA,TRUE,2,0.9097,390.2909,393.287,0,89,89,15,1,12,31,NA,NA,NA,NA,NA,1,90,"binary"
"E6FBD82DDFCF477286614D9F80D9FE11",1,"01990aa2-1c70-77cd-8a07-dcb4bed240e8","01990a83-7673-7c0c-a792-bbd8fbbaf673","2025-09-02_09h34.05.047",NA,NA,396.6385,396.6385,396.6386,396.9875,NA,NA,NA,NA,NA,NA,NA,TRUE,2,0.741,393.6375,396.6374,0,90,90,52,1,40,47,NA,NA,NA,NA,NA,1,91,"binary"
"E6FBD82DDFCF477286614D9F80D9FE11",1,"01990aa2-1c70-77cd-8a07-dcb4bed240e8","01990a83-7673-7c0c-a792-bbd8fbbaf673","2025-09-02_09h34.05.047",NA,NA,399.9882,399.9882,399.9883,400.3365,NA,NA,NA,NA,NA,NA,NA,TRUE,2,0.8244,396.9926,399.987,0,91,91,91,1,150,33,NA,NA,NA,NA,NA,1,92,"binary"
"E6FBD82DDFCF477286614D9F80D9FE11",1,"01990aa2-1c70-77cd-8a07-dcb4bed240e8","01990a83-7673-7c0c-a792-bbd8fbbaf673","2025-09-02_09h34.05.047",NA,NA,403.3359,403.3359,403.336,403.6863,NA,NA,NA,NA,NA,NA,NA,TRUE,2,0.7767,400.3418,403.3349,0,92,92,50,1,40,35,NA,NA,NA,NA,NA,1,93,"binary"
"E6FBD82DDFCF477286614D9F80D9FE11",1,"01990aa2-1c70-77cd-8a07-dcb4bed240e8","01990a83-7673-7c0c-a792-bbd8fbbaf673","2025-09-02_09h34.05.047",NA,NA,406.6951,406.6953,406.6953,407.0447,NA,NA,NA,NA,NA,NA,NA,TRUE,1,0.5965,403.6916,406.6948,0,93,93,27,1,21,30,NA,NA,NA,NA,NA,1,94,"binary"
"E6FBD82DDFCF477286614D9F80D9FE11",1,"01990aa2-1c70-77cd-8a07-dcb4bed240e8","01990a83-7673-7c0c-a792-bbd8fbbaf673","2025-09-02_09h34.05.047",NA,NA,410.0442,410.0445,410.0445,410.394,NA,NA,NA,NA,NA,NA,NA,TRUE,2,0.7128,407.0481,410.044,0,94,94,38,1,28,32,NA,NA,NA,NA,NA,1,95,"binary"
"E6FBD82DDFCF477286614D9F80D9FE11",1,"01990aa2-1c70-77cd-8a07-dcb4bed240e8","01990a83-7673-7c0c-a792-bbd8fbbaf673","2025-09-02_09h34.05.047",NA,NA,413.3945,413.3947,413.3948,413.7434,NA,NA,NA,NA,NA,NA,NA,TRUE,2,0.6911,410.3977,413.3943,0,95,95,16,1,12,33,NA,NA,NA,NA,NA,1,96,"binary"
"E6FBD82DDFCF477286614D9F80D9FE11",1,"01990aa2-1c70-77cd-8a07-dcb4bed240e8","01990a83-7673-7c0c-a792-bbd8fbbaf673","2025-09-02_09h34.05.047",NA,NA,416.7276,416.7277,416.7278,417.093,NA,NA,NA,NA,NA,NA,NA,TRUE,2,0.8067,413.747,416.7273,0,96,96,104,1,200,35,NA,NA,NA,NA,NA,1,97,"binary"
"E6FBD82DDFCF477286614D9F80D9FE11",1,"01990aa2-1c70-77cd-8a07-dcb4bed240e8","01990a83-7673-7c0c-a792-bbd8fbbaf673","2025-09-02_09h34.05.047",NA,NA,420.0926,420.0927,420.0928,420.4421,NA,NA,NA,NA,NA,NA,NA,TRUE,1,0.7907,417.097,420.0922,0,97,97,90,1,150,31,NA,NA,NA,NA,NA,1,98,"binary"
"E6FBD82DDFCF477286614D9F80D9FE11",1,"01990aa2-1c70-77cd-8a07-dcb4bed240e8","01990a83-7673-7c0c-a792-bbd8fbbaf673","2025-09-02_09h34.05.047",NA,NA,423.4418,423.4419,423.442,423.7914,NA,NA,NA,NA,NA,NA,NA,TRUE,2,0.6799,420.446,423.4416,0,98,98,51,1,40,40,NA,NA,NA,NA,NA,1,99,"binary"
"E6FBD82DDFCF477286614D9F80D9FE11",1,"01990aa2-1c70-77cd-8a07-dcb4bed240e8","01990a83-7673-7c0c-a792-bbd8fbbaf673","2025-09-02_09h34.05.047",NA,NA,426.7912,426.7913,426.7914,427.1405,NA,NA,NA,NA,NA,NA,NA,TRUE,2,0.7669,423.7952,426.791,0,99,99,65,1,50,54,NA,NA,NA,NA,NA,1,100,"binary"
"E6FBD82DDFCF477286614D9F80D9FE11",1,"01990aa2-1c70-77cd-8a07-dcb4bed240e8","01990a83-7673-7c0c-a792-bbd8fbbaf673","2025-09-02_09h34.05.047",NA,NA,430.1404,430.1405,430.1406,430.4899,NA,NA,NA,NA,NA,NA,NA,TRUE,2,0.7049,427.1443,430.1401,0,100,100,34,1,25,35,NA,NA,NA,NA,NA,1,101,"binary"
"E6FBD82DDFCF477286614D9F80D9FE11",1,"01990aa2-1c70-77cd-8a07-dcb4bed240e8","01990a83-7673-7c0c-a792-bbd8fbbaf673","2025-09-02_09h34.05.047",NA,NA,433.4894,433.4896,433.4896,433.8391,NA,NA,NA,NA,NA,NA,NA,TRUE,2,0.7313,430.4938,433.4893,0,101,101,81,1,95,40,NA,NA,NA,NA,NA,1,102,"binary"
"E6FBD82DDFCF477286614D9F80D9FE11",1,"01990aa2-1c70-77cd-8a07-dcb4bed240e8","01990a83-7673-7c0c-a792-bbd8fbbaf673","2025-09-02_09h34.05.047",NA,NA,436.8396,436.8396,436.8397,437.1886,NA,NA,NA,NA,NA,NA,NA,TRUE,2,0.6062,433.8427,436.8392,0,102,102,33,1,25,33,NA,NA,NA,NA,NA,1,103,"binary"
"E6FBD82DDFCF477286614D9F80D9FE11",1,"01990aa2-1c70-77cd-8a07-dcb4bed240e8","01990a83-7673-7c0c-a792-bbd8fbbaf673","2025-09-02_09h34.05.047",NA,NA,440.1885,440.1885,440.1886,440.5443,NA,NA,NA,NA,NA,NA,NA,TRUE,1,0.6372,437.1919,440.1882,0,103,103,2,1,7,28,NA,NA,NA,NA,NA,1,104,"binary"
"E6FBD82DDFCF477286614D9F80D9FE11",1,"01990aa2-1c70-77cd-8a07-dcb4bed240e8","01990a83-7673-7c0c-a792-bbd8fbbaf673","2025-09-02_09h34.05.047",NA,NA,443.5466,443.5468,443.5469,443.8954,NA,NA,NA,NA,NA,NA,NA,TRUE,2,1.0905,440.5469,443.5455,0,104,104,40,1,28,39,NA,NA,NA,NA,NA,1,105,"binary"
"E6FBD82DDFCF477286614D9F80D9FE11",1,"01990aa2-1c70-77cd-8a07-dcb4bed240e8","01990a83-7673-7c0c-a792-bbd8fbbaf673","2025-09-02_09h34.05.047",NA,NA,446.8873,446.8873,446.8874,447.2356,NA,NA,NA,NA,NA,NA,NA,TRUE,2,0.9382,443.901,446.8862,0,105,105,100,1,180,46,NA,NA,NA,NA,NA,1,106,"binary"
"E6FBD82DDFCF477286614D9F80D9FE11",1,"01990aa2-1c70-77cd-8a07-dcb4bed240e8","01990a83-7673-7c0c-a792-bbd8fbbaf673","2025-09-02_09h34.05.047",NA,NA,450.2364,450.2365,450.2366,450.5851,NA,NA,NA,NA,NA,NA,NA,TRUE,2,0.6057,447.241,450.2354,0,106,106,77,1,90,54,NA,NA,NA,NA,NA,1,107,"binary"
"E6FBD82DDFCF477286614D9F80D9FE11",1,"01990aa2-1c70-77cd-8a07-dcb4bed240e8","01990a83-7673-7c0c-a792-bbd8fbbaf673","2025-09-02_09h34.05.047",NA,NA,453.5843,453.5843,453.5843,453.9336,NA,NA,NA,NA,NA,NA,NA,TRUE,2,0.8063,450.5901,453.5835,0,107,107,80,1,95,35,NA,NA,NA,NA,NA,1,108,"binary"
"E6FBD82DDFCF477286614D9F80D9FE11",1,"01990aa2-1c70-77cd-8a07-dcb4bed240e8","01990a83-7673-7c0c-a792-bbd8fbbaf673","2025-09-02_09h34.05.047",NA,NA,481.4456,481.4457,481.4457,481.7959,NA,NA,NA,NA,NA,NA,NA,TRUE,2,2.1242,478.5415,481.4452,NA,NA,NA,NA,NA,180,46,0,0,0,100,1,2,1,"binary"
"E6FBD82DDFCF477286614D9F80D9FE11",1,"01990aa2-1c70-77cd-8a07-dcb4bed240e8","01990a83-7673-7c0c-a792-bbd8fbbaf673","2025-09-02_09h34.05.047",NA,NA,484.8015,484.8015,484.8015,485.1489,NA,NA,NA,NA,NA,NA,NA,TRUE,2,0.76,481.8015,484.8009,NA,NA,NA,NA,NA,50,35,0,1,1,62,1,2,2,"binary"
"E6FBD82DDFCF477286614D9F80D9FE11",1,"01990aa2-1c70-77cd-8a07-dcb4bed240e8","01990a83-7673-7c0c-a792-bbd8fbbaf673","2025-09-02_09h34.05.047",NA,NA,488.1502,488.1503,488.1504,488.5025,NA,NA,NA,NA,NA,NA,NA,TRUE,2,0.5773,485.1513,488.1493,NA,NA,NA,NA,NA,95,54,0,2,2,83,1,2,3,"binary"
"E6FBD82DDFCF477286614D9F80D9FE11",1,"01990aa2-1c70-77cd-8a07-dcb4bed240e8","01990a83-7673-7c0c-a792-bbd8fbbaf673","2025-09-02_09h34.05.047",NA,NA,491.5041,491.5043,491.5044,491.8529,NA,NA,NA,NA,NA,NA,NA,TRUE,2,0.9568,488.507,491.5031,NA,NA,NA,NA,NA,10,30,0,3,3,10,1,2,4,"binary"
"E6FBD82DDFCF477286614D9F80D9FE11",1,"01990aa2-1c70-77cd-8a07-dcb4bed240e8","01990a83-7673-7c0c-a792-bbd8fbbaf673","2025-09-02_09h34.05.047",NA,NA,494.8442,494.8443,494.8443,495.1932,NA,NA,NA,NA,NA,NA,NA,TRUE,2,0.9834,491.8585,494.8433,NA,NA,NA,NA,NA,30,32,0,4,4,46,1,2,5,"binary"
"E6FBD82DDFCF477286614D9F80D9FE11",1,"01990aa2-1c70-77cd-8a07-dcb4bed240e8","01990a83-7673-7c0c-a792-bbd8fbbaf673","2025-09-02_09h34.05.047",NA,NA,498.1937,498.1938,498.1938,498.5427,NA,NA,NA,NA,NA,NA,NA,TRUE,2,0.572,495.1979,498.1928,NA,NA,NA,NA,NA,150,33,0,5,5,91,1,2,6,"binary"
"E6FBD82DDFCF477286614D9F80D9FE11",1,"01990aa2-1c70-77cd-8a07-dcb4bed240e8","01990a83-7673-7c0c-a792-bbd8fbbaf673","2025-09-02_09h34.05.047",NA,NA,501.5427,501.5428,501.5429,501.8921,NA,NA,NA,NA,NA,NA,NA,TRUE,2,0.5887,498.5473,501.5419,NA,NA,NA,NA,NA,21,29,0,6,6,26,1,2,7,"binary"
"E6FBD82DDFCF477286614D9F80D9FE11",1,"01990aa2-1c70-77cd-8a07-dcb4bed240e8","01990a83-7673-7c0c-a792-bbd8fbbaf673","2025-09-02_09h34.05.047",NA,NA,504.8926,504.8926,504.8927,505.2409,NA,NA,NA,NA,NA,NA,NA,TRUE,1,0.6792,501.8968,504.8917,NA,NA,NA,NA,NA,50,27,0,7,7,60,1,2,8,"binary"
"E6FBD82DDFCF477286614D9F80D9FE11",1,"01990aa2-1c70-77cd-8a07-dcb4bed240e8","01990a83-7673-7c0c-a792-bbd8fbbaf673","2025-09-02_09h34.05.047",NA,NA,508.2419,508.2419,508.2421,508.5901,NA,NA,NA,NA,NA,NA,NA,TRUE,2,0.5692,505.2461,508.2409,NA,NA,NA,NA,NA,21,38,0,8,8,29,1,2,9,"binary"
"E6FBD82DDFCF477286614D9F80D9FE11",1,"01990aa2-1c70-77cd-8a07-dcb4bed240e8","01990a83-7673-7c0c-a792-bbd8fbbaf673","2025-09-02_09h34.05.047",NA,NA,511.5917,511.5919,511.5923,511.94,NA,NA,NA,NA,NA,NA,NA,TRUE,1,0.6245,508.5951,511.5902,NA,NA,NA,NA,NA,30,27,0,9,9,43,1,2,10,"binary"
"E6FBD82DDFCF477286614D9F80D9FE11",1,"01990aa2-1c70-77cd-8a07-dcb4bed240e8","01990a83-7673-7c0c-a792-bbd8fbbaf673","2025-09-02_09h34.05.047",NA,NA,514.9573,514.9576,514.9577,515.3062,NA,NA,NA,NA,NA,NA,NA,TRUE,2,0.9875,511.9448,514.9563,NA,NA,NA,NA,NA,150,54,0,10,10,95,1,2,11,"binary"
"E6FBD82DDFCF477286614D9F80D9FE11",1,"01990aa2-1c70-77cd-8a07-dcb4bed240e8","01990a83-7673-7c0c-a792-bbd8fbbaf673","2025-09-02_09h34.05.047",NA,NA,518.3065,518.3066,518.3067,518.6555,NA,NA,NA,NA,NA,NA,NA,TRUE,2,0.7666,515.3108,518.3056,NA,NA,NA,NA,NA,21,32,0,11,11,28,1,2,12,"binary"
"E6FBD82DDFCF477286614D9F80D9FE11",1,"01990aa2-1c70-77cd-8a07-dcb4bed240e8","01990a83-7673-7c0c-a792-bbd8fbbaf673","2025-09-02_09h34.05.047",NA,NA,521.6557,521.6559,521.656,522.0051,NA,NA,NA,NA,NA,NA,NA,TRUE,2,0.7125,518.6609,521.6548,NA,NA,NA,NA,NA,200,54,0,12,12,107,1,2,13,"binary"
"E6FBD82DDFCF477286614D9F80D9FE11",1,"01990aa2-1c70-77cd-8a07-dcb4bed240e8","01990a83-7673-7c0c-a792-bbd8fbbaf673","2025-09-02_09h34.05.047",NA,NA,525.0053,525.0054,525.0055,525.354,NA,NA,NA,NA,NA,NA,NA,TRUE,1,0.6547,522.0098,525.0043,NA,NA,NA,NA,NA,25,27,0,13,13,30,1,2,14,"binary"
"E6FBD82DDFCF477286614D9F80D9FE11",1,"01990aa2-1c70-77cd-8a07-dcb4bed240e8","01990a83-7673-7c0c-a792-bbd8fbbaf673","2025-09-02_09h34.05.047",NA,NA,528.3534,528.3536,528.3536,528.7036,NA,NA,NA,NA,NA,NA,NA,TRUE,2,0.6526,525.3589,528.3529,NA,NA,NA,NA,NA,90,54,0,14,14,77,1,2,15,"binary"
"E6FBD82DDFCF477286614D9F80D9FE11",1,"01990aa2-1c70-77cd-8a07-dcb4bed240e8","01990a83-7673-7c0c-a792-bbd8fbbaf673","2025-09-02_09h34.05.047",NA,NA,531.7035,531.7036,531.7037,532.0531,NA,NA,NA,NA,NA,NA,NA,TRUE,2,0.7672,528.7092,531.7027,NA,NA,NA,NA,NA,180,54,0,15,15,101,1,2,16,"binary"
"E6FBD82DDFCF477286614D9F80D9FE11",1,"01990aa2-1c70-77cd-8a07-dcb4bed240e8","01990a83-7673-7c0c-a792-bbd8fbbaf673","2025-09-02_09h34.05.047",NA,NA,535.0536,535.0537,535.0539,535.402,NA,NA,NA,NA,NA,NA,NA,TRUE,1,0.6366,532.0578,535.0526,NA,NA,NA,NA,NA,60,29,0,16,16,66,1,2,17,"binary"
"E6FBD82DDFCF477286614D9F80D9FE11",1,"01990aa2-1c70-77cd-8a07-dcb4bed240e8","01990a83-7673-7c0c-a792-bbd8fbbaf673","2025-09-02_09h34.05.047",NA,NA,538.403,538.4032,538.4032,538.7514,NA,NA,NA,NA,NA,NA,NA,TRUE,2,1.4682,535.4075,538.4016,NA,NA,NA,NA,NA,40,27,0,17,17,48,1,2,18,"binary"
"E6FBD82DDFCF477286614D9F80D9FE11",1,"01990aa2-1c70-77cd-8a07-dcb4bed240e8","01990a83-7673-7c0c-a792-bbd8fbbaf673","2025-09-02_09h34.05.047",NA,NA,541.7523,541.7525,541.7525,542.1023,NA,NA,NA,NA,NA,NA,NA,TRUE,1,0.5834,538.7564,541.7511,NA,NA,NA,NA,NA,150,47,0,18,18,94,1,2,19,"binary"
"E6FBD82DDFCF477286614D9F80D9FE11",1,"01990aa2-1c70-77cd-8a07-dcb4bed240e8","01990a83-7673-7c0c-a792-bbd8fbbaf673","2025-09-02_09h34.05.047",NA,NA,545.1016,545.1017,545.1019,545.4504,NA,NA,NA,NA,NA,NA,NA,TRUE,2,0.5693,542.1078,545.1007,NA,NA,NA,NA,NA,95,40,0,19,19,81,1,2,20,"binary"
"E6FBD82DDFCF477286614D9F80D9FE11",1,"01990aa2-1c70-77cd-8a07-dcb4bed240e8","01990a83-7673-7c0c-a792-bbd8fbbaf673","2025-09-02_09h34.05.047",NA,NA,548.4508,548.451,548.451,548.7997,NA,NA,NA,NA,NA,NA,NA,TRUE,2,0.9658,545.4552,548.45,NA,NA,NA,NA,NA,90,33,0,20,20,74,1,2,21,"binary"
"E6FBD82DDFCF477286614D9F80D9FE11",1,"01990aa2-1c70-77cd-8a07-dcb4bed240e8","01990a83-7673-7c0c-a792-bbd8fbbaf673","2025-09-02_09h34.05.047",NA,NA,551.8002,551.8003,551.8004,552.1489,NA,NA,NA,NA,NA,NA,NA,TRUE,2,0.6882,548.8047,551.7993,NA,NA,NA,NA,NA,200,39,0,21,21,105,1,2,22,"binary"
"E6FBD82DDFCF477286614D9F80D9FE11",1,"01990aa2-1c70-77cd-8a07-dcb4bed240e8","01990a83-7673-7c0c-a792-bbd8fbbaf673","2025-09-02_09h34.05.047",NA,NA,555.1495,555.1496,555.1497,555.4987,NA,NA,NA,NA,NA,NA,NA,TRUE,2,0.8837,552.1536,555.1485,NA,NA,NA,NA,NA,30,30,0,22,22,45,1,2,23,"binary"
"E6FBD82DDFCF477286614D9F80D9FE11",1,"01990aa2-1c70-77cd-8a07-dcb4bed240e8","01990a83-7673-7c0c-a792-bbd8fbbaf673","2025-09-02_09h34.05.047",NA,NA,558.4988,558.4988,558.4988,558.8476,NA,NA,NA,NA,NA,NA,NA,TRUE,1,0.7201,555.5034,558.4979,NA,NA,NA,NA,NA,14,28,0,23,23,20,1,2,24,"binary"
"E6FBD82DDFCF477286614D9F80D9FE11",1,"01990aa2-1c70-77cd-8a07-dcb4bed240e8","01990a83-7673-7c0c-a792-bbd8fbbaf673","2025-09-02_09h34.05.047",NA,NA,561.8485,561.8486,561.8486,562.1972,NA,NA,NA,NA,NA,NA,NA,TRUE,2,0.5675,558.8523,561.8475,NA,NA,NA,NA,NA,50,40,0,24,24,63,1,2,25,"binary"
"E6FBD82DDFCF477286614D9F80D9FE11",1,"01990aa2-1c70-77cd-8a07-dcb4bed240e8","01990a83-7673-7c0c-a792-bbd8fbbaf673","2025-09-02_09h34.05.047",NA,NA,565.1974,565.1976,565.1976,565.5464,NA,NA,NA,NA,NA,NA,NA,TRUE,1,0.5713,562.2021,565.1966,NA,NA,NA,NA,NA,14,25,0,25,25,18,1,2,26,"binary"
"E6FBD82DDFCF477286614D9F80D9FE11",1,"01990aa2-1c70-77cd-8a07-dcb4bed240e8","01990a83-7673-7c0c-a792-bbd8fbbaf673","2025-09-02_09h34.05.047",NA,NA,568.5469,568.5469,568.547,568.8959,NA,NA,NA,NA,NA,NA,NA,TRUE,2,0.709,565.5515,568.5459,NA,NA,NA,NA,NA,45,46,0,26,26,59,1,2,27,"binary"
"E6FBD82DDFCF477286614D9F80D9FE11",1,"01990aa2-1c70-77cd-8a07-dcb4bed240e8","01990a83-7673-7c0c-a792-bbd8fbbaf673","2025-09-02_09h34.05.047",NA,NA,571.8965,571.8966,571.8966,572.2452,NA,NA,NA,NA,NA,NA,NA,TRUE,2,0.4711,568.9008,571.8956,NA,NA,NA,NA,NA,90,40,0,27,27,75,1,2,28,"binary"
"E6FBD82DDFCF477286614D9F80D9FE11",1,"01990aa2-1c70-77cd-8a07-dcb4bed240e8","01990a83-7673-7c0c-a792-bbd8fbbaf673","2025-09-02_09h34.05.047",NA,NA,575.2457,575.2459,575.2459,575.5943,NA,NA,NA,NA,NA,NA,NA,TRUE,2,0.5802,572.2499,575.2449,NA,NA,NA,NA,NA,60,54,0,28,28,71,1,2,29,"binary"
"E6FBD82DDFCF477286614D9F80D9FE11",1,"01990aa2-1c70-77cd-8a07-dcb4bed240e8","01990a83-7673-7c0c-a792-bbd8fbbaf673","2025-09-02_09h34.05.047",NA,NA,578.5952,578.5953,578.5954,578.9441,NA,NA,NA,NA,NA,NA,NA,TRUE,1,0.8904,575.5991,578.5944,NA,NA,NA,NA,NA,30,26,0,29,29,42,1,2,30,"binary"
"E6FBD82DDFCF477286614D9F80D9FE11",1,"01990aa2-1c70-77cd-8a07-dcb4bed240e8","01990a83-7673-7c0c-a792-bbd8fbbaf673","2025-09-02_09h34.05.047",NA,NA,581.945,581.9451,581.9451,582.2935,NA,NA,NA,NA,NA,NA,NA,TRUE,2,0.5005,578.9499,581.944,NA,NA,NA,NA,NA,45,29,0,30,30,55,1,2,31,"binary"
"E6FBD82DDFCF477286614D9F80D9FE11",1,"01990aa2-1c70-77cd-8a07-dcb4bed240e8","01990a83-7673-7c0c-a792-bbd8fbbaf673","2025-09-02_09h34.05.047",NA,NA,585.2938,585.2939,585.2939,585.6428,NA,NA,NA,NA,NA,NA,NA,TRUE,2,0.674,582.2982,585.2929,NA,NA,NA,NA,NA,28,32,0,31,31,38,1,2,32,"binary"
"E6FBD82DDFCF477286614D9F80D9FE11",1,"01990aa2-1c70-77cd-8a07-dcb4bed240e8","01990a83-7673-7c0c-a792-bbd8fbbaf673","2025-09-02_09h34.05.047",NA,NA,588.6431,588.6431,588.6431,588.9919,NA,NA,NA,NA,NA,NA,NA,TRUE,1,0.5991,585.6478,588.642,NA,NA,NA,NA,NA,25,29,0,32,32,31,1,2,33,"binary"
"E6FBD82DDFCF477286614D9F80D9FE11",1,"01990aa2-1c70-77cd-8a07-dcb4bed240e8","01990a83-7673-7c0c-a792-bbd8fbbaf673","2025-09-02_09h34.05.047",NA,NA,591.9927,591.9927,591.9928,592.3418,NA,NA,NA,NA,NA,NA,NA,TRUE,2,0.7553,588.997,591.9918,NA,NA,NA,NA,NA,100,38,0,33,33,86,1,2,34,"binary"
"E6FBD82DDFCF477286614D9F80D9FE11",1,"01990aa2-1c70-77cd-8a07-dcb4bed240e8","01990a83-7673-7c0c-a792-bbd8fbbaf673","2025-09-02_09h34.05.047",NA,NA,595.3419,595.342,595.342,595.6913,NA,NA,NA,NA,NA,NA,NA,TRUE,1,0.8073,592.3468,595.3409,NA,NA,NA,NA,NA,28,26,0,34,34,36,1,2,35,"binary"
"E6FBD82DDFCF477286614D9F80D9FE11",1,"01990aa2-1c70-77cd-8a07-dcb4bed240e8","01990a83-7673-7c0c-a792-bbd8fbbaf673","2025-09-02_09h34.05.047",NA,NA,598.6917,598.6917,598.6918,599.0403,NA,NA,NA,NA,NA,NA,NA,TRUE,2,0.7415,595.6963,598.6907,NA,NA,NA,NA,NA,7,35,0,35,35,5,1,2,36,"binary"
"E6FBD82DDFCF477286614D9F80D9FE11",1,"01990aa2-1c70-77cd-8a07-dcb4bed240e8","01990a83-7673-7c0c-a792-bbd8fbbaf673","2025-09-02_09h34.05.047",NA,NA,602.0407,602.0409,602.0409,602.3895,NA,NA,NA,NA,NA,NA,NA,TRUE,2,0.5753,599.0474,602.0398,NA,NA,NA,NA,NA,40,40,0,36,36,51,1,2,37,"binary"
"E6FBD82DDFCF477286614D9F80D9FE11",1,"01990aa2-1c70-77cd-8a07-dcb4bed240e8","01990a83-7673-7c0c-a792-bbd8fbbaf673","2025-09-02_09h34.05.047",NA,NA,605.407,605.4071,605.4071,605.7555,NA,NA,NA,NA,NA,NA,NA,TRUE,1,0.7904,602.3947,605.4058,NA,NA,NA,NA,NA,10,25,0,37,37,6,1,2,38,"binary"
"E6FBD82DDFCF477286614D9F80D9FE11",1,"01990aa2-1c70-77cd-8a07-dcb4bed240e8","01990a83-7673-7c0c-a792-bbd8fbbaf673","2025-09-02_09h34.05.047",NA,NA,608.756,608.7561,608.7562,609.1051,NA,NA,NA,NA,NA,NA,NA,TRUE,1,0.6846,605.7608,608.755,NA,NA,NA,NA,NA,14,26,0,38,38,19,1,2,39,"binary"
"E6FBD82DDFCF477286614D9F80D9FE11",1,"01990aa2-1c70-77cd-8a07-dcb4bed240e8","01990a83-7673-7c0c-a792-bbd8fbbaf673","2025-09-02_09h34.05.047",NA,NA,612.1053,612.1055,612.1055,612.4544,NA,NA,NA,NA,NA,NA,NA,TRUE,1,0.6,609.1103,612.1043,NA,NA,NA,NA,NA,12,28,0,39,39,14,1,2,40,"binary"
"E6FBD82DDFCF477286614D9F80D9FE11",1,"01990aa2-1c70-77cd-8a07-dcb4bed240e8","01990a83-7673-7c0c-a792-bbd8fbbaf673","2025-09-02_09h34.05.047",NA,NA,615.4549,615.4551,615.4551,615.804,NA,NA,NA,NA,NA,NA,NA,TRUE,2,0.92,612.4597,615.454,NA,NA,NA,NA,NA,150,35,0,40,40,92,1,2,41,"binary"
"E6FBD82DDFCF477286614D9F80D9FE11",1,"01990aa2-1c70-77cd-8a07-dcb4bed240e8","01990a83-7673-7c0c-a792-bbd8fbbaf673","2025-09-02_09h34.05.047",NA,NA,618.8039,618.8041,618.8042,619.153,NA,NA,NA,NA,NA,NA,NA,TRUE,2,1.0347,615.8093,618.8029,NA,NA,NA,NA,NA,40,33,0,41,41,49,1,2,42,"binary"
"E6FBD82DDFCF477286614D9F80D9FE11",1,"01990aa2-1c70-77cd-8a07-dcb4bed240e8","01990a83-7673-7c0c-a792-bbd8fbbaf673","2025-09-02_09h34.05.047",NA,NA,622.1541,622.1546,622.1547,622.5025,NA,NA,NA,NA,NA,NA,NA,TRUE,2,0.8556,619.1586,622.1532,NA,NA,NA,NA,NA,28,39,0,42,42,40,1,2,43,"binary"
"E6FBD82DDFCF477286614D9F80D9FE11",1,"01990aa2-1c70-77cd-8a07-dcb4bed240e8","01990a83-7673-7c0c-a792-bbd8fbbaf673","2025-09-02_09h34.05.047",NA,NA,625.5025,625.5026,625.5027,625.8514,NA,NA,NA,NA,NA,NA,NA,TRUE,1,0.8146,622.5079,625.5016,NA,NA,NA,NA,NA,100,26,0,43,43,84,1,2,44,"binary"
"E6FBD82DDFCF477286614D9F80D9FE11",1,"01990aa2-1c70-77cd-8a07-dcb4bed240e8","01990a83-7673-7c0c-a792-bbd8fbbaf673","2025-09-02_09h34.05.047",NA,NA,628.852,628.8521,628.8522,629.2015,NA,NA,NA,NA,NA,NA,NA,TRUE,2,0.9016,625.8565,628.8511,NA,NA,NA,NA,NA,95,35,0,44,44,80,1,2,45,"binary"
"E6FBD82DDFCF477286614D9F80D9FE11",1,"01990aa2-1c70-77cd-8a07-dcb4bed240e8","01990a83-7673-7c0c-a792-bbd8fbbaf673","2025-09-02_09h34.05.047",NA,NA,632.2011,632.2011,632.2012,632.5505,NA,NA,NA,NA,NA,NA,NA,TRUE,2,0.7351,629.2062,632.2002,NA,NA,NA,NA,NA,90,46,0,45,45,76,1,2,46,"binary"
"E6FBD82DDFCF477286614D9F80D9FE11",1,"01990aa2-1c70-77cd-8a07-dcb4bed240e8","01990a83-7673-7c0c-a792-bbd8fbbaf673","2025-09-02_09h34.05.047",NA,NA,635.5511,635.5512,635.5513,635.8998,NA,NA,NA,NA,NA,NA,NA,TRUE,2,0.6666,632.5553,635.5502,NA,NA,NA,NA,NA,90,30,0,46,46,73,1,2,47,"binary"
"E6FBD82DDFCF477286614D9F80D9FE11",1,"01990aa2-1c70-77cd-8a07-dcb4bed240e8","01990a83-7673-7c0c-a792-bbd8fbbaf673","2025-09-02_09h34.05.047",NA,NA,638.9001,638.9001,638.9001,639.2493,NA,NA,NA,NA,NA,NA,NA,TRUE,2,0.6178,635.9047,638.8992,NA,NA,NA,NA,NA,95,47,0,47,47,82,1,2,48,"binary"
"E6FBD82DDFCF477286614D9F80D9FE11",1,"01990aa2-1c70-77cd-8a07-dcb4bed240e8","01990a83-7673-7c0c-a792-bbd8fbbaf673","2025-09-02_09h34.05.047",NA,NA,642.2493,642.2495,642.2495,642.5983,NA,NA,NA,NA,NA,NA,NA,TRUE,2,0.4966,639.2539,642.2485,NA,NA,NA,NA,NA,100,54,0,48,48,89,1,2,49,"binary"
"E6FBD82DDFCF477286614D9F80D9FE11",1,"01990aa2-1c70-77cd-8a07-dcb4bed240e8","01990a83-7673-7c0c-a792-bbd8fbbaf673","2025-09-02_09h34.05.047",NA,NA,645.5985,645.5985,645.5986,645.9476,NA,NA,NA,NA,NA,NA,NA,TRUE,2,0.9175,642.6027,645.5977,NA,NA,NA,NA,NA,95,31,0,49,49,78,1,2,50,"binary"
"E6FBD82DDFCF477286614D9F80D9FE11",1,"01990aa2-1c70-77cd-8a07-dcb4bed240e8","01990a83-7673-7c0c-a792-bbd8fbbaf673","2025-09-02_09h34.05.047",NA,NA,648.9483,648.9483,648.9483,649.2974,NA,NA,NA,NA,NA,NA,NA,TRUE,2,0.6994,645.9524,648.9474,NA,NA,NA,NA,NA,25,31,0,50,50,32,1,2,51,"binary"
"E6FBD82DDFCF477286614D9F80D9FE11",1,"01990aa2-1c70-77cd-8a07-dcb4bed240e8","01990a83-7673-7c0c-a792-bbd8fbbaf673","2025-09-02_09h34.05.047",NA,NA,652.2974,652.2975,652.2975,652.6465,NA,NA,NA,NA,NA,NA,NA,TRUE,2,0.497,649.3019,652.2965,NA,NA,NA,NA,NA,180,31,0,51,51,97,1,2,52,"binary"
"E6FBD82DDFCF477286614D9F80D9FE11",1,"01990aa2-1c70-77cd-8a07-dcb4bed240e8","01990a83-7673-7c0c-a792-bbd8fbbaf673","2025-09-02_09h34.05.047",NA,NA,655.6471,655.6472,655.6472,655.9961,NA,NA,NA,NA,NA,NA,NA,TRUE,2,0.6297,652.6509,655.6462,NA,NA,NA,NA,NA,25,46,0,52,52,35,1,2,53,"binary"
"E6FBD82DDFCF477286614D9F80D9FE11",1,"01990aa2-1c70-77cd-8a07-dcb4bed240e8","01990a83-7673-7c0c-a792-bbd8fbbaf673","2025-09-02_09h34.05.047",NA,NA,658.9963,658.9964,658.9964,659.3455,NA,NA,NA,NA,NA,NA,NA,TRUE,2,0.6399,656.0011,658.9954,NA,NA,NA,NA,NA,40,35,0,53,53,50,1,2,54,"binary"
"E6FBD82DDFCF477286614D9F80D9FE11",1,"01990aa2-1c70-77cd-8a07-dcb4bed240e8","01990a83-7673-7c0c-a792-bbd8fbbaf673","2025-09-02_09h34.05.047",NA,NA,662.3457,662.3458,662.3459,662.6944,NA,NA,NA,NA,NA,NA,NA,TRUE,2,0.7378,659.3501,662.3449,NA,NA,NA,NA,NA,12,31,0,54,54,15,1,2,55,"binary"
"E6FBD82DDFCF477286614D9F80D9FE11",1,"01990aa2-1c70-77cd-8a07-dcb4bed240e8","01990a83-7673-7c0c-a792-bbd8fbbaf673","2025-09-02_09h34.05.047",NA,NA,665.695,665.6951,665.6951,666.044,NA,NA,NA,NA,NA,NA,NA,TRUE,2,0.5582,662.6993,665.6941,NA,NA,NA,NA,NA,60,35,0,55,55,68,1,2,56,"binary"
"E6FBD82DDFCF477286614D9F80D9FE11",1,"01990aa2-1c70-77cd-8a07-dcb4bed240e8","01990a83-7673-7c0c-a792-bbd8fbbaf673","2025-09-02_09h34.05.047",NA,NA,669.0444,669.0444,669.0445,669.3935,NA,NA,NA,NA,NA,NA,NA,TRUE,2,0.4763,666.0487,669.0434,NA,NA,NA,NA,NA,45,35,0,56,56,57,1,2,57,"binary"
"E6FBD82DDFCF477286614D9F80D9FE11",1,"01990aa2-1c70-77cd-8a07-dcb4bed240e8","01990a83-7673-7c0c-a792-bbd8fbbaf673","2025-09-02_09h34.05.047",NA,NA,672.3941,672.3941,672.3943,672.743,NA,NA,NA,NA,NA,NA,NA,TRUE,1,0.672,669.3985,672.3931,NA,NA,NA,NA,NA,200,26,0,57,57,102,1,2,58,"binary"
"E6FBD82DDFCF477286614D9F80D9FE11",1,"01990aa2-1c70-77cd-8a07-dcb4bed240e8","01990a83-7673-7c0c-a792-bbd8fbbaf673","2025-09-02_09h34.05.047",NA,NA,675.7428,675.7429,675.7429,676.0919,NA,NA,NA,NA,NA,NA,NA,TRUE,2,0.7221,672.7479,675.7419,NA,NA,NA,NA,NA,150,40,0,58,58,93,1,2,59,"binary"
"E6FBD82DDFCF477286614D9F80D9FE11",1,"01990aa2-1c70-77cd-8a07-dcb4bed240e8","01990a83-7673-7c0c-a792-bbd8fbbaf673","2025-09-02_09h34.05.047",NA,NA,679.0926,679.0927,679.0927,679.4418,NA,NA,NA,NA,NA,NA,NA,TRUE,1,0.6079,676.0965,679.0917,NA,NA,NA,NA,NA,45,26,0,59,59,54,1,2,60,"binary"
"E6FBD82DDFCF477286614D9F80D9FE11",1,"01990aa2-1c70-77cd-8a07-dcb4bed240e8","01990a83-7673-7c0c-a792-bbd8fbbaf673","2025-09-02_09h34.05.047",NA,NA,682.4421,682.4422,682.4422,682.791,NA,NA,NA,NA,NA,NA,NA,TRUE,2,0.7225,679.4463,682.4412,NA,NA,NA,NA,NA,14,39,0,60,60,23,1,2,61,"binary"
"E6FBD82DDFCF477286614D9F80D9FE11",1,"01990aa2-1c70-77cd-8a07-dcb4bed240e8","01990a83-7673-7c0c-a792-bbd8fbbaf673","2025-09-02_09h34.05.047",NA,NA,685.7915,685.7916,685.7917,686.1404,NA,NA,NA,NA,NA,NA,NA,TRUE,2,0.5422,682.7956,685.7906,NA,NA,NA,NA,NA,60,47,0,61,61,70,1,2,62,"binary"
"E6FBD82DDFCF477286614D9F80D9FE11",1,"01990aa2-1c70-77cd-8a07-dcb4bed240e8","01990a83-7673-7c0c-a792-bbd8fbbaf673","2025-09-02_09h34.05.047",NA,NA,689.1407,689.1408,689.1408,689.4894,NA,NA,NA,NA,NA,NA,NA,TRUE,2,0.6114,686.1457,689.1399,NA,NA,NA,NA,NA,50,54,0,62,62,65,1,2,63,"binary"
"E6FBD82DDFCF477286614D9F80D9FE11",1,"01990aa2-1c70-77cd-8a07-dcb4bed240e8","01990a83-7673-7c0c-a792-bbd8fbbaf673","2025-09-02_09h34.05.047",NA,NA,692.4908,692.4908,692.4911,692.8557,NA,NA,NA,NA,NA,NA,NA,TRUE,2,0.5967,689.4944,692.49,NA,NA,NA,NA,NA,180,35,0,63,63,98,1,2,64,"binary"
"E6FBD82DDFCF477286614D9F80D9FE11",1,"01990aa2-1c70-77cd-8a07-dcb4bed240e8","01990a83-7673-7c0c-a792-bbd8fbbaf673","2025-09-02_09h34.05.047",NA,NA,695.8562,695.8563,695.8564,696.2051,NA,NA,NA,NA,NA,NA,NA,TRUE,1,0.8026,692.8604,695.8553,NA,NA,NA,NA,NA,21,26,0,64,64,24,1,2,65,"binary"
"E6FBD82DDFCF477286614D9F80D9FE11",1,"01990aa2-1c70-77cd-8a07-dcb4bed240e8","01990a83-7673-7c0c-a792-bbd8fbbaf673","2025-09-02_09h34.05.047",NA,NA,699.2054,699.2055,699.2056,699.5541,NA,NA,NA,NA,NA,NA,NA,TRUE,1,0.6373,696.2098,699.2044,NA,NA,NA,NA,NA,21,30,0,65,65,27,1,2,66,"binary"
"E6FBD82DDFCF477286614D9F80D9FE11",1,"01990aa2-1c70-77cd-8a07-dcb4bed240e8","01990a83-7673-7c0c-a792-bbd8fbbaf673","2025-09-02_09h34.05.047",NA,NA,702.557,702.5573,702.5573,702.9038,NA,NA,NA,NA,NA,NA,NA,TRUE,2,0.7142,699.562,702.5537,NA,NA,NA,NA,NA,28,46,0,66,66,41,1,2,67,"binary"
"E6FBD82DDFCF477286614D9F80D9FE11",1,"01990aa2-1c70-77cd-8a07-dcb4bed240e8","01990a83-7673-7c0c-a792-bbd8fbbaf673","2025-09-02_09h34.05.047",NA,NA,705.9041,705.9043,705.9043,706.2533,NA,NA,NA,NA,NA,NA,NA,TRUE,1,0.7521,702.9092,705.9031,NA,NA,NA,NA,NA,7,26,0,67,67,1,1,2,68,"binary"
"E6FBD82DDFCF477286614D9F80D9FE11",1,"01990aa2-1c70-77cd-8a07-dcb4bed240e8","01990a83-7673-7c0c-a792-bbd8fbbaf673","2025-09-02_09h34.05.047",NA,NA,709.2536,709.2536,709.2538,709.6026,NA,NA,NA,NA,NA,NA,NA,TRUE,1,0.6984,706.2587,709.2527,NA,NA,NA,NA,NA,7,30,0,68,68,3,1,2,69,"binary"
"E6FBD82DDFCF477286614D9F80D9FE11",1,"01990aa2-1c70-77cd-8a07-dcb4bed240e8","01990a83-7673-7c0c-a792-bbd8fbbaf673","2025-09-02_09h34.05.047",NA,NA,712.603,712.6031,712.6031,712.9515,NA,NA,NA,NA,NA,NA,NA,TRUE,2,0.8319,709.6073,712.602,NA,NA,NA,NA,NA,180,39,0,69,69,99,1,2,70,"binary"
"E6FBD82DDFCF477286614D9F80D9FE11",1,"01990aa2-1c70-77cd-8a07-dcb4bed240e8","01990a83-7673-7c0c-a792-bbd8fbbaf673","2025-09-02_09h34.05.047",NA,NA,715.9524,715.9527,715.9527,716.3011,NA,NA,NA,NA,NA,NA,NA,TRUE,2,0.6333,712.9563,715.9514,NA,NA,NA,NA,NA,40,47,0,70,70,52,1,2,71,"binary"
"E6FBD82DDFCF477286614D9F80D9FE11",1,"01990aa2-1c70-77cd-8a07-dcb4bed240e8","01990a83-7673-7c0c-a792-bbd8fbbaf673","2025-09-02_09h34.05.047",NA,NA,719.3015,719.3016,719.3016,719.6508,NA,NA,NA,NA,NA,NA,NA,TRUE,1,0.6182,716.3058,719.3006,NA,NA,NA,NA,NA,180,27,0,71,71,96,1,2,72,"binary"
"E6FBD82DDFCF477286614D9F80D9FE11",1,"01990aa2-1c70-77cd-8a07-dcb4bed240e8","01990a83-7673-7c0c-a792-bbd8fbbaf673","2025-09-02_09h34.05.047",NA,NA,722.651,722.6511,722.6511,722.9998,NA,NA,NA,NA,NA,NA,NA,TRUE,1,0.7504,719.6554,722.6501,NA,NA,NA,NA,NA,50,30,0,72,72,61,1,2,73,"binary"
"E6FBD82DDFCF477286614D9F80D9FE11",1,"01990aa2-1c70-77cd-8a07-dcb4bed240e8","01990a83-7673-7c0c-a792-bbd8fbbaf673","2025-09-02_09h34.05.047",NA,NA,726.0004,726.0004,726.0004,726.3491,NA,NA,NA,NA,NA,NA,NA,TRUE,2,0.9419,723.0049,725.9995,NA,NA,NA,NA,NA,12,33,0,73,73,16,1,2,74,"binary"
"E6FBD82DDFCF477286614D9F80D9FE11",1,"01990aa2-1c70-77cd-8a07-dcb4bed240e8","01990a83-7673-7c0c-a792-bbd8fbbaf673","2025-09-02_09h34.05.047",NA,NA,729.3499,729.3501,729.3501,729.6986,NA,NA,NA,NA,NA,NA,NA,TRUE,1,0.5516,726.3539,729.3488,NA,NA,NA,NA,NA,7,32,0,74,74,4,1,2,75,"binary"
"E6FBD82DDFCF477286614D9F80D9FE11",1,"01990aa2-1c70-77cd-8a07-dcb4bed240e8","01990a83-7673-7c0c-a792-bbd8fbbaf673","2025-09-02_09h34.05.047",NA,NA,732.699,732.6992,732.6992,733.048,NA,NA,NA,NA,NA,NA,NA,TRUE,2,0.852,729.7039,732.6979,NA,NA,NA,NA,NA,28,35,0,75,75,39,1,2,76,"binary"
"E6FBD82DDFCF477286614D9F80D9FE11",1,"01990aa2-1c70-77cd-8a07-dcb4bed240e8","01990a83-7673-7c0c-a792-bbd8fbbaf673","2025-09-02_09h34.05.047",NA,NA,736.0482,736.0482,736.0483,736.3974,NA,NA,NA,NA,NA,NA,NA,TRUE,1,0.7049,733.053,736.0473,NA,NA,NA,NA,NA,100,31,0,76,76,85,1,2,77,"binary"
"E6FBD82DDFCF477286614D9F80D9FE11",1,"01990aa2-1c70-77cd-8a07-dcb4bed240e8","01990a83-7673-7c0c-a792-bbd8fbbaf673","2025-09-02_09h34.05.047",NA,NA,739.3978,739.3978,739.3979,739.7469,NA,NA,NA,NA,NA,NA,NA,TRUE,1,0.6353,736.4019,739.3969,NA,NA,NA,NA,NA,10,29,0,77,77,9,1,2,78,"binary"
"E6FBD82DDFCF477286614D9F80D9FE11",1,"01990aa2-1c70-77cd-8a07-dcb4bed240e8","01990a83-7673-7c0c-a792-bbd8fbbaf673","2025-09-02_09h34.05.047",NA,NA,742.7474,742.7474,742.7475,743.096,NA,NA,NA,NA,NA,NA,NA,TRUE,2,0.8257,739.7517,742.7464,NA,NA,NA,NA,NA,100,39,0,78,78,87,1,2,79,"binary"
"E6FBD82DDFCF477286614D9F80D9FE11",1,"01990aa2-1c70-77cd-8a07-dcb4bed240e8","01990a83-7673-7c0c-a792-bbd8fbbaf673","2025-09-02_09h34.05.047",NA,NA,746.1057,746.1058,746.1058,746.4545,NA,NA,NA,NA,NA,NA,NA,TRUE,1,0.8289,743.1012,746.1046,NA,NA,NA,NA,NA,10,32,0,79,79,11,1,2,80,"binary"
"E6FBD82DDFCF477286614D9F80D9FE11",1,"01990aa2-1c70-77cd-8a07-dcb4bed240e8","01990a83-7673-7c0c-a792-bbd8fbbaf673","2025-09-02_09h34.05.047",NA,NA,749.4548,749.4551,749.4552,749.8018,NA,NA,NA,NA,NA,NA,NA,TRUE,2,0.7219,746.4596,749.454,NA,NA,NA,NA,NA,12,35,0,80,80,17,1,2,81,"binary"
"E6FBD82DDFCF477286614D9F80D9FE11",1,"01990aa2-1c70-77cd-8a07-dcb4bed240e8","01990a83-7673-7c0c-a792-bbd8fbbaf673","2025-09-02_09h34.05.047",NA,NA,752.8029,752.8031,752.8032,753.1496,NA,NA,NA,NA,NA,NA,NA,TRUE,1,0.8881,749.8066,752.8019,NA,NA,NA,NA,NA,90,26,0,81,81,72,1,2,82,"binary"
"E6FBD82DDFCF477286614D9F80D9FE11",1,"01990aa2-1c70-77cd-8a07-dcb4bed240e8","01990a83-7673-7c0c-a792-bbd8fbbaf673","2025-09-02_09h34.05.047",NA,NA,756.1517,756.1518,756.1518,756.5015,NA,NA,NA,NA,NA,NA,NA,TRUE,2,0.6686,753.1522,756.1506,NA,NA,NA,NA,NA,200,35,0,82,82,104,1,2,83,"binary"
"E6FBD82DDFCF477286614D9F80D9FE11",1,"01990aa2-1c70-77cd-8a07-dcb4bed240e8","01990a83-7673-7c0c-a792-bbd8fbbaf673","2025-09-02_09h34.05.047",NA,NA,759.5032,759.5034,759.5034,759.8519,NA,NA,NA,NA,NA,NA,NA,TRUE,2,0.7242,756.5057,759.5021,NA,NA,NA,NA,NA,25,33,0,83,83,33,1,2,84,"binary"
"E6FBD82DDFCF477286614D9F80D9FE11",1,"01990aa2-1c70-77cd-8a07-dcb4bed240e8","01990a83-7673-7c0c-a792-bbd8fbbaf673","2025-09-02_09h34.05.047",NA,NA,762.8424,762.8424,762.8424,763.192,NA,NA,NA,NA,NA,NA,NA,TRUE,1,0.7593,759.8575,762.8422,NA,NA,NA,NA,NA,200,28,0,84,84,103,1,2,85,"binary"
"E6FBD82DDFCF477286614D9F80D9FE11",1,"01990aa2-1c70-77cd-8a07-dcb4bed240e8","01990a83-7673-7c0c-a792-bbd8fbbaf673","2025-09-02_09h34.05.047",NA,NA,766.1941,766.1941,766.1942,766.5436,NA,NA,NA,NA,NA,NA,NA,TRUE,2,1.1531,763.1941,766.1936,NA,NA,NA,NA,NA,95,33,0,85,85,79,1,2,86,"binary"
"E6FBD82DDFCF477286614D9F80D9FE11",1,"01990aa2-1c70-77cd-8a07-dcb4bed240e8","01990a83-7673-7c0c-a792-bbd8fbbaf673","2025-09-02_09h34.05.047",NA,NA,769.5433,769.5435,769.5435,769.8929,NA,NA,NA,NA,NA,NA,NA,TRUE,2,0.8729,766.5484,769.543,NA,NA,NA,NA,NA,150,31,0,86,86,90,1,2,87,"binary"
"E6FBD82DDFCF477286614D9F80D9FE11",1,"01990aa2-1c70-77cd-8a07-dcb4bed240e8","01990a83-7673-7c0c-a792-bbd8fbbaf673","2025-09-02_09h34.05.047",NA,NA,772.8985,772.8986,772.8986,773.2465,NA,NA,NA,NA,NA,NA,NA,TRUE,2,0.5589,769.8975,772.8976,NA,NA,NA,NA,NA,100,46,0,87,87,88,1,2,88,"binary"
"E6FBD82DDFCF477286614D9F80D9FE11",1,"01990aa2-1c70-77cd-8a07-dcb4bed240e8","01990a83-7673-7c0c-a792-bbd8fbbaf673","2025-09-02_09h34.05.047",NA,NA,776.25,776.2501,776.2501,776.5976,NA,NA,NA,NA,NA,NA,NA,TRUE,2,0.6189,773.2512,776.249,NA,NA,NA,NA,NA,40,54,0,88,88,53,1,2,89,"binary"
"E6FBD82DDFCF477286614D9F80D9FE11",1,"01990aa2-1c70-77cd-8a07-dcb4bed240e8","01990a83-7673-7c0c-a792-bbd8fbbaf673","2025-09-02_09h34.05.047",NA,NA,779.5995,779.5996,779.5996,779.9466,NA,NA,NA,NA,NA,NA,NA,TRUE,1,0.7947,776.6001,779.5984,NA,NA,NA,NA,NA,12,26,0,89,89,13,1,2,90,"binary"
"E6FBD82DDFCF477286614D9F80D9FE11",1,"01990aa2-1c70-77cd-8a07-dcb4bed240e8","01990a83-7673-7c0c-a792-bbd8fbbaf673","2025-09-02_09h34.05.047",NA,NA,782.9444,782.9444,782.9446,783.297,NA,NA,NA,NA,NA,NA,NA,TRUE,2,1.032,779.9525,782.9436,NA,NA,NA,NA,NA,45,31,0,90,90,56,1,2,91,"binary"
"E6FBD82DDFCF477286614D9F80D9FE11",1,"01990aa2-1c70-77cd-8a07-dcb4bed240e8","01990a83-7673-7c0c-a792-bbd8fbbaf673","2025-09-02_09h34.05.047",NA,NA,786.2956,786.2957,786.2957,786.6454,NA,NA,NA,NA,NA,NA,NA,TRUE,2,0.6942,783.3017,786.2951,NA,NA,NA,NA,NA,60,40,0,91,91,69,1,2,92,"binary"
"E6FBD82DDFCF477286614D9F80D9FE11",1,"01990aa2-1c70-77cd-8a07-dcb4bed240e8","01990a83-7673-7c0c-a792-bbd8fbbaf673","2025-09-02_09h34.05.047",NA,NA,789.647,789.6471,789.6471,789.9943,NA,NA,NA,NA,NA,NA,NA,TRUE,2,0.7536,786.6479,789.6461,NA,NA,NA,NA,NA,14,32,0,92,92,21,1,2,93,"binary"
"E6FBD82DDFCF477286614D9F80D9FE11",1,"01990aa2-1c70-77cd-8a07-dcb4bed240e8","01990a83-7673-7c0c-a792-bbd8fbbaf673","2025-09-02_09h34.05.047",NA,NA,793.0029,793.0031,793.0031,793.3524,NA,NA,NA,NA,NA,NA,NA,TRUE,2,0.4885,789.9968,793.0025,NA,NA,NA,NA,NA,50,46,0,93,93,64,1,2,94,"binary"
"E6FBD82DDFCF477286614D9F80D9FE11",1,"01990aa2-1c70-77cd-8a07-dcb4bed240e8","01990a83-7673-7c0c-a792-bbd8fbbaf673","2025-09-02_09h34.05.047",NA,NA,796.3558,796.3558,796.3559,796.7072,NA,NA,NA,NA,NA,NA,NA,TRUE,1,0.9178,793.3553,796.3552,NA,NA,NA,NA,NA,30,29,0,94,94,44,1,2,95,"binary"
"E6FBD82DDFCF477286614D9F80D9FE11",1,"01990aa2-1c70-77cd-8a07-dcb4bed240e8","01990a83-7673-7c0c-a792-bbd8fbbaf673","2025-09-02_09h34.05.047",NA,NA,799.702,799.702,799.702,800.0519,NA,NA,NA,NA,NA,NA,NA,TRUE,1,0.8406,796.7103,799.7018,NA,NA,NA,NA,NA,21,27,0,95,95,25,1,2,96,"binary"
"E6FBD82DDFCF477286614D9F80D9FE11",1,"01990aa2-1c70-77cd-8a07-dcb4bed240e8","01990a83-7673-7c0c-a792-bbd8fbbaf673","2025-09-02_09h34.05.047",NA,NA,803.0276,803.0276,803.0277,803.3962,NA,NA,NA,NA,NA,NA,NA,TRUE,1,0.6486,800.0547,803.0269,NA,NA,NA,NA,NA,7,28,0,96,96,2,1,2,97,"binary"
"E6FBD82DDFCF477286614D9F80D9FE11",1,"01990aa2-1c70-77cd-8a07-dcb4bed240e8","01990a83-7673-7c0c-a792-bbd8fbbaf673","2025-09-02_09h34.05.047",NA,NA,806.4005,806.4006,806.4006,806.7497,NA,NA,NA,NA,NA,NA,NA,TRUE,1,0.6398,803.3993,806.3999,NA,NA,NA,NA,NA,10,27,0,97,97,8,1,2,98,"binary"
"E6FBD82DDFCF477286614D9F80D9FE11",1,"01990aa2-1c70-77cd-8a07-dcb4bed240e8","01990a83-7673-7c0c-a792-bbd8fbbaf673","2025-09-02_09h34.05.047",NA,NA,809.75,809.7502,809.7502,810.099,NA,NA,NA,NA,NA,NA,NA,TRUE,2,1.5687,806.7528,809.7494,NA,NA,NA,NA,NA,60,33,0,98,98,67,1,2,99,"binary"
"E6FBD82DDFCF477286614D9F80D9FE11",1,"01990aa2-1c70-77cd-8a07-dcb4bed240e8","01990a83-7673-7c0c-a792-bbd8fbbaf673","2025-09-02_09h34.05.047",NA,NA,813.0996,813.0997,813.0998,813.4493,NA,NA,NA,NA,NA,NA,NA,TRUE,2,0.8538,810.1022,813.0995,NA,NA,NA,NA,NA,200,47,0,99,99,106,1,2,100,"binary"
"E6FBD82DDFCF477286614D9F80D9FE11",1,"01990aa2-1c70-77cd-8a07-dcb4bed240e8","01990a83-7673-7c0c-a792-bbd8fbbaf673","2025-09-02_09h34.05.047",NA,NA,816.447,816.4471,816.4471,816.7951,NA,NA,NA,NA,NA,NA,NA,TRUE,1,1.2044,813.4516,816.4464,NA,NA,NA,NA,NA,10,26,0,100,100,7,1,2,101,"binary"
"E6FBD82DDFCF477286614D9F80D9FE11",1,"01990aa2-1c70-77cd-8a07-dcb4bed240e8","01990a83-7673-7c0c-a792-bbd8fbbaf673","2025-09-02_09h34.05.047",NA,NA,819.7871,819.7873,819.7873,820.1511,NA,NA,NA,NA,NA,NA,NA,TRUE,2,1.136,816.7987,819.7866,NA,NA,NA,NA,NA,14,35,0,101,101,22,1,2,102,"binary"
"E6FBD82DDFCF477286614D9F80D9FE11",1,"01990aa2-1c70-77cd-8a07-dcb4bed240e8","01990a83-7673-7c0c-a792-bbd8fbbaf673","2025-09-02_09h34.05.047",NA,NA,823.1434,823.1434,823.1435,823.4996,NA,NA,NA,NA,NA,NA,NA,TRUE,2,1.7296,820.1543,823.1429,NA,NA,NA,NA,NA,30,38,0,102,102,47,1,2,103,"binary"
"E6FBD82DDFCF477286614D9F80D9FE11",1,"01990aa2-1c70-77cd-8a07-dcb4bed240e8","01990a83-7673-7c0c-a792-bbd8fbbaf673","2025-09-02_09h34.05.047",NA,NA,826.4914,826.4914,826.4914,826.8313,NA,NA,NA,NA,NA,NA,NA,TRUE,1,1.1101,823.5029,826.4908,NA,NA,NA,NA,NA,7,25,0,103,103,0,1,2,104,"binary"
"E6FBD82DDFCF477286614D9F80D9FE11",1,"01990aa2-1c70-77cd-8a07-dcb4bed240e8","01990a83-7673-7c0c-a792-bbd8fbbaf673","2025-09-02_09h34.05.047",NA,NA,829.8304,829.8305,829.8305,830.1967,NA,NA,NA,NA,NA,NA,NA,TRUE,2,0.6416,826.8344,829.8298,NA,NA,NA,NA,NA,45,40,0,104,104,58,1,2,105,"binary"
"E6FBD82DDFCF477286614D9F80D9FE11",1,"01990aa2-1c70-77cd-8a07-dcb4bed240e8","01990a83-7673-7c0c-a792-bbd8fbbaf673","2025-09-02_09h34.05.047",NA,NA,833.1882,833.1882,833.1882,833.553,NA,NA,NA,NA,NA,NA,NA,TRUE,2,0.5562,830.1998,833.1879,NA,NA,NA,NA,NA,25,35,0,105,105,34,1,2,106,"binary"
"E6FBD82DDFCF477286614D9F80D9FE11",1,"01990aa2-1c70-77cd-8a07-dcb4bed240e8","01990a83-7673-7c0c-a792-bbd8fbbaf673","2025-09-02_09h34.05.047",NA,NA,836.5589,836.559,836.559,836.9041,NA,NA,NA,NA,NA,NA,NA,TRUE,1,0.6907,833.5563,836.5583,NA,NA,NA,NA,NA,12,25,0,106,106,12,1,2,107,"binary"
"E6FBD82DDFCF477286614D9F80D9FE11",1,"01990aa2-1c70-77cd-8a07-dcb4bed240e8","01990a83-7673-7c0c-a792-bbd8fbbaf673","2025-09-02_09h34.05.047",NA,NA,839.8917,839.8918,839.8918,840.2455,NA,NA,NA,NA,NA,NA,NA,TRUE,1,0.8259,836.9071,839.8913,NA,NA,NA,NA,NA,28,28,0,107,107,37,1,2,108,"binary"
