"participant","session","assignmentId","projectId","date","practiceTrial.started","practiceTrial.stopped","tooLate.started","tooLate.stopped","blank.started","blank.stopped","trials_pract.thisRepN","trials_pract.thisTrialN","trials_pract.thisN","trials_pract.thisIndex","trials_pract.ran","delay_pract","amount_pract","responseMade","key","rt","trial.started","trial.stopped","trials.thisRepN","trials.thisTrialN","trials.thisN","trials.thisIndex","trials.ran","delay","amount","trials_2.thisRepN","trials_2.thisTrialN","trials_2.thisN","trials_2.thisIndex","trials_2.ran","block","trial","taskType"
"E8454A56D9AC4EA0ABBBFB0320FBD547",1,"01990aa6-4ae6-72ee-8968-3b60f857f18b","01990a83-7673-7c0c-a792-bbd8fbbaf673","2025-09-02_06h38.36.733",47.0962,50.0592,50.062,50.3109,50.3114,50.4087,0,0,0,2,1,14,45,FALSE,NA,NA,NA,NA,NA,NA,NA,NA,NA,NA,NA,NA,NA,NA,NA,NA,0,1,"binary"
"E8454A56D9AC4EA0ABBBFB0320FBD547",1,"01990aa6-4ae6-72ee-8968-3b60f857f18b","01990a83-7673-7c0c-a792-bbd8fbbaf673","2025-09-02_06h38.36.733",50.4156,53.3911,53.3918,53.3919,53.3919,53.7732,0,1,1,3,1,3,27,TRUE,2,0.7925,NA,NA,NA,NA,NA,NA,NA,NA,NA,NA,NA,NA,NA,NA,0,2,"binary"
"E8454A56D9AC4EA0ABBBFB0320FBD547",1,"01990aa6-4ae6-72ee-8968-3b60f857f18b","01990a83-7673-7c0c-a792-bbd8fbbaf673","2025-09-02_06h38.36.733",53.7792,56.7523,56.7535,56.7538,56.7538,57.1163,0,2,2,4,1,30,40,TRUE,1,2.3676,NA,NA,NA,NA,NA,NA,NA,NA,NA,NA,NA,NA,NA,NA,0,3,"binary"
"E8454A56D9AC4EA0ABBBFB0320FBD547",1,"01990aa6-4ae6-72ee-8968-3b60f857f18b","01990a83-7673-7c0c-a792-bbd8fbbaf673","2025-09-02_06h38.36.733",57.1221,60.1001,60.1012,60.1013,60.1013,60.4535,0,3,3,1,1,100,50,TRUE,2,1.8116,NA,NA,NA,NA,NA,NA,NA,NA,NA,NA,NA,NA,NA,NA,0,4,"binary"
"E8454A56D9AC4EA0ABBBFB0320FBD547",1,"01990aa6-4ae6-72ee-8968-3b60f857f18b","01990a83-7673-7c0c-a792-bbd8fbbaf673","2025-09-02_06h38.36.733",60.4587,63.4511,63.4516,63.4517,63.4517,63.8062,0,4,4,0,1,7,30,TRUE,1,2.0879,NA,NA,NA,NA,NA,NA,NA,NA,NA,NA,NA,NA,NA,NA,0,5,"binary"
"E8454A56D9AC4EA0ABBBFB0320FBD547",1,"01990aa6-4ae6-72ee-8968-3b60f857f18b","01990a83-7673-7c0c-a792-bbd8fbbaf673","2025-09-02_06h38.36.733",NA,NA,89.6262,89.8686,89.869,89.9545,NA,NA,NA,NA,NA,NA,NA,FALSE,NA,NA,86.6833,89.6243,0,0,0,93,1,150,40,NA,NA,NA,NA,NA,1,1,"binary"
"E8454A56D9AC4EA0ABBBFB0320FBD547",1,"01990aa6-4ae6-72ee-8968-3b60f857f18b","01990a83-7673-7c0c-a792-bbd8fbbaf673","2025-09-02_06h38.36.733",NA,NA,92.9749,92.975,92.9751,93.3169,NA,NA,NA,NA,NA,NA,NA,TRUE,1,1.2563,89.9618,92.9738,0,1,1,73,1,90,30,NA,NA,NA,NA,NA,1,2,"binary"
"E8454A56D9AC4EA0ABBBFB0320FBD547",1,"01990aa6-4ae6-72ee-8968-3b60f857f18b","01990a83-7673-7c0c-a792-bbd8fbbaf673","2025-09-02_06h38.36.733",NA,NA,96.3154,96.3154,96.3155,96.6725,NA,NA,NA,NA,NA,NA,NA,TRUE,2,1.3014,93.3223,96.3145,0,2,2,17,1,12,35,NA,NA,NA,NA,NA,1,3,"binary"
"E8454A56D9AC4EA0ABBBFB0320FBD547",1,"01990aa6-4ae6-72ee-8968-3b60f857f18b","01990a83-7673-7c0c-a792-bbd8fbbaf673","2025-09-02_06h38.36.733",NA,NA,99.6837,99.6839,99.684,100.0334,NA,NA,NA,NA,NA,NA,NA,TRUE,1,1.3634,96.6761,99.6829,0,3,3,63,1,50,40,NA,NA,NA,NA,NA,1,4,"binary"
"E8454A56D9AC4EA0ABBBFB0320FBD547",1,"01990aa6-4ae6-72ee-8968-3b60f857f18b","01990a83-7673-7c0c-a792-bbd8fbbaf673","2025-09-02_06h38.36.733",NA,NA,103.0026,103.0026,103.0026,103.3707,NA,NA,NA,NA,NA,NA,NA,TRUE,1,0.9148,100.0394,103.0017,0,4,4,62,1,50,35,NA,NA,NA,NA,NA,1,5,"binary"
"E8454A56D9AC4EA0ABBBFB0320FBD547",1,"01990aa6-4ae6-72ee-8968-3b60f857f18b","01990a83-7673-7c0c-a792-bbd8fbbaf673","2025-09-02_06h38.36.733",NA,NA,106.3565,106.3566,106.3567,106.7166,NA,NA,NA,NA,NA,NA,NA,TRUE,1,0.884,103.3769,106.3553,0,5,5,75,1,90,40,NA,NA,NA,NA,NA,1,6,"binary"
"E8454A56D9AC4EA0ABBBFB0320FBD547",1,"01990aa6-4ae6-72ee-8968-3b60f857f18b","01990a83-7673-7c0c-a792-bbd8fbbaf673","2025-09-02_06h38.36.733",NA,NA,109.7273,109.7274,109.7274,110.0601,NA,NA,NA,NA,NA,NA,NA,TRUE,1,0.9511,106.7253,109.7265,0,6,6,36,1,28,26,NA,NA,NA,NA,NA,1,7,"binary"
"E8454A56D9AC4EA0ABBBFB0320FBD547",1,"01990aa6-4ae6-72ee-8968-3b60f857f18b","01990a83-7673-7c0c-a792-bbd8fbbaf673","2025-09-02_06h38.36.733",NA,NA,113.0678,113.0681,113.0683,113.4182,NA,NA,NA,NA,NA,NA,NA,TRUE,1,0.8012,110.0641,113.0667,0,7,7,78,1,95,31,NA,NA,NA,NA,NA,1,8,"binary"
"E8454A56D9AC4EA0ABBBFB0320FBD547",1,"01990aa6-4ae6-72ee-8968-3b60f857f18b","01990a83-7673-7c0c-a792-bbd8fbbaf673","2025-09-02_06h38.36.733",NA,NA,116.4062,116.4063,116.4064,116.7676,NA,NA,NA,NA,NA,NA,NA,TRUE,1,0.8682,113.4238,116.405,0,8,8,42,1,30,26,NA,NA,NA,NA,NA,1,9,"binary"
"E8454A56D9AC4EA0ABBBFB0320FBD547",1,"01990aa6-4ae6-72ee-8968-3b60f857f18b","01990a83-7673-7c0c-a792-bbd8fbbaf673","2025-09-02_06h38.36.733",NA,NA,119.753,119.7531,119.7532,120.1019,NA,NA,NA,NA,NA,NA,NA,TRUE,1,0.8287,116.7731,119.752,0,9,9,7,1,10,26,NA,NA,NA,NA,NA,1,10,"binary"
"E8454A56D9AC4EA0ABBBFB0320FBD547",1,"01990aa6-4ae6-72ee-8968-3b60f857f18b","01990a83-7673-7c0c-a792-bbd8fbbaf673","2025-09-02_06h38.36.733",NA,NA,123.1045,123.1046,123.1046,123.4792,NA,NA,NA,NA,NA,NA,NA,TRUE,1,1.0699,120.1067,123.1033,0,10,10,22,1,14,35,NA,NA,NA,NA,NA,1,11,"binary"
"E8454A56D9AC4EA0ABBBFB0320FBD547",1,"01990aa6-4ae6-72ee-8968-3b60f857f18b","01990a83-7673-7c0c-a792-bbd8fbbaf673","2025-09-02_06h38.36.733",NA,NA,126.4644,126.4644,126.4644,126.8164,NA,NA,NA,NA,NA,NA,NA,TRUE,1,0.9209,123.4859,126.4638,0,11,11,2,1,7,28,NA,NA,NA,NA,NA,1,12,"binary"
"E8454A56D9AC4EA0ABBBFB0320FBD547",1,"01990aa6-4ae6-72ee-8968-3b60f857f18b","01990a83-7673-7c0c-a792-bbd8fbbaf673","2025-09-02_06h38.36.733",NA,NA,129.8184,129.8186,129.8186,130.18,NA,NA,NA,NA,NA,NA,NA,TRUE,2,1.5266,126.8217,129.8172,0,12,12,4,1,7,32,NA,NA,NA,NA,NA,1,13,"binary"
"E8454A56D9AC4EA0ABBBFB0320FBD547",1,"01990aa6-4ae6-72ee-8968-3b60f857f18b","01990a83-7673-7c0c-a792-bbd8fbbaf673","2025-09-02_06h38.36.733",NA,NA,133.18,133.1803,133.1804,133.5275,NA,NA,NA,NA,NA,NA,NA,TRUE,1,0.8784,130.1861,133.1783,0,13,13,45,1,30,30,NA,NA,NA,NA,NA,1,14,"binary"
"E8454A56D9AC4EA0ABBBFB0320FBD547",1,"01990aa6-4ae6-72ee-8968-3b60f857f18b","01990a83-7673-7c0c-a792-bbd8fbbaf673","2025-09-02_06h38.36.733",NA,NA,136.5197,136.5198,136.5198,136.8715,NA,NA,NA,NA,NA,NA,NA,TRUE,2,1.4418,133.5307,136.5184,0,14,14,35,1,25,46,NA,NA,NA,NA,NA,1,15,"binary"
"E8454A56D9AC4EA0ABBBFB0320FBD547",1,"01990aa6-4ae6-72ee-8968-3b60f857f18b","01990a83-7673-7c0c-a792-bbd8fbbaf673","2025-09-02_06h38.36.733",NA,NA,139.8697,139.8698,139.8698,140.2139,NA,NA,NA,NA,NA,NA,NA,TRUE,1,0.8544,136.8773,139.8684,0,15,15,32,1,25,31,NA,NA,NA,NA,NA,1,16,"binary"
"E8454A56D9AC4EA0ABBBFB0320FBD547",1,"01990aa6-4ae6-72ee-8968-3b60f857f18b","01990a83-7673-7c0c-a792-bbd8fbbaf673","2025-09-02_06h38.36.733",NA,NA,143.2163,143.2165,143.2165,143.5639,NA,NA,NA,NA,NA,NA,NA,TRUE,1,1.4375,140.2196,143.216,0,16,16,71,1,60,54,NA,NA,NA,NA,NA,1,17,"binary"
"E8454A56D9AC4EA0ABBBFB0320FBD547",1,"01990aa6-4ae6-72ee-8968-3b60f857f18b","01990a83-7673-7c0c-a792-bbd8fbbaf673","2025-09-02_06h38.36.733",NA,NA,146.5719,146.5719,146.572,146.9159,NA,NA,NA,NA,NA,NA,NA,TRUE,1,1.8846,143.5698,146.5706,0,17,17,88,1,100,46,NA,NA,NA,NA,NA,1,18,"binary"
"E8454A56D9AC4EA0ABBBFB0320FBD547",1,"01990aa6-4ae6-72ee-8968-3b60f857f18b","01990a83-7673-7c0c-a792-bbd8fbbaf673","2025-09-02_06h38.36.733",NA,NA,149.9299,149.9301,149.9302,150.2842,NA,NA,NA,NA,NA,NA,NA,TRUE,1,1.0544,146.9221,149.9287,0,18,18,89,1,100,54,NA,NA,NA,NA,NA,1,19,"binary"
"E8454A56D9AC4EA0ABBBFB0320FBD547",1,"01990aa6-4ae6-72ee-8968-3b60f857f18b","01990a83-7673-7c0c-a792-bbd8fbbaf673","2025-09-02_06h38.36.733",NA,NA,153.2544,153.2544,153.2545,153.6282,NA,NA,NA,NA,NA,NA,NA,TRUE,1,0.9366,150.2907,153.2532,0,19,19,47,1,30,38,NA,NA,NA,NA,NA,1,20,"binary"
"E8454A56D9AC4EA0ABBBFB0320FBD547",1,"01990aa6-4ae6-72ee-8968-3b60f857f18b","01990a83-7673-7c0c-a792-bbd8fbbaf673","2025-09-02_06h38.36.733",NA,NA,156.6194,156.6196,156.6196,156.9669,NA,NA,NA,NA,NA,NA,NA,TRUE,1,1.427,153.6349,156.6178,0,20,20,6,1,10,25,NA,NA,NA,NA,NA,1,21,"binary"
"E8454A56D9AC4EA0ABBBFB0320FBD547",1,"01990aa6-4ae6-72ee-8968-3b60f857f18b","01990a83-7673-7c0c-a792-bbd8fbbaf673","2025-09-02_06h38.36.733",NA,NA,159.9696,159.9696,159.9696,160.3334,NA,NA,NA,NA,NA,NA,NA,TRUE,1,0.9464,156.9731,159.9689,0,21,21,5,1,7,35,NA,NA,NA,NA,NA,1,22,"binary"
"E8454A56D9AC4EA0ABBBFB0320FBD547",1,"01990aa6-4ae6-72ee-8968-3b60f857f18b","01990a83-7673-7c0c-a792-bbd8fbbaf673","2025-09-02_06h38.36.733",NA,NA,163.3229,163.3229,163.3229,163.6772,NA,NA,NA,NA,NA,NA,NA,TRUE,1,1.0445,160.3394,163.3223,0,22,22,24,1,21,26,NA,NA,NA,NA,NA,1,23,"binary"
"E8454A56D9AC4EA0ABBBFB0320FBD547",1,"01990aa6-4ae6-72ee-8968-3b60f857f18b","01990a83-7673-7c0c-a792-bbd8fbbaf673","2025-09-02_06h38.36.733",NA,NA,166.6716,166.6717,166.6717,167.0294,NA,NA,NA,NA,NA,NA,NA,TRUE,1,0.9079,163.6823,166.6703,0,23,23,92,1,150,35,NA,NA,NA,NA,NA,1,24,"binary"
"E8454A56D9AC4EA0ABBBFB0320FBD547",1,"01990aa6-4ae6-72ee-8968-3b60f857f18b","01990a83-7673-7c0c-a792-bbd8fbbaf673","2025-09-02_06h38.36.733",NA,NA,170.0327,170.0329,170.0329,170.369,NA,NA,NA,NA,NA,NA,NA,TRUE,1,1.8389,167.0354,170.0315,0,24,24,95,1,150,54,NA,NA,NA,NA,NA,1,25,"binary"
"E8454A56D9AC4EA0ABBBFB0320FBD547",1,"01990aa6-4ae6-72ee-8968-3b60f857f18b","01990a83-7673-7c0c-a792-bbd8fbbaf673","2025-09-02_06h38.36.733",NA,NA,173.3532,173.3533,173.3534,173.7169,NA,NA,NA,NA,NA,NA,NA,TRUE,1,0.9803,170.3747,173.352,0,25,25,82,1,95,47,NA,NA,NA,NA,NA,1,26,"binary"
"E8454A56D9AC4EA0ABBBFB0320FBD547",1,"01990aa6-4ae6-72ee-8968-3b60f857f18b","01990a83-7673-7c0c-a792-bbd8fbbaf673","2025-09-02_06h38.36.733",NA,NA,176.7184,176.7185,176.7186,177.0645,NA,NA,NA,NA,NA,NA,NA,TRUE,1,0.8549,173.7199,176.7173,0,26,26,101,1,180,54,NA,NA,NA,NA,NA,1,27,"binary"
"E8454A56D9AC4EA0ABBBFB0320FBD547",1,"01990aa6-4ae6-72ee-8968-3b60f857f18b","01990a83-7673-7c0c-a792-bbd8fbbaf673","2025-09-02_06h38.36.733",NA,NA,180.0707,180.0708,180.0709,180.4144,NA,NA,NA,NA,NA,NA,NA,TRUE,1,0.8852,177.07,180.0694,0,27,27,55,1,45,29,NA,NA,NA,NA,NA,1,28,"binary"
"E8454A56D9AC4EA0ABBBFB0320FBD547",1,"01990aa6-4ae6-72ee-8968-3b60f857f18b","01990a83-7673-7c0c-a792-bbd8fbbaf673","2025-09-02_06h38.36.733",NA,NA,183.4127,183.4128,183.4129,183.781,NA,NA,NA,NA,NA,NA,NA,TRUE,1,0.8162,180.4206,183.4122,0,28,28,58,1,45,40,NA,NA,NA,NA,NA,1,29,"binary"
"E8454A56D9AC4EA0ABBBFB0320FBD547",1,"01990aa6-4ae6-72ee-8968-3b60f857f18b","01990a83-7673-7c0c-a792-bbd8fbbaf673","2025-09-02_06h38.36.733",NA,NA,186.7564,186.7565,186.7566,187.1262,NA,NA,NA,NA,NA,NA,NA,TRUE,1,0.9132,183.7871,186.7554,0,29,29,80,1,95,35,NA,NA,NA,NA,NA,1,30,"binary"
"E8454A56D9AC4EA0ABBBFB0320FBD547",1,"01990aa6-4ae6-72ee-8968-3b60f857f18b","01990a83-7673-7c0c-a792-bbd8fbbaf673","2025-09-02_06h38.36.733",NA,NA,190.1001,190.1002,190.1003,190.4988,NA,NA,NA,NA,NA,NA,NA,TRUE,1,1.241,187.1317,190.0995,0,30,30,100,1,180,46,NA,NA,NA,NA,NA,1,31,"binary"
"E8454A56D9AC4EA0ABBBFB0320FBD547",1,"01990aa6-4ae6-72ee-8968-3b60f857f18b","01990a83-7673-7c0c-a792-bbd8fbbaf673","2025-09-02_06h38.36.733",NA,NA,193.4701,193.4702,193.4702,193.8154,NA,NA,NA,NA,NA,NA,NA,TRUE,1,0.8265,190.5038,193.4689,0,31,31,54,1,45,26,NA,NA,NA,NA,NA,1,32,"binary"
"E8454A56D9AC4EA0ABBBFB0320FBD547",1,"01990aa6-4ae6-72ee-8968-3b60f857f18b","01990a83-7673-7c0c-a792-bbd8fbbaf673","2025-09-02_06h38.36.733",NA,NA,196.8353,196.8355,196.8356,197.1566,NA,NA,NA,NA,NA,NA,NA,TRUE,1,0.6356,193.8212,196.8339,0,32,32,96,1,180,27,NA,NA,NA,NA,NA,1,33,"binary"
"E8454A56D9AC4EA0ABBBFB0320FBD547",1,"01990aa6-4ae6-72ee-8968-3b60f857f18b","01990a83-7673-7c0c-a792-bbd8fbbaf673","2025-09-02_06h38.36.733",NA,NA,200.1841,200.1844,200.1845,200.5262,NA,NA,NA,NA,NA,NA,NA,TRUE,1,0.562,197.1627,200.1831,0,33,33,44,1,30,29,NA,NA,NA,NA,NA,1,34,"binary"
"E8454A56D9AC4EA0ABBBFB0320FBD547",1,"01990aa6-4ae6-72ee-8968-3b60f857f18b","01990a83-7673-7c0c-a792-bbd8fbbaf673","2025-09-02_06h38.36.733",NA,NA,203.5185,203.5187,203.5187,203.8748,NA,NA,NA,NA,NA,NA,NA,TRUE,1,0.6142,200.5321,203.5176,0,34,34,41,1,28,46,NA,NA,NA,NA,NA,1,35,"binary"
"E8454A56D9AC4EA0ABBBFB0320FBD547",1,"01990aa6-4ae6-72ee-8968-3b60f857f18b","01990a83-7673-7c0c-a792-bbd8fbbaf673","2025-09-02_06h38.36.733",NA,NA,206.8846,206.8848,206.8849,207.2323,NA,NA,NA,NA,NA,NA,NA,TRUE,1,1.074,203.8804,206.8841,0,35,35,46,1,30,32,NA,NA,NA,NA,NA,1,36,"binary"
"E8454A56D9AC4EA0ABBBFB0320FBD547",1,"01990aa6-4ae6-72ee-8968-3b60f857f18b","01990a83-7673-7c0c-a792-bbd8fbbaf673","2025-09-02_06h38.36.733",NA,NA,210.2258,210.2258,210.2259,210.5811,NA,NA,NA,NA,NA,NA,NA,TRUE,1,1.7564,207.2379,210.2246,0,36,36,61,1,50,30,NA,NA,NA,NA,NA,1,37,"binary"
"E8454A56D9AC4EA0ABBBFB0320FBD547",1,"01990aa6-4ae6-72ee-8968-3b60f857f18b","01990a83-7673-7c0c-a792-bbd8fbbaf673","2025-09-02_06h38.36.733",NA,NA,213.5857,213.5859,213.586,213.9252,NA,NA,NA,NA,NA,NA,NA,TRUE,1,0.7105,210.587,213.5845,0,37,37,21,1,14,32,NA,NA,NA,NA,NA,1,38,"binary"
"E8454A56D9AC4EA0ABBBFB0320FBD547",1,"01990aa6-4ae6-72ee-8968-3b60f857f18b","01990a83-7673-7c0c-a792-bbd8fbbaf673","2025-09-02_06h38.36.733",NA,NA,216.9298,216.93,216.9302,217.2734,NA,NA,NA,NA,NA,NA,NA,TRUE,1,1.0026,213.9289,216.9286,0,38,38,79,1,95,33,NA,NA,NA,NA,NA,1,39,"binary"
"E8454A56D9AC4EA0ABBBFB0320FBD547",1,"01990aa6-4ae6-72ee-8968-3b60f857f18b","01990a83-7673-7c0c-a792-bbd8fbbaf673","2025-09-02_06h38.36.733",NA,NA,220.2654,220.2656,220.2658,220.6178,NA,NA,NA,NA,NA,NA,NA,TRUE,1,0.7131,217.2799,220.2643,0,39,39,97,1,180,31,NA,NA,NA,NA,NA,1,40,"binary"
"E8454A56D9AC4EA0ABBBFB0320FBD547",1,"01990aa6-4ae6-72ee-8968-3b60f857f18b","01990a83-7673-7c0c-a792-bbd8fbbaf673","2025-09-02_06h38.36.733",NA,NA,223.6172,223.6172,223.6172,223.9773,NA,NA,NA,NA,NA,NA,NA,TRUE,1,0.6721,220.6242,223.6161,0,40,40,103,1,200,28,NA,NA,NA,NA,NA,1,41,"binary"
"E8454A56D9AC4EA0ABBBFB0320FBD547",1,"01990aa6-4ae6-72ee-8968-3b60f857f18b","01990a83-7673-7c0c-a792-bbd8fbbaf673","2025-09-02_06h38.36.733",NA,NA,226.9679,226.9679,226.9679,227.3229,NA,NA,NA,NA,NA,NA,NA,TRUE,1,0.7414,223.9826,226.967,0,41,41,25,1,21,27,NA,NA,NA,NA,NA,1,42,"binary"
"E8454A56D9AC4EA0ABBBFB0320FBD547",1,"01990aa6-4ae6-72ee-8968-3b60f857f18b","01990a83-7673-7c0c-a792-bbd8fbbaf673","2025-09-02_06h38.36.733",NA,NA,230.3251,230.3252,230.3253,230.6813,NA,NA,NA,NA,NA,NA,NA,TRUE,1,0.7169,227.3269,230.3238,0,42,42,66,1,60,29,NA,NA,NA,NA,NA,1,43,"binary"
"E8454A56D9AC4EA0ABBBFB0320FBD547",1,"01990aa6-4ae6-72ee-8968-3b60f857f18b","01990a83-7673-7c0c-a792-bbd8fbbaf673","2025-09-02_06h38.36.733",NA,NA,233.6693,233.6694,233.6695,234.0405,NA,NA,NA,NA,NA,NA,NA,TRUE,1,0.8253,230.6874,233.668,0,43,43,74,1,90,33,NA,NA,NA,NA,NA,1,44,"binary"
"E8454A56D9AC4EA0ABBBFB0320FBD547",1,"01990aa6-4ae6-72ee-8968-3b60f857f18b","01990a83-7673-7c0c-a792-bbd8fbbaf673","2025-09-02_06h38.36.733",NA,NA,237.0164,237.0166,237.0166,237.363,NA,NA,NA,NA,NA,NA,NA,TRUE,1,0.7074,234.0464,237.0153,0,44,44,48,1,40,27,NA,NA,NA,NA,NA,1,45,"binary"
"E8454A56D9AC4EA0ABBBFB0320FBD547",1,"01990aa6-4ae6-72ee-8968-3b60f857f18b","01990a83-7673-7c0c-a792-bbd8fbbaf673","2025-09-02_06h38.36.733",NA,NA,240.3792,240.3795,240.3795,240.7306,NA,NA,NA,NA,NA,NA,NA,TRUE,1,0.9553,237.3686,240.3775,0,45,45,23,1,14,39,NA,NA,NA,NA,NA,1,46,"binary"
"E8454A56D9AC4EA0ABBBFB0320FBD547",1,"01990aa6-4ae6-72ee-8968-3b60f857f18b","01990a83-7673-7c0c-a792-bbd8fbbaf673","2025-09-02_06h38.36.733",NA,NA,243.731,243.7311,243.7311,244.0566,NA,NA,NA,NA,NA,NA,NA,TRUE,1,1.3813,240.7364,243.7298,0,46,46,94,1,150,47,NA,NA,NA,NA,NA,1,47,"binary"
"E8454A56D9AC4EA0ABBBFB0320FBD547",1,"01990aa6-4ae6-72ee-8968-3b60f857f18b","01990a83-7673-7c0c-a792-bbd8fbbaf673","2025-09-02_06h38.36.733",NA,NA,247.0771,247.0773,247.0773,247.4345,NA,NA,NA,NA,NA,NA,NA,TRUE,1,1.6323,244.0618,247.0761,0,47,47,18,1,14,25,NA,NA,NA,NA,NA,1,48,"binary"
"E8454A56D9AC4EA0ABBBFB0320FBD547",1,"01990aa6-4ae6-72ee-8968-3b60f857f18b","01990a83-7673-7c0c-a792-bbd8fbbaf673","2025-09-02_06h38.36.733",NA,NA,250.426,250.4261,250.4262,250.7744,NA,NA,NA,NA,NA,NA,NA,TRUE,2,2.2615,247.4376,250.4247,0,48,48,51,1,40,40,NA,NA,NA,NA,NA,1,49,"binary"
"E8454A56D9AC4EA0ABBBFB0320FBD547",1,"01990aa6-4ae6-72ee-8968-3b60f857f18b","01990a83-7673-7c0c-a792-bbd8fbbaf673","2025-09-02_06h38.36.733",NA,NA,253.7631,253.7632,253.7632,254.1286,NA,NA,NA,NA,NA,NA,NA,TRUE,1,0.8708,250.7806,253.7619,0,49,49,104,1,200,35,NA,NA,NA,NA,NA,1,50,"binary"
"E8454A56D9AC4EA0ABBBFB0320FBD547",1,"01990aa6-4ae6-72ee-8968-3b60f857f18b","01990a83-7673-7c0c-a792-bbd8fbbaf673","2025-09-02_06h38.36.733",NA,NA,257.1256,257.1257,257.1258,257.4763,NA,NA,NA,NA,NA,NA,NA,TRUE,1,0.9445,254.1347,257.1244,0,50,50,86,1,100,38,NA,NA,NA,NA,NA,1,51,"binary"
"E8454A56D9AC4EA0ABBBFB0320FBD547",1,"01990aa6-4ae6-72ee-8968-3b60f857f18b","01990a83-7673-7c0c-a792-bbd8fbbaf673","2025-09-02_06h38.36.733",NA,NA,260.4707,260.4709,260.471,260.8219,NA,NA,NA,NA,NA,NA,NA,TRUE,1,0.884,257.4824,260.4693,0,51,51,107,1,200,54,NA,NA,NA,NA,NA,1,52,"binary"
"E8454A56D9AC4EA0ABBBFB0320FBD547",1,"01990aa6-4ae6-72ee-8968-3b60f857f18b","01990a83-7673-7c0c-a792-bbd8fbbaf673","2025-09-02_06h38.36.733",NA,NA,263.819,263.8191,263.8191,264.1754,NA,NA,NA,NA,NA,NA,NA,TRUE,1,0.7306,260.8275,263.8183,0,52,52,1,1,7,26,NA,NA,NA,NA,NA,1,53,"binary"
"E8454A56D9AC4EA0ABBBFB0320FBD547",1,"01990aa6-4ae6-72ee-8968-3b60f857f18b","01990a83-7673-7c0c-a792-bbd8fbbaf673","2025-09-02_06h38.36.733",NA,NA,267.1763,267.1763,267.1763,267.5257,NA,NA,NA,NA,NA,NA,NA,TRUE,2,0.9745,264.1811,267.1755,0,53,53,11,1,10,32,NA,NA,NA,NA,NA,1,54,"binary"
"E8454A56D9AC4EA0ABBBFB0320FBD547",1,"01990aa6-4ae6-72ee-8968-3b60f857f18b","01990a83-7673-7c0c-a792-bbd8fbbaf673","2025-09-02_06h38.36.733",NA,NA,270.5289,270.529,270.5291,270.8772,NA,NA,NA,NA,NA,NA,NA,TRUE,2,1.0938,267.5315,270.5275,0,54,54,3,1,7,30,NA,NA,NA,NA,NA,1,55,"binary"
"E8454A56D9AC4EA0ABBBFB0320FBD547",1,"01990aa6-4ae6-72ee-8968-3b60f857f18b","01990a83-7673-7c0c-a792-bbd8fbbaf673","2025-09-02_06h38.36.733",NA,NA,273.8778,273.878,273.878,274.2244,NA,NA,NA,NA,NA,NA,NA,TRUE,1,0.6672,270.8827,273.8775,0,55,55,53,1,40,54,NA,NA,NA,NA,NA,1,56,"binary"
"E8454A56D9AC4EA0ABBBFB0320FBD547",1,"01990aa6-4ae6-72ee-8968-3b60f857f18b","01990a83-7673-7c0c-a792-bbd8fbbaf673","2025-09-02_06h38.36.733",NA,NA,277.2163,277.2164,277.2165,277.5748,NA,NA,NA,NA,NA,NA,NA,TRUE,1,0.7058,274.2281,277.2135,0,56,56,64,1,50,46,NA,NA,NA,NA,NA,1,57,"binary"
"E8454A56D9AC4EA0ABBBFB0320FBD547",1,"01990aa6-4ae6-72ee-8968-3b60f857f18b","01990a83-7673-7c0c-a792-bbd8fbbaf673","2025-09-02_06h38.36.733",NA,NA,280.573,280.573,280.5731,280.9198,NA,NA,NA,NA,NA,NA,NA,TRUE,1,0.725,277.5788,280.5721,0,57,57,91,1,150,33,NA,NA,NA,NA,NA,1,58,"binary"
"E8454A56D9AC4EA0ABBBFB0320FBD547",1,"01990aa6-4ae6-72ee-8968-3b60f857f18b","01990a83-7673-7c0c-a792-bbd8fbbaf673","2025-09-02_06h38.36.733",NA,NA,283.91,283.91,283.9101,284.2602,NA,NA,NA,NA,NA,NA,NA,TRUE,1,1.0348,280.9258,283.9095,0,58,58,69,1,60,40,NA,NA,NA,NA,NA,1,59,"binary"
"E8454A56D9AC4EA0ABBBFB0320FBD547",1,"01990aa6-4ae6-72ee-8968-3b60f857f18b","01990a83-7673-7c0c-a792-bbd8fbbaf673","2025-09-02_06h38.36.733",NA,NA,287.2613,287.2614,287.2615,287.6103,NA,NA,NA,NA,NA,NA,NA,TRUE,1,1.0027,284.2638,287.2601,0,59,59,99,1,180,39,NA,NA,NA,NA,NA,1,60,"binary"
"E8454A56D9AC4EA0ABBBFB0320FBD547",1,"01990aa6-4ae6-72ee-8968-3b60f857f18b","01990a83-7673-7c0c-a792-bbd8fbbaf673","2025-09-02_06h38.36.733",NA,NA,290.6217,290.6218,290.6219,290.9594,NA,NA,NA,NA,NA,NA,NA,TRUE,1,0.9627,287.616,290.6205,0,60,60,102,1,200,26,NA,NA,NA,NA,NA,1,61,"binary"
"E8454A56D9AC4EA0ABBBFB0320FBD547",1,"01990aa6-4ae6-72ee-8968-3b60f857f18b","01990a83-7673-7c0c-a792-bbd8fbbaf673","2025-09-02_06h38.36.733",NA,NA,293.9582,293.9583,293.9583,294.3216,NA,NA,NA,NA,NA,NA,NA,TRUE,1,0.7195,290.9653,293.9581,0,61,61,106,1,200,47,NA,NA,NA,NA,NA,1,62,"binary"
"E8454A56D9AC4EA0ABBBFB0320FBD547",1,"01990aa6-4ae6-72ee-8968-3b60f857f18b","01990a83-7673-7c0c-a792-bbd8fbbaf673","2025-09-02_06h38.36.733",NA,NA,297.313,297.3131,297.3131,297.6759,NA,NA,NA,NA,NA,NA,NA,TRUE,1,0.7862,294.3276,297.3117,0,62,62,40,1,28,39,NA,NA,NA,NA,NA,1,63,"binary"
"E8454A56D9AC4EA0ABBBFB0320FBD547",1,"01990aa6-4ae6-72ee-8968-3b60f857f18b","01990a83-7673-7c0c-a792-bbd8fbbaf673","2025-09-02_06h38.36.733",NA,NA,300.6763,300.6764,300.6765,301.0257,NA,NA,NA,NA,NA,NA,NA,TRUE,1,0.9553,297.683,300.676,0,63,63,98,1,180,35,NA,NA,NA,NA,NA,1,64,"binary"
"E8454A56D9AC4EA0ABBBFB0320FBD547",1,"01990aa6-4ae6-72ee-8968-3b60f857f18b","01990a83-7673-7c0c-a792-bbd8fbbaf673","2025-09-02_06h38.36.733",NA,NA,304.039,304.0392,304.0392,304.3765,NA,NA,NA,NA,NA,NA,NA,TRUE,1,1.5316,301.0303,304.0378,0,64,64,57,1,45,35,NA,NA,NA,NA,NA,1,65,"binary"
"E8454A56D9AC4EA0ABBBFB0320FBD547",1,"01990aa6-4ae6-72ee-8968-3b60f857f18b","01990a83-7673-7c0c-a792-bbd8fbbaf673","2025-09-02_06h38.36.733",NA,NA,307.3721,307.3724,307.3724,307.7258,NA,NA,NA,NA,NA,NA,NA,TRUE,1,1.6412,304.3824,307.3711,0,65,65,26,1,21,29,NA,NA,NA,NA,NA,1,66,"binary"
"E8454A56D9AC4EA0ABBBFB0320FBD547",1,"01990aa6-4ae6-72ee-8968-3b60f857f18b","01990a83-7673-7c0c-a792-bbd8fbbaf673","2025-09-02_06h38.36.733",NA,NA,310.7537,310.7538,310.754,311.0568,NA,NA,NA,NA,NA,NA,NA,TRUE,1,0.9681,307.732,310.7526,0,66,66,20,1,14,28,NA,NA,NA,NA,NA,1,67,"binary"
"E8454A56D9AC4EA0ABBBFB0320FBD547",1,"01990aa6-4ae6-72ee-8968-3b60f857f18b","01990a83-7673-7c0c-a792-bbd8fbbaf673","2025-09-02_06h38.36.733",NA,NA,314.0743,314.0744,314.0744,314.4192,NA,NA,NA,NA,NA,NA,NA,TRUE,1,0.778,311.0628,314.0729,0,67,67,43,1,30,27,NA,NA,NA,NA,NA,1,68,"binary"
"E8454A56D9AC4EA0ABBBFB0320FBD547",1,"01990aa6-4ae6-72ee-8968-3b60f857f18b","01990a83-7673-7c0c-a792-bbd8fbbaf673","2025-09-02_06h38.36.733",NA,NA,317.4384,317.4386,317.4386,317.7773,NA,NA,NA,NA,NA,NA,NA,TRUE,2,1.3781,314.4243,317.4372,0,68,68,16,1,12,33,NA,NA,NA,NA,NA,1,69,"binary"
"E8454A56D9AC4EA0ABBBFB0320FBD547",1,"01990aa6-4ae6-72ee-8968-3b60f857f18b","01990a83-7673-7c0c-a792-bbd8fbbaf673","2025-09-02_06h38.36.733",NA,NA,320.7864,320.7866,320.7867,321.1368,NA,NA,NA,NA,NA,NA,NA,TRUE,2,1.2304,317.7832,320.7852,0,69,69,10,1,10,30,NA,NA,NA,NA,NA,1,70,"binary"
"E8454A56D9AC4EA0ABBBFB0320FBD547",1,"01990aa6-4ae6-72ee-8968-3b60f857f18b","01990a83-7673-7c0c-a792-bbd8fbbaf673","2025-09-02_06h38.36.733",NA,NA,324.1211,324.1212,324.1212,324.4582,NA,NA,NA,NA,NA,NA,NA,TRUE,1,1.2442,321.1422,324.1199,0,70,70,37,1,28,28,NA,NA,NA,NA,NA,1,71,"binary"
"E8454A56D9AC4EA0ABBBFB0320FBD547",1,"01990aa6-4ae6-72ee-8968-3b60f857f18b","01990a83-7673-7c0c-a792-bbd8fbbaf673","2025-09-02_06h38.36.733",NA,NA,327.4622,327.4622,327.4623,327.8213,NA,NA,NA,NA,NA,NA,NA,TRUE,1,0.6018,324.4621,327.4612,0,71,71,30,1,25,27,NA,NA,NA,NA,NA,1,72,"binary"
"E8454A56D9AC4EA0ABBBFB0320FBD547",1,"01990aa6-4ae6-72ee-8968-3b60f857f18b","01990a83-7673-7c0c-a792-bbd8fbbaf673","2025-09-02_06h38.36.733",NA,NA,330.8259,330.8259,330.8259,331.165,NA,NA,NA,NA,NA,NA,NA,TRUE,1,0.9879,327.8266,330.8242,0,72,72,90,1,150,31,NA,NA,NA,NA,NA,1,73,"binary"
"E8454A56D9AC4EA0ABBBFB0320FBD547",1,"01990aa6-4ae6-72ee-8968-3b60f857f18b","01990a83-7673-7c0c-a792-bbd8fbbaf673","2025-09-02_06h38.36.733",NA,NA,334.1701,334.1702,334.1702,334.5045,NA,NA,NA,NA,NA,NA,NA,TRUE,1,1.0332,331.1711,334.1696,0,73,73,13,1,12,26,NA,NA,NA,NA,NA,1,74,"binary"
"E8454A56D9AC4EA0ABBBFB0320FBD547",1,"01990aa6-4ae6-72ee-8968-3b60f857f18b","01990a83-7673-7c0c-a792-bbd8fbbaf673","2025-09-02_06h38.36.733",NA,NA,337.5184,337.5184,337.5185,337.8702,NA,NA,NA,NA,NA,NA,NA,TRUE,1,1.2059,334.5084,337.5172,0,74,74,77,1,90,54,NA,NA,NA,NA,NA,1,75,"binary"
"E8454A56D9AC4EA0ABBBFB0320FBD547",1,"01990aa6-4ae6-72ee-8968-3b60f857f18b","01990a83-7673-7c0c-a792-bbd8fbbaf673","2025-09-02_06h38.36.733",NA,NA,340.8557,340.8557,340.8558,341.2259,NA,NA,NA,NA,NA,NA,NA,TRUE,1,0.7522,337.8752,340.8553,0,75,75,70,1,60,47,NA,NA,NA,NA,NA,1,76,"binary"
"E8454A56D9AC4EA0ABBBFB0320FBD547",1,"01990aa6-4ae6-72ee-8968-3b60f857f18b","01990a83-7673-7c0c-a792-bbd8fbbaf673","2025-09-02_06h38.36.733",NA,NA,344.2184,344.2184,344.2184,344.5667,NA,NA,NA,NA,NA,NA,NA,TRUE,1,1.0492,341.2321,344.2171,0,76,76,0,1,7,25,NA,NA,NA,NA,NA,1,77,"binary"
"E8454A56D9AC4EA0ABBBFB0320FBD547",1,"01990aa6-4ae6-72ee-8968-3b60f857f18b","01990a83-7673-7c0c-a792-bbd8fbbaf673","2025-09-02_06h38.36.733",NA,NA,347.5881,347.5883,347.5883,347.9083,NA,NA,NA,NA,NA,NA,NA,TRUE,2,1.5324,344.5732,347.5873,0,77,77,39,1,28,35,NA,NA,NA,NA,NA,1,78,"binary"
"E8454A56D9AC4EA0ABBBFB0320FBD547",1,"01990aa6-4ae6-72ee-8968-3b60f857f18b","01990a83-7673-7c0c-a792-bbd8fbbaf673","2025-09-02_06h38.36.733",NA,NA,350.918,350.9181,350.9181,351.2752,NA,NA,NA,NA,NA,NA,NA,TRUE,1,1.4433,347.9141,350.9175,0,78,78,14,1,12,28,NA,NA,NA,NA,NA,1,79,"binary"
"E8454A56D9AC4EA0ABBBFB0320FBD547",1,"01990aa6-4ae6-72ee-8968-3b60f857f18b","01990a83-7673-7c0c-a792-bbd8fbbaf673","2025-09-02_06h38.36.733",NA,NA,354.2578,354.2579,354.258,354.6256,NA,NA,NA,NA,NA,NA,NA,TRUE,1,1.0212,351.2812,354.2566,0,79,79,33,1,25,33,NA,NA,NA,NA,NA,1,80,"binary"
"E8454A56D9AC4EA0ABBBFB0320FBD547",1,"01990aa6-4ae6-72ee-8968-3b60f857f18b","01990a83-7673-7c0c-a792-bbd8fbbaf673","2025-09-02_06h38.36.733",NA,NA,357.6316,357.6317,357.6317,357.9859,NA,NA,NA,NA,NA,NA,NA,TRUE,2,1.7203,354.6314,357.6308,0,80,80,65,1,50,54,NA,NA,NA,NA,NA,1,81,"binary"
"E8454A56D9AC4EA0ABBBFB0320FBD547",1,"01990aa6-4ae6-72ee-8968-3b60f857f18b","01990a83-7673-7c0c-a792-bbd8fbbaf673","2025-09-02_06h38.36.733",NA,NA,360.9717,360.9717,360.9718,361.3202,NA,NA,NA,NA,NA,NA,NA,TRUE,1,0.9702,357.9898,360.9703,0,81,81,72,1,90,26,NA,NA,NA,NA,NA,1,82,"binary"
"E8454A56D9AC4EA0ABBBFB0320FBD547",1,"01990aa6-4ae6-72ee-8968-3b60f857f18b","01990a83-7673-7c0c-a792-bbd8fbbaf673","2025-09-02_06h38.36.733",NA,NA,364.3077,364.3091,364.3092,364.6648,NA,NA,NA,NA,NA,NA,NA,TRUE,1,0.9777,361.3238,364.3074,0,82,82,60,1,50,27,NA,NA,NA,NA,NA,1,83,"binary"
"E8454A56D9AC4EA0ABBBFB0320FBD547",1,"01990aa6-4ae6-72ee-8968-3b60f857f18b","01990a83-7673-7c0c-a792-bbd8fbbaf673","2025-09-02_06h38.36.733",NA,NA,367.6596,367.6597,367.6598,368.0217,NA,NA,NA,NA,NA,NA,NA,TRUE,2,2.1908,364.6708,367.6585,0,83,83,15,1,12,31,NA,NA,NA,NA,NA,1,84,"binary"
"E8454A56D9AC4EA0ABBBFB0320FBD547",1,"01990aa6-4ae6-72ee-8968-3b60f857f18b","01990a83-7673-7c0c-a792-bbd8fbbaf673","2025-09-02_06h38.36.733",NA,NA,371.0101,371.0102,371.0102,371.381,NA,NA,NA,NA,NA,NA,NA,TRUE,1,0.883,368.0276,371.0084,0,84,84,68,1,60,35,NA,NA,NA,NA,NA,1,85,"binary"
"E8454A56D9AC4EA0ABBBFB0320FBD547",1,"01990aa6-4ae6-72ee-8968-3b60f857f18b","01990a83-7673-7c0c-a792-bbd8fbbaf673","2025-09-02_06h38.36.733",NA,NA,374.3693,374.3694,374.3694,374.7042,NA,NA,NA,NA,NA,NA,NA,TRUE,1,1.0039,371.3875,374.3682,0,85,85,19,1,14,26,NA,NA,NA,NA,NA,1,86,"binary"
"E8454A56D9AC4EA0ABBBFB0320FBD547",1,"01990aa6-4ae6-72ee-8968-3b60f857f18b","01990a83-7673-7c0c-a792-bbd8fbbaf673","2025-09-02_06h38.36.733",NA,NA,377.7157,377.7158,377.7158,378.0775,NA,NA,NA,NA,NA,NA,NA,TRUE,1,0.8176,374.7101,377.7145,0,86,86,67,1,60,33,NA,NA,NA,NA,NA,1,87,"binary"
"E8454A56D9AC4EA0ABBBFB0320FBD547",1,"01990aa6-4ae6-72ee-8968-3b60f857f18b","01990a83-7673-7c0c-a792-bbd8fbbaf673","2025-09-02_06h38.36.733",NA,NA,381.0669,381.067,381.0671,381.4144,NA,NA,NA,NA,NA,NA,NA,TRUE,1,0.8708,378.0828,381.0658,0,87,87,38,1,28,32,NA,NA,NA,NA,NA,1,88,"binary"
"E8454A56D9AC4EA0ABBBFB0320FBD547",1,"01990aa6-4ae6-72ee-8968-3b60f857f18b","01990a83-7673-7c0c-a792-bbd8fbbaf673","2025-09-02_06h38.36.733",NA,NA,384.4135,384.4136,384.4136,384.7705,NA,NA,NA,NA,NA,NA,NA,TRUE,1,0.9583,381.4199,384.4128,0,88,88,85,1,100,31,NA,NA,NA,NA,NA,1,89,"binary"
"E8454A56D9AC4EA0ABBBFB0320FBD547",1,"01990aa6-4ae6-72ee-8968-3b60f857f18b","01990a83-7673-7c0c-a792-bbd8fbbaf673","2025-09-02_06h38.36.733",NA,NA,387.7657,387.7658,387.7658,388.1062,NA,NA,NA,NA,NA,NA,NA,TRUE,2,1.0898,384.7761,387.7646,0,89,89,59,1,45,46,NA,NA,NA,NA,NA,1,90,"binary"
"E8454A56D9AC4EA0ABBBFB0320FBD547",1,"01990aa6-4ae6-72ee-8968-3b60f857f18b","01990a83-7673-7c0c-a792-bbd8fbbaf673","2025-09-02_06h38.36.733",NA,NA,391.119,391.119,391.1191,391.4647,NA,NA,NA,NA,NA,NA,NA,TRUE,1,0.7259,388.1123,391.1181,0,90,90,34,1,25,35,NA,NA,NA,NA,NA,1,91,"binary"
"E8454A56D9AC4EA0ABBBFB0320FBD547",1,"01990aa6-4ae6-72ee-8968-3b60f857f18b","01990a83-7673-7c0c-a792-bbd8fbbaf673","2025-09-02_06h38.36.733",NA,NA,394.4526,394.4526,394.4527,394.8147,NA,NA,NA,NA,NA,NA,NA,TRUE,1,0.8343,391.4678,394.4522,0,91,91,8,1,10,27,NA,NA,NA,NA,NA,1,92,"binary"
"E8454A56D9AC4EA0ABBBFB0320FBD547",1,"01990aa6-4ae6-72ee-8968-3b60f857f18b","01990a83-7673-7c0c-a792-bbd8fbbaf673","2025-09-02_06h38.36.733",NA,NA,397.7941,397.7943,397.7944,398.1744,NA,NA,NA,NA,NA,NA,NA,TRUE,1,1.0446,394.8181,397.7931,0,92,92,49,1,40,33,NA,NA,NA,NA,NA,1,93,"binary"
"E8454A56D9AC4EA0ABBBFB0320FBD547",1,"01990aa6-4ae6-72ee-8968-3b60f857f18b","01990a83-7673-7c0c-a792-bbd8fbbaf673","2025-09-02_06h38.36.733",NA,NA,401.1546,401.1546,401.1547,401.5051,NA,NA,NA,NA,NA,NA,NA,TRUE,1,0.8847,398.1772,401.1533,0,93,93,105,1,200,39,NA,NA,NA,NA,NA,1,94,"binary"
"E8454A56D9AC4EA0ABBBFB0320FBD547",1,"01990aa6-4ae6-72ee-8968-3b60f857f18b","01990a83-7673-7c0c-a792-bbd8fbbaf673","2025-09-02_06h38.36.733",NA,NA,404.5305,404.5308,404.5308,404.8675,NA,NA,NA,NA,NA,NA,NA,TRUE,1,1.2831,401.5111,404.5283,0,94,94,83,1,95,54,NA,NA,NA,NA,NA,1,95,"binary"
"E8454A56D9AC4EA0ABBBFB0320FBD547",1,"01990aa6-4ae6-72ee-8968-3b60f857f18b","01990a83-7673-7c0c-a792-bbd8fbbaf673","2025-09-02_06h38.36.733",NA,NA,407.8854,407.8856,407.8856,408.2299,NA,NA,NA,NA,NA,NA,NA,TRUE,1,0.9312,404.8738,407.8842,0,95,95,29,1,21,38,NA,NA,NA,NA,NA,1,96,"binary"
"E8454A56D9AC4EA0ABBBFB0320FBD547",1,"01990aa6-4ae6-72ee-8968-3b60f857f18b","01990a83-7673-7c0c-a792-bbd8fbbaf673","2025-09-02_06h38.36.733",NA,NA,411.2174,411.2175,411.2175,411.5649,NA,NA,NA,NA,NA,NA,NA,TRUE,1,2.3742,408.2359,411.2171,0,96,96,56,1,45,31,NA,NA,NA,NA,NA,1,97,"binary"
"E8454A56D9AC4EA0ABBBFB0320FBD547",1,"01990aa6-4ae6-72ee-8968-3b60f857f18b","01990a83-7673-7c0c-a792-bbd8fbbaf673","2025-09-02_06h38.36.733",NA,NA,414.5857,414.5861,414.5861,414.9458,NA,NA,NA,NA,NA,NA,NA,TRUE,1,1.917,411.5706,414.5854,0,97,97,76,1,90,46,NA,NA,NA,NA,NA,1,98,"binary"
"E8454A56D9AC4EA0ABBBFB0320FBD547",1,"01990aa6-4ae6-72ee-8968-3b60f857f18b","01990a83-7673-7c0c-a792-bbd8fbbaf673","2025-09-02_06h38.36.733",NA,NA,417.9327,417.933,417.933,418.2528,NA,NA,NA,NA,NA,NA,NA,TRUE,1,1.2961,414.9525,417.9316,0,98,98,12,1,12,25,NA,NA,NA,NA,NA,1,99,"binary"
"E8454A56D9AC4EA0ABBBFB0320FBD547",1,"01990aa6-4ae6-72ee-8968-3b60f857f18b","01990a83-7673-7c0c-a792-bbd8fbbaf673","2025-09-02_06h38.36.733",NA,NA,421.2706,421.2707,421.2707,421.6098,NA,NA,NA,NA,NA,NA,NA,TRUE,1,0.7381,418.2585,421.2696,0,99,99,84,1,100,26,NA,NA,NA,NA,NA,1,100,"binary"
"E8454A56D9AC4EA0ABBBFB0320FBD547",1,"01990aa6-4ae6-72ee-8968-3b60f857f18b","01990a83-7673-7c0c-a792-bbd8fbbaf673","2025-09-02_06h38.36.733",NA,NA,424.6155,424.6155,424.6155,424.9807,NA,NA,NA,NA,NA,NA,NA,TRUE,1,1.1371,421.6139,424.6146,0,100,100,9,1,10,29,NA,NA,NA,NA,NA,1,101,"binary"
"E8454A56D9AC4EA0ABBBFB0320FBD547",1,"01990aa6-4ae6-72ee-8968-3b60f857f18b","01990a83-7673-7c0c-a792-bbd8fbbaf673","2025-09-02_06h38.36.733",NA,NA,427.9677,427.9677,427.9678,428.345,NA,NA,NA,NA,NA,NA,NA,TRUE,1,1.1144,424.9866,427.9663,0,101,101,31,1,25,29,NA,NA,NA,NA,NA,1,102,"binary"
"E8454A56D9AC4EA0ABBBFB0320FBD547",1,"01990aa6-4ae6-72ee-8968-3b60f857f18b","01990a83-7673-7c0c-a792-bbd8fbbaf673","2025-09-02_06h38.36.733",NA,NA,431.3269,431.3271,431.3271,431.6695,NA,NA,NA,NA,NA,NA,NA,TRUE,1,1.4338,428.3505,431.3258,0,102,102,50,1,40,35,NA,NA,NA,NA,NA,1,103,"binary"
"E8454A56D9AC4EA0ABBBFB0320FBD547",1,"01990aa6-4ae6-72ee-8968-3b60f857f18b","01990a83-7673-7c0c-a792-bbd8fbbaf673","2025-09-02_06h38.36.733",NA,NA,434.6682,434.6683,434.6684,435.032,NA,NA,NA,NA,NA,NA,NA,TRUE,2,1.5646,431.6751,434.6669,0,103,103,27,1,21,30,NA,NA,NA,NA,NA,1,104,"binary"
"E8454A56D9AC4EA0ABBBFB0320FBD547",1,"01990aa6-4ae6-72ee-8968-3b60f857f18b","01990a83-7673-7c0c-a792-bbd8fbbaf673","2025-09-02_06h38.36.733",NA,NA,438.0293,438.0294,438.0294,438.3679,NA,NA,NA,NA,NA,NA,NA,TRUE,1,0.8685,435.0372,438.0288,0,104,104,87,1,100,39,NA,NA,NA,NA,NA,1,105,"binary"
"E8454A56D9AC4EA0ABBBFB0320FBD547",1,"01990aa6-4ae6-72ee-8968-3b60f857f18b","01990a83-7673-7c0c-a792-bbd8fbbaf673","2025-09-02_06h38.36.733",NA,NA,441.378,441.3783,441.3783,441.721,NA,NA,NA,NA,NA,NA,NA,TRUE,1,0.6796,438.374,441.3767,0,105,105,81,1,95,40,NA,NA,NA,NA,NA,1,106,"binary"
"E8454A56D9AC4EA0ABBBFB0320FBD547",1,"01990aa6-4ae6-72ee-8968-3b60f857f18b","01990a83-7673-7c0c-a792-bbd8fbbaf673","2025-09-02_06h38.36.733",NA,NA,444.7212,444.7213,444.7214,445.0805,NA,NA,NA,NA,NA,NA,NA,TRUE,1,0.8521,441.7269,444.7199,0,106,106,28,1,21,32,NA,NA,NA,NA,NA,1,107,"binary"
"E8454A56D9AC4EA0ABBBFB0320FBD547",1,"01990aa6-4ae6-72ee-8968-3b60f857f18b","01990a83-7673-7c0c-a792-bbd8fbbaf673","2025-09-02_06h38.36.733",NA,NA,448.0699,448.07,448.0701,448.4214,NA,NA,NA,NA,NA,NA,NA,TRUE,1,0.9966,445.0865,448.0695,0,107,107,52,1,40,47,NA,NA,NA,NA,NA,1,108,"binary"
"E8454A56D9AC4EA0ABBBFB0320FBD547",1,"01990aa6-4ae6-72ee-8968-3b60f857f18b","01990a83-7673-7c0c-a792-bbd8fbbaf673","2025-09-02_06h38.36.733",NA,NA,455.1681,455.1684,455.1684,455.5105,NA,NA,NA,NA,NA,NA,NA,TRUE,1,1.6068,452.2004,455.1669,NA,NA,NA,NA,NA,95,54,0,0,0,83,1,2,1,"binary"
"E8454A56D9AC4EA0ABBBFB0320FBD547",1,"01990aa6-4ae6-72ee-8968-3b60f857f18b","01990a83-7673-7c0c-a792-bbd8fbbaf673","2025-09-02_06h38.36.733",NA,NA,458.5099,458.51,458.51,458.8613,NA,NA,NA,NA,NA,NA,NA,TRUE,1,0.7965,455.517,458.5088,NA,NA,NA,NA,NA,180,27,0,1,1,96,1,2,2,"binary"
"E8454A56D9AC4EA0ABBBFB0320FBD547",1,"01990aa6-4ae6-72ee-8968-3b60f857f18b","01990a83-7673-7c0c-a792-bbd8fbbaf673","2025-09-02_06h38.36.733",NA,NA,461.8574,461.8574,461.8574,462.2204,NA,NA,NA,NA,NA,NA,NA,TRUE,1,1.0807,458.8649,461.8567,NA,NA,NA,NA,NA,14,26,0,2,2,19,1,2,3,"binary"
"E8454A56D9AC4EA0ABBBFB0320FBD547",1,"01990aa6-4ae6-72ee-8968-3b60f857f18b","01990a83-7673-7c0c-a792-bbd8fbbaf673","2025-09-02_06h38.36.733",NA,NA,465.2098,465.2099,465.21,465.5537,NA,NA,NA,NA,NA,NA,NA,TRUE,1,0.6141,462.2238,465.2086,NA,NA,NA,NA,NA,14,39,0,3,3,23,1,2,4,"binary"
"E8454A56D9AC4EA0ABBBFB0320FBD547",1,"01990aa6-4ae6-72ee-8968-3b60f857f18b","01990a83-7673-7c0c-a792-bbd8fbbaf673","2025-09-02_06h38.36.733",NA,NA,468.5479,468.548,468.548,468.9106,NA,NA,NA,NA,NA,NA,NA,TRUE,1,0.8802,465.5572,468.5473,NA,NA,NA,NA,NA,150,35,0,4,4,92,1,2,5,"binary"
"E8454A56D9AC4EA0ABBBFB0320FBD547",1,"01990aa6-4ae6-72ee-8968-3b60f857f18b","01990a83-7673-7c0c-a792-bbd8fbbaf673","2025-09-02_06h38.36.733",NA,NA,471.9189,471.9191,471.9191,472.2796,NA,NA,NA,NA,NA,NA,NA,TRUE,1,0.542,468.9141,471.917,NA,NA,NA,NA,NA,180,46,0,5,5,100,1,2,6,"binary"
"E8454A56D9AC4EA0ABBBFB0320FBD547",1,"01990aa6-4ae6-72ee-8968-3b60f857f18b","01990a83-7673-7c0c-a792-bbd8fbbaf673","2025-09-02_06h38.36.733",NA,NA,475.2633,475.2634,475.2635,475.6269,NA,NA,NA,NA,NA,NA,NA,TRUE,1,0.6894,472.2831,475.2622,NA,NA,NA,NA,NA,90,30,0,6,6,73,1,2,7,"binary"
"E8454A56D9AC4EA0ABBBFB0320FBD547",1,"01990aa6-4ae6-72ee-8968-3b60f857f18b","01990a83-7673-7c0c-a792-bbd8fbbaf673","2025-09-02_06h38.36.733",NA,NA,478.6288,478.629,478.629,478.9618,NA,NA,NA,NA,NA,NA,NA,TRUE,1,0.929,475.6306,478.6277,NA,NA,NA,NA,NA,100,39,0,7,7,87,1,2,8,"binary"
"E8454A56D9AC4EA0ABBBFB0320FBD547",1,"01990aa6-4ae6-72ee-8968-3b60f857f18b","01990a83-7673-7c0c-a792-bbd8fbbaf673","2025-09-02_06h38.36.733",NA,NA,481.9693,481.9694,481.9694,482.3033,NA,NA,NA,NA,NA,NA,NA,TRUE,1,0.8725,478.9673,481.9686,NA,NA,NA,NA,NA,60,40,0,8,8,69,1,2,9,"binary"
"E8454A56D9AC4EA0ABBBFB0320FBD547",1,"01990aa6-4ae6-72ee-8968-3b60f857f18b","01990a83-7673-7c0c-a792-bbd8fbbaf673","2025-09-02_06h38.36.733",NA,NA,485.2969,485.297,485.2971,485.6536,NA,NA,NA,NA,NA,NA,NA,TRUE,2,1.41,482.3067,485.2963,NA,NA,NA,NA,NA,90,54,0,9,9,77,1,2,10,"binary"
"E8454A56D9AC4EA0ABBBFB0320FBD547",1,"01990aa6-4ae6-72ee-8968-3b60f857f18b","01990a83-7673-7c0c-a792-bbd8fbbaf673","2025-09-02_06h38.36.733",NA,NA,488.6635,488.6635,488.6635,489.0114,NA,NA,NA,NA,NA,NA,NA,TRUE,1,0.9544,485.6569,488.6628,NA,NA,NA,NA,NA,14,25,0,10,10,18,1,2,11,"binary"
"E8454A56D9AC4EA0ABBBFB0320FBD547",1,"01990aa6-4ae6-72ee-8968-3b60f857f18b","01990a83-7673-7c0c-a792-bbd8fbbaf673","2025-09-02_06h38.36.733",NA,NA,492.0192,492.0192,492.0192,492.36,NA,NA,NA,NA,NA,NA,NA,TRUE,2,1.6643,489.017,492.0184,NA,NA,NA,NA,NA,100,54,0,11,11,89,1,2,12,"binary"
"E8454A56D9AC4EA0ABBBFB0320FBD547",1,"01990aa6-4ae6-72ee-8968-3b60f857f18b","01990a83-7673-7c0c-a792-bbd8fbbaf673","2025-09-02_06h38.36.733",NA,NA,495.3468,495.347,495.347,495.7132,NA,NA,NA,NA,NA,NA,NA,TRUE,2,1.5559,492.3648,495.3466,NA,NA,NA,NA,NA,12,33,0,12,12,16,1,2,13,"binary"
"E8454A56D9AC4EA0ABBBFB0320FBD547",1,"01990aa6-4ae6-72ee-8968-3b60f857f18b","01990a83-7673-7c0c-a792-bbd8fbbaf673","2025-09-02_06h38.36.733",NA,NA,498.7057,498.7058,498.7059,499.0576,NA,NA,NA,NA,NA,NA,NA,TRUE,1,1.2393,495.7181,498.7052,NA,NA,NA,NA,NA,90,26,0,13,13,72,1,2,14,"binary"
"E8454A56D9AC4EA0ABBBFB0320FBD547",1,"01990aa6-4ae6-72ee-8968-3b60f857f18b","01990a83-7673-7c0c-a792-bbd8fbbaf673","2025-09-02_06h38.36.733",NA,NA,502.0589,502.059,502.0591,502.4078,NA,NA,NA,NA,NA,NA,NA,TRUE,2,1.0364,499.0604,502.0578,NA,NA,NA,NA,NA,30,38,0,14,14,47,1,2,15,"binary"
"E8454A56D9AC4EA0ABBBFB0320FBD547",1,"01990aa6-4ae6-72ee-8968-3b60f857f18b","01990a83-7673-7c0c-a792-bbd8fbbaf673","2025-09-02_06h38.36.733",NA,NA,505.3941,505.3942,505.3943,505.7662,NA,NA,NA,NA,NA,NA,NA,TRUE,1,0.7315,502.4107,505.3928,NA,NA,NA,NA,NA,150,47,0,15,15,94,1,2,16,"binary"
"E8454A56D9AC4EA0ABBBFB0320FBD547",1,"01990aa6-4ae6-72ee-8968-3b60f857f18b","01990a83-7673-7c0c-a792-bbd8fbbaf673","2025-09-02_06h38.36.733",NA,NA,508.7747,508.7749,508.7749,509.0974,NA,NA,NA,NA,NA,NA,NA,TRUE,1,0.9239,505.7725,508.7737,NA,NA,NA,NA,NA,10,26,0,16,16,7,1,2,17,"binary"
"E8454A56D9AC4EA0ABBBFB0320FBD547",1,"01990aa6-4ae6-72ee-8968-3b60f857f18b","01990a83-7673-7c0c-a792-bbd8fbbaf673","2025-09-02_06h38.36.733",NA,NA,512.1105,512.1106,512.1108,512.4567,NA,NA,NA,NA,NA,NA,NA,TRUE,1,0.8941,509.1028,512.1095,NA,NA,NA,NA,NA,200,39,0,17,17,105,1,2,18,"binary"
"E8454A56D9AC4EA0ABBBFB0320FBD547",1,"01990aa6-4ae6-72ee-8968-3b60f857f18b","01990a83-7673-7c0c-a792-bbd8fbbaf673","2025-09-02_06h38.36.733",NA,NA,515.4762,515.4765,515.4765,515.8232,NA,NA,NA,NA,NA,NA,NA,TRUE,1,1.4581,512.463,515.4752,NA,NA,NA,NA,NA,60,33,0,18,18,67,1,2,19,"binary"
"E8454A56D9AC4EA0ABBBFB0320FBD547",1,"01990aa6-4ae6-72ee-8968-3b60f857f18b","01990a83-7673-7c0c-a792-bbd8fbbaf673","2025-09-02_06h38.36.733",NA,NA,518.8095,518.8097,518.8097,519.1455,NA,NA,NA,NA,NA,NA,NA,TRUE,1,0.8437,515.8277,518.8082,NA,NA,NA,NA,NA,40,35,0,19,19,50,1,2,20,"binary"
"E8454A56D9AC4EA0ABBBFB0320FBD547",1,"01990aa6-4ae6-72ee-8968-3b60f857f18b","01990a83-7673-7c0c-a792-bbd8fbbaf673","2025-09-02_06h38.36.733",NA,NA,522.1471,522.1473,522.1473,522.5066,NA,NA,NA,NA,NA,NA,NA,TRUE,1,0.6503,519.1512,522.1465,NA,NA,NA,NA,NA,45,46,0,20,20,59,1,2,21,"binary"
"E8454A56D9AC4EA0ABBBFB0320FBD547",1,"01990aa6-4ae6-72ee-8968-3b60f857f18b","01990a83-7673-7c0c-a792-bbd8fbbaf673","2025-09-02_06h38.36.733",NA,NA,525.515,525.515,525.5151,525.8599,NA,NA,NA,NA,NA,NA,NA,TRUE,1,1.6348,522.5124,525.5142,NA,NA,NA,NA,NA,12,31,0,21,21,15,1,2,22,"binary"
"E8454A56D9AC4EA0ABBBFB0320FBD547",1,"01990aa6-4ae6-72ee-8968-3b60f857f18b","01990a83-7673-7c0c-a792-bbd8fbbaf673","2025-09-02_06h38.36.733",NA,NA,528.8739,528.874,528.8741,529.1925,NA,NA,NA,NA,NA,NA,NA,TRUE,1,1.0875,525.8655,528.8727,NA,NA,NA,NA,NA,90,40,0,22,22,75,1,2,23,"binary"
"E8454A56D9AC4EA0ABBBFB0320FBD547",1,"01990aa6-4ae6-72ee-8968-3b60f857f18b","01990a83-7673-7c0c-a792-bbd8fbbaf673","2025-09-02_06h38.36.733",NA,NA,532.2072,532.2072,532.2074,532.5747,NA,NA,NA,NA,NA,NA,NA,TRUE,1,0.7017,529.1954,532.206,NA,NA,NA,NA,NA,45,26,0,23,23,54,1,2,24,"binary"
"E8454A56D9AC4EA0ABBBFB0320FBD547",1,"01990aa6-4ae6-72ee-8968-3b60f857f18b","01990a83-7673-7c0c-a792-bbd8fbbaf673","2025-09-02_06h38.36.733",NA,NA,535.5768,535.5769,535.5769,535.9101,NA,NA,NA,NA,NA,NA,NA,TRUE,1,0.8218,532.5807,535.5761,NA,NA,NA,NA,NA,200,35,0,24,24,104,1,2,25,"binary"
"E8454A56D9AC4EA0ABBBFB0320FBD547",1,"01990aa6-4ae6-72ee-8968-3b60f857f18b","01990a83-7673-7c0c-a792-bbd8fbbaf673","2025-09-02_06h38.36.733",NA,NA,538.9089,538.909,538.9091,539.2703,NA,NA,NA,NA,NA,NA,NA,TRUE,1,0.9265,535.9162,538.9077,NA,NA,NA,NA,NA,60,54,0,25,25,71,1,2,26,"binary"
"E8454A56D9AC4EA0ABBBFB0320FBD547",1,"01990aa6-4ae6-72ee-8968-3b60f857f18b","01990a83-7673-7c0c-a792-bbd8fbbaf673","2025-09-02_06h38.36.733",NA,NA,542.2689,542.2691,542.2692,542.6088,NA,NA,NA,NA,NA,NA,NA,TRUE,1,1.4083,539.2736,542.2687,NA,NA,NA,NA,NA,7,28,0,26,26,2,1,2,27,"binary"
"E8454A56D9AC4EA0ABBBFB0320FBD547",1,"01990aa6-4ae6-72ee-8968-3b60f857f18b","01990a83-7673-7c0c-a792-bbd8fbbaf673","2025-09-02_06h38.36.733",NA,NA,545.6105,545.6107,545.6108,545.9596,NA,NA,NA,NA,NA,NA,NA,TRUE,1,0.8571,542.6143,545.6093,NA,NA,NA,NA,NA,28,39,0,27,27,40,1,2,28,"binary"
"E8454A56D9AC4EA0ABBBFB0320FBD547",1,"01990aa6-4ae6-72ee-8968-3b60f857f18b","01990a83-7673-7c0c-a792-bbd8fbbaf673","2025-09-02_06h38.36.733",NA,NA,548.9561,548.9562,548.9563,549.3054,NA,NA,NA,NA,NA,NA,NA,TRUE,1,1.0028,545.9657,548.955,NA,NA,NA,NA,NA,25,46,0,28,28,35,1,2,29,"binary"
"E8454A56D9AC4EA0ABBBFB0320FBD547",1,"01990aa6-4ae6-72ee-8968-3b60f857f18b","01990a83-7673-7c0c-a792-bbd8fbbaf673","2025-09-02_06h38.36.733",NA,NA,552.3138,552.3139,552.3139,552.6589,NA,NA,NA,NA,NA,NA,NA,TRUE,1,0.8903,549.3083,552.3126,NA,NA,NA,NA,NA,45,35,0,29,29,57,1,2,30,"binary"
"E8454A56D9AC4EA0ABBBFB0320FBD547",1,"01990aa6-4ae6-72ee-8968-3b60f857f18b","01990a83-7673-7c0c-a792-bbd8fbbaf673","2025-09-02_06h38.36.733",NA,NA,555.6577,555.6577,555.6577,556.0177,NA,NA,NA,NA,NA,NA,NA,TRUE,2,0.8033,552.6642,555.6564,NA,NA,NA,NA,NA,7,32,0,30,30,4,1,2,31,"binary"
"E8454A56D9AC4EA0ABBBFB0320FBD547",1,"01990aa6-4ae6-72ee-8968-3b60f857f18b","01990a83-7673-7c0c-a792-bbd8fbbaf673","2025-09-02_06h38.36.733",NA,NA,558.9983,558.9984,558.9984,559.3553,NA,NA,NA,NA,NA,NA,NA,TRUE,1,0.7493,556.0243,558.9971,NA,NA,NA,NA,NA,180,31,0,31,31,97,1,2,32,"binary"
"E8454A56D9AC4EA0ABBBFB0320FBD547",1,"01990aa6-4ae6-72ee-8968-3b60f857f18b","01990a83-7673-7c0c-a792-bbd8fbbaf673","2025-09-02_06h38.36.733",NA,NA,562.375,562.375,562.3751,562.7062,NA,NA,NA,NA,NA,NA,NA,TRUE,1,0.5519,559.3606,562.3744,NA,NA,NA,NA,NA,100,46,0,32,32,88,1,2,33,"binary"
"E8454A56D9AC4EA0ABBBFB0320FBD547",1,"01990aa6-4ae6-72ee-8968-3b60f857f18b","01990a83-7673-7c0c-a792-bbd8fbbaf673","2025-09-02_06h38.36.733",NA,NA,565.7224,565.7224,565.7226,566.0481,NA,NA,NA,NA,NA,NA,NA,TRUE,1,0.7443,562.712,565.7217,NA,NA,NA,NA,NA,21,26,0,33,33,24,1,2,34,"binary"
"E8454A56D9AC4EA0ABBBFB0320FBD547",1,"01990aa6-4ae6-72ee-8968-3b60f857f18b","01990a83-7673-7c0c-a792-bbd8fbbaf673","2025-09-02_06h38.36.733",NA,NA,569.0458,569.0459,569.0459,569.4037,NA,NA,NA,NA,NA,NA,NA,TRUE,2,0.9822,566.052,569.0448,NA,NA,NA,NA,NA,14,32,0,34,34,21,1,2,35,"binary"
"E8454A56D9AC4EA0ABBBFB0320FBD547",1,"01990aa6-4ae6-72ee-8968-3b60f857f18b","01990a83-7673-7c0c-a792-bbd8fbbaf673","2025-09-02_06h38.36.733",NA,NA,572.4068,572.4071,572.4071,572.7874,NA,NA,NA,NA,NA,NA,NA,TRUE,1,1.1086,569.4093,572.4057,NA,NA,NA,NA,NA,50,40,0,35,35,63,1,2,36,"binary"
"E8454A56D9AC4EA0ABBBFB0320FBD547",1,"01990aa6-4ae6-72ee-8968-3b60f857f18b","01990a83-7673-7c0c-a792-bbd8fbbaf673","2025-09-02_06h38.36.733",NA,NA,575.7478,575.7479,575.7479,576.1247,NA,NA,NA,NA,NA,NA,NA,TRUE,1,0.6077,572.7929,575.7476,NA,NA,NA,NA,NA,95,35,0,36,36,80,1,2,37,"binary"
"E8454A56D9AC4EA0ABBBFB0320FBD547",1,"01990aa6-4ae6-72ee-8968-3b60f857f18b","01990a83-7673-7c0c-a792-bbd8fbbaf673","2025-09-02_06h38.36.733",NA,NA,579.1087,579.1088,579.1088,579.4556,NA,NA,NA,NA,NA,NA,NA,TRUE,2,1.0552,576.1307,579.1074,NA,NA,NA,NA,NA,14,35,0,37,37,22,1,2,38,"binary"
"E8454A56D9AC4EA0ABBBFB0320FBD547",1,"01990aa6-4ae6-72ee-8968-3b60f857f18b","01990a83-7673-7c0c-a792-bbd8fbbaf673","2025-09-02_06h38.36.733",NA,NA,582.4622,582.4624,582.4624,582.8045,NA,NA,NA,NA,NA,NA,NA,TRUE,1,0.5627,579.462,582.4611,NA,NA,NA,NA,NA,40,40,0,38,38,51,1,2,39,"binary"
"E8454A56D9AC4EA0ABBBFB0320FBD547",1,"01990aa6-4ae6-72ee-8968-3b60f857f18b","01990a83-7673-7c0c-a792-bbd8fbbaf673","2025-09-02_06h38.36.733",NA,NA,585.822,585.8222,585.8223,586.1541,NA,NA,NA,NA,NA,NA,NA,TRUE,1,0.8721,582.8099,585.8211,NA,NA,NA,NA,NA,30,29,0,39,39,44,1,2,40,"binary"
"E8454A56D9AC4EA0ABBBFB0320FBD547",1,"01990aa6-4ae6-72ee-8968-3b60f857f18b","01990a83-7673-7c0c-a792-bbd8fbbaf673","2025-09-02_06h38.36.733",NA,NA,589.16,589.1601,589.1601,589.5125,NA,NA,NA,NA,NA,NA,NA,TRUE,1,0.6267,586.1599,589.1588,NA,NA,NA,NA,NA,30,26,0,40,40,42,1,2,41,"binary"
"E8454A56D9AC4EA0ABBBFB0320FBD547",1,"01990aa6-4ae6-72ee-8968-3b60f857f18b","01990a83-7673-7c0c-a792-bbd8fbbaf673","2025-09-02_06h38.36.733",NA,NA,592.5227,592.523,592.523,592.8585,NA,NA,NA,NA,NA,NA,NA,TRUE,1,1.1806,589.5163,592.5214,NA,NA,NA,NA,NA,45,29,0,41,41,55,1,2,42,"binary"
"E8454A56D9AC4EA0ABBBFB0320FBD547",1,"01990aa6-4ae6-72ee-8968-3b60f857f18b","01990a83-7673-7c0c-a792-bbd8fbbaf673","2025-09-02_06h38.36.733",NA,NA,595.8601,595.8603,595.8603,596.1936,NA,NA,NA,NA,NA,NA,NA,TRUE,1,0.8174,592.8644,595.8595,NA,NA,NA,NA,NA,25,31,0,42,42,32,1,2,43,"binary"
"E8454A56D9AC4EA0ABBBFB0320FBD547",1,"01990aa6-4ae6-72ee-8968-3b60f857f18b","01990a83-7673-7c0c-a792-bbd8fbbaf673","2025-09-02_06h38.36.733",NA,NA,599.1949,599.195,599.195,599.5709,NA,NA,NA,NA,NA,NA,NA,TRUE,1,0.6928,596.1995,599.1945,NA,NA,NA,NA,NA,200,47,0,43,43,106,1,2,44,"binary"
"E8454A56D9AC4EA0ABBBFB0320FBD547",1,"01990aa6-4ae6-72ee-8968-3b60f857f18b","01990a83-7673-7c0c-a792-bbd8fbbaf673","2025-09-02_06h38.36.733",NA,NA,602.5472,602.5474,602.5474,602.9273,NA,NA,NA,NA,NA,NA,NA,TRUE,2,1.3365,599.5768,602.5459,NA,NA,NA,NA,NA,10,30,0,44,44,10,1,2,45,"binary"
"E8454A56D9AC4EA0ABBBFB0320FBD547",1,"01990aa6-4ae6-72ee-8968-3b60f857f18b","01990a83-7673-7c0c-a792-bbd8fbbaf673","2025-09-02_06h38.36.733",NA,NA,605.9077,605.9078,605.9079,606.2578,NA,NA,NA,NA,NA,NA,NA,TRUE,2,1.2236,602.9309,605.9061,NA,NA,NA,NA,NA,7,35,0,45,45,5,1,2,46,"binary"
"E8454A56D9AC4EA0ABBBFB0320FBD547",1,"01990aa6-4ae6-72ee-8968-3b60f857f18b","01990a83-7673-7c0c-a792-bbd8fbbaf673","2025-09-02_06h38.36.733",NA,NA,609.268,609.2682,609.2682,609.6334,NA,NA,NA,NA,NA,NA,NA,TRUE,1,1.1474,606.2637,609.2665,NA,NA,NA,NA,NA,95,33,0,46,46,79,1,2,47,"binary"
"E8454A56D9AC4EA0ABBBFB0320FBD547",1,"01990aa6-4ae6-72ee-8968-3b60f857f18b","01990a83-7673-7c0c-a792-bbd8fbbaf673","2025-09-02_06h38.36.733",NA,NA,612.6087,612.6087,612.6087,612.943,NA,NA,NA,NA,NA,NA,NA,TRUE,1,0.9119,609.6391,612.6073,NA,NA,NA,NA,NA,30,27,0,47,47,43,1,2,48,"binary"
"E8454A56D9AC4EA0ABBBFB0320FBD547",1,"01990aa6-4ae6-72ee-8968-3b60f857f18b","01990a83-7673-7c0c-a792-bbd8fbbaf673","2025-09-02_06h38.36.733",NA,NA,615.9749,615.9751,615.9751,616.3013,NA,NA,NA,NA,NA,NA,NA,TRUE,1,1.0949,612.9491,615.9735,NA,NA,NA,NA,NA,50,35,0,48,48,62,1,2,49,"binary"
"E8454A56D9AC4EA0ABBBFB0320FBD547",1,"01990aa6-4ae6-72ee-8968-3b60f857f18b","01990a83-7673-7c0c-a792-bbd8fbbaf673","2025-09-02_06h38.36.733",NA,NA,619.3353,619.3356,619.3356,619.6591,NA,NA,NA,NA,NA,NA,NA,TRUE,1,0.8057,616.3069,619.3342,NA,NA,NA,NA,NA,150,54,0,49,49,95,1,2,50,"binary"
"E8454A56D9AC4EA0ABBBFB0320FBD547",1,"01990aa6-4ae6-72ee-8968-3b60f857f18b","01990a83-7673-7c0c-a792-bbd8fbbaf673","2025-09-02_06h38.36.733",NA,NA,622.6568,622.6572,622.6572,623.0211,NA,NA,NA,NA,NA,NA,NA,TRUE,1,0.8553,619.6627,622.6566,NA,NA,NA,NA,NA,150,40,0,50,50,93,1,2,51,"binary"
"E8454A56D9AC4EA0ABBBFB0320FBD547",1,"01990aa6-4ae6-72ee-8968-3b60f857f18b","01990a83-7673-7c0c-a792-bbd8fbbaf673","2025-09-02_06h38.36.733",NA,NA,626.0191,626.0192,626.0193,626.3735,NA,NA,NA,NA,NA,NA,NA,TRUE,1,0.6189,623.0247,626.018,NA,NA,NA,NA,NA,150,33,0,51,51,91,1,2,52,"binary"
"E8454A56D9AC4EA0ABBBFB0320FBD547",1,"01990aa6-4ae6-72ee-8968-3b60f857f18b","01990a83-7673-7c0c-a792-bbd8fbbaf673","2025-09-02_06h38.36.733",NA,NA,629.3637,629.3637,629.3638,629.733,NA,NA,NA,NA,NA,NA,NA,TRUE,1,0.4675,626.3797,629.362,NA,NA,NA,NA,NA,90,46,0,52,52,76,1,2,53,"binary"
"E8454A56D9AC4EA0ABBBFB0320FBD547",1,"01990aa6-4ae6-72ee-8968-3b60f857f18b","01990a83-7673-7c0c-a792-bbd8fbbaf673","2025-09-02_06h38.36.733",NA,NA,632.7125,632.7127,632.7127,633.073,NA,NA,NA,NA,NA,NA,NA,TRUE,1,0.6796,629.7383,632.7113,NA,NA,NA,NA,NA,180,39,0,53,53,99,1,2,54,"binary"
"E8454A56D9AC4EA0ABBBFB0320FBD547",1,"01990aa6-4ae6-72ee-8968-3b60f857f18b","01990a83-7673-7c0c-a792-bbd8fbbaf673","2025-09-02_06h38.36.733",NA,NA,636.0742,636.0744,636.0744,636.4205,NA,NA,NA,NA,NA,NA,NA,TRUE,1,0.7045,633.0789,636.0728,NA,NA,NA,NA,NA,100,38,0,54,54,86,1,2,55,"binary"
"E8454A56D9AC4EA0ABBBFB0320FBD547",1,"01990aa6-4ae6-72ee-8968-3b60f857f18b","01990a83-7673-7c0c-a792-bbd8fbbaf673","2025-09-02_06h38.36.733",NA,NA,639.4227,639.4229,639.4229,639.7499,NA,NA,NA,NA,NA,NA,NA,TRUE,1,1.0443,636.4266,639.4224,NA,NA,NA,NA,NA,21,29,0,55,55,26,1,2,56,"binary"
"E8454A56D9AC4EA0ABBBFB0320FBD547",1,"01990aa6-4ae6-72ee-8968-3b60f857f18b","01990a83-7673-7c0c-a792-bbd8fbbaf673","2025-09-02_06h38.36.733",NA,NA,642.7637,642.7638,642.7638,643.1219,NA,NA,NA,NA,NA,NA,NA,TRUE,1,1.0028,639.755,642.7632,NA,NA,NA,NA,NA,28,26,0,56,56,36,1,2,57,"binary"
"E8454A56D9AC4EA0ABBBFB0320FBD547",1,"01990aa6-4ae6-72ee-8968-3b60f857f18b","01990a83-7673-7c0c-a792-bbd8fbbaf673","2025-09-02_06h38.36.733",NA,NA,646.1089,646.1089,646.109,646.4647,NA,NA,NA,NA,NA,NA,NA,TRUE,1,1.7711,643.1278,646.1076,NA,NA,NA,NA,NA,45,40,0,57,57,58,1,2,58,"binary"
"E8454A56D9AC4EA0ABBBFB0320FBD547",1,"01990aa6-4ae6-72ee-8968-3b60f857f18b","01990a83-7673-7c0c-a792-bbd8fbbaf673","2025-09-02_06h38.36.733",NA,NA,649.4662,649.4663,649.4664,649.8147,NA,NA,NA,NA,NA,NA,NA,TRUE,2,1.3309,646.4701,649.4647,NA,NA,NA,NA,NA,10,32,0,58,58,11,1,2,59,"binary"
"E8454A56D9AC4EA0ABBBFB0320FBD547",1,"01990aa6-4ae6-72ee-8968-3b60f857f18b","01990a83-7673-7c0c-a792-bbd8fbbaf673","2025-09-02_06h38.36.733",NA,NA,652.8101,652.8101,652.8101,653.1476,NA,NA,NA,NA,NA,NA,NA,TRUE,1,0.6371,649.82,652.8093,NA,NA,NA,NA,NA,90,33,0,59,59,74,1,2,60,"binary"
"E8454A56D9AC4EA0ABBBFB0320FBD547",1,"01990aa6-4ae6-72ee-8968-3b60f857f18b","01990a83-7673-7c0c-a792-bbd8fbbaf673","2025-09-02_06h38.36.733",NA,NA,656.1571,656.1571,656.1572,656.4913,NA,NA,NA,NA,NA,NA,NA,TRUE,1,1.15,653.1516,656.1555,NA,NA,NA,NA,NA,12,26,0,60,60,13,1,2,61,"binary"
"E8454A56D9AC4EA0ABBBFB0320FBD547",1,"01990aa6-4ae6-72ee-8968-3b60f857f18b","01990a83-7673-7c0c-a792-bbd8fbbaf673","2025-09-02_06h38.36.733",NA,NA,659.5046,659.5048,659.5048,659.8556,NA,NA,NA,NA,NA,NA,NA,TRUE,1,1.2366,656.4967,659.5035,NA,NA,NA,NA,NA,7,26,0,61,61,1,1,2,62,"binary"
"E8454A56D9AC4EA0ABBBFB0320FBD547",1,"01990aa6-4ae6-72ee-8968-3b60f857f18b","01990a83-7673-7c0c-a792-bbd8fbbaf673","2025-09-02_06h38.36.733",NA,NA,662.8584,662.8585,662.8586,663.2222,NA,NA,NA,NA,NA,NA,NA,TRUE,1,1.3293,659.8616,662.8572,NA,NA,NA,NA,NA,28,32,0,62,62,38,1,2,63,"binary"
"E8454A56D9AC4EA0ABBBFB0320FBD547",1,"01990aa6-4ae6-72ee-8968-3b60f857f18b","01990a83-7673-7c0c-a792-bbd8fbbaf673","2025-09-02_06h38.36.733",NA,NA,666.2109,666.2109,666.211,666.5571,NA,NA,NA,NA,NA,NA,NA,TRUE,1,0.7895,663.2282,666.2101,NA,NA,NA,NA,NA,21,38,0,63,63,29,1,2,64,"binary"
"E8454A56D9AC4EA0ABBBFB0320FBD547",1,"01990aa6-4ae6-72ee-8968-3b60f857f18b","01990a83-7673-7c0c-a792-bbd8fbbaf673","2025-09-02_06h38.36.733",NA,NA,669.5643,669.5644,669.5645,669.9186,NA,NA,NA,NA,NA,NA,NA,TRUE,1,1.3988,666.5634,669.5635,NA,NA,NA,NA,NA,28,28,0,64,64,37,1,2,65,"binary"
"E8454A56D9AC4EA0ABBBFB0320FBD547",1,"01990aa6-4ae6-72ee-8968-3b60f857f18b","01990a83-7673-7c0c-a792-bbd8fbbaf673","2025-09-02_06h38.36.733",NA,NA,672.9047,672.9048,672.9048,673.2459,NA,NA,NA,NA,NA,NA,NA,TRUE,1,1.2352,669.9246,672.9043,NA,NA,NA,NA,NA,95,47,0,65,65,82,1,2,66,"binary"
"E8454A56D9AC4EA0ABBBFB0320FBD547",1,"01990aa6-4ae6-72ee-8968-3b60f857f18b","01990a83-7673-7c0c-a792-bbd8fbbaf673","2025-09-02_06h38.36.733",NA,NA,676.2714,676.2715,676.2716,676.613,NA,NA,NA,NA,NA,NA,NA,TRUE,1,1.0677,673.2498,676.2702,NA,NA,NA,NA,NA,10,27,0,66,66,8,1,2,67,"binary"
"E8454A56D9AC4EA0ABBBFB0320FBD547",1,"01990aa6-4ae6-72ee-8968-3b60f857f18b","01990a83-7673-7c0c-a792-bbd8fbbaf673","2025-09-02_06h38.36.733",NA,NA,679.6086,679.6088,679.6088,679.9651,NA,NA,NA,NA,NA,NA,NA,TRUE,1,0.9482,676.6185,679.6075,NA,NA,NA,NA,NA,180,35,0,67,67,98,1,2,68,"binary"
"E8454A56D9AC4EA0ABBBFB0320FBD547",1,"01990aa6-4ae6-72ee-8968-3b60f857f18b","01990a83-7673-7c0c-a792-bbd8fbbaf673","2025-09-02_06h38.36.733",NA,NA,682.95,682.95,682.95,683.3075,NA,NA,NA,NA,NA,NA,NA,TRUE,1,1.0091,679.9703,682.9493,NA,NA,NA,NA,NA,60,29,0,68,68,66,1,2,69,"binary"
"E8454A56D9AC4EA0ABBBFB0320FBD547",1,"01990aa6-4ae6-72ee-8968-3b60f857f18b","01990a83-7673-7c0c-a792-bbd8fbbaf673","2025-09-02_06h38.36.733",NA,NA,686.3227,686.3229,686.3229,686.6535,NA,NA,NA,NA,NA,NA,NA,TRUE,1,1.4262,683.3142,686.3217,NA,NA,NA,NA,NA,50,46,0,69,69,64,1,2,70,"binary"
"E8454A56D9AC4EA0ABBBFB0320FBD547",1,"01990aa6-4ae6-72ee-8968-3b60f857f18b","01990a83-7673-7c0c-a792-bbd8fbbaf673","2025-09-02_06h38.36.733",NA,NA,689.6641,689.6641,689.6641,690.0202,NA,NA,NA,NA,NA,NA,NA,TRUE,2,1.1005,686.6591,689.6628,NA,NA,NA,NA,NA,50,54,0,70,70,65,1,2,71,"binary"
"E8454A56D9AC4EA0ABBBFB0320FBD547",1,"01990aa6-4ae6-72ee-8968-3b60f857f18b","01990a83-7673-7c0c-a792-bbd8fbbaf673","2025-09-02_06h38.36.733",NA,NA,693.0085,693.0087,693.0087,693.3527,NA,NA,NA,NA,NA,NA,NA,TRUE,1,0.7047,690.0255,693.0081,NA,NA,NA,NA,NA,50,27,0,71,71,60,1,2,72,"binary"
"E8454A56D9AC4EA0ABBBFB0320FBD547",1,"01990aa6-4ae6-72ee-8968-3b60f857f18b","01990a83-7673-7c0c-a792-bbd8fbbaf673","2025-09-02_06h38.36.733",NA,NA,696.3711,696.3714,696.3714,696.7171,NA,NA,NA,NA,NA,NA,NA,TRUE,1,0.7122,693.3589,696.3699,NA,NA,NA,NA,NA,100,31,0,72,72,85,1,2,73,"binary"
"E8454A56D9AC4EA0ABBBFB0320FBD547",1,"01990aa6-4ae6-72ee-8968-3b60f857f18b","01990a83-7673-7c0c-a792-bbd8fbbaf673","2025-09-02_06h38.36.733",NA,NA,699.7131,699.7131,699.7132,700.0563,NA,NA,NA,NA,NA,NA,NA,TRUE,1,1.0484,696.7228,699.7116,NA,NA,NA,NA,NA,7,25,0,73,73,0,1,2,74,"binary"
"E8454A56D9AC4EA0ABBBFB0320FBD547",1,"01990aa6-4ae6-72ee-8968-3b60f857f18b","01990a83-7673-7c0c-a792-bbd8fbbaf673","2025-09-02_06h38.36.733",NA,NA,703.0566,703.0567,703.0567,703.416,NA,NA,NA,NA,NA,NA,NA,TRUE,1,1.3338,700.0599,703.0555,NA,NA,NA,NA,NA,12,25,0,74,74,12,1,2,75,"binary"
"E8454A56D9AC4EA0ABBBFB0320FBD547",1,"01990aa6-4ae6-72ee-8968-3b60f857f18b","01990a83-7673-7c0c-a792-bbd8fbbaf673","2025-09-02_06h38.36.733",NA,NA,706.409,706.4091,706.4091,706.7686,NA,NA,NA,NA,NA,NA,NA,TRUE,1,0.9179,703.4213,706.4088,NA,NA,NA,NA,NA,40,33,0,75,75,49,1,2,76,"binary"
"E8454A56D9AC4EA0ABBBFB0320FBD547",1,"01990aa6-4ae6-72ee-8968-3b60f857f18b","01990a83-7673-7c0c-a792-bbd8fbbaf673","2025-09-02_06h38.36.733",NA,NA,709.769,709.7692,709.7692,710.1128,NA,NA,NA,NA,NA,NA,NA,TRUE,1,0.5844,706.7738,709.7679,NA,NA,NA,NA,NA,100,26,0,76,76,84,1,2,77,"binary"
"E8454A56D9AC4EA0ABBBFB0320FBD547",1,"01990aa6-4ae6-72ee-8968-3b60f857f18b","01990a83-7673-7c0c-a792-bbd8fbbaf673","2025-09-02_06h38.36.733",NA,NA,713.1174,713.1177,713.1177,713.4535,NA,NA,NA,NA,NA,NA,NA,TRUE,1,1.4518,710.1185,713.1171,NA,NA,NA,NA,NA,45,31,0,77,77,56,1,2,78,"binary"
"E8454A56D9AC4EA0ABBBFB0320FBD547",1,"01990aa6-4ae6-72ee-8968-3b60f857f18b","01990a83-7673-7c0c-a792-bbd8fbbaf673","2025-09-02_06h38.36.733",NA,NA,716.4546,716.4547,716.4547,716.7933,NA,NA,NA,NA,NA,NA,NA,TRUE,1,0.9299,713.4589,716.4538,NA,NA,NA,NA,NA,28,46,0,78,78,41,1,2,79,"binary"
"E8454A56D9AC4EA0ABBBFB0320FBD547",1,"01990aa6-4ae6-72ee-8968-3b60f857f18b","01990a83-7673-7c0c-a792-bbd8fbbaf673","2025-09-02_06h38.36.733",NA,NA,719.8165,719.8168,719.8169,720.1549,NA,NA,NA,NA,NA,NA,NA,TRUE,1,1.0717,716.7972,719.8155,NA,NA,NA,NA,NA,28,35,0,79,79,39,1,2,80,"binary"
"E8454A56D9AC4EA0ABBBFB0320FBD547",1,"01990aa6-4ae6-72ee-8968-3b60f857f18b","01990a83-7673-7c0c-a792-bbd8fbbaf673","2025-09-02_06h38.36.733",NA,NA,723.1671,723.1672,723.1673,723.5147,NA,NA,NA,NA,NA,NA,NA,TRUE,1,0.7507,720.1615,723.1658,NA,NA,NA,NA,NA,40,47,0,80,80,52,1,2,81,"binary"
"E8454A56D9AC4EA0ABBBFB0320FBD547",1,"01990aa6-4ae6-72ee-8968-3b60f857f18b","01990a83-7673-7c0c-a792-bbd8fbbaf673","2025-09-02_06h38.36.733",NA,NA,726.5051,726.5052,726.5052,726.9002,NA,NA,NA,NA,NA,NA,NA,TRUE,1,0.8899,723.5208,726.5039,NA,NA,NA,NA,NA,21,30,0,81,81,27,1,2,82,"binary"
"E8454A56D9AC4EA0ABBBFB0320FBD547",1,"01990aa6-4ae6-72ee-8968-3b60f857f18b","01990a83-7673-7c0c-a792-bbd8fbbaf673","2025-09-02_06h38.36.733",NA,NA,729.8529,729.8534,729.8534,730.2125,NA,NA,NA,NA,NA,NA,NA,TRUE,1,0.8567,726.9062,729.8526,NA,NA,NA,NA,NA,50,30,0,82,82,61,1,2,83,"binary"
"E8454A56D9AC4EA0ABBBFB0320FBD547",1,"01990aa6-4ae6-72ee-8968-3b60f857f18b","01990a83-7673-7c0c-a792-bbd8fbbaf673","2025-09-02_06h38.36.733",NA,NA,733.2203,733.2206,733.2207,733.5651,NA,NA,NA,NA,NA,NA,NA,TRUE,1,1.0245,730.2182,733.2193,NA,NA,NA,NA,NA,30,30,0,83,83,45,1,2,84,"binary"
"E8454A56D9AC4EA0ABBBFB0320FBD547",1,"01990aa6-4ae6-72ee-8968-3b60f857f18b","01990a83-7673-7c0c-a792-bbd8fbbaf673","2025-09-02_06h38.36.733",NA,NA,736.545,736.5451,736.5452,736.9151,NA,NA,NA,NA,NA,NA,NA,TRUE,1,1.0264,733.571,736.5438,NA,NA,NA,NA,NA,21,32,0,84,84,28,1,2,85,"binary"
"E8454A56D9AC4EA0ABBBFB0320FBD547",1,"01990aa6-4ae6-72ee-8968-3b60f857f18b","01990a83-7673-7c0c-a792-bbd8fbbaf673","2025-09-02_06h38.36.733",NA,NA,739.9012,739.9012,739.9012,740.2759,NA,NA,NA,NA,NA,NA,NA,TRUE,1,1.2568,736.9211,739.9,NA,NA,NA,NA,NA,40,27,0,85,85,48,1,2,86,"binary"
"E8454A56D9AC4EA0ABBBFB0320FBD547",1,"01990aa6-4ae6-72ee-8968-3b60f857f18b","01990a83-7673-7c0c-a792-bbd8fbbaf673","2025-09-02_06h38.36.733",NA,NA,743.2604,743.2604,743.2604,743.5992,NA,NA,NA,NA,NA,NA,NA,TRUE,1,0.8598,740.2819,743.2598,NA,NA,NA,NA,NA,60,47,0,86,86,70,1,2,87,"binary"
"E8454A56D9AC4EA0ABBBFB0320FBD547",1,"01990aa6-4ae6-72ee-8968-3b60f857f18b","01990a83-7673-7c0c-a792-bbd8fbbaf673","2025-09-02_06h38.36.733",NA,NA,746.6113,746.6114,746.6116,746.9423,NA,NA,NA,NA,NA,NA,NA,TRUE,1,0.5918,743.6047,746.6101,NA,NA,NA,NA,NA,200,26,0,87,87,102,1,2,88,"binary"
"E8454A56D9AC4EA0ABBBFB0320FBD547",1,"01990aa6-4ae6-72ee-8968-3b60f857f18b","01990a83-7673-7c0c-a792-bbd8fbbaf673","2025-09-02_06h38.36.733",NA,NA,749.9659,749.966,749.966,750.3067,NA,NA,NA,NA,NA,NA,NA,TRUE,1,0.8282,746.9491,749.9654,NA,NA,NA,NA,NA,25,27,0,88,88,30,1,2,89,"binary"
"E8454A56D9AC4EA0ABBBFB0320FBD547",1,"01990aa6-4ae6-72ee-8968-3b60f857f18b","01990a83-7673-7c0c-a792-bbd8fbbaf673","2025-09-02_06h38.36.733",NA,NA,753.3082,753.3083,753.3084,753.6784,NA,NA,NA,NA,NA,NA,NA,TRUE,1,0.4845,750.3122,753.3072,NA,NA,NA,NA,NA,150,31,0,89,89,90,1,2,90,"binary"
"E8454A56D9AC4EA0ABBBFB0320FBD547",1,"01990aa6-4ae6-72ee-8968-3b60f857f18b","01990a83-7673-7c0c-a792-bbd8fbbaf673","2025-09-02_06h38.36.733",NA,NA,756.6499,756.65,756.65,757.012,NA,NA,NA,NA,NA,NA,NA,TRUE,2,1.0107,753.6822,756.6489,NA,NA,NA,NA,NA,7,30,0,90,90,3,1,2,91,"binary"
"E8454A56D9AC4EA0ABBBFB0320FBD547",1,"01990aa6-4ae6-72ee-8968-3b60f857f18b","01990a83-7673-7c0c-a792-bbd8fbbaf673","2025-09-02_06h38.36.733",NA,NA,760.0124,760.0125,760.0125,760.3433,NA,NA,NA,NA,NA,NA,NA,TRUE,1,1.4672,757.0169,760.0111,NA,NA,NA,NA,NA,10,29,0,91,91,9,1,2,92,"binary"
"E8454A56D9AC4EA0ABBBFB0320FBD547",1,"01990aa6-4ae6-72ee-8968-3b60f857f18b","01990a83-7673-7c0c-a792-bbd8fbbaf673","2025-09-02_06h38.36.733",NA,NA,763.3457,763.3457,763.3457,763.7175,NA,NA,NA,NA,NA,NA,NA,TRUE,1,0.9667,760.3472,763.3451,NA,NA,NA,NA,NA,95,31,0,92,92,78,1,2,93,"binary"
"E8454A56D9AC4EA0ABBBFB0320FBD547",1,"01990aa6-4ae6-72ee-8968-3b60f857f18b","01990a83-7673-7c0c-a792-bbd8fbbaf673","2025-09-02_06h38.36.733",NA,NA,766.7146,766.7148,766.7148,767.078,NA,NA,NA,NA,NA,NA,NA,TRUE,1,0.755,763.7236,766.7134,NA,NA,NA,NA,NA,95,40,0,93,93,81,1,2,94,"binary"
"E8454A56D9AC4EA0ABBBFB0320FBD547",1,"01990aa6-4ae6-72ee-8968-3b60f857f18b","01990a83-7673-7c0c-a792-bbd8fbbaf673","2025-09-02_06h38.36.733",NA,NA,770.0524,770.0525,770.0526,770.4313,NA,NA,NA,NA,NA,NA,NA,TRUE,1,0.7597,767.0838,770.0522,NA,NA,NA,NA,NA,14,28,0,94,94,20,1,2,95,"binary"
"E8454A56D9AC4EA0ABBBFB0320FBD547",1,"01990aa6-4ae6-72ee-8968-3b60f857f18b","01990a83-7673-7c0c-a792-bbd8fbbaf673","2025-09-02_06h38.36.733",NA,NA,773.4221,773.4223,773.4224,773.758,NA,NA,NA,NA,NA,NA,NA,TRUE,1,1.2174,770.4371,773.4217,NA,NA,NA,NA,NA,21,27,0,95,95,25,1,2,96,"binary"
"E8454A56D9AC4EA0ABBBFB0320FBD547",1,"01990aa6-4ae6-72ee-8968-3b60f857f18b","01990a83-7673-7c0c-a792-bbd8fbbaf673","2025-09-02_06h38.36.733",NA,NA,776.7489,776.7489,776.749,777.1163,NA,NA,NA,NA,NA,NA,NA,TRUE,1,0.68,773.7643,776.7474,NA,NA,NA,NA,NA,25,33,0,96,96,33,1,2,97,"binary"
"E8454A56D9AC4EA0ABBBFB0320FBD547",1,"01990aa6-4ae6-72ee-8968-3b60f857f18b","01990a83-7673-7c0c-a792-bbd8fbbaf673","2025-09-02_06h38.36.733",NA,NA,780.1245,780.1246,780.1246,780.4531,NA,NA,NA,NA,NA,NA,NA,TRUE,1,0.5849,777.1223,780.1239,NA,NA,NA,NA,NA,200,54,0,97,97,107,1,2,98,"binary"
"E8454A56D9AC4EA0ABBBFB0320FBD547",1,"01990aa6-4ae6-72ee-8968-3b60f857f18b","01990a83-7673-7c0c-a792-bbd8fbbaf673","2025-09-02_06h38.36.733",NA,NA,783.4679,783.4681,783.4682,783.8116,NA,NA,NA,NA,NA,NA,NA,TRUE,1,0.619,780.4581,783.4661,NA,NA,NA,NA,NA,40,54,0,98,98,53,1,2,99,"binary"
"E8454A56D9AC4EA0ABBBFB0320FBD547",1,"01990aa6-4ae6-72ee-8968-3b60f857f18b","01990a83-7673-7c0c-a792-bbd8fbbaf673","2025-09-02_06h38.36.733",NA,NA,786.8226,786.8227,786.8227,787.1415,NA,NA,NA,NA,NA,NA,NA,TRUE,1,0.6738,783.818,786.8218,NA,NA,NA,NA,NA,200,28,0,99,99,103,1,2,100,"binary"
"E8454A56D9AC4EA0ABBBFB0320FBD547",1,"01990aa6-4ae6-72ee-8968-3b60f857f18b","01990a83-7673-7c0c-a792-bbd8fbbaf673","2025-09-02_06h38.36.733",NA,NA,790.1548,790.1549,790.1549,790.5202,NA,NA,NA,NA,NA,NA,NA,TRUE,1,0.9972,787.1446,790.1545,NA,NA,NA,NA,NA,180,54,0,100,100,101,1,2,101,"binary"
"E8454A56D9AC4EA0ABBBFB0320FBD547",1,"01990aa6-4ae6-72ee-8968-3b60f857f18b","01990a83-7673-7c0c-a792-bbd8fbbaf673","2025-09-02_06h38.36.733",NA,NA,793.5153,793.5154,793.5154,793.8543,NA,NA,NA,NA,NA,NA,NA,TRUE,1,1.0824,790.5245,793.514,NA,NA,NA,NA,NA,12,28,0,101,101,14,1,2,102,"binary"
"E8454A56D9AC4EA0ABBBFB0320FBD547",1,"01990aa6-4ae6-72ee-8968-3b60f857f18b","01990a83-7673-7c0c-a792-bbd8fbbaf673","2025-09-02_06h38.36.733",NA,NA,796.8609,796.861,796.861,797.2026,NA,NA,NA,NA,NA,NA,NA,TRUE,1,1.6792,793.8584,796.8605,NA,NA,NA,NA,NA,30,32,0,102,102,46,1,2,103,"binary"
"E8454A56D9AC4EA0ABBBFB0320FBD547",1,"01990aa6-4ae6-72ee-8968-3b60f857f18b","01990a83-7673-7c0c-a792-bbd8fbbaf673","2025-09-02_06h38.36.733",NA,NA,800.2438,800.244,800.244,800.5328,NA,NA,NA,NA,NA,NA,NA,TRUE,2,2.2765,797.2066,800.2435,NA,NA,NA,NA,NA,25,35,0,103,103,34,1,2,104,"binary"
"E8454A56D9AC4EA0ABBBFB0320FBD547",1,"01990aa6-4ae6-72ee-8968-3b60f857f18b","01990a83-7673-7c0c-a792-bbd8fbbaf673","2025-09-02_06h38.36.733",NA,NA,803.5319,803.5319,803.532,803.9602,NA,NA,NA,NA,NA,NA,NA,TRUE,1,0.7717,800.5366,803.5313,NA,NA,NA,NA,NA,60,35,0,104,104,68,1,2,105,"binary"
"E8454A56D9AC4EA0ABBBFB0320FBD547",1,"01990aa6-4ae6-72ee-8968-3b60f857f18b","01990a83-7673-7c0c-a792-bbd8fbbaf673","2025-09-02_06h38.36.733",NA,NA,806.9268,806.9269,806.9269,807.3007,NA,NA,NA,NA,NA,NA,NA,TRUE,2,0.9727,803.964,806.9266,NA,NA,NA,NA,NA,12,35,0,105,105,17,1,2,106,"binary"
"E8454A56D9AC4EA0ABBBFB0320FBD547",1,"01990aa6-4ae6-72ee-8968-3b60f857f18b","01990a83-7673-7c0c-a792-bbd8fbbaf673","2025-09-02_06h38.36.733",NA,NA,810.2684,810.2686,810.2686,810.6329,NA,NA,NA,NA,NA,NA,NA,TRUE,1,1.166,807.3041,810.2677,NA,NA,NA,NA,NA,10,25,0,106,106,6,1,2,107,"binary"
"E8454A56D9AC4EA0ABBBFB0320FBD547",1,"01990aa6-4ae6-72ee-8968-3b60f857f18b","01990a83-7673-7c0c-a792-bbd8fbbaf673","2025-09-02_06h38.36.733",NA,NA,813.63,813.63,813.6301,813.974,NA,NA,NA,NA,NA,NA,NA,TRUE,1,1.1809,810.6363,813.6296,NA,NA,NA,NA,NA,25,29,0,107,107,31,1,2,108,"binary"
