"participant","session","assignmentId","projectId","date","practiceTrial.started","practiceTrial.stopped","tooLate.started","tooLate.stopped","blank.started","blank.stopped","trials_pract.thisRepN","trials_pract.thisTrialN","trials_pract.thisN","trials_pract.thisIndex","trials_pract.ran","delay_pract","amount_pract","responseMade","key","rt","trial.started","trial.stopped","trials.thisRepN","trials.thisTrialN","trials.thisN","trials.thisIndex","trials.ran","delay","amount","trials_2.thisRepN","trials_2.thisTrialN","trials_2.thisN","trials_2.thisIndex","trials_2.ran","block","trial","taskType"
"EBF31F4BA5204F098DF439462C0CF83E",1,"0198f77c-4f06-7602-a33d-548efcf3fbb2","0198f767-55c9-7875-8d21-563b3c0b86ed","2025-08-29_16h19.59.316",41.4108,44.3475,44.3486,44.5971,44.5974,44.6972,0,0,0,1,1,100,50,FALSE,NA,NA,NA,NA,NA,NA,NA,NA,NA,NA,NA,NA,NA,NA,NA,NA,0,1,"binary"
"EBF31F4BA5204F098DF439462C0CF83E",1,"0198f77c-4f06-7602-a33d-548efcf3fbb2","0198f767-55c9-7875-8d21-563b3c0b86ed","2025-08-29_16h19.59.316",44.7005,47.6964,47.6966,47.6966,47.6967,48.0464,0,1,1,3,1,3,27,TRUE,2,2.0509,NA,NA,NA,NA,NA,NA,NA,NA,NA,NA,NA,NA,NA,NA,0,2,"binary"
"EBF31F4BA5204F098DF439462C0CF83E",1,"0198f77c-4f06-7602-a33d-548efcf3fbb2","0198f767-55c9-7875-8d21-563b3c0b86ed","2025-08-29_16h19.59.316",48.05,51.0459,51.0461,51.0461,51.0462,51.3958,0,2,2,2,1,14,45,TRUE,2,1.2165,NA,NA,NA,NA,NA,NA,NA,NA,NA,NA,NA,NA,NA,NA,0,3,"binary"
"EBF31F4BA5204F098DF439462C0CF83E",1,"0198f77c-4f06-7602-a33d-548efcf3fbb2","0198f767-55c9-7875-8d21-563b3c0b86ed","2025-08-29_16h19.59.316",51.3977,54.3955,54.3956,54.3957,54.3958,54.7447,0,3,3,4,1,30,40,TRUE,2,1.1342,NA,NA,NA,NA,NA,NA,NA,NA,NA,NA,NA,NA,NA,NA,0,4,"binary"
"EBF31F4BA5204F098DF439462C0CF83E",1,"0198f77c-4f06-7602-a33d-548efcf3fbb2","0198f767-55c9-7875-8d21-563b3c0b86ed","2025-08-29_16h19.59.316",54.7465,57.7452,57.7454,57.7455,57.7456,58.0954,0,4,4,0,1,7,30,TRUE,2,1.0033,NA,NA,NA,NA,NA,NA,NA,NA,NA,NA,NA,NA,NA,NA,0,5,"binary"
"EBF31F4BA5204F098DF439462C0CF83E",1,"0198f77c-4f06-7602-a33d-548efcf3fbb2","0198f767-55c9-7875-8d21-563b3c0b86ed","2025-08-29_16h19.59.316",NA,NA,86.4079,86.4083,86.4085,86.757,NA,NA,NA,NA,NA,NA,NA,TRUE,1,1.5182,83.4886,86.4073,0,0,0,0,1,7,25,NA,NA,NA,NA,NA,1,1,"binary"
"EBF31F4BA5204F098DF439462C0CF83E",1,"0198f77c-4f06-7602-a33d-548efcf3fbb2","0198f767-55c9-7875-8d21-563b3c0b86ed","2025-08-29_16h19.59.316",NA,NA,89.7559,89.756,89.756,90.1059,NA,NA,NA,NA,NA,NA,NA,TRUE,1,1.6488,86.763,89.7558,0,1,1,20,1,14,28,NA,NA,NA,NA,NA,1,2,"binary"
"EBF31F4BA5204F098DF439462C0CF83E",1,"0198f77c-4f06-7602-a33d-548efcf3fbb2","0198f767-55c9-7875-8d21-563b3c0b86ed","2025-08-29_16h19.59.316",NA,NA,93.1059,93.106,93.1061,93.4559,NA,NA,NA,NA,NA,NA,NA,TRUE,1,1.172,90.1086,93.1058,0,2,2,12,1,12,25,NA,NA,NA,NA,NA,1,3,"binary"
"EBF31F4BA5204F098DF439462C0CF83E",1,"0198f77c-4f06-7602-a33d-548efcf3fbb2","0198f767-55c9-7875-8d21-563b3c0b86ed","2025-08-29_16h19.59.316",NA,NA,96.4558,96.456,96.4561,96.8052,NA,NA,NA,NA,NA,NA,NA,TRUE,1,1.1973,93.4618,96.4555,0,3,3,26,1,21,29,NA,NA,NA,NA,NA,1,4,"binary"
"EBF31F4BA5204F098DF439462C0CF83E",1,"0198f77c-4f06-7602-a33d-548efcf3fbb2","0198f767-55c9-7875-8d21-563b3c0b86ed","2025-08-29_16h19.59.316",NA,NA,99.8052,99.8054,99.8055,100.1548,NA,NA,NA,NA,NA,NA,NA,TRUE,1,1.3124,96.8104,99.805,0,4,4,31,1,25,29,NA,NA,NA,NA,NA,1,5,"binary"
"EBF31F4BA5204F098DF439462C0CF83E",1,"0198f77c-4f06-7602-a33d-548efcf3fbb2","0198f767-55c9-7875-8d21-563b3c0b86ed","2025-08-29_16h19.59.316",NA,NA,103.1545,103.1545,103.1546,103.505,NA,NA,NA,NA,NA,NA,NA,TRUE,1,0.9987,100.1598,103.1543,0,5,5,24,1,21,26,NA,NA,NA,NA,NA,1,6,"binary"
"EBF31F4BA5204F098DF439462C0CF83E",1,"0198f77c-4f06-7602-a33d-548efcf3fbb2","0198f767-55c9-7875-8d21-563b3c0b86ed","2025-08-29_16h19.59.316",NA,NA,106.5032,106.5033,106.5033,106.8529,NA,NA,NA,NA,NA,NA,NA,TRUE,1,0.695,103.5124,106.5031,0,6,6,25,1,21,27,NA,NA,NA,NA,NA,1,7,"binary"
"EBF31F4BA5204F098DF439462C0CF83E",1,"0198f77c-4f06-7602-a33d-548efcf3fbb2","0198f767-55c9-7875-8d21-563b3c0b86ed","2025-08-29_16h19.59.316",NA,NA,109.8526,109.8526,109.8527,110.2024,NA,NA,NA,NA,NA,NA,NA,TRUE,1,0.8556,106.8545,109.8525,0,7,7,33,1,25,33,NA,NA,NA,NA,NA,1,8,"binary"
"EBF31F4BA5204F098DF439462C0CF83E",1,"0198f77c-4f06-7602-a33d-548efcf3fbb2","0198f767-55c9-7875-8d21-563b3c0b86ed","2025-08-29_16h19.59.316",NA,NA,113.2021,113.2021,113.2022,113.5518,NA,NA,NA,NA,NA,NA,NA,TRUE,1,0.6418,110.2041,113.2019,0,8,8,84,1,100,26,NA,NA,NA,NA,NA,1,9,"binary"
"EBF31F4BA5204F098DF439462C0CF83E",1,"0198f77c-4f06-7602-a33d-548efcf3fbb2","0198f767-55c9-7875-8d21-563b3c0b86ed","2025-08-29_16h19.59.316",NA,NA,116.5516,116.5517,116.5518,116.9014,NA,NA,NA,NA,NA,NA,NA,TRUE,1,0.9206,113.5535,116.5515,0,9,9,58,1,45,40,NA,NA,NA,NA,NA,1,10,"binary"
"EBF31F4BA5204F098DF439462C0CF83E",1,"0198f77c-4f06-7602-a33d-548efcf3fbb2","0198f767-55c9-7875-8d21-563b3c0b86ed","2025-08-29_16h19.59.316",NA,NA,119.901,119.9011,119.9011,120.2508,NA,NA,NA,NA,NA,NA,NA,TRUE,1,0.9098,116.9029,119.9009,0,10,10,43,1,30,27,NA,NA,NA,NA,NA,1,11,"binary"
"EBF31F4BA5204F098DF439462C0CF83E",1,"0198f77c-4f06-7602-a33d-548efcf3fbb2","0198f767-55c9-7875-8d21-563b3c0b86ed","2025-08-29_16h19.59.316",NA,NA,123.2505,123.2506,123.2506,123.6002,NA,NA,NA,NA,NA,NA,NA,TRUE,1,0.9756,120.2526,123.2504,0,11,11,80,1,95,35,NA,NA,NA,NA,NA,1,12,"binary"
"EBF31F4BA5204F098DF439462C0CF83E",1,"0198f77c-4f06-7602-a33d-548efcf3fbb2","0198f767-55c9-7875-8d21-563b3c0b86ed","2025-08-29_16h19.59.316",NA,NA,126.5999,126.6,126.6001,126.9497,NA,NA,NA,NA,NA,NA,NA,TRUE,1,1.8173,123.6018,126.5999,0,12,12,77,1,90,54,NA,NA,NA,NA,NA,1,13,"binary"
"EBF31F4BA5204F098DF439462C0CF83E",1,"0198f77c-4f06-7602-a33d-548efcf3fbb2","0198f767-55c9-7875-8d21-563b3c0b86ed","2025-08-29_16h19.59.316",NA,NA,129.9494,129.9494,129.9495,130.2992,NA,NA,NA,NA,NA,NA,NA,TRUE,1,1.067,126.9514,129.9493,0,13,13,96,1,180,27,NA,NA,NA,NA,NA,1,14,"binary"
"EBF31F4BA5204F098DF439462C0CF83E",1,"0198f77c-4f06-7602-a33d-548efcf3fbb2","0198f767-55c9-7875-8d21-563b3c0b86ed","2025-08-29_16h19.59.316",NA,NA,133.2993,133.2993,133.2994,133.6487,NA,NA,NA,NA,NA,NA,NA,TRUE,1,1.2538,130.3007,133.2991,0,14,14,79,1,95,33,NA,NA,NA,NA,NA,1,15,"binary"
"EBF31F4BA5204F098DF439462C0CF83E",1,"0198f77c-4f06-7602-a33d-548efcf3fbb2","0198f767-55c9-7875-8d21-563b3c0b86ed","2025-08-29_16h19.59.316",NA,NA,136.6491,136.6492,136.6492,136.9986,NA,NA,NA,NA,NA,NA,NA,TRUE,1,1.0503,133.6503,136.649,0,15,15,82,1,95,47,NA,NA,NA,NA,NA,1,16,"binary"
"EBF31F4BA5204F098DF439462C0CF83E",1,"0198f77c-4f06-7602-a33d-548efcf3fbb2","0198f767-55c9-7875-8d21-563b3c0b86ed","2025-08-29_16h19.59.316",NA,NA,139.9984,139.9985,139.9985,140.3481,NA,NA,NA,NA,NA,NA,NA,TRUE,1,1.1338,137.0004,139.9982,0,16,16,95,1,150,54,NA,NA,NA,NA,NA,1,17,"binary"
"EBF31F4BA5204F098DF439462C0CF83E",1,"0198f77c-4f06-7602-a33d-548efcf3fbb2","0198f767-55c9-7875-8d21-563b3c0b86ed","2025-08-29_16h19.59.316",NA,NA,143.3479,143.3479,143.348,143.6976,NA,NA,NA,NA,NA,NA,NA,TRUE,1,1.4335,140.3498,143.3477,0,17,17,10,1,10,30,NA,NA,NA,NA,NA,1,18,"binary"
"EBF31F4BA5204F098DF439462C0CF83E",1,"0198f77c-4f06-7602-a33d-548efcf3fbb2","0198f767-55c9-7875-8d21-563b3c0b86ed","2025-08-29_16h19.59.316",NA,NA,146.6983,146.6984,146.6987,147.0473,NA,NA,NA,NA,NA,NA,NA,TRUE,1,1.1169,143.6992,146.6979,0,18,18,14,1,12,28,NA,NA,NA,NA,NA,1,19,"binary"
"EBF31F4BA5204F098DF439462C0CF83E",1,"0198f77c-4f06-7602-a33d-548efcf3fbb2","0198f767-55c9-7875-8d21-563b3c0b86ed","2025-08-29_16h19.59.316",NA,NA,150.0471,150.0473,150.0474,150.3962,NA,NA,NA,NA,NA,NA,NA,TRUE,1,1.1838,147.0502,150.0469,0,19,19,8,1,10,27,NA,NA,NA,NA,NA,1,20,"binary"
"EBF31F4BA5204F098DF439462C0CF83E",1,"0198f77c-4f06-7602-a33d-548efcf3fbb2","0198f767-55c9-7875-8d21-563b3c0b86ed","2025-08-29_16h19.59.316",NA,NA,153.3963,153.3965,153.3966,153.7464,NA,NA,NA,NA,NA,NA,NA,TRUE,1,1.3689,150.3991,153.3961,0,20,20,105,1,200,39,NA,NA,NA,NA,NA,1,21,"binary"
"EBF31F4BA5204F098DF439462C0CF83E",1,"0198f77c-4f06-7602-a33d-548efcf3fbb2","0198f767-55c9-7875-8d21-563b3c0b86ed","2025-08-29_16h19.59.316",NA,NA,156.7627,156.763,156.7632,157.0959,NA,NA,NA,NA,NA,NA,NA,TRUE,1,1.1833,153.751,156.7626,0,21,21,67,1,60,33,NA,NA,NA,NA,NA,1,22,"binary"
"EBF31F4BA5204F098DF439462C0CF83E",1,"0198f77c-4f06-7602-a33d-548efcf3fbb2","0198f767-55c9-7875-8d21-563b3c0b86ed","2025-08-29_16h19.59.316",NA,NA,160.1122,160.1125,160.1125,160.4621,NA,NA,NA,NA,NA,NA,NA,TRUE,1,1.0505,157.1009,160.112,0,22,22,44,1,30,29,NA,NA,NA,NA,NA,1,23,"binary"
"EBF31F4BA5204F098DF439462C0CF83E",1,"0198f77c-4f06-7602-a33d-548efcf3fbb2","0198f767-55c9-7875-8d21-563b3c0b86ed","2025-08-29_16h19.59.316",NA,NA,163.462,163.4623,163.4624,163.8111,NA,NA,NA,NA,NA,NA,NA,TRUE,1,1.1816,160.4669,163.4617,0,23,23,40,1,28,39,NA,NA,NA,NA,NA,1,24,"binary"
"EBF31F4BA5204F098DF439462C0CF83E",1,"0198f77c-4f06-7602-a33d-548efcf3fbb2","0198f767-55c9-7875-8d21-563b3c0b86ed","2025-08-29_16h19.59.316",NA,NA,166.8108,166.8111,166.8112,167.1599,NA,NA,NA,NA,NA,NA,NA,TRUE,1,1.3658,163.8165,166.8104,0,24,24,47,1,30,38,NA,NA,NA,NA,NA,1,25,"binary"
"EBF31F4BA5204F098DF439462C0CF83E",1,"0198f77c-4f06-7602-a33d-548efcf3fbb2","0198f767-55c9-7875-8d21-563b3c0b86ed","2025-08-29_16h19.59.316",NA,NA,170.1596,170.1597,170.1597,170.5094,NA,NA,NA,NA,NA,NA,NA,TRUE,1,1.218,167.162,170.1595,0,25,25,21,1,14,32,NA,NA,NA,NA,NA,1,26,"binary"
"EBF31F4BA5204F098DF439462C0CF83E",1,"0198f77c-4f06-7602-a33d-548efcf3fbb2","0198f767-55c9-7875-8d21-563b3c0b86ed","2025-08-29_16h19.59.316",NA,NA,173.5093,173.5093,173.5093,173.8591,NA,NA,NA,NA,NA,NA,NA,TRUE,1,1.3172,170.5111,173.5092,0,26,26,15,1,12,31,NA,NA,NA,NA,NA,1,27,"binary"
"EBF31F4BA5204F098DF439462C0CF83E",1,"0198f77c-4f06-7602-a33d-548efcf3fbb2","0198f767-55c9-7875-8d21-563b3c0b86ed","2025-08-29_16h19.59.316",NA,NA,176.8586,176.8587,176.8588,177.2085,NA,NA,NA,NA,NA,NA,NA,TRUE,1,1.0018,173.8605,176.8585,0,27,27,81,1,95,40,NA,NA,NA,NA,NA,1,28,"binary"
"EBF31F4BA5204F098DF439462C0CF83E",1,"0198f77c-4f06-7602-a33d-548efcf3fbb2","0198f767-55c9-7875-8d21-563b3c0b86ed","2025-08-29_16h19.59.316",NA,NA,180.2097,180.2101,180.2103,180.5579,NA,NA,NA,NA,NA,NA,NA,TRUE,1,1.5034,177.2102,180.2093,0,28,28,60,1,50,27,NA,NA,NA,NA,NA,1,29,"binary"
"EBF31F4BA5204F098DF439462C0CF83E",1,"0198f77c-4f06-7602-a33d-548efcf3fbb2","0198f767-55c9-7875-8d21-563b3c0b86ed","2025-08-29_16h19.59.316",NA,NA,183.5606,183.5612,183.5615,183.9088,NA,NA,NA,NA,NA,NA,NA,TRUE,1,1.2847,180.5599,183.56,0,29,29,37,1,28,28,NA,NA,NA,NA,NA,1,30,"binary"
"EBF31F4BA5204F098DF439462C0CF83E",1,"0198f77c-4f06-7602-a33d-548efcf3fbb2","0198f767-55c9-7875-8d21-563b3c0b86ed","2025-08-29_16h19.59.316",NA,NA,186.9085,186.9086,186.9086,187.2599,NA,NA,NA,NA,NA,NA,NA,TRUE,1,1.9,183.9119,186.9084,0,30,30,61,1,50,30,NA,NA,NA,NA,NA,1,31,"binary"
"EBF31F4BA5204F098DF439462C0CF83E",1,"0198f77c-4f06-7602-a33d-548efcf3fbb2","0198f767-55c9-7875-8d21-563b3c0b86ed","2025-08-29_16h19.59.316",NA,NA,190.2588,190.2591,190.2592,190.6086,NA,NA,NA,NA,NA,NA,NA,TRUE,1,1.1995,187.2651,190.2586,0,31,31,11,1,10,32,NA,NA,NA,NA,NA,1,32,"binary"
"EBF31F4BA5204F098DF439462C0CF83E",1,"0198f77c-4f06-7602-a33d-548efcf3fbb2","0198f767-55c9-7875-8d21-563b3c0b86ed","2025-08-29_16h19.59.316",NA,NA,193.6079,193.6079,193.608,193.9576,NA,NA,NA,NA,NA,NA,NA,TRUE,1,1.1676,190.6121,193.6078,0,32,32,49,1,40,33,NA,NA,NA,NA,NA,1,33,"binary"
"EBF31F4BA5204F098DF439462C0CF83E",1,"0198f77c-4f06-7602-a33d-548efcf3fbb2","0198f767-55c9-7875-8d21-563b3c0b86ed","2025-08-29_16h19.59.316",NA,NA,196.9584,196.9586,196.9586,197.309,NA,NA,NA,NA,NA,NA,NA,TRUE,1,1.5506,193.9594,196.9582,0,33,33,39,1,28,35,NA,NA,NA,NA,NA,1,34,"binary"
"EBF31F4BA5204F098DF439462C0CF83E",1,"0198f77c-4f06-7602-a33d-548efcf3fbb2","0198f767-55c9-7875-8d21-563b3c0b86ed","2025-08-29_16h19.59.316",NA,NA,200.3085,200.3087,200.3088,200.6583,NA,NA,NA,NA,NA,NA,NA,TRUE,1,1.2475,197.3131,200.3083,0,34,34,72,1,90,26,NA,NA,NA,NA,NA,1,35,"binary"
"EBF31F4BA5204F098DF439462C0CF83E",1,"0198f77c-4f06-7602-a33d-548efcf3fbb2","0198f767-55c9-7875-8d21-563b3c0b86ed","2025-08-29_16h19.59.316",NA,NA,203.6599,203.6603,203.6604,204.0088,NA,NA,NA,NA,NA,NA,NA,TRUE,2,1.8503,200.6607,203.6595,0,35,35,5,1,7,35,NA,NA,NA,NA,NA,1,36,"binary"
"EBF31F4BA5204F098DF439462C0CF83E",1,"0198f77c-4f06-7602-a33d-548efcf3fbb2","0198f767-55c9-7875-8d21-563b3c0b86ed","2025-08-29_16h19.59.316",NA,NA,207.0087,207.0088,207.0088,207.3582,NA,NA,NA,NA,NA,NA,NA,TRUE,1,1.1008,204.0133,207.0085,0,36,36,54,1,45,26,NA,NA,NA,NA,NA,1,37,"binary"
"EBF31F4BA5204F098DF439462C0CF83E",1,"0198f77c-4f06-7602-a33d-548efcf3fbb2","0198f767-55c9-7875-8d21-563b3c0b86ed","2025-08-29_16h19.59.316",NA,NA,210.3588,210.3591,210.3591,210.7095,NA,NA,NA,NA,NA,NA,NA,TRUE,1,1.1675,207.361,210.3586,0,37,37,27,1,21,30,NA,NA,NA,NA,NA,1,38,"binary"
"EBF31F4BA5204F098DF439462C0CF83E",1,"0198f77c-4f06-7602-a33d-548efcf3fbb2","0198f767-55c9-7875-8d21-563b3c0b86ed","2025-08-29_16h19.59.316",NA,NA,213.7096,213.7101,213.7102,214.058,NA,NA,NA,NA,NA,NA,NA,TRUE,1,0.6672,210.715,213.7094,0,38,38,78,1,95,31,NA,NA,NA,NA,NA,1,39,"binary"
"EBF31F4BA5204F098DF439462C0CF83E",1,"0198f77c-4f06-7602-a33d-548efcf3fbb2","0198f767-55c9-7875-8d21-563b3c0b86ed","2025-08-29_16h19.59.316",NA,NA,217.0579,217.0579,217.058,217.4077,NA,NA,NA,NA,NA,NA,NA,TRUE,1,1.7355,214.06,217.0578,0,39,39,6,1,10,25,NA,NA,NA,NA,NA,1,40,"binary"
"EBF31F4BA5204F098DF439462C0CF83E",1,"0198f77c-4f06-7602-a33d-548efcf3fbb2","0198f767-55c9-7875-8d21-563b3c0b86ed","2025-08-29_16h19.59.316",NA,NA,220.4086,220.4089,220.409,220.7577,NA,NA,NA,NA,NA,NA,NA,TRUE,1,1.6022,217.4091,220.4084,0,40,40,38,1,28,32,NA,NA,NA,NA,NA,1,41,"binary"
"EBF31F4BA5204F098DF439462C0CF83E",1,"0198f77c-4f06-7602-a33d-548efcf3fbb2","0198f767-55c9-7875-8d21-563b3c0b86ed","2025-08-29_16h19.59.316",NA,NA,223.7585,223.7586,223.7587,224.1081,NA,NA,NA,NA,NA,NA,NA,TRUE,2,2.2509,220.7594,223.7583,0,41,41,64,1,50,46,NA,NA,NA,NA,NA,1,42,"binary"
"EBF31F4BA5204F098DF439462C0CF83E",1,"0198f77c-4f06-7602-a33d-548efcf3fbb2","0198f767-55c9-7875-8d21-563b3c0b86ed","2025-08-29_16h19.59.316",NA,NA,227.1086,227.1086,227.1087,227.4578,NA,NA,NA,NA,NA,NA,NA,TRUE,1,0.8845,224.1103,227.1085,0,42,42,91,1,150,33,NA,NA,NA,NA,NA,1,43,"binary"
"EBF31F4BA5204F098DF439462C0CF83E",1,"0198f77c-4f06-7602-a33d-548efcf3fbb2","0198f767-55c9-7875-8d21-563b3c0b86ed","2025-08-29_16h19.59.316",NA,NA,230.4598,230.4602,230.4603,230.8098,NA,NA,NA,NA,NA,NA,NA,TRUE,2,1.9185,227.4593,230.4594,0,43,43,23,1,14,39,NA,NA,NA,NA,NA,1,44,"binary"
"EBF31F4BA5204F098DF439462C0CF83E",1,"0198f77c-4f06-7602-a33d-548efcf3fbb2","0198f767-55c9-7875-8d21-563b3c0b86ed","2025-08-29_16h19.59.316",NA,NA,233.8081,233.8082,233.8082,234.1578,NA,NA,NA,NA,NA,NA,NA,TRUE,2,1.517,230.8152,233.808,0,44,44,63,1,50,40,NA,NA,NA,NA,NA,1,45,"binary"
"EBF31F4BA5204F098DF439462C0CF83E",1,"0198f77c-4f06-7602-a33d-548efcf3fbb2","0198f767-55c9-7875-8d21-563b3c0b86ed","2025-08-29_16h19.59.316",NA,NA,237.1583,237.1583,237.1583,237.5079,NA,NA,NA,NA,NA,NA,NA,TRUE,1,1.0836,234.1593,237.1581,0,45,45,32,1,25,31,NA,NA,NA,NA,NA,1,46,"binary"
"EBF31F4BA5204F098DF439462C0CF83E",1,"0198f77c-4f06-7602-a33d-548efcf3fbb2","0198f767-55c9-7875-8d21-563b3c0b86ed","2025-08-29_16h19.59.316",NA,NA,240.5095,240.51,240.5101,240.8587,NA,NA,NA,NA,NA,NA,NA,TRUE,1,1.2676,237.5097,240.5093,0,46,46,7,1,10,26,NA,NA,NA,NA,NA,1,47,"binary"
"EBF31F4BA5204F098DF439462C0CF83E",1,"0198f77c-4f06-7602-a33d-548efcf3fbb2","0198f767-55c9-7875-8d21-563b3c0b86ed","2025-08-29_16h19.59.316",NA,NA,243.8584,243.8586,243.8586,244.2084,NA,NA,NA,NA,NA,NA,NA,TRUE,1,1.2001,240.8605,243.8583,0,47,47,98,1,180,35,NA,NA,NA,NA,NA,1,48,"binary"
"EBF31F4BA5204F098DF439462C0CF83E",1,"0198f77c-4f06-7602-a33d-548efcf3fbb2","0198f767-55c9-7875-8d21-563b3c0b86ed","2025-08-29_16h19.59.316",NA,NA,247.2088,247.2091,247.2091,247.5586,NA,NA,NA,NA,NA,NA,NA,TRUE,1,1.4837,244.2117,247.2085,0,48,48,85,1,100,31,NA,NA,NA,NA,NA,1,49,"binary"
"EBF31F4BA5204F098DF439462C0CF83E",1,"0198f77c-4f06-7602-a33d-548efcf3fbb2","0198f767-55c9-7875-8d21-563b3c0b86ed","2025-08-29_16h19.59.316",NA,NA,250.5584,250.5586,250.5587,250.9081,NA,NA,NA,NA,NA,NA,NA,TRUE,1,1.0507,247.5613,250.5582,0,49,49,73,1,90,30,NA,NA,NA,NA,NA,1,50,"binary"
"EBF31F4BA5204F098DF439462C0CF83E",1,"0198f77c-4f06-7602-a33d-548efcf3fbb2","0198f767-55c9-7875-8d21-563b3c0b86ed","2025-08-29_16h19.59.316",NA,NA,253.9084,253.9084,253.9085,254.2592,NA,NA,NA,NA,NA,NA,NA,TRUE,1,1.3839,250.9102,253.9083,0,50,50,94,1,150,47,NA,NA,NA,NA,NA,1,51,"binary"
"EBF31F4BA5204F098DF439462C0CF83E",1,"0198f77c-4f06-7602-a33d-548efcf3fbb2","0198f767-55c9-7875-8d21-563b3c0b86ed","2025-08-29_16h19.59.316",NA,NA,257.2598,257.2603,257.2604,257.6091,NA,NA,NA,NA,NA,NA,NA,TRUE,1,0.9676,254.2637,257.2595,0,51,51,4,1,7,32,NA,NA,NA,NA,NA,1,52,"binary"
"EBF31F4BA5204F098DF439462C0CF83E",1,"0198f77c-4f06-7602-a33d-548efcf3fbb2","0198f767-55c9-7875-8d21-563b3c0b86ed","2025-08-29_16h19.59.316",NA,NA,260.6087,260.609,260.609,260.9583,NA,NA,NA,NA,NA,NA,NA,TRUE,1,1.2831,257.6138,260.6085,0,52,52,92,1,150,35,NA,NA,NA,NA,NA,1,53,"binary"
"EBF31F4BA5204F098DF439462C0CF83E",1,"0198f77c-4f06-7602-a33d-548efcf3fbb2","0198f767-55c9-7875-8d21-563b3c0b86ed","2025-08-29_16h19.59.316",NA,NA,263.962,263.9621,263.9622,264.3118,NA,NA,NA,NA,NA,NA,NA,TRUE,1,1.1683,260.9611,263.9618,0,53,53,28,1,21,32,NA,NA,NA,NA,NA,1,54,"binary"
"EBF31F4BA5204F098DF439462C0CF83E",1,"0198f77c-4f06-7602-a33d-548efcf3fbb2","0198f767-55c9-7875-8d21-563b3c0b86ed","2025-08-29_16h19.59.316",NA,NA,267.3112,267.3113,267.3113,267.6616,NA,NA,NA,NA,NA,NA,NA,TRUE,1,1.0339,264.3137,267.3111,0,54,54,97,1,180,31,NA,NA,NA,NA,NA,1,55,"binary"
"EBF31F4BA5204F098DF439462C0CF83E",1,"0198f77c-4f06-7602-a33d-548efcf3fbb2","0198f767-55c9-7875-8d21-563b3c0b86ed","2025-08-29_16h19.59.316",NA,NA,270.6617,270.6619,270.6619,271.011,NA,NA,NA,NA,NA,NA,NA,TRUE,1,1.4833,267.6643,270.6614,0,55,55,62,1,50,35,NA,NA,NA,NA,NA,1,56,"binary"
"EBF31F4BA5204F098DF439462C0CF83E",1,"0198f77c-4f06-7602-a33d-548efcf3fbb2","0198f767-55c9-7875-8d21-563b3c0b86ed","2025-08-29_16h19.59.316",NA,NA,274.0105,274.0107,274.0107,274.3603,NA,NA,NA,NA,NA,NA,NA,TRUE,1,1.0337,271.014,274.0104,0,56,56,53,1,40,54,NA,NA,NA,NA,NA,1,57,"binary"
"EBF31F4BA5204F098DF439462C0CF83E",1,"0198f77c-4f06-7602-a33d-548efcf3fbb2","0198f767-55c9-7875-8d21-563b3c0b86ed","2025-08-29_16h19.59.316",NA,NA,277.3614,277.3617,277.3618,277.7099,NA,NA,NA,NA,NA,NA,NA,TRUE,1,1.2838,274.3629,277.3609,0,57,57,22,1,14,35,NA,NA,NA,NA,NA,1,58,"binary"
"EBF31F4BA5204F098DF439462C0CF83E",1,"0198f77c-4f06-7602-a33d-548efcf3fbb2","0198f767-55c9-7875-8d21-563b3c0b86ed","2025-08-29_16h19.59.316",NA,NA,280.7116,280.7119,280.712,281.0588,NA,NA,NA,NA,NA,NA,NA,TRUE,1,0.7837,277.713,280.7111,0,58,58,68,1,60,35,NA,NA,NA,NA,NA,1,59,"binary"
"EBF31F4BA5204F098DF439462C0CF83E",1,"0198f77c-4f06-7602-a33d-548efcf3fbb2","0198f767-55c9-7875-8d21-563b3c0b86ed","2025-08-29_16h19.59.316",NA,NA,284.0605,284.0605,284.0606,284.4093,NA,NA,NA,NA,NA,NA,NA,TRUE,1,0.7686,281.0605,284.0603,0,59,59,90,1,150,31,NA,NA,NA,NA,NA,1,60,"binary"
"EBF31F4BA5204F098DF439462C0CF83E",1,"0198f77c-4f06-7602-a33d-548efcf3fbb2","0198f767-55c9-7875-8d21-563b3c0b86ed","2025-08-29_16h19.59.316",NA,NA,287.4096,287.4098,287.4098,287.7593,NA,NA,NA,NA,NA,NA,NA,TRUE,1,0.984,284.4133,287.4094,0,60,60,66,1,60,29,NA,NA,NA,NA,NA,1,61,"binary"
"EBF31F4BA5204F098DF439462C0CF83E",1,"0198f77c-4f06-7602-a33d-548efcf3fbb2","0198f767-55c9-7875-8d21-563b3c0b86ed","2025-08-29_16h19.59.316",NA,NA,290.7583,290.7584,290.7584,291.1088,NA,NA,NA,NA,NA,NA,NA,TRUE,2,1.6877,287.7626,290.7582,0,61,61,51,1,40,40,NA,NA,NA,NA,NA,1,62,"binary"
"EBF31F4BA5204F098DF439462C0CF83E",1,"0198f77c-4f06-7602-a33d-548efcf3fbb2","0198f767-55c9-7875-8d21-563b3c0b86ed","2025-08-29_16h19.59.316",NA,NA,294.1093,294.1096,294.1096,294.4604,NA,NA,NA,NA,NA,NA,NA,TRUE,1,1.4832,291.1116,294.1091,0,62,62,45,1,30,30,NA,NA,NA,NA,NA,1,63,"binary"
"EBF31F4BA5204F098DF439462C0CF83E",1,"0198f77c-4f06-7602-a33d-548efcf3fbb2","0198f767-55c9-7875-8d21-563b3c0b86ed","2025-08-29_16h19.59.316",NA,NA,297.4589,297.459,297.459,297.8087,NA,NA,NA,NA,NA,NA,NA,TRUE,1,1.0629,294.4662,297.4588,0,63,63,56,1,45,31,NA,NA,NA,NA,NA,1,64,"binary"
"EBF31F4BA5204F098DF439462C0CF83E",1,"0198f77c-4f06-7602-a33d-548efcf3fbb2","0198f767-55c9-7875-8d21-563b3c0b86ed","2025-08-29_16h19.59.316",NA,NA,300.8084,300.8085,300.8085,301.1598,NA,NA,NA,NA,NA,NA,NA,TRUE,1,0.4676,297.8115,300.8083,0,64,64,18,1,14,25,NA,NA,NA,NA,NA,1,65,"binary"
"EBF31F4BA5204F098DF439462C0CF83E",1,"0198f77c-4f06-7602-a33d-548efcf3fbb2","0198f767-55c9-7875-8d21-563b3c0b86ed","2025-08-29_16h19.59.316",NA,NA,304.1598,304.16,304.1602,304.5095,NA,NA,NA,NA,NA,NA,NA,TRUE,1,1.0852,301.1641,304.1596,0,65,65,13,1,12,26,NA,NA,NA,NA,NA,1,66,"binary"
"EBF31F4BA5204F098DF439462C0CF83E",1,"0198f77c-4f06-7602-a33d-548efcf3fbb2","0198f767-55c9-7875-8d21-563b3c0b86ed","2025-08-29_16h19.59.316",NA,NA,307.5093,307.5097,307.5097,307.8582,NA,NA,NA,NA,NA,NA,NA,TRUE,1,0.9522,304.5132,307.5089,0,66,66,107,1,200,54,NA,NA,NA,NA,NA,1,67,"binary"
"EBF31F4BA5204F098DF439462C0CF83E",1,"0198f77c-4f06-7602-a33d-548efcf3fbb2","0198f767-55c9-7875-8d21-563b3c0b86ed","2025-08-29_16h19.59.316",NA,NA,310.8582,310.8583,310.8583,311.208,NA,NA,NA,NA,NA,NA,NA,TRUE,1,0.8676,307.8606,310.8581,0,67,67,34,1,25,35,NA,NA,NA,NA,NA,1,68,"binary"
"EBF31F4BA5204F098DF439462C0CF83E",1,"0198f77c-4f06-7602-a33d-548efcf3fbb2","0198f767-55c9-7875-8d21-563b3c0b86ed","2025-08-29_16h19.59.316",NA,NA,314.208,314.2081,314.2081,314.5582,NA,NA,NA,NA,NA,NA,NA,TRUE,2,1.8507,311.2094,314.208,0,68,68,46,1,30,32,NA,NA,NA,NA,NA,1,69,"binary"
"EBF31F4BA5204F098DF439462C0CF83E",1,"0198f77c-4f06-7602-a33d-548efcf3fbb2","0198f767-55c9-7875-8d21-563b3c0b86ed","2025-08-29_16h19.59.316",NA,NA,317.5588,317.5589,317.5589,317.9094,NA,NA,NA,NA,NA,NA,NA,TRUE,2,1.3501,314.5597,317.5586,0,69,69,71,1,60,54,NA,NA,NA,NA,NA,1,70,"binary"
"EBF31F4BA5204F098DF439462C0CF83E",1,"0198f77c-4f06-7602-a33d-548efcf3fbb2","0198f767-55c9-7875-8d21-563b3c0b86ed","2025-08-29_16h19.59.316",NA,NA,320.9087,320.9088,320.9088,321.258,NA,NA,NA,NA,NA,NA,NA,TRUE,2,1.584,317.9142,320.9085,0,70,70,59,1,45,46,NA,NA,NA,NA,NA,1,71,"binary"
"EBF31F4BA5204F098DF439462C0CF83E",1,"0198f77c-4f06-7602-a33d-548efcf3fbb2","0198f767-55c9-7875-8d21-563b3c0b86ed","2025-08-29_16h19.59.316",NA,NA,324.2593,324.2595,324.2596,324.6087,NA,NA,NA,NA,NA,NA,NA,TRUE,1,0.918,321.2593,324.2592,0,71,71,99,1,180,39,NA,NA,NA,NA,NA,1,72,"binary"
"EBF31F4BA5204F098DF439462C0CF83E",1,"0198f77c-4f06-7602-a33d-548efcf3fbb2","0198f767-55c9-7875-8d21-563b3c0b86ed","2025-08-29_16h19.59.316",NA,NA,327.6093,327.6093,327.6095,327.9596,NA,NA,NA,NA,NA,NA,NA,TRUE,1,1.4676,324.6116,327.6091,0,72,72,19,1,14,26,NA,NA,NA,NA,NA,1,73,"binary"
"EBF31F4BA5204F098DF439462C0CF83E",1,"0198f77c-4f06-7602-a33d-548efcf3fbb2","0198f767-55c9-7875-8d21-563b3c0b86ed","2025-08-29_16h19.59.316",NA,NA,330.9595,330.9598,330.9598,331.3088,NA,NA,NA,NA,NA,NA,NA,TRUE,1,0.9506,327.9656,330.9592,0,73,73,9,1,10,29,NA,NA,NA,NA,NA,1,74,"binary"
"EBF31F4BA5204F098DF439462C0CF83E",1,"0198f77c-4f06-7602-a33d-548efcf3fbb2","0198f767-55c9-7875-8d21-563b3c0b86ed","2025-08-29_16h19.59.316",NA,NA,334.3095,334.31,334.3101,334.659,NA,NA,NA,NA,NA,NA,NA,TRUE,1,0.8836,331.3125,334.3093,0,74,74,89,1,100,54,NA,NA,NA,NA,NA,1,75,"binary"
"EBF31F4BA5204F098DF439462C0CF83E",1,"0198f77c-4f06-7602-a33d-548efcf3fbb2","0198f767-55c9-7875-8d21-563b3c0b86ed","2025-08-29_16h19.59.316",NA,NA,337.6588,337.6591,337.6592,338.0085,NA,NA,NA,NA,NA,NA,NA,TRUE,1,1.6174,334.6622,337.6586,0,75,75,74,1,90,33,NA,NA,NA,NA,NA,1,76,"binary"
"EBF31F4BA5204F098DF439462C0CF83E",1,"0198f77c-4f06-7602-a33d-548efcf3fbb2","0198f767-55c9-7875-8d21-563b3c0b86ed","2025-08-29_16h19.59.316",NA,NA,341.0086,341.0086,341.0087,341.3585,NA,NA,NA,NA,NA,NA,NA,TRUE,1,1.0171,338.012,341.0084,0,76,76,93,1,150,40,NA,NA,NA,NA,NA,1,77,"binary"
"EBF31F4BA5204F098DF439462C0CF83E",1,"0198f77c-4f06-7602-a33d-548efcf3fbb2","0198f767-55c9-7875-8d21-563b3c0b86ed","2025-08-29_16h19.59.316",NA,NA,344.3586,344.3587,344.3588,344.7081,NA,NA,NA,NA,NA,NA,NA,TRUE,1,1.6005,341.36,344.3585,0,77,77,36,1,28,26,NA,NA,NA,NA,NA,1,78,"binary"
"EBF31F4BA5204F098DF439462C0CF83E",1,"0198f77c-4f06-7602-a33d-548efcf3fbb2","0198f767-55c9-7875-8d21-563b3c0b86ed","2025-08-29_16h19.59.316",NA,NA,347.7092,347.7094,347.7095,348.0588,NA,NA,NA,NA,NA,NA,NA,TRUE,1,1.534,344.7098,347.709,0,78,78,75,1,90,40,NA,NA,NA,NA,NA,1,79,"binary"
"EBF31F4BA5204F098DF439462C0CF83E",1,"0198f77c-4f06-7602-a33d-548efcf3fbb2","0198f767-55c9-7875-8d21-563b3c0b86ed","2025-08-29_16h19.59.316",NA,NA,351.0592,351.0595,351.0597,351.4087,NA,NA,NA,NA,NA,NA,NA,TRUE,1,0.9675,348.0629,351.059,0,79,79,76,1,90,46,NA,NA,NA,NA,NA,1,80,"binary"
"EBF31F4BA5204F098DF439462C0CF83E",1,"0198f77c-4f06-7602-a33d-548efcf3fbb2","0198f767-55c9-7875-8d21-563b3c0b86ed","2025-08-29_16h19.59.316",NA,NA,354.4083,354.4084,354.4084,354.7579,NA,NA,NA,NA,NA,NA,NA,TRUE,1,1.0999,351.4123,354.4081,0,80,80,101,1,180,54,NA,NA,NA,NA,NA,1,81,"binary"
"EBF31F4BA5204F098DF439462C0CF83E",1,"0198f77c-4f06-7602-a33d-548efcf3fbb2","0198f767-55c9-7875-8d21-563b3c0b86ed","2025-08-29_16h19.59.316",NA,NA,357.759,357.7593,357.7594,358.108,NA,NA,NA,NA,NA,NA,NA,TRUE,1,1.1357,354.7596,357.7587,0,81,81,83,1,95,54,NA,NA,NA,NA,NA,1,82,"binary"
"EBF31F4BA5204F098DF439462C0CF83E",1,"0198f77c-4f06-7602-a33d-548efcf3fbb2","0198f767-55c9-7875-8d21-563b3c0b86ed","2025-08-29_16h19.59.316",NA,NA,361.1097,361.1099,361.11,361.4591,NA,NA,NA,NA,NA,NA,NA,TRUE,1,0.8847,358.1101,361.1093,0,82,82,86,1,100,38,NA,NA,NA,NA,NA,1,83,"binary"
"EBF31F4BA5204F098DF439462C0CF83E",1,"0198f77c-4f06-7602-a33d-548efcf3fbb2","0198f767-55c9-7875-8d21-563b3c0b86ed","2025-08-29_16h19.59.316",NA,NA,364.4587,364.4587,364.4588,364.8082,NA,NA,NA,NA,NA,NA,NA,TRUE,1,0.9675,361.4636,364.4585,0,83,83,102,1,200,26,NA,NA,NA,NA,NA,1,84,"binary"
"EBF31F4BA5204F098DF439462C0CF83E",1,"0198f77c-4f06-7602-a33d-548efcf3fbb2","0198f767-55c9-7875-8d21-563b3c0b86ed","2025-08-29_16h19.59.316",NA,NA,367.8119,367.8122,367.8123,368.1617,NA,NA,NA,NA,NA,NA,NA,TRUE,1,1.3338,364.8099,367.8116,0,84,84,2,1,7,28,NA,NA,NA,NA,NA,1,85,"binary"
"EBF31F4BA5204F098DF439462C0CF83E",1,"0198f77c-4f06-7602-a33d-548efcf3fbb2","0198f767-55c9-7875-8d21-563b3c0b86ed","2025-08-29_16h19.59.316",NA,NA,371.1617,371.1619,371.1619,371.5112,NA,NA,NA,NA,NA,NA,NA,TRUE,1,0.9338,368.1647,371.1614,0,85,85,100,1,180,46,NA,NA,NA,NA,NA,1,86,"binary"
"EBF31F4BA5204F098DF439462C0CF83E",1,"0198f77c-4f06-7602-a33d-548efcf3fbb2","0198f767-55c9-7875-8d21-563b3c0b86ed","2025-08-29_16h19.59.316",NA,NA,374.5107,374.5108,374.5109,374.8604,NA,NA,NA,NA,NA,NA,NA,TRUE,1,0.8176,371.5137,374.5105,0,86,86,55,1,45,29,NA,NA,NA,NA,NA,1,87,"binary"
"EBF31F4BA5204F098DF439462C0CF83E",1,"0198f77c-4f06-7602-a33d-548efcf3fbb2","0198f767-55c9-7875-8d21-563b3c0b86ed","2025-08-29_16h19.59.316",NA,NA,377.8602,377.8604,377.8604,378.2099,NA,NA,NA,NA,NA,NA,NA,TRUE,2,1.3842,374.8618,377.8601,0,87,87,52,1,40,47,NA,NA,NA,NA,NA,1,88,"binary"
"EBF31F4BA5204F098DF439462C0CF83E",1,"0198f77c-4f06-7602-a33d-548efcf3fbb2","0198f767-55c9-7875-8d21-563b3c0b86ed","2025-08-29_16h19.59.316",NA,NA,381.2092,381.2093,381.2093,381.5617,NA,NA,NA,NA,NA,NA,NA,TRUE,1,0.8357,378.2124,381.209,0,88,88,1,1,7,26,NA,NA,NA,NA,NA,1,89,"binary"
"EBF31F4BA5204F098DF439462C0CF83E",1,"0198f77c-4f06-7602-a33d-548efcf3fbb2","0198f767-55c9-7875-8d21-563b3c0b86ed","2025-08-29_16h19.59.316",NA,NA,384.5592,384.5593,384.5593,384.909,NA,NA,NA,NA,NA,NA,NA,TRUE,1,1.5623,381.5676,384.559,0,89,89,88,1,100,46,NA,NA,NA,NA,NA,1,90,"binary"
"EBF31F4BA5204F098DF439462C0CF83E",1,"0198f77c-4f06-7602-a33d-548efcf3fbb2","0198f767-55c9-7875-8d21-563b3c0b86ed","2025-08-29_16h19.59.316",NA,NA,387.9101,387.9103,387.9103,388.2585,NA,NA,NA,NA,NA,NA,NA,TRUE,1,1.018,384.9109,387.9096,0,90,90,106,1,200,47,NA,NA,NA,NA,NA,1,91,"binary"
"EBF31F4BA5204F098DF439462C0CF83E",1,"0198f77c-4f06-7602-a33d-548efcf3fbb2","0198f767-55c9-7875-8d21-563b3c0b86ed","2025-08-29_16h19.59.316",NA,NA,391.2612,391.2614,391.2616,391.6094,NA,NA,NA,NA,NA,NA,NA,TRUE,2,1.3518,388.2601,391.2609,0,91,91,41,1,28,46,NA,NA,NA,NA,NA,1,92,"binary"
"EBF31F4BA5204F098DF439462C0CF83E",1,"0198f77c-4f06-7602-a33d-548efcf3fbb2","0198f767-55c9-7875-8d21-563b3c0b86ed","2025-08-29_16h19.59.316",NA,NA,394.6087,394.6089,394.6089,394.9582,NA,NA,NA,NA,NA,NA,NA,TRUE,1,1.2678,391.6139,394.6086,0,92,92,50,1,40,35,NA,NA,NA,NA,NA,1,93,"binary"
"EBF31F4BA5204F098DF439462C0CF83E",1,"0198f77c-4f06-7602-a33d-548efcf3fbb2","0198f767-55c9-7875-8d21-563b3c0b86ed","2025-08-29_16h19.59.316",NA,NA,397.9595,397.9596,397.9597,398.3087,NA,NA,NA,NA,NA,NA,NA,TRUE,2,2.2174,394.9596,397.9593,0,93,93,17,1,12,35,NA,NA,NA,NA,NA,1,94,"binary"
"EBF31F4BA5204F098DF439462C0CF83E",1,"0198f77c-4f06-7602-a33d-548efcf3fbb2","0198f767-55c9-7875-8d21-563b3c0b86ed","2025-08-29_16h19.59.316",NA,NA,401.309,401.3091,401.3092,401.6587,NA,NA,NA,NA,NA,NA,NA,TRUE,2,1.2342,398.3118,401.3088,0,94,94,69,1,60,40,NA,NA,NA,NA,NA,1,95,"binary"
"EBF31F4BA5204F098DF439462C0CF83E",1,"0198f77c-4f06-7602-a33d-548efcf3fbb2","0198f767-55c9-7875-8d21-563b3c0b86ed","2025-08-29_16h19.59.316",NA,NA,404.6584,404.6585,404.6585,405.0085,NA,NA,NA,NA,NA,NA,NA,TRUE,2,1.2357,401.6611,404.6583,0,95,95,3,1,7,30,NA,NA,NA,NA,NA,1,96,"binary"
"EBF31F4BA5204F098DF439462C0CF83E",1,"0198f77c-4f06-7602-a33d-548efcf3fbb2","0198f767-55c9-7875-8d21-563b3c0b86ed","2025-08-29_16h19.59.316",NA,NA,408.0101,408.0102,408.0103,408.3599,NA,NA,NA,NA,NA,NA,NA,TRUE,1,1.9512,405.0099,408.0099,0,96,96,16,1,12,33,NA,NA,NA,NA,NA,1,97,"binary"
"EBF31F4BA5204F098DF439462C0CF83E",1,"0198f77c-4f06-7602-a33d-548efcf3fbb2","0198f767-55c9-7875-8d21-563b3c0b86ed","2025-08-29_16h19.59.316",NA,NA,411.3584,411.3586,411.3586,411.7083,NA,NA,NA,NA,NA,NA,NA,TRUE,1,1.5505,408.364,411.3584,0,97,97,57,1,45,35,NA,NA,NA,NA,NA,1,98,"binary"
"EBF31F4BA5204F098DF439462C0CF83E",1,"0198f77c-4f06-7602-a33d-548efcf3fbb2","0198f767-55c9-7875-8d21-563b3c0b86ed","2025-08-29_16h19.59.316",NA,NA,414.7096,414.7098,414.7098,415.0581,NA,NA,NA,NA,NA,NA,NA,TRUE,1,1.9169,411.7099,414.7094,0,98,98,29,1,21,38,NA,NA,NA,NA,NA,1,99,"binary"
"EBF31F4BA5204F098DF439462C0CF83E",1,"0198f77c-4f06-7602-a33d-548efcf3fbb2","0198f767-55c9-7875-8d21-563b3c0b86ed","2025-08-29_16h19.59.316",NA,NA,418.0595,418.0596,418.0597,418.4092,NA,NA,NA,NA,NA,NA,NA,TRUE,1,2.0837,415.0594,418.0592,0,99,99,87,1,100,39,NA,NA,NA,NA,NA,1,100,"binary"
"EBF31F4BA5204F098DF439462C0CF83E",1,"0198f77c-4f06-7602-a33d-548efcf3fbb2","0198f767-55c9-7875-8d21-563b3c0b86ed","2025-08-29_16h19.59.316",NA,NA,421.4086,421.4087,421.4089,421.7586,NA,NA,NA,NA,NA,NA,NA,TRUE,2,1.2851,418.4117,421.4083,0,100,100,35,1,25,46,NA,NA,NA,NA,NA,1,101,"binary"
"EBF31F4BA5204F098DF439462C0CF83E",1,"0198f77c-4f06-7602-a33d-548efcf3fbb2","0198f767-55c9-7875-8d21-563b3c0b86ed","2025-08-29_16h19.59.316",NA,NA,424.759,424.7591,424.7591,425.1085,NA,NA,NA,NA,NA,NA,NA,TRUE,1,0.867,421.7607,424.7588,0,101,101,70,1,60,47,NA,NA,NA,NA,NA,1,102,"binary"
"EBF31F4BA5204F098DF439462C0CF83E",1,"0198f77c-4f06-7602-a33d-548efcf3fbb2","0198f767-55c9-7875-8d21-563b3c0b86ed","2025-08-29_16h19.59.316",NA,NA,428.1108,428.1124,428.1124,428.4584,NA,NA,NA,NA,NA,NA,NA,TRUE,1,1.284,425.1111,428.1097,0,102,102,42,1,30,26,NA,NA,NA,NA,NA,1,103,"binary"
"EBF31F4BA5204F098DF439462C0CF83E",1,"0198f77c-4f06-7602-a33d-548efcf3fbb2","0198f767-55c9-7875-8d21-563b3c0b86ed","2025-08-29_16h19.59.316",NA,NA,431.4592,431.4595,431.4596,431.8087,NA,NA,NA,NA,NA,NA,NA,TRUE,1,1.0172,428.4605,431.459,0,103,103,103,1,200,28,NA,NA,NA,NA,NA,1,104,"binary"
"EBF31F4BA5204F098DF439462C0CF83E",1,"0198f77c-4f06-7602-a33d-548efcf3fbb2","0198f767-55c9-7875-8d21-563b3c0b86ed","2025-08-29_16h19.59.316",NA,NA,434.808,434.808,434.808,435.1581,NA,NA,NA,NA,NA,NA,NA,TRUE,1,0.8501,431.8121,434.8079,0,104,104,30,1,25,27,NA,NA,NA,NA,NA,1,105,"binary"
"EBF31F4BA5204F098DF439462C0CF83E",1,"0198f77c-4f06-7602-a33d-548efcf3fbb2","0198f767-55c9-7875-8d21-563b3c0b86ed","2025-08-29_16h19.59.316",NA,NA,438.1596,438.1598,438.1599,438.5093,NA,NA,NA,NA,NA,NA,NA,TRUE,1,1.0672,435.1598,438.1593,0,105,105,104,1,200,35,NA,NA,NA,NA,NA,1,106,"binary"
"EBF31F4BA5204F098DF439462C0CF83E",1,"0198f77c-4f06-7602-a33d-548efcf3fbb2","0198f767-55c9-7875-8d21-563b3c0b86ed","2025-08-29_16h19.59.316",NA,NA,441.5087,441.5089,441.5089,441.8581,NA,NA,NA,NA,NA,NA,NA,TRUE,1,0.6841,438.5131,441.5085,0,106,106,48,1,40,27,NA,NA,NA,NA,NA,1,107,"binary"
"EBF31F4BA5204F098DF439462C0CF83E",1,"0198f77c-4f06-7602-a33d-548efcf3fbb2","0198f767-55c9-7875-8d21-563b3c0b86ed","2025-08-29_16h19.59.316",NA,NA,444.859,444.8592,444.8592,445.209,NA,NA,NA,NA,NA,NA,NA,TRUE,2,1.184,441.8599,444.8587,0,107,107,65,1,50,54,NA,NA,NA,NA,NA,1,108,"binary"
"EBF31F4BA5204F098DF439462C0CF83E",1,"0198f77c-4f06-7602-a33d-548efcf3fbb2","0198f767-55c9-7875-8d21-563b3c0b86ed","2025-08-29_16h19.59.316",NA,NA,452.7152,452.7156,452.7157,453.0648,NA,NA,NA,NA,NA,NA,NA,TRUE,2,2.5858,449.7925,452.7149,NA,NA,NA,NA,NA,25,29,0,0,0,31,1,2,1,"binary"
"EBF31F4BA5204F098DF439462C0CF83E",1,"0198f77c-4f06-7602-a33d-548efcf3fbb2","0198f767-55c9-7875-8d21-563b3c0b86ed","2025-08-29_16h19.59.316",NA,NA,456.0653,456.0657,456.0658,456.4134,NA,NA,NA,NA,NA,NA,NA,TRUE,2,1.1236,453.0697,456.0649,NA,NA,NA,NA,NA,100,31,0,1,1,85,1,2,2,"binary"
"EBF31F4BA5204F098DF439462C0CF83E",1,"0198f77c-4f06-7602-a33d-548efcf3fbb2","0198f767-55c9-7875-8d21-563b3c0b86ed","2025-08-29_16h19.59.316",NA,NA,459.4136,459.6635,459.6636,459.7645,NA,NA,NA,NA,NA,NA,NA,FALSE,NA,NA,456.4158,459.4134,NA,NA,NA,NA,NA,10,30,0,2,2,10,1,2,3,"binary"
"EBF31F4BA5204F098DF439462C0CF83E",1,"0198f77c-4f06-7602-a33d-548efcf3fbb2","0198f767-55c9-7875-8d21-563b3c0b86ed","2025-08-29_16h19.59.316",NA,NA,462.7626,462.7628,462.7628,463.1123,NA,NA,NA,NA,NA,NA,NA,TRUE,2,1.2787,459.7718,462.7626,NA,NA,NA,NA,NA,21,38,0,3,3,29,1,2,4,"binary"
"EBF31F4BA5204F098DF439462C0CF83E",1,"0198f77c-4f06-7602-a33d-548efcf3fbb2","0198f767-55c9-7875-8d21-563b3c0b86ed","2025-08-29_16h19.59.316",NA,NA,466.1124,466.1126,466.1127,466.4621,NA,NA,NA,NA,NA,NA,NA,TRUE,2,2.3354,463.1141,466.1123,NA,NA,NA,NA,NA,95,40,0,4,4,81,1,2,5,"binary"
"EBF31F4BA5204F098DF439462C0CF83E",1,"0198f77c-4f06-7602-a33d-548efcf3fbb2","0198f767-55c9-7875-8d21-563b3c0b86ed","2025-08-29_16h19.59.316",NA,NA,469.4619,469.4621,469.4622,469.8111,NA,NA,NA,NA,NA,NA,NA,TRUE,1,2.8003,466.4638,469.4617,NA,NA,NA,NA,NA,30,30,0,5,5,45,1,2,6,"binary"
"EBF31F4BA5204F098DF439462C0CF83E",1,"0198f77c-4f06-7602-a33d-548efcf3fbb2","0198f767-55c9-7875-8d21-563b3c0b86ed","2025-08-29_16h19.59.316",NA,NA,472.8113,472.8114,472.8114,473.1616,NA,NA,NA,NA,NA,NA,NA,TRUE,1,2.2012,469.8129,472.8112,NA,NA,NA,NA,NA,45,31,0,6,6,56,1,2,7,"binary"
"EBF31F4BA5204F098DF439462C0CF83E",1,"0198f77c-4f06-7602-a33d-548efcf3fbb2","0198f767-55c9-7875-8d21-563b3c0b86ed","2025-08-29_16h19.59.316",NA,NA,476.1608,476.161,476.161,476.5105,NA,NA,NA,NA,NA,NA,NA,TRUE,1,1.4835,473.1655,476.1607,NA,NA,NA,NA,NA,180,39,0,7,7,99,1,2,8,"binary"
"EBF31F4BA5204F098DF439462C0CF83E",1,"0198f77c-4f06-7602-a33d-548efcf3fbb2","0198f767-55c9-7875-8d21-563b3c0b86ed","2025-08-29_16h19.59.316",NA,NA,479.51,479.51,479.51,479.8595,NA,NA,NA,NA,NA,NA,NA,TRUE,2,1.5833,476.5121,479.5099,NA,NA,NA,NA,NA,30,32,0,8,8,46,1,2,9,"binary"
"EBF31F4BA5204F098DF439462C0CF83E",1,"0198f77c-4f06-7602-a33d-548efcf3fbb2","0198f767-55c9-7875-8d21-563b3c0b86ed","2025-08-29_16h19.59.316",NA,NA,482.8593,482.8594,482.8594,483.2093,NA,NA,NA,NA,NA,NA,NA,TRUE,1,0.5511,479.8612,482.8592,NA,NA,NA,NA,NA,25,35,0,9,9,34,1,2,10,"binary"
"EBF31F4BA5204F098DF439462C0CF83E",1,"0198f77c-4f06-7602-a33d-548efcf3fbb2","0198f767-55c9-7875-8d21-563b3c0b86ed","2025-08-29_16h19.59.316",NA,NA,486.2092,486.2093,486.2093,486.5584,NA,NA,NA,NA,NA,NA,NA,TRUE,1,1.1501,483.2123,486.209,NA,NA,NA,NA,NA,200,26,0,10,10,102,1,2,11,"binary"
"EBF31F4BA5204F098DF439462C0CF83E",1,"0198f77c-4f06-7602-a33d-548efcf3fbb2","0198f767-55c9-7875-8d21-563b3c0b86ed","2025-08-29_16h19.59.316",NA,NA,489.56,489.5603,489.5605,489.9082,NA,NA,NA,NA,NA,NA,NA,TRUE,1,0.8338,486.56,489.5598,NA,NA,NA,NA,NA,60,47,0,11,11,70,1,2,12,"binary"
"EBF31F4BA5204F098DF439462C0CF83E",1,"0198f77c-4f06-7602-a33d-548efcf3fbb2","0198f767-55c9-7875-8d21-563b3c0b86ed","2025-08-29_16h19.59.316",NA,NA,492.9099,492.91,492.9101,493.259,NA,NA,NA,NA,NA,NA,NA,TRUE,1,0.3176,489.9096,492.9093,NA,NA,NA,NA,NA,95,31,0,12,12,78,1,2,13,"binary"
"EBF31F4BA5204F098DF439462C0CF83E",1,"0198f77c-4f06-7602-a33d-548efcf3fbb2","0198f767-55c9-7875-8d21-563b3c0b86ed","2025-08-29_16h19.59.316",NA,NA,496.2598,496.26,496.2601,496.6094,NA,NA,NA,NA,NA,NA,NA,TRUE,1,0.3502,493.2627,496.2595,NA,NA,NA,NA,NA,30,38,0,13,13,47,1,2,14,"binary"
"EBF31F4BA5204F098DF439462C0CF83E",1,"0198f77c-4f06-7602-a33d-548efcf3fbb2","0198f767-55c9-7875-8d21-563b3c0b86ed","2025-08-29_16h19.59.316",NA,NA,499.6083,499.6084,499.6084,499.9587,NA,NA,NA,NA,NA,NA,NA,TRUE,1,0.5505,496.6136,499.6082,NA,NA,NA,NA,NA,180,35,0,14,14,98,1,2,15,"binary"
"EBF31F4BA5204F098DF439462C0CF83E",1,"0198f77c-4f06-7602-a33d-548efcf3fbb2","0198f767-55c9-7875-8d21-563b3c0b86ed","2025-08-29_16h19.59.316",NA,NA,502.9587,502.9587,502.9587,503.3087,NA,NA,NA,NA,NA,NA,NA,TRUE,1,0.5676,499.962,502.9585,NA,NA,NA,NA,NA,40,33,0,15,15,49,1,2,16,"binary"
"EBF31F4BA5204F098DF439462C0CF83E",1,"0198f77c-4f06-7602-a33d-548efcf3fbb2","0198f767-55c9-7875-8d21-563b3c0b86ed","2025-08-29_16h19.59.316",NA,NA,506.3093,506.3094,506.3095,506.6589,NA,NA,NA,NA,NA,NA,NA,TRUE,1,0.367,503.3104,506.3091,NA,NA,NA,NA,NA,28,32,0,16,16,38,1,2,17,"binary"
"EBF31F4BA5204F098DF439462C0CF83E",1,"0198f77c-4f06-7602-a33d-548efcf3fbb2","0198f767-55c9-7875-8d21-563b3c0b86ed","2025-08-29_16h19.59.316",NA,NA,509.6593,509.6596,509.6596,510.0051,NA,NA,NA,NA,NA,NA,NA,TRUE,1,0.5169,506.6621,509.6592,NA,NA,NA,NA,NA,200,47,0,17,17,106,1,2,18,"binary"
"EBF31F4BA5204F098DF439462C0CF83E",1,"0198f77c-4f06-7602-a33d-548efcf3fbb2","0198f767-55c9-7875-8d21-563b3c0b86ed","2025-08-29_16h19.59.316",NA,NA,513.0096,513.0098,513.01,513.3595,NA,NA,NA,NA,NA,NA,NA,TRUE,1,0.4172,510.007,513.0093,NA,NA,NA,NA,NA,95,35,0,18,18,80,1,2,19,"binary"
"EBF31F4BA5204F098DF439462C0CF83E",1,"0198f77c-4f06-7602-a33d-548efcf3fbb2","0198f767-55c9-7875-8d21-563b3c0b86ed","2025-08-29_16h19.59.316",NA,NA,516.3594,516.3596,516.3596,516.7083,NA,NA,NA,NA,NA,NA,NA,TRUE,1,0.368,513.3641,516.3591,NA,NA,NA,NA,NA,50,40,0,19,19,63,1,2,20,"binary"
"EBF31F4BA5204F098DF439462C0CF83E",1,"0198f77c-4f06-7602-a33d-548efcf3fbb2","0198f767-55c9-7875-8d21-563b3c0b86ed","2025-08-29_16h19.59.316",NA,NA,519.7088,519.709,519.709,520.0589,NA,NA,NA,NA,NA,NA,NA,TRUE,1,0.4347,516.7106,519.7088,NA,NA,NA,NA,NA,180,27,0,20,20,96,1,2,21,"binary"
"EBF31F4BA5204F098DF439462C0CF83E",1,"0198f77c-4f06-7602-a33d-548efcf3fbb2","0198f767-55c9-7875-8d21-563b3c0b86ed","2025-08-29_16h19.59.316",NA,NA,523.0593,523.0595,523.0596,523.4088,NA,NA,NA,NA,NA,NA,NA,TRUE,1,0.567,520.0625,523.0591,NA,NA,NA,NA,NA,50,27,0,21,21,60,1,2,22,"binary"
"EBF31F4BA5204F098DF439462C0CF83E",1,"0198f77c-4f06-7602-a33d-548efcf3fbb2","0198f767-55c9-7875-8d21-563b3c0b86ed","2025-08-29_16h19.59.316",NA,NA,526.4099,526.41,526.4101,526.7588,NA,NA,NA,NA,NA,NA,NA,TRUE,1,0.3342,523.412,526.4096,NA,NA,NA,NA,NA,90,40,0,22,22,75,1,2,23,"binary"
"EBF31F4BA5204F098DF439462C0CF83E",1,"0198f77c-4f06-7602-a33d-548efcf3fbb2","0198f767-55c9-7875-8d21-563b3c0b86ed","2025-08-29_16h19.59.316",NA,NA,529.7583,529.7584,529.7584,530.1088,NA,NA,NA,NA,NA,NA,NA,TRUE,1,0.2838,526.7614,529.7581,NA,NA,NA,NA,NA,12,26,0,23,23,13,1,2,24,"binary"
"EBF31F4BA5204F098DF439462C0CF83E",1,"0198f77c-4f06-7602-a33d-548efcf3fbb2","0198f767-55c9-7875-8d21-563b3c0b86ed","2025-08-29_16h19.59.316",NA,NA,533.1092,533.1093,533.1093,533.4588,NA,NA,NA,NA,NA,NA,NA,TRUE,1,0.3341,530.1128,533.1089,NA,NA,NA,NA,NA,100,54,0,24,24,89,1,2,25,"binary"
"EBF31F4BA5204F098DF439462C0CF83E",1,"0198f77c-4f06-7602-a33d-548efcf3fbb2","0198f767-55c9-7875-8d21-563b3c0b86ed","2025-08-29_16h19.59.316",NA,NA,536.4588,536.4589,536.459,536.8087,NA,NA,NA,NA,NA,NA,NA,TRUE,1,0.367,533.4618,536.4586,NA,NA,NA,NA,NA,25,27,0,25,25,30,1,2,26,"binary"
"EBF31F4BA5204F098DF439462C0CF83E",1,"0198f77c-4f06-7602-a33d-548efcf3fbb2","0198f767-55c9-7875-8d21-563b3c0b86ed","2025-08-29_16h19.59.316",NA,NA,539.8093,539.8094,539.8095,540.1581,NA,NA,NA,NA,NA,NA,NA,TRUE,1,0.8506,536.8102,539.809,NA,NA,NA,NA,NA,45,29,0,26,26,55,1,2,27,"binary"
"EBF31F4BA5204F098DF439462C0CF83E",1,"0198f77c-4f06-7602-a33d-548efcf3fbb2","0198f767-55c9-7875-8d21-563b3c0b86ed","2025-08-29_16h19.59.316",NA,NA,543.1591,543.1592,543.1594,543.5087,NA,NA,NA,NA,NA,NA,NA,TRUE,1,0.9511,540.1595,543.1589,NA,NA,NA,NA,NA,95,47,0,27,27,82,1,2,28,"binary"
"EBF31F4BA5204F098DF439462C0CF83E",1,"0198f77c-4f06-7602-a33d-548efcf3fbb2","0198f767-55c9-7875-8d21-563b3c0b86ed","2025-08-29_16h19.59.316",NA,NA,546.5112,546.5114,546.5115,546.8581,NA,NA,NA,NA,NA,NA,NA,TRUE,1,0.6507,543.5119,546.5108,NA,NA,NA,NA,NA,180,46,0,28,28,100,1,2,29,"binary"
"EBF31F4BA5204F098DF439462C0CF83E",1,"0198f77c-4f06-7602-a33d-548efcf3fbb2","0198f767-55c9-7875-8d21-563b3c0b86ed","2025-08-29_16h19.59.316",NA,NA,549.8591,549.8593,549.8594,550.209,NA,NA,NA,NA,NA,NA,NA,TRUE,1,0.502,546.86,549.8589,NA,NA,NA,NA,NA,60,35,0,29,29,68,1,2,30,"binary"
"EBF31F4BA5204F098DF439462C0CF83E",1,"0198f77c-4f06-7602-a33d-548efcf3fbb2","0198f767-55c9-7875-8d21-563b3c0b86ed","2025-08-29_16h19.59.316",NA,NA,553.2086,553.2087,553.2088,553.5581,NA,NA,NA,NA,NA,NA,NA,TRUE,1,0.9512,550.2122,553.2085,NA,NA,NA,NA,NA,12,35,0,30,30,17,1,2,31,"binary"
"EBF31F4BA5204F098DF439462C0CF83E",1,"0198f77c-4f06-7602-a33d-548efcf3fbb2","0198f767-55c9-7875-8d21-563b3c0b86ed","2025-08-29_16h19.59.316",NA,NA,556.5582,556.5583,556.5583,556.9082,NA,NA,NA,NA,NA,NA,NA,TRUE,1,0.9005,553.5597,556.5581,NA,NA,NA,NA,NA,150,33,0,31,31,91,1,2,32,"binary"
"EBF31F4BA5204F098DF439462C0CF83E",1,"0198f77c-4f06-7602-a33d-548efcf3fbb2","0198f767-55c9-7875-8d21-563b3c0b86ed","2025-08-29_16h19.59.316",NA,NA,559.9087,559.9088,559.9088,560.2587,NA,NA,NA,NA,NA,NA,NA,TRUE,1,1.9514,556.91,559.9085,NA,NA,NA,NA,NA,50,30,0,32,32,61,1,2,33,"binary"
"EBF31F4BA5204F098DF439462C0CF83E",1,"0198f77c-4f06-7602-a33d-548efcf3fbb2","0198f767-55c9-7875-8d21-563b3c0b86ed","2025-08-29_16h19.59.316",NA,NA,563.2587,563.2587,563.2588,563.6099,NA,NA,NA,NA,NA,NA,NA,TRUE,1,1.2671,560.2616,563.2586,NA,NA,NA,NA,NA,14,28,0,33,33,20,1,2,34,"binary"
"EBF31F4BA5204F098DF439462C0CF83E",1,"0198f77c-4f06-7602-a33d-548efcf3fbb2","0198f767-55c9-7875-8d21-563b3c0b86ed","2025-08-29_16h19.59.316",NA,NA,566.6095,566.6096,566.6096,566.9592,NA,NA,NA,NA,NA,NA,NA,TRUE,1,0.699,563.6155,566.6093,NA,NA,NA,NA,NA,12,33,0,34,34,16,1,2,35,"binary"
"EBF31F4BA5204F098DF439462C0CF83E",1,"0198f77c-4f06-7602-a33d-548efcf3fbb2","0198f767-55c9-7875-8d21-563b3c0b86ed","2025-08-29_16h19.59.316",NA,NA,569.9587,569.9588,569.9588,570.3089,NA,NA,NA,NA,NA,NA,NA,TRUE,1,0.8846,566.9627,569.9586,NA,NA,NA,NA,NA,28,39,0,35,35,40,1,2,36,"binary"
"EBF31F4BA5204F098DF439462C0CF83E",1,"0198f77c-4f06-7602-a33d-548efcf3fbb2","0198f767-55c9-7875-8d21-563b3c0b86ed","2025-08-29_16h19.59.316",NA,NA,573.3104,573.3106,573.3107,573.66,NA,NA,NA,NA,NA,NA,NA,TRUE,1,0.5831,570.3158,573.3101,NA,NA,NA,NA,NA,14,26,0,36,36,19,1,2,37,"binary"
"EBF31F4BA5204F098DF439462C0CF83E",1,"0198f77c-4f06-7602-a33d-548efcf3fbb2","0198f767-55c9-7875-8d21-563b3c0b86ed","2025-08-29_16h19.59.316",NA,NA,576.6608,576.6609,576.6609,577.0105,NA,NA,NA,NA,NA,NA,NA,TRUE,1,1.4834,573.6641,576.6607,NA,NA,NA,NA,NA,95,54,0,37,37,83,1,2,38,"binary"
"EBF31F4BA5204F098DF439462C0CF83E",1,"0198f77c-4f06-7602-a33d-548efcf3fbb2","0198f767-55c9-7875-8d21-563b3c0b86ed","2025-08-29_16h19.59.316",NA,NA,580.0119,580.0123,580.0125,580.3609,NA,NA,NA,NA,NA,NA,NA,TRUE,2,1.9507,577.0125,580.0116,NA,NA,NA,NA,NA,28,35,0,38,38,39,1,2,39,"binary"
"EBF31F4BA5204F098DF439462C0CF83E",1,"0198f77c-4f06-7602-a33d-548efcf3fbb2","0198f767-55c9-7875-8d21-563b3c0b86ed","2025-08-29_16h19.59.316",NA,NA,583.3607,583.3608,583.361,583.7103,NA,NA,NA,NA,NA,NA,NA,TRUE,1,0.9673,580.3667,583.3604,NA,NA,NA,NA,NA,100,39,0,39,39,87,1,2,40,"binary"
"EBF31F4BA5204F098DF439462C0CF83E",1,"0198f77c-4f06-7602-a33d-548efcf3fbb2","0198f767-55c9-7875-8d21-563b3c0b86ed","2025-08-29_16h19.59.316",NA,NA,586.7104,586.7112,586.7113,587.0602,NA,NA,NA,NA,NA,NA,NA,TRUE,1,1.0515,583.7143,586.7101,NA,NA,NA,NA,NA,12,25,0,40,40,12,1,2,41,"binary"
"EBF31F4BA5204F098DF439462C0CF83E",1,"0198f77c-4f06-7602-a33d-548efcf3fbb2","0198f767-55c9-7875-8d21-563b3c0b86ed","2025-08-29_16h19.59.316",NA,NA,590.0602,590.0603,590.0603,590.4094,NA,NA,NA,NA,NA,NA,NA,TRUE,1,1.634,587.0643,590.06,NA,NA,NA,NA,NA,21,30,0,41,41,27,1,2,42,"binary"
"EBF31F4BA5204F098DF439462C0CF83E",1,"0198f77c-4f06-7602-a33d-548efcf3fbb2","0198f767-55c9-7875-8d21-563b3c0b86ed","2025-08-29_16h19.59.316",NA,NA,593.4104,593.4104,593.4104,593.7607,NA,NA,NA,NA,NA,NA,NA,TRUE,1,1.1522,590.4129,593.4102,NA,NA,NA,NA,NA,200,28,0,42,42,103,1,2,43,"binary"
"EBF31F4BA5204F098DF439462C0CF83E",1,"0198f77c-4f06-7602-a33d-548efcf3fbb2","0198f767-55c9-7875-8d21-563b3c0b86ed","2025-08-29_16h19.59.316",NA,NA,596.7607,596.7609,596.7609,597.1101,NA,NA,NA,NA,NA,NA,NA,TRUE,1,1.9292,593.766,596.7603,NA,NA,NA,NA,NA,200,54,0,43,43,107,1,2,44,"binary"
"EBF31F4BA5204F098DF439462C0CF83E",1,"0198f77c-4f06-7602-a33d-548efcf3fbb2","0198f767-55c9-7875-8d21-563b3c0b86ed","2025-08-29_16h19.59.316",NA,NA,600.1085,600.1085,600.1085,600.4581,NA,NA,NA,NA,NA,NA,NA,TRUE,1,1.1162,597.1146,600.1083,NA,NA,NA,NA,NA,200,35,0,44,44,104,1,2,45,"binary"
"EBF31F4BA5204F098DF439462C0CF83E",1,"0198f77c-4f06-7602-a33d-548efcf3fbb2","0198f767-55c9-7875-8d21-563b3c0b86ed","2025-08-29_16h19.59.316",NA,NA,603.46,603.46,603.4601,603.8098,NA,NA,NA,NA,NA,NA,NA,TRUE,2,1.4509,600.4599,603.4599,NA,NA,NA,NA,NA,14,32,0,45,45,21,1,2,46,"binary"
"EBF31F4BA5204F098DF439462C0CF83E",1,"0198f77c-4f06-7602-a33d-548efcf3fbb2","0198f767-55c9-7875-8d21-563b3c0b86ed","2025-08-29_16h19.59.316",NA,NA,606.8085,606.8086,606.8086,607.1588,NA,NA,NA,NA,NA,NA,NA,TRUE,1,2.8157,603.8116,606.8084,NA,NA,NA,NA,NA,7,30,0,46,46,3,1,2,47,"binary"
"EBF31F4BA5204F098DF439462C0CF83E",1,"0198f77c-4f06-7602-a33d-548efcf3fbb2","0198f767-55c9-7875-8d21-563b3c0b86ed","2025-08-29_16h19.59.316",NA,NA,610.1589,610.159,610.159,610.5084,NA,NA,NA,NA,NA,NA,NA,TRUE,1,1.5838,607.1602,610.1587,NA,NA,NA,NA,NA,10,27,0,47,47,8,1,2,48,"binary"
"EBF31F4BA5204F098DF439462C0CF83E",1,"0198f77c-4f06-7602-a33d-548efcf3fbb2","0198f767-55c9-7875-8d21-563b3c0b86ed","2025-08-29_16h19.59.316",NA,NA,613.5086,613.5086,613.5086,613.8587,NA,NA,NA,NA,NA,NA,NA,TRUE,1,1.0671,610.5099,613.5085,NA,NA,NA,NA,NA,100,26,0,48,48,84,1,2,49,"binary"
"EBF31F4BA5204F098DF439462C0CF83E",1,"0198f77c-4f06-7602-a33d-548efcf3fbb2","0198f767-55c9-7875-8d21-563b3c0b86ed","2025-08-29_16h19.59.316",NA,NA,616.8598,616.8599,616.8599,617.2105,NA,NA,NA,NA,NA,NA,NA,TRUE,1,0.9172,613.8614,616.8596,NA,NA,NA,NA,NA,21,32,0,49,49,28,1,2,50,"binary"
"EBF31F4BA5204F098DF439462C0CF83E",1,"0198f77c-4f06-7602-a33d-548efcf3fbb2","0198f767-55c9-7875-8d21-563b3c0b86ed","2025-08-29_16h19.59.316",NA,NA,620.2104,620.2105,620.2106,620.5603,NA,NA,NA,NA,NA,NA,NA,TRUE,1,0.7661,617.2157,620.21,NA,NA,NA,NA,NA,50,54,0,50,50,65,1,2,51,"binary"
"EBF31F4BA5204F098DF439462C0CF83E",1,"0198f77c-4f06-7602-a33d-548efcf3fbb2","0198f767-55c9-7875-8d21-563b3c0b86ed","2025-08-29_16h19.59.316",NA,NA,623.5585,623.5585,623.5585,623.9091,NA,NA,NA,NA,NA,NA,NA,TRUE,1,1.2347,620.5642,623.5583,NA,NA,NA,NA,NA,60,40,0,51,51,69,1,2,52,"binary"
"EBF31F4BA5204F098DF439462C0CF83E",1,"0198f77c-4f06-7602-a33d-548efcf3fbb2","0198f767-55c9-7875-8d21-563b3c0b86ed","2025-08-29_16h19.59.316",NA,NA,626.9092,626.9093,626.9093,627.2587,NA,NA,NA,NA,NA,NA,NA,TRUE,1,1.219,623.9122,626.909,NA,NA,NA,NA,NA,40,54,0,52,52,53,1,2,53,"binary"
"EBF31F4BA5204F098DF439462C0CF83E",1,"0198f77c-4f06-7602-a33d-548efcf3fbb2","0198f767-55c9-7875-8d21-563b3c0b86ed","2025-08-29_16h19.59.316",NA,NA,630.2587,630.2588,630.2588,630.6107,NA,NA,NA,NA,NA,NA,NA,TRUE,1,1.2016,627.2606,630.2586,NA,NA,NA,NA,NA,25,31,0,53,53,32,1,2,54,"binary"
"EBF31F4BA5204F098DF439462C0CF83E",1,"0198f77c-4f06-7602-a33d-548efcf3fbb2","0198f767-55c9-7875-8d21-563b3c0b86ed","2025-08-29_16h19.59.316",NA,NA,633.611,633.611,633.6111,633.9582,NA,NA,NA,NA,NA,NA,NA,TRUE,1,1.7316,630.6159,633.6104,NA,NA,NA,NA,NA,50,35,0,54,54,62,1,2,55,"binary"
"EBF31F4BA5204F098DF439462C0CF83E",1,"0198f77c-4f06-7602-a33d-548efcf3fbb2","0198f767-55c9-7875-8d21-563b3c0b86ed","2025-08-29_16h19.59.316",NA,NA,636.9614,636.9615,636.9615,637.3101,NA,NA,NA,NA,NA,NA,NA,TRUE,2,2.1677,633.9599,636.9612,NA,NA,NA,NA,NA,28,46,0,55,55,41,1,2,56,"binary"
"EBF31F4BA5204F098DF439462C0CF83E",1,"0198f77c-4f06-7602-a33d-548efcf3fbb2","0198f767-55c9-7875-8d21-563b3c0b86ed","2025-08-29_16h19.59.316",NA,NA,640.3104,640.3104,640.3104,640.6598,NA,NA,NA,NA,NA,NA,NA,TRUE,1,0.9172,637.3149,640.3101,NA,NA,NA,NA,NA,90,33,0,56,56,74,1,2,57,"binary"
"EBF31F4BA5204F098DF439462C0CF83E",1,"0198f77c-4f06-7602-a33d-548efcf3fbb2","0198f767-55c9-7875-8d21-563b3c0b86ed","2025-08-29_16h19.59.316",NA,NA,643.6602,643.6603,643.6604,644.0098,NA,NA,NA,NA,NA,NA,NA,TRUE,1,0.7176,640.6637,643.6598,NA,NA,NA,NA,NA,90,26,0,57,57,72,1,2,58,"binary"
"EBF31F4BA5204F098DF439462C0CF83E",1,"0198f77c-4f06-7602-a33d-548efcf3fbb2","0198f767-55c9-7875-8d21-563b3c0b86ed","2025-08-29_16h19.59.316",NA,NA,647.0103,647.0105,647.0107,647.3598,NA,NA,NA,NA,NA,NA,NA,TRUE,1,0.5672,644.016,647.01,NA,NA,NA,NA,NA,200,39,0,58,58,105,1,2,59,"binary"
"EBF31F4BA5204F098DF439462C0CF83E",1,"0198f77c-4f06-7602-a33d-548efcf3fbb2","0198f767-55c9-7875-8d21-563b3c0b86ed","2025-08-29_16h19.59.316",NA,NA,650.3604,650.3609,650.361,650.7082,NA,NA,NA,NA,NA,NA,NA,TRUE,2,1.2018,647.3643,650.36,NA,NA,NA,NA,NA,7,32,0,59,59,4,1,2,60,"binary"
"EBF31F4BA5204F098DF439462C0CF83E",1,"0198f77c-4f06-7602-a33d-548efcf3fbb2","0198f767-55c9-7875-8d21-563b3c0b86ed","2025-08-29_16h19.59.316",NA,NA,653.7107,653.7108,653.711,654.0586,NA,NA,NA,NA,NA,NA,NA,TRUE,1,1.834,650.7099,653.7103,NA,NA,NA,NA,NA,10,26,0,60,60,7,1,2,61,"binary"
"EBF31F4BA5204F098DF439462C0CF83E",1,"0198f77c-4f06-7602-a33d-548efcf3fbb2","0198f767-55c9-7875-8d21-563b3c0b86ed","2025-08-29_16h19.59.316",NA,NA,657.0592,657.0593,657.0593,657.4086,NA,NA,NA,NA,NA,NA,NA,TRUE,1,1.4015,654.0611,657.0589,NA,NA,NA,NA,NA,45,26,0,61,61,54,1,2,62,"binary"
"EBF31F4BA5204F098DF439462C0CF83E",1,"0198f77c-4f06-7602-a33d-548efcf3fbb2","0198f767-55c9-7875-8d21-563b3c0b86ed","2025-08-29_16h19.59.316",NA,NA,660.409,660.409,660.4091,660.7586,NA,NA,NA,NA,NA,NA,NA,TRUE,1,0.8018,657.4112,660.4087,NA,NA,NA,NA,NA,150,31,0,62,62,90,1,2,63,"binary"
"EBF31F4BA5204F098DF439462C0CF83E",1,"0198f77c-4f06-7602-a33d-548efcf3fbb2","0198f767-55c9-7875-8d21-563b3c0b86ed","2025-08-29_16h19.59.316",NA,NA,663.76,663.7602,663.7604,664.1088,NA,NA,NA,NA,NA,NA,NA,TRUE,1,1.4679,660.7604,663.7597,NA,NA,NA,NA,NA,30,26,0,63,63,42,1,2,64,"binary"
"EBF31F4BA5204F098DF439462C0CF83E",1,"0198f77c-4f06-7602-a33d-548efcf3fbb2","0198f767-55c9-7875-8d21-563b3c0b86ed","2025-08-29_16h19.59.316",NA,NA,667.1097,667.1098,667.11,667.4592,NA,NA,NA,NA,NA,NA,NA,TRUE,1,2.1172,664.1114,667.1095,NA,NA,NA,NA,NA,30,27,0,64,64,43,1,2,65,"binary"
"EBF31F4BA5204F098DF439462C0CF83E",1,"0198f77c-4f06-7602-a33d-548efcf3fbb2","0198f767-55c9-7875-8d21-563b3c0b86ed","2025-08-29_16h19.59.316",NA,NA,670.4623,670.4624,670.4624,670.8129,NA,NA,NA,NA,NA,NA,NA,TRUE,1,1.0691,667.4631,670.4622,NA,NA,NA,NA,NA,150,35,0,65,65,92,1,2,66,"binary"
"EBF31F4BA5204F098DF439462C0CF83E",1,"0198f77c-4f06-7602-a33d-548efcf3fbb2","0198f767-55c9-7875-8d21-563b3c0b86ed","2025-08-29_16h19.59.316",NA,NA,673.8118,673.8118,673.8119,674.1616,NA,NA,NA,NA,NA,NA,NA,TRUE,1,0.7837,670.8152,673.8117,NA,NA,NA,NA,NA,60,54,0,66,66,71,1,2,67,"binary"
"EBF31F4BA5204F098DF439462C0CF83E",1,"0198f77c-4f06-7602-a33d-548efcf3fbb2","0198f767-55c9-7875-8d21-563b3c0b86ed","2025-08-29_16h19.59.316",NA,NA,677.1613,677.1614,677.1614,677.5111,NA,NA,NA,NA,NA,NA,NA,TRUE,1,0.6005,674.1633,677.1612,NA,NA,NA,NA,NA,28,26,0,67,67,36,1,2,68,"binary"
"EBF31F4BA5204F098DF439462C0CF83E",1,"0198f77c-4f06-7602-a33d-548efcf3fbb2","0198f767-55c9-7875-8d21-563b3c0b86ed","2025-08-29_16h19.59.316",NA,NA,680.511,680.5111,680.5112,680.861,NA,NA,NA,NA,NA,NA,NA,TRUE,1,0.2887,677.5126,680.511,NA,NA,NA,NA,NA,45,46,0,68,68,59,1,2,69,"binary"
"EBF31F4BA5204F098DF439462C0CF83E",1,"0198f77c-4f06-7602-a33d-548efcf3fbb2","0198f767-55c9-7875-8d21-563b3c0b86ed","2025-08-29_16h19.59.316",NA,NA,683.8615,683.8615,683.8617,684.2108,NA,NA,NA,NA,NA,NA,NA,TRUE,1,0.401,680.8631,683.8612,NA,NA,NA,NA,NA,45,40,0,69,69,58,1,2,70,"binary"
"EBF31F4BA5204F098DF439462C0CF83E",1,"0198f77c-4f06-7602-a33d-548efcf3fbb2","0198f767-55c9-7875-8d21-563b3c0b86ed","2025-08-29_16h19.59.316",NA,NA,687.2099,687.21,687.21,687.5596,NA,NA,NA,NA,NA,NA,NA,TRUE,1,1.067,684.2142,687.2097,NA,NA,NA,NA,NA,7,26,0,70,70,1,1,2,71,"binary"
"EBF31F4BA5204F098DF439462C0CF83E",1,"0198f77c-4f06-7602-a33d-548efcf3fbb2","0198f767-55c9-7875-8d21-563b3c0b86ed","2025-08-29_16h19.59.316",NA,NA,690.5599,690.56,690.56,690.9097,NA,NA,NA,NA,NA,NA,NA,TRUE,1,0.617,687.5622,690.5596,NA,NA,NA,NA,NA,150,47,0,71,71,94,1,2,72,"binary"
"EBF31F4BA5204F098DF439462C0CF83E",1,"0198f77c-4f06-7602-a33d-548efcf3fbb2","0198f767-55c9-7875-8d21-563b3c0b86ed","2025-08-29_16h19.59.316",NA,NA,693.9124,693.9127,693.9127,694.2597,NA,NA,NA,NA,NA,NA,NA,TRUE,1,1.1674,690.913,693.912,NA,NA,NA,NA,NA,180,31,0,72,72,97,1,2,73,"binary"
"EBF31F4BA5204F098DF439462C0CF83E",1,"0198f77c-4f06-7602-a33d-548efcf3fbb2","0198f767-55c9-7875-8d21-563b3c0b86ed","2025-08-29_16h19.59.316",NA,NA,697.2589,697.259,697.259,697.6096,NA,NA,NA,NA,NA,NA,NA,TRUE,1,0.6502,694.2634,697.2588,NA,NA,NA,NA,NA,100,46,0,73,73,88,1,2,74,"binary"
"EBF31F4BA5204F098DF439462C0CF83E",1,"0198f77c-4f06-7602-a33d-548efcf3fbb2","0198f767-55c9-7875-8d21-563b3c0b86ed","2025-08-29_16h19.59.316",NA,NA,700.6101,700.6103,700.6104,700.9588,NA,NA,NA,NA,NA,NA,NA,TRUE,1,0.4504,697.614,700.6097,NA,NA,NA,NA,NA,40,47,0,74,74,52,1,2,75,"binary"
"EBF31F4BA5204F098DF439462C0CF83E",1,"0198f77c-4f06-7602-a33d-548efcf3fbb2","0198f767-55c9-7875-8d21-563b3c0b86ed","2025-08-29_16h19.59.316",NA,NA,703.9605,703.9606,703.9607,704.3098,NA,NA,NA,NA,NA,NA,NA,TRUE,1,0.3022,700.9607,703.9601,NA,NA,NA,NA,NA,21,29,0,75,75,26,1,2,76,"binary"
"EBF31F4BA5204F098DF439462C0CF83E",1,"0198f77c-4f06-7602-a33d-548efcf3fbb2","0198f767-55c9-7875-8d21-563b3c0b86ed","2025-08-29_16h19.59.316",NA,NA,707.3099,707.3101,707.3102,707.6594,NA,NA,NA,NA,NA,NA,NA,TRUE,1,1.284,704.3138,707.3095,NA,NA,NA,NA,NA,25,33,0,76,76,33,1,2,77,"binary"
"EBF31F4BA5204F098DF439462C0CF83E",1,"0198f77c-4f06-7602-a33d-548efcf3fbb2","0198f767-55c9-7875-8d21-563b3c0b86ed","2025-08-29_16h19.59.316",NA,NA,710.661,710.661,710.661,711.0104,NA,NA,NA,NA,NA,NA,NA,TRUE,1,1.302,707.663,710.6606,NA,NA,NA,NA,NA,10,29,0,77,77,9,1,2,78,"binary"
"EBF31F4BA5204F098DF439462C0CF83E",1,"0198f77c-4f06-7602-a33d-548efcf3fbb2","0198f767-55c9-7875-8d21-563b3c0b86ed","2025-08-29_16h19.59.316",NA,NA,714.0088,714.0088,714.0088,714.3584,NA,NA,NA,NA,NA,NA,NA,TRUE,1,0.4322,711.0164,714.0087,NA,NA,NA,NA,NA,30,29,0,78,78,44,1,2,79,"binary"
"EBF31F4BA5204F098DF439462C0CF83E",1,"0198f77c-4f06-7602-a33d-548efcf3fbb2","0198f767-55c9-7875-8d21-563b3c0b86ed","2025-08-29_16h19.59.316",NA,NA,717.3585,717.3586,717.3586,717.7085,NA,NA,NA,NA,NA,NA,NA,TRUE,1,0.5171,714.3599,717.3584,NA,NA,NA,NA,NA,90,46,0,79,79,76,1,2,80,"binary"
"EBF31F4BA5204F098DF439462C0CF83E",1,"0198f77c-4f06-7602-a33d-548efcf3fbb2","0198f767-55c9-7875-8d21-563b3c0b86ed","2025-08-29_16h19.59.316",NA,NA,720.7086,720.7086,720.7086,721.0587,NA,NA,NA,NA,NA,NA,NA,TRUE,1,0.6033,717.7097,720.7084,NA,NA,NA,NA,NA,95,33,0,80,80,79,1,2,81,"binary"
"EBF31F4BA5204F098DF439462C0CF83E",1,"0198f77c-4f06-7602-a33d-548efcf3fbb2","0198f767-55c9-7875-8d21-563b3c0b86ed","2025-08-29_16h19.59.316",NA,NA,724.0592,724.0593,724.0593,724.41,NA,NA,NA,NA,NA,NA,NA,TRUE,1,0.419,721.0601,724.059,NA,NA,NA,NA,NA,40,27,0,81,81,48,1,2,82,"binary"
"EBF31F4BA5204F098DF439462C0CF83E",1,"0198f77c-4f06-7602-a33d-548efcf3fbb2","0198f767-55c9-7875-8d21-563b3c0b86ed","2025-08-29_16h19.59.316",NA,NA,727.411,727.4112,727.4112,727.7584,NA,NA,NA,NA,NA,NA,NA,TRUE,1,0.3345,724.4149,727.4105,NA,NA,NA,NA,NA,12,31,0,82,82,15,1,2,83,"binary"
"EBF31F4BA5204F098DF439462C0CF83E",1,"0198f77c-4f06-7602-a33d-548efcf3fbb2","0198f767-55c9-7875-8d21-563b3c0b86ed","2025-08-29_16h19.59.316",NA,NA,730.7597,730.7598,730.7598,731.1094,NA,NA,NA,NA,NA,NA,NA,TRUE,1,0.7522,727.7598,730.7596,NA,NA,NA,NA,NA,150,54,0,83,83,95,1,2,84,"binary"
"EBF31F4BA5204F098DF439462C0CF83E",1,"0198f77c-4f06-7602-a33d-548efcf3fbb2","0198f767-55c9-7875-8d21-563b3c0b86ed","2025-08-29_16h19.59.316",NA,NA,734.1107,734.1108,734.1108,734.46,NA,NA,NA,NA,NA,NA,NA,TRUE,1,0.5197,731.1126,734.1105,NA,NA,NA,NA,NA,25,46,0,84,84,35,1,2,85,"binary"
"EBF31F4BA5204F098DF439462C0CF83E",1,"0198f77c-4f06-7602-a33d-548efcf3fbb2","0198f767-55c9-7875-8d21-563b3c0b86ed","2025-08-29_16h19.59.316",NA,NA,737.4605,737.4606,737.4607,737.8102,NA,NA,NA,NA,NA,NA,NA,TRUE,1,0.8188,734.4639,737.4602,NA,NA,NA,NA,NA,21,27,0,85,85,25,1,2,86,"binary"
"EBF31F4BA5204F098DF439462C0CF83E",1,"0198f77c-4f06-7602-a33d-548efcf3fbb2","0198f767-55c9-7875-8d21-563b3c0b86ed","2025-08-29_16h19.59.316",NA,NA,740.8098,740.8098,740.8098,741.1602,NA,NA,NA,NA,NA,NA,NA,TRUE,1,0.9181,737.8134,740.8096,NA,NA,NA,NA,NA,10,32,0,86,86,11,1,2,87,"binary"
"EBF31F4BA5204F098DF439462C0CF83E",1,"0198f77c-4f06-7602-a33d-548efcf3fbb2","0198f767-55c9-7875-8d21-563b3c0b86ed","2025-08-29_16h19.59.316",NA,NA,744.1602,744.1603,744.1603,744.5102,NA,NA,NA,NA,NA,NA,NA,TRUE,1,0.3336,741.1644,744.1599,NA,NA,NA,NA,NA,21,26,0,87,87,24,1,2,88,"binary"
"EBF31F4BA5204F098DF439462C0CF83E",1,"0198f77c-4f06-7602-a33d-548efcf3fbb2","0198f767-55c9-7875-8d21-563b3c0b86ed","2025-08-29_16h19.59.316",NA,NA,747.509,747.5091,747.5091,747.8585,NA,NA,NA,NA,NA,NA,NA,TRUE,1,0.3668,744.5149,747.5088,NA,NA,NA,NA,NA,100,38,0,88,88,86,1,2,89,"binary"
"EBF31F4BA5204F098DF439462C0CF83E",1,"0198f77c-4f06-7602-a33d-548efcf3fbb2","0198f767-55c9-7875-8d21-563b3c0b86ed","2025-08-29_16h19.59.316",NA,NA,750.859,750.8591,750.8591,751.21,NA,NA,NA,NA,NA,NA,NA,TRUE,1,0.5508,747.8603,750.8589,NA,NA,NA,NA,NA,10,25,0,89,89,6,1,2,90,"binary"
"EBF31F4BA5204F098DF439462C0CF83E",1,"0198f77c-4f06-7602-a33d-548efcf3fbb2","0198f767-55c9-7875-8d21-563b3c0b86ed","2025-08-29_16h19.59.316",NA,NA,754.2108,754.211,754.2111,754.5753,NA,NA,NA,NA,NA,NA,NA,TRUE,1,0.3007,751.2149,754.2105,NA,NA,NA,NA,NA,60,29,0,90,90,66,1,2,91,"binary"
"EBF31F4BA5204F098DF439462C0CF83E",1,"0198f77c-4f06-7602-a33d-548efcf3fbb2","0198f767-55c9-7875-8d21-563b3c0b86ed","2025-08-29_16h19.59.316",NA,NA,757.5589,757.5589,757.5589,757.9097,NA,NA,NA,NA,NA,NA,NA,TRUE,1,0.5337,754.5771,757.5586,NA,NA,NA,NA,NA,90,54,0,91,91,77,1,2,92,"binary"
"EBF31F4BA5204F098DF439462C0CF83E",1,"0198f77c-4f06-7602-a33d-548efcf3fbb2","0198f767-55c9-7875-8d21-563b3c0b86ed","2025-08-29_16h19.59.316",NA,NA,760.9107,760.9109,760.9111,761.2591,NA,NA,NA,NA,NA,NA,NA,TRUE,1,0.2667,757.9148,760.9103,NA,NA,NA,NA,NA,14,25,0,92,92,18,1,2,93,"binary"
"EBF31F4BA5204F098DF439462C0CF83E",1,"0198f77c-4f06-7602-a33d-548efcf3fbb2","0198f767-55c9-7875-8d21-563b3c0b86ed","2025-08-29_16h19.59.316",NA,NA,764.2589,764.259,764.259,764.6086,NA,NA,NA,NA,NA,NA,NA,TRUE,1,0.9343,761.2627,764.2587,NA,NA,NA,NA,NA,150,40,0,93,93,93,1,2,94,"binary"
"EBF31F4BA5204F098DF439462C0CF83E",1,"0198f77c-4f06-7602-a33d-548efcf3fbb2","0198f767-55c9-7875-8d21-563b3c0b86ed","2025-08-29_16h19.59.316",NA,NA,767.6093,767.6095,767.6095,767.9597,NA,NA,NA,NA,NA,NA,NA,TRUE,2,1.3184,764.6103,767.6091,NA,NA,NA,NA,NA,40,40,0,94,94,51,1,2,95,"binary"
"EBF31F4BA5204F098DF439462C0CF83E",1,"0198f77c-4f06-7602-a33d-548efcf3fbb2","0198f767-55c9-7875-8d21-563b3c0b86ed","2025-08-29_16h19.59.316",NA,NA,770.9587,770.9587,770.9588,771.3095,NA,NA,NA,NA,NA,NA,NA,TRUE,1,2.051,767.9657,770.9586,NA,NA,NA,NA,NA,45,35,0,95,95,57,1,2,96,"binary"
"EBF31F4BA5204F098DF439462C0CF83E",1,"0198f77c-4f06-7602-a33d-548efcf3fbb2","0198f767-55c9-7875-8d21-563b3c0b86ed","2025-08-29_16h19.59.316",NA,NA,774.3088,774.3088,774.3089,774.6593,NA,NA,NA,NA,NA,NA,NA,TRUE,2,1.2008,771.3134,774.3087,NA,NA,NA,NA,NA,50,46,0,96,96,64,1,2,97,"binary"
"EBF31F4BA5204F098DF439462C0CF83E",1,"0198f77c-4f06-7602-a33d-548efcf3fbb2","0198f767-55c9-7875-8d21-563b3c0b86ed","2025-08-29_16h19.59.316",NA,NA,777.663,777.6632,777.6633,778.0127,NA,NA,NA,NA,NA,NA,NA,TRUE,2,1.3336,774.6627,777.6628,NA,NA,NA,NA,NA,7,35,0,97,97,5,1,2,98,"binary"
"EBF31F4BA5204F098DF439462C0CF83E",1,"0198f77c-4f06-7602-a33d-548efcf3fbb2","0198f767-55c9-7875-8d21-563b3c0b86ed","2025-08-29_16h19.59.316",NA,NA,781.0118,781.0121,781.0121,781.3617,NA,NA,NA,NA,NA,NA,NA,TRUE,1,0.7163,778.0174,781.0116,NA,NA,NA,NA,NA,180,54,0,98,98,101,1,2,99,"binary"
"EBF31F4BA5204F098DF439462C0CF83E",1,"0198f77c-4f06-7602-a33d-548efcf3fbb2","0198f767-55c9-7875-8d21-563b3c0b86ed","2025-08-29_16h19.59.316",NA,NA,784.3616,784.3619,784.3619,784.7116,NA,NA,NA,NA,NA,NA,NA,TRUE,1,1.0169,781.3646,784.3613,NA,NA,NA,NA,NA,90,30,0,99,99,73,1,2,100,"binary"
"EBF31F4BA5204F098DF439462C0CF83E",1,"0198f77c-4f06-7602-a33d-548efcf3fbb2","0198f767-55c9-7875-8d21-563b3c0b86ed","2025-08-29_16h19.59.316",NA,NA,787.7112,787.7113,787.7114,788.0606,NA,NA,NA,NA,NA,NA,NA,TRUE,1,0.7692,784.7151,787.7108,NA,NA,NA,NA,NA,60,33,0,100,100,67,1,2,101,"binary"
"EBF31F4BA5204F098DF439462C0CF83E",1,"0198f77c-4f06-7602-a33d-548efcf3fbb2","0198f767-55c9-7875-8d21-563b3c0b86ed","2025-08-29_16h19.59.316",NA,NA,791.0596,791.0597,791.0597,791.4109,NA,NA,NA,NA,NA,NA,NA,TRUE,1,0.5166,788.0645,791.0595,NA,NA,NA,NA,NA,7,25,0,101,101,0,1,2,102,"binary"
"EBF31F4BA5204F098DF439462C0CF83E",1,"0198f77c-4f06-7602-a33d-548efcf3fbb2","0198f767-55c9-7875-8d21-563b3c0b86ed","2025-08-29_16h19.59.316",NA,NA,794.4089,794.409,794.409,794.7588,NA,NA,NA,NA,NA,NA,NA,TRUE,1,0.4827,791.4195,794.4088,NA,NA,NA,NA,NA,28,28,0,102,102,37,1,2,103,"binary"
"EBF31F4BA5204F098DF439462C0CF83E",1,"0198f77c-4f06-7602-a33d-548efcf3fbb2","0198f767-55c9-7875-8d21-563b3c0b86ed","2025-08-29_16h19.59.316",NA,NA,797.7587,797.7587,797.7587,798.1088,NA,NA,NA,NA,NA,NA,NA,TRUE,1,1.584,794.7605,797.7586,NA,NA,NA,NA,NA,40,35,0,103,103,50,1,2,104,"binary"
"EBF31F4BA5204F098DF439462C0CF83E",1,"0198f77c-4f06-7602-a33d-548efcf3fbb2","0198f767-55c9-7875-8d21-563b3c0b86ed","2025-08-29_16h19.59.316",NA,NA,801.1098,801.1098,801.1099,801.4605,NA,NA,NA,NA,NA,NA,NA,TRUE,1,0.918,798.1101,801.1096,NA,NA,NA,NA,NA,12,28,0,104,104,14,1,2,105,"binary"
"EBF31F4BA5204F098DF439462C0CF83E",1,"0198f77c-4f06-7602-a33d-548efcf3fbb2","0198f767-55c9-7875-8d21-563b3c0b86ed","2025-08-29_16h19.59.316",NA,NA,804.4603,804.4603,804.4603,804.8094,NA,NA,NA,NA,NA,NA,NA,TRUE,1,0.7485,801.4661,804.46,NA,NA,NA,NA,NA,7,28,0,105,105,2,1,2,106,"binary"
"EBF31F4BA5204F098DF439462C0CF83E",1,"0198f77c-4f06-7602-a33d-548efcf3fbb2","0198f767-55c9-7875-8d21-563b3c0b86ed","2025-08-29_16h19.59.316",NA,NA,807.8098,807.81,807.81,808.1596,NA,NA,NA,NA,NA,NA,NA,TRUE,1,0.6005,804.8128,807.8096,NA,NA,NA,NA,NA,14,35,0,106,106,22,1,2,107,"binary"
"EBF31F4BA5204F098DF439462C0CF83E",1,"0198f77c-4f06-7602-a33d-548efcf3fbb2","0198f767-55c9-7875-8d21-563b3c0b86ed","2025-08-29_16h19.59.316",NA,NA,811.1589,811.1589,811.1589,811.5087,NA,NA,NA,NA,NA,NA,NA,TRUE,1,0.3351,808.1625,811.1588,NA,NA,NA,NA,NA,14,39,0,107,107,23,1,2,108,"binary"
