"participant","session","assignmentId","projectId","date","practiceTrial.started","practiceTrial.stopped","tooLate.started","tooLate.stopped","blank.started","blank.stopped","trials_pract.thisRepN","trials_pract.thisTrialN","trials_pract.thisN","trials_pract.thisIndex","trials_pract.ran","delay_pract","amount_pract","responseMade","key","rt","trial.started","trial.stopped","trials.thisRepN","trials.thisTrialN","trials.thisN","trials.thisIndex","trials.ran","delay","amount","trials_2.thisRepN","trials_2.thisTrialN","trials_2.thisN","trials_2.thisIndex","trials_2.ran","block","trial","taskType"
"F10BBD77DD6A4D9BBE059E526838676F",1,"0198f77e-53f1-7cd5-93dd-a7b21a26e4b6","0198f767-55c9-7875-8d21-563b3c0b86ed","2025-08-29_16h22.00.161",33.6884,36.6704,36.6713,36.6832,36.6833,37.0202,0,0,0,1,1,100,50,TRUE,2,1.195,NA,NA,NA,NA,NA,NA,NA,NA,NA,NA,NA,NA,NA,NA,0,1,"binary"
"F10BBD77DD6A4D9BBE059E526838676F",1,"0198f77e-53f1-7cd5-93dd-a7b21a26e4b6","0198f767-55c9-7875-8d21-563b3c0b86ed","2025-08-29_16h22.00.161",37.0236,40.02,40.0203,40.0203,40.0203,40.37,0,1,1,2,1,14,45,TRUE,2,1.9112,NA,NA,NA,NA,NA,NA,NA,NA,NA,NA,NA,NA,NA,NA,0,2,"binary"
"F10BBD77DD6A4D9BBE059E526838676F",1,"0198f77e-53f1-7cd5-93dd-a7b21a26e4b6","0198f767-55c9-7875-8d21-563b3c0b86ed","2025-08-29_16h22.00.161",40.3722,43.3702,43.3703,43.3704,43.3704,43.72,0,2,2,4,1,30,40,TRUE,2,2.2163,NA,NA,NA,NA,NA,NA,NA,NA,NA,NA,NA,NA,NA,NA,0,3,"binary"
"F10BBD77DD6A4D9BBE059E526838676F",1,"0198f77e-53f1-7cd5-93dd-a7b21a26e4b6","0198f767-55c9-7875-8d21-563b3c0b86ed","2025-08-29_16h22.00.161",43.7223,46.72,46.7202,46.7203,46.7203,47.07,0,3,3,0,1,7,30,TRUE,2,2.3818,NA,NA,NA,NA,NA,NA,NA,NA,NA,NA,NA,NA,NA,NA,0,4,"binary"
"F10BBD77DD6A4D9BBE059E526838676F",1,"0198f77e-53f1-7cd5-93dd-a7b21a26e4b6","0198f767-55c9-7875-8d21-563b3c0b86ed","2025-08-29_16h22.00.161",47.072,50.0699,50.0701,50.0702,50.0702,50.4199,0,4,4,3,1,3,27,TRUE,2,2.7386,NA,NA,NA,NA,NA,NA,NA,NA,NA,NA,NA,NA,NA,NA,0,5,"binary"
"F10BBD77DD6A4D9BBE059E526838676F",1,"0198f77e-53f1-7cd5-93dd-a7b21a26e4b6","0198f767-55c9-7875-8d21-563b3c0b86ed","2025-08-29_16h22.00.161",NA,NA,70.3374,70.5868,70.5869,70.6868,NA,NA,NA,NA,NA,NA,NA,FALSE,NA,NA,67.353,70.3369,0,0,0,24,1,21,26,NA,NA,NA,NA,NA,1,1,"binary"
"F10BBD77DD6A4D9BBE059E526838676F",1,"0198f77e-53f1-7cd5-93dd-a7b21a26e4b6","0198f767-55c9-7875-8d21-563b3c0b86ed","2025-08-29_16h22.00.161",NA,NA,73.6868,73.6869,73.6869,74.0367,NA,NA,NA,NA,NA,NA,NA,TRUE,2,2.323,70.6889,73.6867,0,1,1,26,1,21,29,NA,NA,NA,NA,NA,1,2,"binary"
"F10BBD77DD6A4D9BBE059E526838676F",1,"0198f77e-53f1-7cd5-93dd-a7b21a26e4b6","0198f767-55c9-7875-8d21-563b3c0b86ed","2025-08-29_16h22.00.161",NA,NA,77.0369,77.2866,77.2867,77.3866,NA,NA,NA,NA,NA,NA,NA,FALSE,NA,NA,74.0385,77.0367,0,2,2,83,1,95,54,NA,NA,NA,NA,NA,1,3,"binary"
"F10BBD77DD6A4D9BBE059E526838676F",1,"0198f77e-53f1-7cd5-93dd-a7b21a26e4b6","0198f767-55c9-7875-8d21-563b3c0b86ed","2025-08-29_16h22.00.161",NA,NA,80.3868,80.3869,80.3869,80.7366,NA,NA,NA,NA,NA,NA,NA,TRUE,2,1.9721,77.3886,80.3866,0,3,3,14,1,12,28,NA,NA,NA,NA,NA,1,4,"binary"
"F10BBD77DD6A4D9BBE059E526838676F",1,"0198f77e-53f1-7cd5-93dd-a7b21a26e4b6","0198f767-55c9-7875-8d21-563b3c0b86ed","2025-08-29_16h22.00.161",NA,NA,83.7368,83.7369,83.7369,84.0867,NA,NA,NA,NA,NA,NA,NA,TRUE,2,1.7262,80.7383,83.7367,0,4,4,64,1,50,46,NA,NA,NA,NA,NA,1,5,"binary"
"F10BBD77DD6A4D9BBE059E526838676F",1,"0198f77e-53f1-7cd5-93dd-a7b21a26e4b6","0198f767-55c9-7875-8d21-563b3c0b86ed","2025-08-29_16h22.00.161",NA,NA,87.0868,87.0869,87.0869,87.4366,NA,NA,NA,NA,NA,NA,NA,TRUE,1,1.0971,84.0886,87.0866,0,5,5,98,1,180,35,NA,NA,NA,NA,NA,1,6,"binary"
"F10BBD77DD6A4D9BBE059E526838676F",1,"0198f77e-53f1-7cd5-93dd-a7b21a26e4b6","0198f767-55c9-7875-8d21-563b3c0b86ed","2025-08-29_16h22.00.161",NA,NA,90.4369,90.4369,90.4369,90.7856,NA,NA,NA,NA,NA,NA,NA,TRUE,2,1.1718,87.4384,90.4366,0,6,6,29,1,21,38,NA,NA,NA,NA,NA,1,7,"binary"
"F10BBD77DD6A4D9BBE059E526838676F",1,"0198f77e-53f1-7cd5-93dd-a7b21a26e4b6","0198f767-55c9-7875-8d21-563b3c0b86ed","2025-08-29_16h22.00.161",NA,NA,93.7868,93.7868,93.7869,94.1366,NA,NA,NA,NA,NA,NA,NA,TRUE,2,1.0346,90.7874,93.7866,0,7,7,3,1,7,30,NA,NA,NA,NA,NA,1,8,"binary"
"F10BBD77DD6A4D9BBE059E526838676F",1,"0198f77e-53f1-7cd5-93dd-a7b21a26e4b6","0198f767-55c9-7875-8d21-563b3c0b86ed","2025-08-29_16h22.00.161",NA,NA,97.1368,97.1368,97.1369,97.4866,NA,NA,NA,NA,NA,NA,NA,TRUE,1,1.1001,94.1384,97.1366,0,8,8,92,1,150,35,NA,NA,NA,NA,NA,1,9,"binary"
"F10BBD77DD6A4D9BBE059E526838676F",1,"0198f77e-53f1-7cd5-93dd-a7b21a26e4b6","0198f767-55c9-7875-8d21-563b3c0b86ed","2025-08-29_16h22.00.161",NA,NA,100.4868,100.4869,100.4869,100.8365,NA,NA,NA,NA,NA,NA,NA,TRUE,1,1.6242,97.4884,100.4866,0,9,9,81,1,95,40,NA,NA,NA,NA,NA,1,10,"binary"
"F10BBD77DD6A4D9BBE059E526838676F",1,"0198f77e-53f1-7cd5-93dd-a7b21a26e4b6","0198f767-55c9-7875-8d21-563b3c0b86ed","2025-08-29_16h22.00.161",NA,NA,103.8368,103.8368,103.8369,104.1865,NA,NA,NA,NA,NA,NA,NA,TRUE,1,1.1679,100.838,103.8366,0,10,10,78,1,95,31,NA,NA,NA,NA,NA,1,11,"binary"
"F10BBD77DD6A4D9BBE059E526838676F",1,"0198f77e-53f1-7cd5-93dd-a7b21a26e4b6","0198f767-55c9-7875-8d21-563b3c0b86ed","2025-08-29_16h22.00.161",NA,NA,107.1867,107.1867,107.1867,107.5365,NA,NA,NA,NA,NA,NA,NA,TRUE,1,0.8995,104.1883,107.1865,0,11,11,86,1,100,38,NA,NA,NA,NA,NA,1,12,"binary"
"F10BBD77DD6A4D9BBE059E526838676F",1,"0198f77e-53f1-7cd5-93dd-a7b21a26e4b6","0198f767-55c9-7875-8d21-563b3c0b86ed","2025-08-29_16h22.00.161",NA,NA,110.5368,110.5368,110.5368,110.8865,NA,NA,NA,NA,NA,NA,NA,TRUE,1,1.3765,107.5384,110.5365,0,12,12,85,1,100,31,NA,NA,NA,NA,NA,1,13,"binary"
"F10BBD77DD6A4D9BBE059E526838676F",1,"0198f77e-53f1-7cd5-93dd-a7b21a26e4b6","0198f767-55c9-7875-8d21-563b3c0b86ed","2025-08-29_16h22.00.161",NA,NA,113.8867,113.8868,113.8868,114.2365,NA,NA,NA,NA,NA,NA,NA,TRUE,1,0.7581,110.8882,113.8866,0,13,13,101,1,180,54,NA,NA,NA,NA,NA,1,14,"binary"
"F10BBD77DD6A4D9BBE059E526838676F",1,"0198f77e-53f1-7cd5-93dd-a7b21a26e4b6","0198f767-55c9-7875-8d21-563b3c0b86ed","2025-08-29_16h22.00.161",NA,NA,117.2367,117.2367,117.2367,117.5865,NA,NA,NA,NA,NA,NA,NA,TRUE,1,1.0252,114.2384,117.2365,0,14,14,45,1,30,30,NA,NA,NA,NA,NA,1,15,"binary"
"F10BBD77DD6A4D9BBE059E526838676F",1,"0198f77e-53f1-7cd5-93dd-a7b21a26e4b6","0198f767-55c9-7875-8d21-563b3c0b86ed","2025-08-29_16h22.00.161",NA,NA,120.5867,120.5867,120.5867,120.9369,NA,NA,NA,NA,NA,NA,NA,TRUE,2,1.6068,117.5883,120.5865,0,15,15,32,1,25,31,NA,NA,NA,NA,NA,1,16,"binary"
"F10BBD77DD6A4D9BBE059E526838676F",1,"0198f77e-53f1-7cd5-93dd-a7b21a26e4b6","0198f767-55c9-7875-8d21-563b3c0b86ed","2025-08-29_16h22.00.161",NA,NA,123.9367,123.9367,123.9367,124.2865,NA,NA,NA,NA,NA,NA,NA,TRUE,1,1.4884,120.9386,123.9365,0,16,16,88,1,100,46,NA,NA,NA,NA,NA,1,17,"binary"
"F10BBD77DD6A4D9BBE059E526838676F",1,"0198f77e-53f1-7cd5-93dd-a7b21a26e4b6","0198f767-55c9-7875-8d21-563b3c0b86ed","2025-08-29_16h22.00.161",NA,NA,127.2866,127.2867,127.2867,127.6365,NA,NA,NA,NA,NA,NA,NA,TRUE,2,1.0674,124.2884,127.2865,0,17,17,43,1,30,27,NA,NA,NA,NA,NA,1,18,"binary"
"F10BBD77DD6A4D9BBE059E526838676F",1,"0198f77e-53f1-7cd5-93dd-a7b21a26e4b6","0198f767-55c9-7875-8d21-563b3c0b86ed","2025-08-29_16h22.00.161",NA,NA,130.6367,130.6367,130.6367,130.9865,NA,NA,NA,NA,NA,NA,NA,TRUE,2,0.8995,127.6384,130.6365,0,18,18,22,1,14,35,NA,NA,NA,NA,NA,1,19,"binary"
"F10BBD77DD6A4D9BBE059E526838676F",1,"0198f77e-53f1-7cd5-93dd-a7b21a26e4b6","0198f767-55c9-7875-8d21-563b3c0b86ed","2025-08-29_16h22.00.161",NA,NA,133.9867,133.9867,133.9867,134.3365,NA,NA,NA,NA,NA,NA,NA,TRUE,2,1.7593,130.9883,133.9865,0,19,19,58,1,45,40,NA,NA,NA,NA,NA,1,20,"binary"
"F10BBD77DD6A4D9BBE059E526838676F",1,"0198f77e-53f1-7cd5-93dd-a7b21a26e4b6","0198f767-55c9-7875-8d21-563b3c0b86ed","2025-08-29_16h22.00.161",NA,NA,137.3368,137.3369,137.3369,137.6866,NA,NA,NA,NA,NA,NA,NA,TRUE,2,1.4406,134.3383,137.3367,0,20,20,16,1,12,33,NA,NA,NA,NA,NA,1,21,"binary"
"F10BBD77DD6A4D9BBE059E526838676F",1,"0198f77e-53f1-7cd5-93dd-a7b21a26e4b6","0198f767-55c9-7875-8d21-563b3c0b86ed","2025-08-29_16h22.00.161",NA,NA,140.6867,140.6868,140.6868,141.0365,NA,NA,NA,NA,NA,NA,NA,TRUE,1,1.0396,137.6884,140.6866,0,21,21,97,1,180,31,NA,NA,NA,NA,NA,1,22,"binary"
"F10BBD77DD6A4D9BBE059E526838676F",1,"0198f77e-53f1-7cd5-93dd-a7b21a26e4b6","0198f767-55c9-7875-8d21-563b3c0b86ed","2025-08-29_16h22.00.161",NA,NA,144.0367,144.0367,144.0367,144.3865,NA,NA,NA,NA,NA,NA,NA,TRUE,1,1.3242,141.0383,144.0366,0,22,22,76,1,90,46,NA,NA,NA,NA,NA,1,23,"binary"
"F10BBD77DD6A4D9BBE059E526838676F",1,"0198f77e-53f1-7cd5-93dd-a7b21a26e4b6","0198f767-55c9-7875-8d21-563b3c0b86ed","2025-08-29_16h22.00.161",NA,NA,147.3867,147.3867,147.3867,147.7365,NA,NA,NA,NA,NA,NA,NA,TRUE,1,1.3897,144.3883,147.3865,0,23,23,55,1,45,29,NA,NA,NA,NA,NA,1,24,"binary"
"F10BBD77DD6A4D9BBE059E526838676F",1,"0198f77e-53f1-7cd5-93dd-a7b21a26e4b6","0198f767-55c9-7875-8d21-563b3c0b86ed","2025-08-29_16h22.00.161",NA,NA,150.7366,150.7367,150.7367,151.0865,NA,NA,NA,NA,NA,NA,NA,TRUE,2,0.8574,147.7383,150.7364,0,24,24,25,1,21,27,NA,NA,NA,NA,NA,1,25,"binary"
"F10BBD77DD6A4D9BBE059E526838676F",1,"0198f77e-53f1-7cd5-93dd-a7b21a26e4b6","0198f767-55c9-7875-8d21-563b3c0b86ed","2025-08-29_16h22.00.161",NA,NA,154.0867,154.0867,154.0867,154.4364,NA,NA,NA,NA,NA,NA,NA,TRUE,1,0.8416,151.0884,154.0865,0,25,25,104,1,200,35,NA,NA,NA,NA,NA,1,26,"binary"
"F10BBD77DD6A4D9BBE059E526838676F",1,"0198f77e-53f1-7cd5-93dd-a7b21a26e4b6","0198f767-55c9-7875-8d21-563b3c0b86ed","2025-08-29_16h22.00.161",NA,NA,157.4367,157.4368,157.4368,157.7865,NA,NA,NA,NA,NA,NA,NA,TRUE,1,0.8003,154.4383,157.4365,0,26,26,94,1,150,47,NA,NA,NA,NA,NA,1,27,"binary"
"F10BBD77DD6A4D9BBE059E526838676F",1,"0198f77e-53f1-7cd5-93dd-a7b21a26e4b6","0198f767-55c9-7875-8d21-563b3c0b86ed","2025-08-29_16h22.00.161",NA,NA,160.7866,160.7867,160.7867,161.1364,NA,NA,NA,NA,NA,NA,NA,TRUE,2,1.0063,157.7885,160.7865,0,27,27,0,1,7,25,NA,NA,NA,NA,NA,1,28,"binary"
"F10BBD77DD6A4D9BBE059E526838676F",1,"0198f77e-53f1-7cd5-93dd-a7b21a26e4b6","0198f767-55c9-7875-8d21-563b3c0b86ed","2025-08-29_16h22.00.161",NA,NA,164.1367,164.1367,164.1367,164.4865,NA,NA,NA,NA,NA,NA,NA,TRUE,1,0.9911,161.1382,164.1365,0,28,28,100,1,180,46,NA,NA,NA,NA,NA,1,29,"binary"
"F10BBD77DD6A4D9BBE059E526838676F",1,"0198f77e-53f1-7cd5-93dd-a7b21a26e4b6","0198f767-55c9-7875-8d21-563b3c0b86ed","2025-08-29_16h22.00.161",NA,NA,167.4868,167.4868,167.4869,167.8364,NA,NA,NA,NA,NA,NA,NA,TRUE,1,1.7073,164.4883,167.4865,0,29,29,12,1,12,25,NA,NA,NA,NA,NA,1,30,"binary"
"F10BBD77DD6A4D9BBE059E526838676F",1,"0198f77e-53f1-7cd5-93dd-a7b21a26e4b6","0198f767-55c9-7875-8d21-563b3c0b86ed","2025-08-29_16h22.00.161",NA,NA,170.8367,170.8368,170.8368,171.1866,NA,NA,NA,NA,NA,NA,NA,TRUE,1,1.009,167.8382,170.8365,0,30,30,93,1,150,40,NA,NA,NA,NA,NA,1,31,"binary"
"F10BBD77DD6A4D9BBE059E526838676F",1,"0198f77e-53f1-7cd5-93dd-a7b21a26e4b6","0198f767-55c9-7875-8d21-563b3c0b86ed","2025-08-29_16h22.00.161",NA,NA,174.1866,174.1866,174.1866,174.5365,NA,NA,NA,NA,NA,NA,NA,TRUE,1,1.0847,171.1883,174.1865,0,31,31,80,1,95,35,NA,NA,NA,NA,NA,1,32,"binary"
"F10BBD77DD6A4D9BBE059E526838676F",1,"0198f77e-53f1-7cd5-93dd-a7b21a26e4b6","0198f767-55c9-7875-8d21-563b3c0b86ed","2025-08-29_16h22.00.161",NA,NA,177.5358,177.5358,177.5359,177.8864,NA,NA,NA,NA,NA,NA,NA,TRUE,2,1.0897,174.5383,177.5357,0,32,32,10,1,10,30,NA,NA,NA,NA,NA,1,33,"binary"
"F10BBD77DD6A4D9BBE059E526838676F",1,"0198f77e-53f1-7cd5-93dd-a7b21a26e4b6","0198f767-55c9-7875-8d21-563b3c0b86ed","2025-08-29_16h22.00.161",NA,NA,180.8865,180.8866,180.8867,181.2365,NA,NA,NA,NA,NA,NA,NA,TRUE,1,0.8729,177.8882,180.8864,0,33,33,90,1,150,31,NA,NA,NA,NA,NA,1,34,"binary"
"F10BBD77DD6A4D9BBE059E526838676F",1,"0198f77e-53f1-7cd5-93dd-a7b21a26e4b6","0198f767-55c9-7875-8d21-563b3c0b86ed","2025-08-29_16h22.00.161",NA,NA,184.2362,184.2362,184.2362,184.5864,NA,NA,NA,NA,NA,NA,NA,TRUE,1,0.8893,181.2383,184.2361,0,34,34,41,1,28,46,NA,NA,NA,NA,NA,1,35,"binary"
"F10BBD77DD6A4D9BBE059E526838676F",1,"0198f77e-53f1-7cd5-93dd-a7b21a26e4b6","0198f767-55c9-7875-8d21-563b3c0b86ed","2025-08-29_16h22.00.161",NA,NA,187.5866,187.5867,187.5867,187.9365,NA,NA,NA,NA,NA,NA,NA,TRUE,2,1.2836,184.5882,187.5865,0,35,35,46,1,30,32,NA,NA,NA,NA,NA,1,36,"binary"
"F10BBD77DD6A4D9BBE059E526838676F",1,"0198f77e-53f1-7cd5-93dd-a7b21a26e4b6","0198f767-55c9-7875-8d21-563b3c0b86ed","2025-08-29_16h22.00.161",NA,NA,190.9366,190.9367,190.9367,191.2855,NA,NA,NA,NA,NA,NA,NA,TRUE,1,0.774,187.9382,190.9365,0,36,36,95,1,150,54,NA,NA,NA,NA,NA,1,37,"binary"
"F10BBD77DD6A4D9BBE059E526838676F",1,"0198f77e-53f1-7cd5-93dd-a7b21a26e4b6","0198f767-55c9-7875-8d21-563b3c0b86ed","2025-08-29_16h22.00.161",NA,NA,194.2866,194.2866,194.2867,194.6361,NA,NA,NA,NA,NA,NA,NA,TRUE,2,1.0899,191.2873,194.2864,0,37,37,69,1,60,40,NA,NA,NA,NA,NA,1,38,"binary"
"F10BBD77DD6A4D9BBE059E526838676F",1,"0198f77e-53f1-7cd5-93dd-a7b21a26e4b6","0198f767-55c9-7875-8d21-563b3c0b86ed","2025-08-29_16h22.00.161",NA,NA,197.6357,197.6357,197.6357,197.9864,NA,NA,NA,NA,NA,NA,NA,TRUE,2,1.5568,194.6368,197.6355,0,38,38,20,1,14,28,NA,NA,NA,NA,NA,1,39,"binary"
"F10BBD77DD6A4D9BBE059E526838676F",1,"0198f77e-53f1-7cd5-93dd-a7b21a26e4b6","0198f767-55c9-7875-8d21-563b3c0b86ed","2025-08-29_16h22.00.161",NA,NA,200.9865,200.9866,200.9866,201.3355,NA,NA,NA,NA,NA,NA,NA,TRUE,2,1.0424,197.9882,200.9864,0,39,39,28,1,21,32,NA,NA,NA,NA,NA,1,40,"binary"
"F10BBD77DD6A4D9BBE059E526838676F",1,"0198f77e-53f1-7cd5-93dd-a7b21a26e4b6","0198f767-55c9-7875-8d21-563b3c0b86ed","2025-08-29_16h22.00.161",NA,NA,204.3366,204.3367,204.3367,204.6864,NA,NA,NA,NA,NA,NA,NA,TRUE,1,0.8093,201.3373,204.3364,0,40,40,59,1,45,46,NA,NA,NA,NA,NA,1,41,"binary"
"F10BBD77DD6A4D9BBE059E526838676F",1,"0198f77e-53f1-7cd5-93dd-a7b21a26e4b6","0198f767-55c9-7875-8d21-563b3c0b86ed","2025-08-29_16h22.00.161",NA,NA,207.6866,207.6866,207.6866,208.0364,NA,NA,NA,NA,NA,NA,NA,TRUE,1,1.117,204.6883,207.6864,0,41,41,79,1,95,33,NA,NA,NA,NA,NA,1,42,"binary"
"F10BBD77DD6A4D9BBE059E526838676F",1,"0198f77e-53f1-7cd5-93dd-a7b21a26e4b6","0198f767-55c9-7875-8d21-563b3c0b86ed","2025-08-29_16h22.00.161",NA,NA,211.0366,211.0366,211.0366,211.3864,NA,NA,NA,NA,NA,NA,NA,TRUE,1,0.7559,208.0383,211.0364,0,42,42,91,1,150,33,NA,NA,NA,NA,NA,1,43,"binary"
"F10BBD77DD6A4D9BBE059E526838676F",1,"0198f77e-53f1-7cd5-93dd-a7b21a26e4b6","0198f767-55c9-7875-8d21-563b3c0b86ed","2025-08-29_16h22.00.161",NA,NA,214.3865,214.3865,214.3866,214.7364,NA,NA,NA,NA,NA,NA,NA,TRUE,1,0.8943,211.3882,214.3864,0,43,43,106,1,200,47,NA,NA,NA,NA,NA,1,44,"binary"
"F10BBD77DD6A4D9BBE059E526838676F",1,"0198f77e-53f1-7cd5-93dd-a7b21a26e4b6","0198f767-55c9-7875-8d21-563b3c0b86ed","2025-08-29_16h22.00.161",NA,NA,217.7365,217.7366,217.7366,218.0864,NA,NA,NA,NA,NA,NA,NA,TRUE,1,1.3071,214.7382,217.7364,0,44,44,89,1,100,54,NA,NA,NA,NA,NA,1,45,"binary"
"F10BBD77DD6A4D9BBE059E526838676F",1,"0198f77e-53f1-7cd5-93dd-a7b21a26e4b6","0198f767-55c9-7875-8d21-563b3c0b86ed","2025-08-29_16h22.00.161",NA,NA,221.0866,221.0866,221.0867,221.4364,NA,NA,NA,NA,NA,NA,NA,TRUE,2,1.4666,218.0882,221.0864,0,45,45,52,1,40,47,NA,NA,NA,NA,NA,1,46,"binary"
"F10BBD77DD6A4D9BBE059E526838676F",1,"0198f77e-53f1-7cd5-93dd-a7b21a26e4b6","0198f767-55c9-7875-8d21-563b3c0b86ed","2025-08-29_16h22.00.161",NA,NA,224.4358,224.4358,224.4358,224.7855,NA,NA,NA,NA,NA,NA,NA,TRUE,2,1.1908,221.4382,224.4355,0,46,46,27,1,21,30,NA,NA,NA,NA,NA,1,47,"binary"
"F10BBD77DD6A4D9BBE059E526838676F",1,"0198f77e-53f1-7cd5-93dd-a7b21a26e4b6","0198f767-55c9-7875-8d21-563b3c0b86ed","2025-08-29_16h22.00.161",NA,NA,227.7865,227.7866,227.7866,228.1364,NA,NA,NA,NA,NA,NA,NA,TRUE,2,1.2501,224.7873,227.7864,0,47,47,51,1,40,40,NA,NA,NA,NA,NA,1,48,"binary"
"F10BBD77DD6A4D9BBE059E526838676F",1,"0198f77e-53f1-7cd5-93dd-a7b21a26e4b6","0198f767-55c9-7875-8d21-563b3c0b86ed","2025-08-29_16h22.00.161",NA,NA,231.1365,231.1366,231.1366,231.4863,NA,NA,NA,NA,NA,NA,NA,TRUE,2,1.9505,228.1382,231.1364,0,48,48,70,1,60,47,NA,NA,NA,NA,NA,1,49,"binary"
"F10BBD77DD6A4D9BBE059E526838676F",1,"0198f77e-53f1-7cd5-93dd-a7b21a26e4b6","0198f767-55c9-7875-8d21-563b3c0b86ed","2025-08-29_16h22.00.161",NA,NA,234.4866,234.4866,234.4866,234.8363,NA,NA,NA,NA,NA,NA,NA,TRUE,2,1.4848,231.4881,234.4864,0,49,49,72,1,90,26,NA,NA,NA,NA,NA,1,50,"binary"
"F10BBD77DD6A4D9BBE059E526838676F",1,"0198f77e-53f1-7cd5-93dd-a7b21a26e4b6","0198f767-55c9-7875-8d21-563b3c0b86ed","2025-08-29_16h22.00.161",NA,NA,237.8356,237.8357,237.8357,238.1864,NA,NA,NA,NA,NA,NA,NA,TRUE,2,1.3002,234.8381,237.8355,0,50,50,11,1,10,32,NA,NA,NA,NA,NA,1,51,"binary"
"F10BBD77DD6A4D9BBE059E526838676F",1,"0198f77e-53f1-7cd5-93dd-a7b21a26e4b6","0198f767-55c9-7875-8d21-563b3c0b86ed","2025-08-29_16h22.00.161",NA,NA,241.1865,241.1865,241.1865,241.5364,NA,NA,NA,NA,NA,NA,NA,TRUE,2,0.8908,238.1882,241.1863,0,51,51,31,1,25,29,NA,NA,NA,NA,NA,1,52,"binary"
"F10BBD77DD6A4D9BBE059E526838676F",1,"0198f77e-53f1-7cd5-93dd-a7b21a26e4b6","0198f767-55c9-7875-8d21-563b3c0b86ed","2025-08-29_16h22.00.161",NA,NA,244.5358,244.5358,244.5358,244.8855,NA,NA,NA,NA,NA,NA,NA,TRUE,2,0.7994,241.5383,244.5355,0,52,52,2,1,7,28,NA,NA,NA,NA,NA,1,53,"binary"
"F10BBD77DD6A4D9BBE059E526838676F",1,"0198f77e-53f1-7cd5-93dd-a7b21a26e4b6","0198f767-55c9-7875-8d21-563b3c0b86ed","2025-08-29_16h22.00.161",NA,NA,247.8866,247.8866,247.8866,248.2363,NA,NA,NA,NA,NA,NA,NA,TRUE,2,1.668,244.8874,247.8864,0,53,53,35,1,25,46,NA,NA,NA,NA,NA,1,54,"binary"
"F10BBD77DD6A4D9BBE059E526838676F",1,"0198f77e-53f1-7cd5-93dd-a7b21a26e4b6","0198f767-55c9-7875-8d21-563b3c0b86ed","2025-08-29_16h22.00.161",NA,NA,251.2366,251.2366,251.2367,251.5855,NA,NA,NA,NA,NA,NA,NA,TRUE,2,1.5491,248.2384,251.2364,0,54,54,71,1,60,54,NA,NA,NA,NA,NA,1,55,"binary"
"F10BBD77DD6A4D9BBE059E526838676F",1,"0198f77e-53f1-7cd5-93dd-a7b21a26e4b6","0198f767-55c9-7875-8d21-563b3c0b86ed","2025-08-29_16h22.00.161",NA,NA,254.5857,254.5857,254.5858,254.9364,NA,NA,NA,NA,NA,NA,NA,TRUE,2,1.4553,251.5874,254.5855,0,55,55,63,1,50,40,NA,NA,NA,NA,NA,1,56,"binary"
"F10BBD77DD6A4D9BBE059E526838676F",1,"0198f77e-53f1-7cd5-93dd-a7b21a26e4b6","0198f767-55c9-7875-8d21-563b3c0b86ed","2025-08-29_16h22.00.161",NA,NA,257.9366,257.9366,257.9366,258.2864,NA,NA,NA,NA,NA,NA,NA,TRUE,2,1.0327,254.9382,257.9364,0,56,56,18,1,14,25,NA,NA,NA,NA,NA,1,57,"binary"
"F10BBD77DD6A4D9BBE059E526838676F",1,"0198f77e-53f1-7cd5-93dd-a7b21a26e4b6","0198f767-55c9-7875-8d21-563b3c0b86ed","2025-08-29_16h22.00.161",NA,NA,261.2857,261.2857,261.2857,261.6364,NA,NA,NA,NA,NA,NA,NA,TRUE,2,1.5231,258.2882,261.2856,0,57,57,42,1,30,26,NA,NA,NA,NA,NA,1,58,"binary"
"F10BBD77DD6A4D9BBE059E526838676F",1,"0198f77e-53f1-7cd5-93dd-a7b21a26e4b6","0198f767-55c9-7875-8d21-563b3c0b86ed","2025-08-29_16h22.00.161",NA,NA,264.6365,264.6365,264.6365,264.9863,NA,NA,NA,NA,NA,NA,NA,TRUE,2,1.2659,261.6384,264.6363,0,58,58,57,1,45,35,NA,NA,NA,NA,NA,1,59,"binary"
"F10BBD77DD6A4D9BBE059E526838676F",1,"0198f77e-53f1-7cd5-93dd-a7b21a26e4b6","0198f767-55c9-7875-8d21-563b3c0b86ed","2025-08-29_16h22.00.161",NA,NA,267.9857,267.9857,267.9857,268.3364,NA,NA,NA,NA,NA,NA,NA,TRUE,2,1.5833,264.9881,267.9855,0,59,59,39,1,28,35,NA,NA,NA,NA,NA,1,60,"binary"
"F10BBD77DD6A4D9BBE059E526838676F",1,"0198f77e-53f1-7cd5-93dd-a7b21a26e4b6","0198f767-55c9-7875-8d21-563b3c0b86ed","2025-08-29_16h22.00.161",NA,NA,271.3365,271.3366,271.3366,271.6863,NA,NA,NA,NA,NA,NA,NA,TRUE,2,1.817,268.3381,271.3364,0,60,60,56,1,45,31,NA,NA,NA,NA,NA,1,61,"binary"
"F10BBD77DD6A4D9BBE059E526838676F",1,"0198f77e-53f1-7cd5-93dd-a7b21a26e4b6","0198f767-55c9-7875-8d21-563b3c0b86ed","2025-08-29_16h22.00.161",NA,NA,274.6865,274.6866,274.6866,275.0363,NA,NA,NA,NA,NA,NA,NA,TRUE,1,1.4916,271.6881,274.6864,0,61,61,7,1,10,26,NA,NA,NA,NA,NA,1,62,"binary"
"F10BBD77DD6A4D9BBE059E526838676F",1,"0198f77e-53f1-7cd5-93dd-a7b21a26e4b6","0198f767-55c9-7875-8d21-563b3c0b86ed","2025-08-29_16h22.00.161",NA,NA,278.0356,278.0356,278.0356,278.3863,NA,NA,NA,NA,NA,NA,NA,TRUE,2,1.0996,275.0381,278.0354,0,62,62,65,1,50,54,NA,NA,NA,NA,NA,1,63,"binary"
"F10BBD77DD6A4D9BBE059E526838676F",1,"0198f77e-53f1-7cd5-93dd-a7b21a26e4b6","0198f767-55c9-7875-8d21-563b3c0b86ed","2025-08-29_16h22.00.161",NA,NA,281.3865,281.3865,281.3866,281.7362,NA,NA,NA,NA,NA,NA,NA,TRUE,1,0.9227,278.388,281.3863,0,63,63,84,1,100,26,NA,NA,NA,NA,NA,1,64,"binary"
"F10BBD77DD6A4D9BBE059E526838676F",1,"0198f77e-53f1-7cd5-93dd-a7b21a26e4b6","0198f767-55c9-7875-8d21-563b3c0b86ed","2025-08-29_16h22.00.161",NA,NA,284.7365,284.7366,284.7366,285.0863,NA,NA,NA,NA,NA,NA,NA,TRUE,2,0.8846,281.7379,284.7363,0,64,64,74,1,90,33,NA,NA,NA,NA,NA,1,65,"binary"
"F10BBD77DD6A4D9BBE059E526838676F",1,"0198f77e-53f1-7cd5-93dd-a7b21a26e4b6","0198f767-55c9-7875-8d21-563b3c0b86ed","2025-08-29_16h22.00.161",NA,NA,288.0864,288.0865,288.0865,288.4363,NA,NA,NA,NA,NA,NA,NA,TRUE,1,0.9065,285.0882,288.0863,0,65,65,103,1,200,28,NA,NA,NA,NA,NA,1,66,"binary"
"F10BBD77DD6A4D9BBE059E526838676F",1,"0198f77e-53f1-7cd5-93dd-a7b21a26e4b6","0198f767-55c9-7875-8d21-563b3c0b86ed","2025-08-29_16h22.00.161",NA,NA,291.4365,291.4365,291.4365,291.7862,NA,NA,NA,NA,NA,NA,NA,TRUE,1,1.307,288.4381,291.4363,0,66,66,99,1,180,39,NA,NA,NA,NA,NA,1,67,"binary"
"F10BBD77DD6A4D9BBE059E526838676F",1,"0198f77e-53f1-7cd5-93dd-a7b21a26e4b6","0198f767-55c9-7875-8d21-563b3c0b86ed","2025-08-29_16h22.00.161",NA,NA,294.7865,294.7865,294.7865,295.1363,NA,NA,NA,NA,NA,NA,NA,TRUE,1,0.8284,291.7881,294.7864,0,67,67,30,1,25,27,NA,NA,NA,NA,NA,1,68,"binary"
"F10BBD77DD6A4D9BBE059E526838676F",1,"0198f77e-53f1-7cd5-93dd-a7b21a26e4b6","0198f767-55c9-7875-8d21-563b3c0b86ed","2025-08-29_16h22.00.161",NA,NA,298.1366,298.1366,298.1366,298.4862,NA,NA,NA,NA,NA,NA,NA,TRUE,2,1.048,295.138,298.1363,0,68,68,4,1,7,32,NA,NA,NA,NA,NA,1,69,"binary"
"F10BBD77DD6A4D9BBE059E526838676F",1,"0198f77e-53f1-7cd5-93dd-a7b21a26e4b6","0198f767-55c9-7875-8d21-563b3c0b86ed","2025-08-29_16h22.00.161",NA,NA,301.4865,301.4865,301.4865,301.8363,NA,NA,NA,NA,NA,NA,NA,TRUE,1,0.9094,298.488,301.4863,0,69,69,48,1,40,27,NA,NA,NA,NA,NA,1,70,"binary"
"F10BBD77DD6A4D9BBE059E526838676F",1,"0198f77e-53f1-7cd5-93dd-a7b21a26e4b6","0198f767-55c9-7875-8d21-563b3c0b86ed","2025-08-29_16h22.00.161",NA,NA,304.8364,304.8365,304.8365,305.1863,NA,NA,NA,NA,NA,NA,NA,TRUE,2,1.1845,301.8381,304.8363,0,70,70,50,1,40,35,NA,NA,NA,NA,NA,1,71,"binary"
"F10BBD77DD6A4D9BBE059E526838676F",1,"0198f77e-53f1-7cd5-93dd-a7b21a26e4b6","0198f767-55c9-7875-8d21-563b3c0b86ed","2025-08-29_16h22.00.161",NA,NA,308.1864,308.1864,308.1864,308.5363,NA,NA,NA,NA,NA,NA,NA,TRUE,1,0.8841,305.1881,308.1863,0,71,71,61,1,50,30,NA,NA,NA,NA,NA,1,72,"binary"
"F10BBD77DD6A4D9BBE059E526838676F",1,"0198f77e-53f1-7cd5-93dd-a7b21a26e4b6","0198f767-55c9-7875-8d21-563b3c0b86ed","2025-08-29_16h22.00.161",NA,NA,311.5364,311.5364,311.5365,311.8862,NA,NA,NA,NA,NA,NA,NA,TRUE,2,0.7425,308.538,311.5363,0,72,72,5,1,7,35,NA,NA,NA,NA,NA,1,73,"binary"
"F10BBD77DD6A4D9BBE059E526838676F",1,"0198f77e-53f1-7cd5-93dd-a7b21a26e4b6","0198f767-55c9-7875-8d21-563b3c0b86ed","2025-08-29_16h22.00.161",NA,NA,314.8865,314.8865,314.8865,315.2363,NA,NA,NA,NA,NA,NA,NA,TRUE,1,0.7426,311.888,314.8864,0,73,73,87,1,100,39,NA,NA,NA,NA,NA,1,74,"binary"
"F10BBD77DD6A4D9BBE059E526838676F",1,"0198f77e-53f1-7cd5-93dd-a7b21a26e4b6","0198f767-55c9-7875-8d21-563b3c0b86ed","2025-08-29_16h22.00.161",NA,NA,318.2364,318.2364,318.2364,318.5862,NA,NA,NA,NA,NA,NA,NA,TRUE,2,1.5913,315.238,318.2363,0,74,74,33,1,25,33,NA,NA,NA,NA,NA,1,75,"binary"
"F10BBD77DD6A4D9BBE059E526838676F",1,"0198f77e-53f1-7cd5-93dd-a7b21a26e4b6","0198f767-55c9-7875-8d21-563b3c0b86ed","2025-08-29_16h22.00.161",NA,NA,321.5864,321.5864,321.5864,321.9362,NA,NA,NA,NA,NA,NA,NA,TRUE,2,0.8567,318.5881,321.5863,0,75,75,75,1,90,40,NA,NA,NA,NA,NA,1,76,"binary"
"F10BBD77DD6A4D9BBE059E526838676F",1,"0198f77e-53f1-7cd5-93dd-a7b21a26e4b6","0198f767-55c9-7875-8d21-563b3c0b86ed","2025-08-29_16h22.00.161",NA,NA,324.9365,324.9365,324.9365,325.2863,NA,NA,NA,NA,NA,NA,NA,TRUE,2,0.8941,321.9381,324.9363,0,76,76,47,1,30,38,NA,NA,NA,NA,NA,1,77,"binary"
"F10BBD77DD6A4D9BBE059E526838676F",1,"0198f77e-53f1-7cd5-93dd-a7b21a26e4b6","0198f767-55c9-7875-8d21-563b3c0b86ed","2025-08-29_16h22.00.161",NA,NA,328.2865,328.2865,328.2865,328.6363,NA,NA,NA,NA,NA,NA,NA,TRUE,2,1.2829,325.2881,328.2863,0,77,77,17,1,12,35,NA,NA,NA,NA,NA,1,78,"binary"
"F10BBD77DD6A4D9BBE059E526838676F",1,"0198f77e-53f1-7cd5-93dd-a7b21a26e4b6","0198f767-55c9-7875-8d21-563b3c0b86ed","2025-08-29_16h22.00.161",NA,NA,331.6364,331.6364,331.6364,331.9862,NA,NA,NA,NA,NA,NA,NA,TRUE,1,1.0731,328.638,331.6363,0,78,78,6,1,10,25,NA,NA,NA,NA,NA,1,79,"binary"
"F10BBD77DD6A4D9BBE059E526838676F",1,"0198f77e-53f1-7cd5-93dd-a7b21a26e4b6","0198f767-55c9-7875-8d21-563b3c0b86ed","2025-08-29_16h22.00.161",NA,NA,334.9866,334.9866,334.9866,335.3362,NA,NA,NA,NA,NA,NA,NA,TRUE,1,1.9502,331.9881,334.9863,0,79,79,60,1,50,27,NA,NA,NA,NA,NA,1,80,"binary"
"F10BBD77DD6A4D9BBE059E526838676F",1,"0198f77e-53f1-7cd5-93dd-a7b21a26e4b6","0198f767-55c9-7875-8d21-563b3c0b86ed","2025-08-29_16h22.00.161",NA,NA,338.3365,338.3366,338.3366,338.6863,NA,NA,NA,NA,NA,NA,NA,TRUE,2,1.4159,335.3383,338.3363,0,80,80,66,1,60,29,NA,NA,NA,NA,NA,1,81,"binary"
"F10BBD77DD6A4D9BBE059E526838676F",1,"0198f77e-53f1-7cd5-93dd-a7b21a26e4b6","0198f767-55c9-7875-8d21-563b3c0b86ed","2025-08-29_16h22.00.161",NA,NA,341.6866,341.6866,341.6867,342.0362,NA,NA,NA,NA,NA,NA,NA,TRUE,2,0.7189,338.6881,341.6864,0,81,81,67,1,60,33,NA,NA,NA,NA,NA,1,82,"binary"
"F10BBD77DD6A4D9BBE059E526838676F",1,"0198f77e-53f1-7cd5-93dd-a7b21a26e4b6","0198f767-55c9-7875-8d21-563b3c0b86ed","2025-08-29_16h22.00.161",NA,NA,345.0365,345.0365,345.0365,345.3862,NA,NA,NA,NA,NA,NA,NA,TRUE,1,1.033,342.038,345.0363,0,82,82,44,1,30,29,NA,NA,NA,NA,NA,1,83,"binary"
"F10BBD77DD6A4D9BBE059E526838676F",1,"0198f77e-53f1-7cd5-93dd-a7b21a26e4b6","0198f767-55c9-7875-8d21-563b3c0b86ed","2025-08-29_16h22.00.161",NA,NA,348.3861,348.3861,348.3861,348.7362,NA,NA,NA,NA,NA,NA,NA,TRUE,2,1.1927,345.388,348.3858,0,83,83,62,1,50,35,NA,NA,NA,NA,NA,1,84,"binary"
"F10BBD77DD6A4D9BBE059E526838676F",1,"0198f77e-53f1-7cd5-93dd-a7b21a26e4b6","0198f767-55c9-7875-8d21-563b3c0b86ed","2025-08-29_16h22.00.161",NA,NA,351.7364,351.7364,351.7364,352.0862,NA,NA,NA,NA,NA,NA,NA,TRUE,2,0.6237,348.738,351.7362,0,84,84,38,1,28,32,NA,NA,NA,NA,NA,1,85,"binary"
"F10BBD77DD6A4D9BBE059E526838676F",1,"0198f77e-53f1-7cd5-93dd-a7b21a26e4b6","0198f767-55c9-7875-8d21-563b3c0b86ed","2025-08-29_16h22.00.161",NA,NA,355.0863,355.0863,355.0863,355.4362,NA,NA,NA,NA,NA,NA,NA,TRUE,1,1.1406,352.088,355.0862,0,85,85,105,1,200,39,NA,NA,NA,NA,NA,1,86,"binary"
"F10BBD77DD6A4D9BBE059E526838676F",1,"0198f77e-53f1-7cd5-93dd-a7b21a26e4b6","0198f767-55c9-7875-8d21-563b3c0b86ed","2025-08-29_16h22.00.161",NA,NA,358.4363,358.4364,358.4364,358.7863,NA,NA,NA,NA,NA,NA,NA,TRUE,1,1.7764,355.438,358.4362,0,86,86,96,1,180,27,NA,NA,NA,NA,NA,1,87,"binary"
"F10BBD77DD6A4D9BBE059E526838676F",1,"0198f77e-53f1-7cd5-93dd-a7b21a26e4b6","0198f767-55c9-7875-8d21-563b3c0b86ed","2025-08-29_16h22.00.161",NA,NA,361.7865,361.7866,361.7866,362.1363,NA,NA,NA,NA,NA,NA,NA,TRUE,1,0.9008,358.788,361.7863,0,87,87,54,1,45,26,NA,NA,NA,NA,NA,1,88,"binary"
"F10BBD77DD6A4D9BBE059E526838676F",1,"0198f77e-53f1-7cd5-93dd-a7b21a26e4b6","0198f767-55c9-7875-8d21-563b3c0b86ed","2025-08-29_16h22.00.161",NA,NA,365.1364,365.1364,365.1364,365.4862,NA,NA,NA,NA,NA,NA,NA,TRUE,2,0.9227,362.1381,365.1361,0,88,88,82,1,95,47,NA,NA,NA,NA,NA,1,89,"binary"
"F10BBD77DD6A4D9BBE059E526838676F",1,"0198f77e-53f1-7cd5-93dd-a7b21a26e4b6","0198f767-55c9-7875-8d21-563b3c0b86ed","2025-08-29_16h22.00.161",NA,NA,368.4863,368.4864,368.4864,368.8361,NA,NA,NA,NA,NA,NA,NA,TRUE,2,1.1342,365.4877,368.4862,0,89,89,19,1,14,26,NA,NA,NA,NA,NA,1,90,"binary"
"F10BBD77DD6A4D9BBE059E526838676F",1,"0198f77e-53f1-7cd5-93dd-a7b21a26e4b6","0198f767-55c9-7875-8d21-563b3c0b86ed","2025-08-29_16h22.00.161",NA,NA,371.8364,371.8364,371.8364,372.1862,NA,NA,NA,NA,NA,NA,NA,TRUE,2,1.1909,368.838,371.8363,0,90,90,1,1,7,26,NA,NA,NA,NA,NA,1,91,"binary"
"F10BBD77DD6A4D9BBE059E526838676F",1,"0198f77e-53f1-7cd5-93dd-a7b21a26e4b6","0198f767-55c9-7875-8d21-563b3c0b86ed","2025-08-29_16h22.00.161",NA,NA,375.1864,375.1864,375.1865,375.5361,NA,NA,NA,NA,NA,NA,NA,TRUE,2,0.8681,372.188,375.1862,0,91,91,8,1,10,27,NA,NA,NA,NA,NA,1,92,"binary"
"F10BBD77DD6A4D9BBE059E526838676F",1,"0198f77e-53f1-7cd5-93dd-a7b21a26e4b6","0198f767-55c9-7875-8d21-563b3c0b86ed","2025-08-29_16h22.00.161",NA,NA,378.5364,378.5364,378.5364,378.8862,NA,NA,NA,NA,NA,NA,NA,TRUE,2,0.8443,375.538,378.5361,0,92,92,23,1,14,39,NA,NA,NA,NA,NA,1,93,"binary"
"F10BBD77DD6A4D9BBE059E526838676F",1,"0198f77e-53f1-7cd5-93dd-a7b21a26e4b6","0198f767-55c9-7875-8d21-563b3c0b86ed","2025-08-29_16h22.00.161",NA,NA,381.8864,381.8864,381.8864,382.2362,NA,NA,NA,NA,NA,NA,NA,TRUE,2,0.81,378.8881,381.8862,0,93,93,15,1,12,31,NA,NA,NA,NA,NA,1,94,"binary"
"F10BBD77DD6A4D9BBE059E526838676F",1,"0198f77e-53f1-7cd5-93dd-a7b21a26e4b6","0198f767-55c9-7875-8d21-563b3c0b86ed","2025-08-29_16h22.00.161",NA,NA,385.2364,385.2364,385.2364,385.5862,NA,NA,NA,NA,NA,NA,NA,TRUE,2,1.0168,382.238,385.2362,0,94,94,68,1,60,35,NA,NA,NA,NA,NA,1,95,"binary"
"F10BBD77DD6A4D9BBE059E526838676F",1,"0198f77e-53f1-7cd5-93dd-a7b21a26e4b6","0198f767-55c9-7875-8d21-563b3c0b86ed","2025-08-29_16h22.00.161",NA,NA,388.5864,388.5864,388.5864,388.9354,NA,NA,NA,NA,NA,NA,NA,TRUE,1,1.3489,385.5881,388.5862,0,95,95,37,1,28,28,NA,NA,NA,NA,NA,1,96,"binary"
"F10BBD77DD6A4D9BBE059E526838676F",1,"0198f77e-53f1-7cd5-93dd-a7b21a26e4b6","0198f767-55c9-7875-8d21-563b3c0b86ed","2025-08-29_16h22.00.161",NA,NA,391.9363,391.9364,391.9364,392.2863,NA,NA,NA,NA,NA,NA,NA,TRUE,2,1.0257,388.9374,391.9361,0,96,96,40,1,28,39,NA,NA,NA,NA,NA,1,97,"binary"
"F10BBD77DD6A4D9BBE059E526838676F",1,"0198f77e-53f1-7cd5-93dd-a7b21a26e4b6","0198f767-55c9-7875-8d21-563b3c0b86ed","2025-08-29_16h22.00.161",NA,NA,395.2863,395.2863,395.2863,395.6361,NA,NA,NA,NA,NA,NA,NA,TRUE,1,1.0736,392.2882,395.2861,0,97,97,107,1,200,54,NA,NA,NA,NA,NA,1,98,"binary"
"F10BBD77DD6A4D9BBE059E526838676F",1,"0198f77e-53f1-7cd5-93dd-a7b21a26e4b6","0198f767-55c9-7875-8d21-563b3c0b86ed","2025-08-29_16h22.00.161",NA,NA,398.6364,398.6364,398.6364,398.9852,NA,NA,NA,NA,NA,NA,NA,TRUE,2,1.4838,395.6379,398.6361,0,98,98,21,1,14,32,NA,NA,NA,NA,NA,1,99,"binary"
"F10BBD77DD6A4D9BBE059E526838676F",1,"0198f77e-53f1-7cd5-93dd-a7b21a26e4b6","0198f767-55c9-7875-8d21-563b3c0b86ed","2025-08-29_16h22.00.161",NA,NA,401.9863,401.9864,401.9864,402.3352,NA,NA,NA,NA,NA,NA,NA,TRUE,2,1.0842,398.9869,401.9862,0,99,99,73,1,90,30,NA,NA,NA,NA,NA,1,100,"binary"
"F10BBD77DD6A4D9BBE059E526838676F",1,"0198f77e-53f1-7cd5-93dd-a7b21a26e4b6","0198f767-55c9-7875-8d21-563b3c0b86ed","2025-08-29_16h22.00.161",NA,NA,405.3364,405.3364,405.3364,405.6853,NA,NA,NA,NA,NA,NA,NA,TRUE,2,0.9101,402.337,405.3362,0,100,100,49,1,40,33,NA,NA,NA,NA,NA,1,101,"binary"
"F10BBD77DD6A4D9BBE059E526838676F",1,"0198f77e-53f1-7cd5-93dd-a7b21a26e4b6","0198f767-55c9-7875-8d21-563b3c0b86ed","2025-08-29_16h22.00.161",NA,NA,408.6855,408.6855,408.6856,409.0362,NA,NA,NA,NA,NA,NA,NA,TRUE,1,0.7258,405.687,408.6853,0,101,101,102,1,200,26,NA,NA,NA,NA,NA,1,102,"binary"
"F10BBD77DD6A4D9BBE059E526838676F",1,"0198f77e-53f1-7cd5-93dd-a7b21a26e4b6","0198f767-55c9-7875-8d21-563b3c0b86ed","2025-08-29_16h22.00.161",NA,NA,412.0364,412.0364,412.0364,412.3862,NA,NA,NA,NA,NA,NA,NA,TRUE,2,0.7161,409.038,412.0362,0,102,102,34,1,25,35,NA,NA,NA,NA,NA,1,103,"binary"
"F10BBD77DD6A4D9BBE059E526838676F",1,"0198f77e-53f1-7cd5-93dd-a7b21a26e4b6","0198f767-55c9-7875-8d21-563b3c0b86ed","2025-08-29_16h22.00.161",NA,NA,415.3863,415.3863,415.3863,415.7361,NA,NA,NA,NA,NA,NA,NA,TRUE,2,0.9898,412.388,415.3861,0,103,103,9,1,10,29,NA,NA,NA,NA,NA,1,104,"binary"
"F10BBD77DD6A4D9BBE059E526838676F",1,"0198f77e-53f1-7cd5-93dd-a7b21a26e4b6","0198f767-55c9-7875-8d21-563b3c0b86ed","2025-08-29_16h22.00.161",NA,NA,418.7363,418.7364,418.7364,419.0861,NA,NA,NA,NA,NA,NA,NA,TRUE,2,0.7421,415.7378,418.7361,0,104,104,53,1,40,54,NA,NA,NA,NA,NA,1,105,"binary"
"F10BBD77DD6A4D9BBE059E526838676F",1,"0198f77e-53f1-7cd5-93dd-a7b21a26e4b6","0198f767-55c9-7875-8d21-563b3c0b86ed","2025-08-29_16h22.00.161",NA,NA,422.0863,422.0863,422.0863,422.4361,NA,NA,NA,NA,NA,NA,NA,TRUE,1,1.174,419.0881,422.0862,0,105,105,13,1,12,26,NA,NA,NA,NA,NA,1,106,"binary"
"F10BBD77DD6A4D9BBE059E526838676F",1,"0198f77e-53f1-7cd5-93dd-a7b21a26e4b6","0198f767-55c9-7875-8d21-563b3c0b86ed","2025-08-29_16h22.00.161",NA,NA,425.4354,425.4354,425.4354,425.7862,NA,NA,NA,NA,NA,NA,NA,TRUE,2,1.7277,422.4377,425.4353,0,106,106,77,1,90,54,NA,NA,NA,NA,NA,1,107,"binary"
"F10BBD77DD6A4D9BBE059E526838676F",1,"0198f77e-53f1-7cd5-93dd-a7b21a26e4b6","0198f767-55c9-7875-8d21-563b3c0b86ed","2025-08-29_16h22.00.161",NA,NA,428.7855,429.0361,429.0362,429.1351,NA,NA,NA,NA,NA,NA,NA,FALSE,NA,NA,425.788,428.7853,0,107,107,36,1,28,26,NA,NA,NA,NA,NA,1,108,"binary"
"F10BBD77DD6A4D9BBE059E526838676F",1,"0198f77e-53f1-7cd5-93dd-a7b21a26e4b6","0198f767-55c9-7875-8d21-563b3c0b86ed","2025-08-29_16h22.00.161",NA,NA,438.3697,438.6194,438.6194,438.7185,NA,NA,NA,NA,NA,NA,NA,FALSE,NA,NA,435.3798,438.3695,NA,NA,NA,NA,NA,100,38,0,0,0,86,1,2,1,"binary"
"F10BBD77DD6A4D9BBE059E526838676F",1,"0198f77e-53f1-7cd5-93dd-a7b21a26e4b6","0198f767-55c9-7875-8d21-563b3c0b86ed","2025-08-29_16h22.00.161",NA,NA,441.7196,441.7198,441.7198,442.0694,NA,NA,NA,NA,NA,NA,NA,TRUE,2,0.9747,438.7206,441.7195,NA,NA,NA,NA,NA,7,35,0,1,1,5,1,2,2,"binary"
"F10BBD77DD6A4D9BBE059E526838676F",1,"0198f77e-53f1-7cd5-93dd-a7b21a26e4b6","0198f767-55c9-7875-8d21-563b3c0b86ed","2025-08-29_16h22.00.161",NA,NA,445.0697,445.0697,445.0697,445.4185,NA,NA,NA,NA,NA,NA,NA,TRUE,2,0.8493,442.0712,445.0695,NA,NA,NA,NA,NA,90,40,0,2,2,75,1,2,3,"binary"
"F10BBD77DD6A4D9BBE059E526838676F",1,"0198f77e-53f1-7cd5-93dd-a7b21a26e4b6","0198f767-55c9-7875-8d21-563b3c0b86ed","2025-08-29_16h22.00.161",NA,NA,448.4187,448.4187,448.4188,448.7686,NA,NA,NA,NA,NA,NA,NA,TRUE,1,1.7495,445.4203,448.4186,NA,NA,NA,NA,NA,150,40,0,3,3,93,1,2,4,"binary"
"F10BBD77DD6A4D9BBE059E526838676F",1,"0198f77e-53f1-7cd5-93dd-a7b21a26e4b6","0198f767-55c9-7875-8d21-563b3c0b86ed","2025-08-29_16h22.00.161",NA,NA,451.7687,451.7688,451.7688,452.1195,NA,NA,NA,NA,NA,NA,NA,TRUE,1,1.1078,448.7703,451.7687,NA,NA,NA,NA,NA,200,35,0,4,4,104,1,2,5,"binary"
"F10BBD77DD6A4D9BBE059E526838676F",1,"0198f77e-53f1-7cd5-93dd-a7b21a26e4b6","0198f767-55c9-7875-8d21-563b3c0b86ed","2025-08-29_16h22.00.161",NA,NA,455.1188,455.1189,455.1189,455.4694,NA,NA,NA,NA,NA,NA,NA,TRUE,1,1.1192,452.1212,455.1186,NA,NA,NA,NA,NA,10,25,0,5,5,6,1,2,6,"binary"
"F10BBD77DD6A4D9BBE059E526838676F",1,"0198f77e-53f1-7cd5-93dd-a7b21a26e4b6","0198f767-55c9-7875-8d21-563b3c0b86ed","2025-08-29_16h22.00.161",NA,NA,458.4695,458.4696,458.4696,458.8194,NA,NA,NA,NA,NA,NA,NA,TRUE,1,0.7551,455.4712,458.4694,NA,NA,NA,NA,NA,180,54,0,6,6,101,1,2,7,"binary"
"F10BBD77DD6A4D9BBE059E526838676F",1,"0198f77e-53f1-7cd5-93dd-a7b21a26e4b6","0198f767-55c9-7875-8d21-563b3c0b86ed","2025-08-29_16h22.00.161",NA,NA,461.8192,461.8192,461.8193,462.1694,NA,NA,NA,NA,NA,NA,NA,TRUE,1,0.5839,458.8212,461.8191,NA,NA,NA,NA,NA,10,26,0,7,7,7,1,2,8,"binary"
"F10BBD77DD6A4D9BBE059E526838676F",1,"0198f77e-53f1-7cd5-93dd-a7b21a26e4b6","0198f767-55c9-7875-8d21-563b3c0b86ed","2025-08-29_16h22.00.161",NA,NA,465.1696,465.1696,465.1696,465.5194,NA,NA,NA,NA,NA,NA,NA,TRUE,2,0.8669,462.1712,465.1693,NA,NA,NA,NA,NA,30,38,0,8,8,47,1,2,9,"binary"
"F10BBD77DD6A4D9BBE059E526838676F",1,"0198f77e-53f1-7cd5-93dd-a7b21a26e4b6","0198f767-55c9-7875-8d21-563b3c0b86ed","2025-08-29_16h22.00.161",NA,NA,468.5187,468.5188,468.5188,468.8695,NA,NA,NA,NA,NA,NA,NA,TRUE,2,0.8577,465.5211,468.5185,NA,NA,NA,NA,NA,40,54,0,9,9,53,1,2,10,"binary"
"F10BBD77DD6A4D9BBE059E526838676F",1,"0198f77e-53f1-7cd5-93dd-a7b21a26e4b6","0198f767-55c9-7875-8d21-563b3c0b86ed","2025-08-29_16h22.00.161",NA,NA,471.8695,471.8696,471.8696,472.2193,NA,NA,NA,NA,NA,NA,NA,TRUE,2,1.123,468.8712,471.8694,NA,NA,NA,NA,NA,90,30,0,10,10,73,1,2,11,"binary"
"F10BBD77DD6A4D9BBE059E526838676F",1,"0198f77e-53f1-7cd5-93dd-a7b21a26e4b6","0198f767-55c9-7875-8d21-563b3c0b86ed","2025-08-29_16h22.00.161",NA,NA,475.2187,475.2188,475.2188,475.5693,NA,NA,NA,NA,NA,NA,NA,TRUE,1,1.0742,472.2212,475.2185,NA,NA,NA,NA,NA,21,30,0,11,11,27,1,2,12,"binary"
"F10BBD77DD6A4D9BBE059E526838676F",1,"0198f77e-53f1-7cd5-93dd-a7b21a26e4b6","0198f767-55c9-7875-8d21-563b3c0b86ed","2025-08-29_16h22.00.161",NA,NA,478.5696,478.5696,478.5697,478.9194,NA,NA,NA,NA,NA,NA,NA,TRUE,2,1.0589,475.5711,478.5694,NA,NA,NA,NA,NA,7,30,0,12,12,3,1,2,13,"binary"
"F10BBD77DD6A4D9BBE059E526838676F",1,"0198f77e-53f1-7cd5-93dd-a7b21a26e4b6","0198f767-55c9-7875-8d21-563b3c0b86ed","2025-08-29_16h22.00.161",NA,NA,481.9197,481.9198,481.9198,482.2685,NA,NA,NA,NA,NA,NA,NA,TRUE,2,0.9901,478.9211,481.9195,NA,NA,NA,NA,NA,95,54,0,13,13,83,1,2,14,"binary"
"F10BBD77DD6A4D9BBE059E526838676F",1,"0198f77e-53f1-7cd5-93dd-a7b21a26e4b6","0198f767-55c9-7875-8d21-563b3c0b86ed","2025-08-29_16h22.00.161",NA,NA,485.2696,485.2696,485.2696,485.6193,NA,NA,NA,NA,NA,NA,NA,TRUE,2,1.4898,482.2702,485.2695,NA,NA,NA,NA,NA,50,35,0,14,14,62,1,2,15,"binary"
"F10BBD77DD6A4D9BBE059E526838676F",1,"0198f77e-53f1-7cd5-93dd-a7b21a26e4b6","0198f767-55c9-7875-8d21-563b3c0b86ed","2025-08-29_16h22.00.161",NA,NA,488.6196,488.6196,488.6196,488.9694,NA,NA,NA,NA,NA,NA,NA,TRUE,2,1.3938,485.6207,488.6194,NA,NA,NA,NA,NA,12,31,0,15,15,15,1,2,16,"binary"
"F10BBD77DD6A4D9BBE059E526838676F",1,"0198f77e-53f1-7cd5-93dd-a7b21a26e4b6","0198f767-55c9-7875-8d21-563b3c0b86ed","2025-08-29_16h22.00.161",NA,NA,491.9695,491.9696,491.9696,492.3194,NA,NA,NA,NA,NA,NA,NA,TRUE,1,1.0564,488.9711,491.9693,NA,NA,NA,NA,NA,12,25,0,16,16,12,1,2,17,"binary"
"F10BBD77DD6A4D9BBE059E526838676F",1,"0198f77e-53f1-7cd5-93dd-a7b21a26e4b6","0198f767-55c9-7875-8d21-563b3c0b86ed","2025-08-29_16h22.00.161",NA,NA,495.3196,495.3196,495.3197,495.669,NA,NA,NA,NA,NA,NA,NA,TRUE,1,1.309,492.3212,495.3195,NA,NA,NA,NA,NA,90,26,0,17,17,72,1,2,18,"binary"
"F10BBD77DD6A4D9BBE059E526838676F",1,"0198f77e-53f1-7cd5-93dd-a7b21a26e4b6","0198f767-55c9-7875-8d21-563b3c0b86ed","2025-08-29_16h22.00.161",NA,NA,498.6696,498.6696,498.6697,499.0194,NA,NA,NA,NA,NA,NA,NA,TRUE,2,0.9007,495.6707,498.6695,NA,NA,NA,NA,NA,40,47,0,18,18,52,1,2,19,"binary"
"F10BBD77DD6A4D9BBE059E526838676F",1,"0198f77e-53f1-7cd5-93dd-a7b21a26e4b6","0198f767-55c9-7875-8d21-563b3c0b86ed","2025-08-29_16h22.00.161",NA,NA,502.0195,502.0195,502.0196,502.3693,NA,NA,NA,NA,NA,NA,NA,TRUE,1,0.9571,499.0212,502.0194,NA,NA,NA,NA,NA,100,31,0,19,19,85,1,2,20,"binary"
"F10BBD77DD6A4D9BBE059E526838676F",1,"0198f77e-53f1-7cd5-93dd-a7b21a26e4b6","0198f767-55c9-7875-8d21-563b3c0b86ed","2025-08-29_16h22.00.161",NA,NA,505.3695,505.3695,505.3695,505.7193,NA,NA,NA,NA,NA,NA,NA,TRUE,2,0.7982,502.3711,505.3693,NA,NA,NA,NA,NA,7,28,0,20,20,2,1,2,21,"binary"
"F10BBD77DD6A4D9BBE059E526838676F",1,"0198f77e-53f1-7cd5-93dd-a7b21a26e4b6","0198f767-55c9-7875-8d21-563b3c0b86ed","2025-08-29_16h22.00.161",NA,NA,508.7195,508.7196,508.7196,509.0693,NA,NA,NA,NA,NA,NA,NA,TRUE,2,0.6443,505.7211,508.7193,NA,NA,NA,NA,NA,25,33,0,21,21,33,1,2,22,"binary"
"F10BBD77DD6A4D9BBE059E526838676F",1,"0198f77e-53f1-7cd5-93dd-a7b21a26e4b6","0198f767-55c9-7875-8d21-563b3c0b86ed","2025-08-29_16h22.00.161",NA,NA,512.0695,512.0695,512.0696,512.4184,NA,NA,NA,NA,NA,NA,NA,TRUE,2,2.0075,509.0711,512.0694,NA,NA,NA,NA,NA,100,46,0,22,22,88,1,2,23,"binary"
"F10BBD77DD6A4D9BBE059E526838676F",1,"0198f77e-53f1-7cd5-93dd-a7b21a26e4b6","0198f767-55c9-7875-8d21-563b3c0b86ed","2025-08-29_16h22.00.161",NA,NA,515.4196,515.4196,515.4197,515.7693,NA,NA,NA,NA,NA,NA,NA,TRUE,1,1.3072,512.4202,515.4194,NA,NA,NA,NA,NA,21,26,0,23,23,24,1,2,24,"binary"
"F10BBD77DD6A4D9BBE059E526838676F",1,"0198f77e-53f1-7cd5-93dd-a7b21a26e4b6","0198f767-55c9-7875-8d21-563b3c0b86ed","2025-08-29_16h22.00.161",NA,NA,518.7696,518.7696,518.7696,519.1193,NA,NA,NA,NA,NA,NA,NA,TRUE,2,1.0992,515.7715,518.7694,NA,NA,NA,NA,NA,10,27,0,24,24,8,1,2,25,"binary"
"F10BBD77DD6A4D9BBE059E526838676F",1,"0198f77e-53f1-7cd5-93dd-a7b21a26e4b6","0198f767-55c9-7875-8d21-563b3c0b86ed","2025-08-29_16h22.00.161",NA,NA,522.1196,522.1197,522.1197,522.4694,NA,NA,NA,NA,NA,NA,NA,TRUE,2,1.108,519.1211,522.1194,NA,NA,NA,NA,NA,12,35,0,25,25,17,1,2,26,"binary"
"F10BBD77DD6A4D9BBE059E526838676F",1,"0198f77e-53f1-7cd5-93dd-a7b21a26e4b6","0198f767-55c9-7875-8d21-563b3c0b86ed","2025-08-29_16h22.00.161",NA,NA,525.4695,525.4695,525.4695,525.8193,NA,NA,NA,NA,NA,NA,NA,TRUE,2,0.8059,522.4716,525.4694,NA,NA,NA,NA,NA,21,27,0,26,26,25,1,2,27,"binary"
"F10BBD77DD6A4D9BBE059E526838676F",1,"0198f77e-53f1-7cd5-93dd-a7b21a26e4b6","0198f767-55c9-7875-8d21-563b3c0b86ed","2025-08-29_16h22.00.161",NA,NA,528.8195,528.8195,528.8195,529.1692,NA,NA,NA,NA,NA,NA,NA,TRUE,2,1.1492,525.8211,528.8193,NA,NA,NA,NA,NA,150,47,0,27,27,94,1,2,28,"binary"
"F10BBD77DD6A4D9BBE059E526838676F",1,"0198f77e-53f1-7cd5-93dd-a7b21a26e4b6","0198f767-55c9-7875-8d21-563b3c0b86ed","2025-08-29_16h22.00.161",NA,NA,532.1685,532.1685,532.1685,532.5194,NA,NA,NA,NA,NA,NA,NA,TRUE,2,1.0261,529.1705,532.1684,NA,NA,NA,NA,NA,40,40,0,28,28,51,1,2,29,"binary"
"F10BBD77DD6A4D9BBE059E526838676F",1,"0198f77e-53f1-7cd5-93dd-a7b21a26e4b6","0198f767-55c9-7875-8d21-563b3c0b86ed","2025-08-29_16h22.00.161",NA,NA,535.5195,535.5195,535.5195,535.8693,NA,NA,NA,NA,NA,NA,NA,TRUE,1,0.8908,532.5211,535.5194,NA,NA,NA,NA,NA,28,26,0,29,29,36,1,2,30,"binary"
"F10BBD77DD6A4D9BBE059E526838676F",1,"0198f77e-53f1-7cd5-93dd-a7b21a26e4b6","0198f767-55c9-7875-8d21-563b3c0b86ed","2025-08-29_16h22.00.161",NA,NA,538.8694,538.8694,538.8694,539.2193,NA,NA,NA,NA,NA,NA,NA,TRUE,2,0.8346,535.8706,538.8692,NA,NA,NA,NA,NA,21,29,0,30,30,26,1,2,31,"binary"
"F10BBD77DD6A4D9BBE059E526838676F",1,"0198f77e-53f1-7cd5-93dd-a7b21a26e4b6","0198f767-55c9-7875-8d21-563b3c0b86ed","2025-08-29_16h22.00.161",NA,NA,542.2194,542.2195,542.2195,542.5692,NA,NA,NA,NA,NA,NA,NA,TRUE,2,1.0346,539.2211,542.2193,NA,NA,NA,NA,NA,14,25,0,31,31,18,1,2,32,"binary"
"F10BBD77DD6A4D9BBE059E526838676F",1,"0198f77e-53f1-7cd5-93dd-a7b21a26e4b6","0198f767-55c9-7875-8d21-563b3c0b86ed","2025-08-29_16h22.00.161",NA,NA,545.5694,545.5695,545.5695,545.9193,NA,NA,NA,NA,NA,NA,NA,TRUE,1,1.2518,542.5706,545.5693,NA,NA,NA,NA,NA,200,26,0,32,32,102,1,2,33,"binary"
"F10BBD77DD6A4D9BBE059E526838676F",1,"0198f77e-53f1-7cd5-93dd-a7b21a26e4b6","0198f767-55c9-7875-8d21-563b3c0b86ed","2025-08-29_16h22.00.161",NA,NA,548.9195,548.9195,548.9195,549.2693,NA,NA,NA,NA,NA,NA,NA,TRUE,2,1.2406,545.9213,548.9193,NA,NA,NA,NA,NA,200,47,0,33,33,106,1,2,34,"binary"
"F10BBD77DD6A4D9BBE059E526838676F",1,"0198f77e-53f1-7cd5-93dd-a7b21a26e4b6","0198f767-55c9-7875-8d21-563b3c0b86ed","2025-08-29_16h22.00.161",NA,NA,552.2695,552.2695,552.2696,552.6193,NA,NA,NA,NA,NA,NA,NA,TRUE,2,1.4733,549.271,552.2693,NA,NA,NA,NA,NA,60,40,0,34,34,69,1,2,35,"binary"
"F10BBD77DD6A4D9BBE059E526838676F",1,"0198f77e-53f1-7cd5-93dd-a7b21a26e4b6","0198f767-55c9-7875-8d21-563b3c0b86ed","2025-08-29_16h22.00.161",NA,NA,555.6194,555.6194,555.6194,555.9692,NA,NA,NA,NA,NA,NA,NA,TRUE,1,1.6911,552.621,555.6193,NA,NA,NA,NA,NA,200,54,0,35,35,107,1,2,36,"binary"
"F10BBD77DD6A4D9BBE059E526838676F",1,"0198f77e-53f1-7cd5-93dd-a7b21a26e4b6","0198f767-55c9-7875-8d21-563b3c0b86ed","2025-08-29_16h22.00.161",NA,NA,558.9694,558.9695,558.9696,559.3193,NA,NA,NA,NA,NA,NA,NA,TRUE,2,1.0913,555.9711,558.9693,NA,NA,NA,NA,NA,14,35,0,36,36,22,1,2,37,"binary"
"F10BBD77DD6A4D9BBE059E526838676F",1,"0198f77e-53f1-7cd5-93dd-a7b21a26e4b6","0198f767-55c9-7875-8d21-563b3c0b86ed","2025-08-29_16h22.00.161",NA,NA,562.3194,562.3195,562.3195,562.6693,NA,NA,NA,NA,NA,NA,NA,TRUE,2,1.1892,559.321,562.3193,NA,NA,NA,NA,NA,28,28,0,37,37,37,1,2,38,"binary"
"F10BBD77DD6A4D9BBE059E526838676F",1,"0198f77e-53f1-7cd5-93dd-a7b21a26e4b6","0198f767-55c9-7875-8d21-563b3c0b86ed","2025-08-29_16h22.00.161",NA,NA,565.6695,565.6696,565.6696,566.0194,NA,NA,NA,NA,NA,NA,NA,TRUE,2,1.1849,562.6711,565.6694,NA,NA,NA,NA,NA,25,31,0,38,38,32,1,2,39,"binary"
"F10BBD77DD6A4D9BBE059E526838676F",1,"0198f77e-53f1-7cd5-93dd-a7b21a26e4b6","0198f767-55c9-7875-8d21-563b3c0b86ed","2025-08-29_16h22.00.161",NA,NA,569.0194,569.0194,569.0194,569.3693,NA,NA,NA,NA,NA,NA,NA,TRUE,1,0.8004,566.0212,569.0193,NA,NA,NA,NA,NA,7,25,0,39,39,0,1,2,40,"binary"
"F10BBD77DD6A4D9BBE059E526838676F",1,"0198f77e-53f1-7cd5-93dd-a7b21a26e4b6","0198f767-55c9-7875-8d21-563b3c0b86ed","2025-08-29_16h22.00.161",NA,NA,572.3694,572.3695,572.3695,572.7192,NA,NA,NA,NA,NA,NA,NA,TRUE,2,0.7677,569.3711,572.3693,NA,NA,NA,NA,NA,10,32,0,40,40,11,1,2,41,"binary"
"F10BBD77DD6A4D9BBE059E526838676F",1,"0198f77e-53f1-7cd5-93dd-a7b21a26e4b6","0198f767-55c9-7875-8d21-563b3c0b86ed","2025-08-29_16h22.00.161",NA,NA,575.7195,575.7195,575.7195,576.0692,NA,NA,NA,NA,NA,NA,NA,TRUE,2,1.0668,572.721,575.7193,NA,NA,NA,NA,NA,21,32,0,41,41,28,1,2,42,"binary"
"F10BBD77DD6A4D9BBE059E526838676F",1,"0198f77e-53f1-7cd5-93dd-a7b21a26e4b6","0198f767-55c9-7875-8d21-563b3c0b86ed","2025-08-29_16h22.00.161",NA,NA,579.0694,579.0694,579.0694,579.4193,NA,NA,NA,NA,NA,NA,NA,TRUE,2,1.1111,576.0711,579.0692,NA,NA,NA,NA,NA,50,54,0,42,42,65,1,2,43,"binary"
"F10BBD77DD6A4D9BBE059E526838676F",1,"0198f77e-53f1-7cd5-93dd-a7b21a26e4b6","0198f767-55c9-7875-8d21-563b3c0b86ed","2025-08-29_16h22.00.161",NA,NA,582.4194,582.4194,582.4194,582.7693,NA,NA,NA,NA,NA,NA,NA,TRUE,2,1.1485,579.421,582.4193,NA,NA,NA,NA,NA,28,32,0,43,43,38,1,2,44,"binary"
"F10BBD77DD6A4D9BBE059E526838676F",1,"0198f77e-53f1-7cd5-93dd-a7b21a26e4b6","0198f767-55c9-7875-8d21-563b3c0b86ed","2025-08-29_16h22.00.161",NA,NA,585.7694,585.7695,585.7695,586.1193,NA,NA,NA,NA,NA,NA,NA,TRUE,2,1.1401,582.7711,585.7693,NA,NA,NA,NA,NA,45,40,0,44,44,58,1,2,45,"binary"
"F10BBD77DD6A4D9BBE059E526838676F",1,"0198f77e-53f1-7cd5-93dd-a7b21a26e4b6","0198f767-55c9-7875-8d21-563b3c0b86ed","2025-08-29_16h22.00.161",NA,NA,589.1195,589.1195,589.1195,589.4692,NA,NA,NA,NA,NA,NA,NA,TRUE,2,0.9778,586.121,589.1193,NA,NA,NA,NA,NA,45,46,0,45,45,59,1,2,46,"binary"
"F10BBD77DD6A4D9BBE059E526838676F",1,"0198f77e-53f1-7cd5-93dd-a7b21a26e4b6","0198f767-55c9-7875-8d21-563b3c0b86ed","2025-08-29_16h22.00.161",NA,NA,592.4684,592.4684,592.4684,592.8193,NA,NA,NA,NA,NA,NA,NA,TRUE,2,0.9243,589.4711,592.4683,NA,NA,NA,NA,NA,7,32,0,46,46,4,1,2,47,"binary"
"F10BBD77DD6A4D9BBE059E526838676F",1,"0198f77e-53f1-7cd5-93dd-a7b21a26e4b6","0198f767-55c9-7875-8d21-563b3c0b86ed","2025-08-29_16h22.00.161",NA,NA,595.8184,595.8184,595.8184,596.1692,NA,NA,NA,NA,NA,NA,NA,TRUE,2,0.9435,592.8211,595.8183,NA,NA,NA,NA,NA,28,46,0,47,47,41,1,2,48,"binary"
"F10BBD77DD6A4D9BBE059E526838676F",1,"0198f77e-53f1-7cd5-93dd-a7b21a26e4b6","0198f767-55c9-7875-8d21-563b3c0b86ed","2025-08-29_16h22.00.161",NA,NA,599.1693,599.1694,599.1694,599.5183,NA,NA,NA,NA,NA,NA,NA,TRUE,2,0.5832,596.1711,599.1691,NA,NA,NA,NA,NA,180,35,0,48,48,98,1,2,49,"binary"
"F10BBD77DD6A4D9BBE059E526838676F",1,"0198f77e-53f1-7cd5-93dd-a7b21a26e4b6","0198f767-55c9-7875-8d21-563b3c0b86ed","2025-08-29_16h22.00.161",NA,NA,602.5194,602.5194,602.5194,602.8692,NA,NA,NA,NA,NA,NA,NA,TRUE,2,1.61,599.5201,602.5193,NA,NA,NA,NA,NA,50,40,0,49,49,63,1,2,50,"binary"
"F10BBD77DD6A4D9BBE059E526838676F",1,"0198f77e-53f1-7cd5-93dd-a7b21a26e4b6","0198f767-55c9-7875-8d21-563b3c0b86ed","2025-08-29_16h22.00.161",NA,NA,605.8694,605.8695,605.8695,606.2192,NA,NA,NA,NA,NA,NA,NA,TRUE,2,0.7565,602.871,605.8693,NA,NA,NA,NA,NA,30,32,0,50,50,46,1,2,51,"binary"
"F10BBD77DD6A4D9BBE059E526838676F",1,"0198f77e-53f1-7cd5-93dd-a7b21a26e4b6","0198f767-55c9-7875-8d21-563b3c0b86ed","2025-08-29_16h22.00.161",NA,NA,609.2194,609.2194,609.2194,609.5692,NA,NA,NA,NA,NA,NA,NA,TRUE,2,0.7,606.221,609.2192,NA,NA,NA,NA,NA,95,33,0,51,51,79,1,2,52,"binary"
"F10BBD77DD6A4D9BBE059E526838676F",1,"0198f77e-53f1-7cd5-93dd-a7b21a26e4b6","0198f767-55c9-7875-8d21-563b3c0b86ed","2025-08-29_16h22.00.161",NA,NA,612.5695,612.5695,612.5695,612.9193,NA,NA,NA,NA,NA,NA,NA,TRUE,2,0.6932,609.5711,612.5694,NA,NA,NA,NA,NA,95,35,0,52,52,80,1,2,53,"binary"
"F10BBD77DD6A4D9BBE059E526838676F",1,"0198f77e-53f1-7cd5-93dd-a7b21a26e4b6","0198f767-55c9-7875-8d21-563b3c0b86ed","2025-08-29_16h22.00.161",NA,NA,615.9194,615.9194,615.9194,616.2692,NA,NA,NA,NA,NA,NA,NA,TRUE,1,0.9059,612.9212,615.9193,NA,NA,NA,NA,NA,100,26,0,53,53,84,1,2,54,"binary"
"F10BBD77DD6A4D9BBE059E526838676F",1,"0198f77e-53f1-7cd5-93dd-a7b21a26e4b6","0198f767-55c9-7875-8d21-563b3c0b86ed","2025-08-29_16h22.00.161",NA,NA,619.2694,619.2695,619.2695,619.6191,NA,NA,NA,NA,NA,NA,NA,TRUE,2,1.2349,616.2709,619.2692,NA,NA,NA,NA,NA,100,54,0,54,54,89,1,2,55,"binary"
"F10BBD77DD6A4D9BBE059E526838676F",1,"0198f77e-53f1-7cd5-93dd-a7b21a26e4b6","0198f767-55c9-7875-8d21-563b3c0b86ed","2025-08-29_16h22.00.161",NA,NA,622.6194,622.6195,622.6195,622.9692,NA,NA,NA,NA,NA,NA,NA,TRUE,2,1.3858,619.6209,622.6193,NA,NA,NA,NA,NA,90,54,0,55,55,77,1,2,56,"binary"
"F10BBD77DD6A4D9BBE059E526838676F",1,"0198f77e-53f1-7cd5-93dd-a7b21a26e4b6","0198f767-55c9-7875-8d21-563b3c0b86ed","2025-08-29_16h22.00.161",NA,NA,625.9693,625.9694,625.9694,626.3192,NA,NA,NA,NA,NA,NA,NA,TRUE,2,0.8069,622.971,625.9692,NA,NA,NA,NA,NA,7,26,0,56,56,1,1,2,57,"binary"
"F10BBD77DD6A4D9BBE059E526838676F",1,"0198f77e-53f1-7cd5-93dd-a7b21a26e4b6","0198f767-55c9-7875-8d21-563b3c0b86ed","2025-08-29_16h22.00.161",NA,NA,629.3194,629.3194,629.3194,629.6689,NA,NA,NA,NA,NA,NA,NA,TRUE,2,0.819,626.321,629.3192,NA,NA,NA,NA,NA,28,35,0,57,57,39,1,2,58,"binary"
"F10BBD77DD6A4D9BBE059E526838676F",1,"0198f77e-53f1-7cd5-93dd-a7b21a26e4b6","0198f767-55c9-7875-8d21-563b3c0b86ed","2025-08-29_16h22.00.161",NA,NA,632.6694,632.6694,632.6694,633.0191,NA,NA,NA,NA,NA,NA,NA,TRUE,2,1.0464,629.67,632.6692,NA,NA,NA,NA,NA,40,35,0,58,58,50,1,2,59,"binary"
"F10BBD77DD6A4D9BBE059E526838676F",1,"0198f77e-53f1-7cd5-93dd-a7b21a26e4b6","0198f767-55c9-7875-8d21-563b3c0b86ed","2025-08-29_16h22.00.161",NA,NA,636.0193,636.0193,636.0193,636.3682,NA,NA,NA,NA,NA,NA,NA,TRUE,1,1.0782,633.0209,636.0192,NA,NA,NA,NA,NA,95,31,0,59,59,78,1,2,60,"binary"
"F10BBD77DD6A4D9BBE059E526838676F",1,"0198f77e-53f1-7cd5-93dd-a7b21a26e4b6","0198f767-55c9-7875-8d21-563b3c0b86ed","2025-08-29_16h22.00.161",NA,NA,639.3693,639.3694,639.3694,639.7192,NA,NA,NA,NA,NA,NA,NA,TRUE,2,0.8418,636.3699,639.3692,NA,NA,NA,NA,NA,14,32,0,60,60,21,1,2,61,"binary"
"F10BBD77DD6A4D9BBE059E526838676F",1,"0198f77e-53f1-7cd5-93dd-a7b21a26e4b6","0198f767-55c9-7875-8d21-563b3c0b86ed","2025-08-29_16h22.00.161",NA,NA,642.7194,642.7194,642.7194,643.0692,NA,NA,NA,NA,NA,NA,NA,TRUE,2,0.8676,639.721,642.7193,NA,NA,NA,NA,NA,60,33,0,61,61,67,1,2,62,"binary"
"F10BBD77DD6A4D9BBE059E526838676F",1,"0198f77e-53f1-7cd5-93dd-a7b21a26e4b6","0198f767-55c9-7875-8d21-563b3c0b86ed","2025-08-29_16h22.00.161",NA,NA,646.0693,646.0693,646.0693,646.4181,NA,NA,NA,NA,NA,NA,NA,TRUE,1,1.6898,643.071,646.0692,NA,NA,NA,NA,NA,50,30,0,62,62,61,1,2,63,"binary"
"F10BBD77DD6A4D9BBE059E526838676F",1,"0198f77e-53f1-7cd5-93dd-a7b21a26e4b6","0198f767-55c9-7875-8d21-563b3c0b86ed","2025-08-29_16h22.00.161",NA,NA,649.4192,649.4193,649.4193,649.7691,NA,NA,NA,NA,NA,NA,NA,TRUE,2,0.9425,646.42,649.4192,NA,NA,NA,NA,NA,25,27,0,63,63,30,1,2,64,"binary"
"F10BBD77DD6A4D9BBE059E526838676F",1,"0198f77e-53f1-7cd5-93dd-a7b21a26e4b6","0198f767-55c9-7875-8d21-563b3c0b86ed","2025-08-29_16h22.00.161",NA,NA,652.7694,652.7694,652.7694,653.1192,NA,NA,NA,NA,NA,NA,NA,TRUE,1,0.9914,649.7708,652.7692,NA,NA,NA,NA,NA,180,46,0,64,64,100,1,2,65,"binary"
"F10BBD77DD6A4D9BBE059E526838676F",1,"0198f77e-53f1-7cd5-93dd-a7b21a26e4b6","0198f767-55c9-7875-8d21-563b3c0b86ed","2025-08-29_16h22.00.161",NA,NA,656.1193,656.1194,656.1194,656.4691,NA,NA,NA,NA,NA,NA,NA,TRUE,1,0.8734,653.1209,656.1192,NA,NA,NA,NA,NA,150,35,0,65,65,92,1,2,66,"binary"
"F10BBD77DD6A4D9BBE059E526838676F",1,"0198f77e-53f1-7cd5-93dd-a7b21a26e4b6","0198f767-55c9-7875-8d21-563b3c0b86ed","2025-08-29_16h22.00.161",NA,NA,659.4693,659.4694,659.4694,659.8191,NA,NA,NA,NA,NA,NA,NA,TRUE,1,1.5059,656.471,659.4692,NA,NA,NA,NA,NA,60,35,0,66,66,68,1,2,67,"binary"
"F10BBD77DD6A4D9BBE059E526838676F",1,"0198f77e-53f1-7cd5-93dd-a7b21a26e4b6","0198f767-55c9-7875-8d21-563b3c0b86ed","2025-08-29_16h22.00.161",NA,NA,662.8192,662.8193,662.8193,663.1691,NA,NA,NA,NA,NA,NA,NA,TRUE,1,0.9676,659.8209,662.8191,NA,NA,NA,NA,NA,45,29,0,67,67,55,1,2,68,"binary"
"F10BBD77DD6A4D9BBE059E526838676F",1,"0198f77e-53f1-7cd5-93dd-a7b21a26e4b6","0198f767-55c9-7875-8d21-563b3c0b86ed","2025-08-29_16h22.00.161",NA,NA,666.1693,666.1693,666.1693,666.5192,NA,NA,NA,NA,NA,NA,NA,TRUE,1,0.7909,663.1708,666.1692,NA,NA,NA,NA,NA,45,35,0,68,68,57,1,2,69,"binary"
"F10BBD77DD6A4D9BBE059E526838676F",1,"0198f77e-53f1-7cd5-93dd-a7b21a26e4b6","0198f767-55c9-7875-8d21-563b3c0b86ed","2025-08-29_16h22.00.161",NA,NA,669.5193,669.5193,669.5193,669.8691,NA,NA,NA,NA,NA,NA,NA,TRUE,2,1.3992,666.5209,669.5191,NA,NA,NA,NA,NA,45,31,0,69,69,56,1,2,70,"binary"
"F10BBD77DD6A4D9BBE059E526838676F",1,"0198f77e-53f1-7cd5-93dd-a7b21a26e4b6","0198f767-55c9-7875-8d21-563b3c0b86ed","2025-08-29_16h22.00.161",NA,NA,672.8693,672.8693,672.8694,673.2191,NA,NA,NA,NA,NA,NA,NA,TRUE,1,1.1912,669.8709,672.8691,NA,NA,NA,NA,NA,25,29,0,70,70,31,1,2,71,"binary"
"F10BBD77DD6A4D9BBE059E526838676F",1,"0198f77e-53f1-7cd5-93dd-a7b21a26e4b6","0198f767-55c9-7875-8d21-563b3c0b86ed","2025-08-29_16h22.00.161",NA,NA,676.2193,676.2193,676.2194,676.5692,NA,NA,NA,NA,NA,NA,NA,TRUE,1,1.1179,673.2208,676.2192,NA,NA,NA,NA,NA,90,33,0,71,71,74,1,2,72,"binary"
"F10BBD77DD6A4D9BBE059E526838676F",1,"0198f77e-53f1-7cd5-93dd-a7b21a26e4b6","0198f767-55c9-7875-8d21-563b3c0b86ed","2025-08-29_16h22.00.161",NA,NA,679.5693,679.5693,679.5693,679.9191,NA,NA,NA,NA,NA,NA,NA,TRUE,1,0.9501,676.5709,679.5691,NA,NA,NA,NA,NA,60,47,0,72,72,70,1,2,73,"binary"
"F10BBD77DD6A4D9BBE059E526838676F",1,"0198f77e-53f1-7cd5-93dd-a7b21a26e4b6","0198f767-55c9-7875-8d21-563b3c0b86ed","2025-08-29_16h22.00.161",NA,NA,682.9193,682.9193,682.9194,683.269,NA,NA,NA,NA,NA,NA,NA,TRUE,2,1.0831,679.9209,682.9192,NA,NA,NA,NA,NA,30,30,0,73,73,45,1,2,74,"binary"
"F10BBD77DD6A4D9BBE059E526838676F",1,"0198f77e-53f1-7cd5-93dd-a7b21a26e4b6","0198f767-55c9-7875-8d21-563b3c0b86ed","2025-08-29_16h22.00.161",NA,NA,686.2693,686.2694,686.2694,686.6191,NA,NA,NA,NA,NA,NA,NA,TRUE,1,0.6749,683.2708,686.2691,NA,NA,NA,NA,NA,100,39,0,74,74,87,1,2,75,"binary"
"F10BBD77DD6A4D9BBE059E526838676F",1,"0198f77e-53f1-7cd5-93dd-a7b21a26e4b6","0198f767-55c9-7875-8d21-563b3c0b86ed","2025-08-29_16h22.00.161",NA,NA,689.6193,689.6194,689.6194,689.9691,NA,NA,NA,NA,NA,NA,NA,TRUE,1,0.857,686.6209,689.6192,NA,NA,NA,NA,NA,180,31,0,75,75,97,1,2,76,"binary"
"F10BBD77DD6A4D9BBE059E526838676F",1,"0198f77e-53f1-7cd5-93dd-a7b21a26e4b6","0198f767-55c9-7875-8d21-563b3c0b86ed","2025-08-29_16h22.00.161",NA,NA,692.9692,692.9692,692.9693,693.3191,NA,NA,NA,NA,NA,NA,NA,TRUE,1,0.6998,689.971,692.9691,NA,NA,NA,NA,NA,180,27,0,76,76,96,1,2,77,"binary"
"F10BBD77DD6A4D9BBE059E526838676F",1,"0198f77e-53f1-7cd5-93dd-a7b21a26e4b6","0198f767-55c9-7875-8d21-563b3c0b86ed","2025-08-29_16h22.00.161",NA,NA,696.3193,696.3193,696.3193,696.669,NA,NA,NA,NA,NA,NA,NA,TRUE,1,0.7929,693.3209,696.3191,NA,NA,NA,NA,NA,60,29,0,77,77,66,1,2,78,"binary"
"F10BBD77DD6A4D9BBE059E526838676F",1,"0198f77e-53f1-7cd5-93dd-a7b21a26e4b6","0198f767-55c9-7875-8d21-563b3c0b86ed","2025-08-29_16h22.00.161",NA,NA,699.6693,699.6693,699.6693,700.019,NA,NA,NA,NA,NA,NA,NA,TRUE,2,0.8847,696.6708,699.6691,NA,NA,NA,NA,NA,12,28,0,78,78,14,1,2,79,"binary"
"F10BBD77DD6A4D9BBE059E526838676F",1,"0198f77e-53f1-7cd5-93dd-a7b21a26e4b6","0198f767-55c9-7875-8d21-563b3c0b86ed","2025-08-29_16h22.00.161",NA,NA,703.0182,703.0183,703.0184,703.3691,NA,NA,NA,NA,NA,NA,NA,TRUE,1,0.7072,700.0208,703.0181,NA,NA,NA,NA,NA,50,46,0,79,79,64,1,2,80,"binary"
"F10BBD77DD6A4D9BBE059E526838676F",1,"0198f77e-53f1-7cd5-93dd-a7b21a26e4b6","0198f767-55c9-7875-8d21-563b3c0b86ed","2025-08-29_16h22.00.161",NA,NA,706.3693,706.3693,706.3693,706.7182,NA,NA,NA,NA,NA,NA,NA,TRUE,2,1.2661,703.3709,706.3691,NA,NA,NA,NA,NA,21,38,0,80,80,29,1,2,81,"binary"
"F10BBD77DD6A4D9BBE059E526838676F",1,"0198f77e-53f1-7cd5-93dd-a7b21a26e4b6","0198f767-55c9-7875-8d21-563b3c0b86ed","2025-08-29_16h22.00.161",NA,NA,709.7187,709.7188,709.7188,710.0691,NA,NA,NA,NA,NA,NA,NA,TRUE,1,0.5848,706.72,709.7186,NA,NA,NA,NA,NA,95,40,0,81,81,81,1,2,82,"binary"
"F10BBD77DD6A4D9BBE059E526838676F",1,"0198f77e-53f1-7cd5-93dd-a7b21a26e4b6","0198f767-55c9-7875-8d21-563b3c0b86ed","2025-08-29_16h22.00.161",NA,NA,713.0693,713.0694,713.0694,713.419,NA,NA,NA,NA,NA,NA,NA,TRUE,1,0.7408,710.0709,713.0691,NA,NA,NA,NA,NA,95,47,0,82,82,82,1,2,83,"binary"
"F10BBD77DD6A4D9BBE059E526838676F",1,"0198f77e-53f1-7cd5-93dd-a7b21a26e4b6","0198f767-55c9-7875-8d21-563b3c0b86ed","2025-08-29_16h22.00.161",NA,NA,716.4192,716.4192,716.4192,716.7681,NA,NA,NA,NA,NA,NA,NA,TRUE,2,1.0569,713.4211,716.4191,NA,NA,NA,NA,NA,12,26,0,83,83,13,1,2,84,"binary"
"F10BBD77DD6A4D9BBE059E526838676F",1,"0198f77e-53f1-7cd5-93dd-a7b21a26e4b6","0198f767-55c9-7875-8d21-563b3c0b86ed","2025-08-29_16h22.00.161",NA,NA,719.7692,719.7693,719.7693,720.1191,NA,NA,NA,NA,NA,NA,NA,TRUE,2,1.6356,716.7697,719.7691,NA,NA,NA,NA,NA,14,39,0,84,84,23,1,2,85,"binary"
"F10BBD77DD6A4D9BBE059E526838676F",1,"0198f77e-53f1-7cd5-93dd-a7b21a26e4b6","0198f767-55c9-7875-8d21-563b3c0b86ed","2025-08-29_16h22.00.161",NA,NA,723.1192,723.1193,723.1193,723.469,NA,NA,NA,NA,NA,NA,NA,TRUE,2,2.3241,720.1208,723.1191,NA,NA,NA,NA,NA,25,35,0,85,85,34,1,2,86,"binary"
"F10BBD77DD6A4D9BBE059E526838676F",1,"0198f77e-53f1-7cd5-93dd-a7b21a26e4b6","0198f767-55c9-7875-8d21-563b3c0b86ed","2025-08-29_16h22.00.161",NA,NA,726.4692,726.4692,726.4692,726.8181,NA,NA,NA,NA,NA,NA,NA,TRUE,1,1.2224,723.4708,726.4691,NA,NA,NA,NA,NA,150,33,0,86,86,91,1,2,87,"binary"
"F10BBD77DD6A4D9BBE059E526838676F",1,"0198f77e-53f1-7cd5-93dd-a7b21a26e4b6","0198f767-55c9-7875-8d21-563b3c0b86ed","2025-08-29_16h22.00.161",NA,NA,729.8183,729.8183,729.8183,730.1681,NA,NA,NA,NA,NA,NA,NA,TRUE,1,0.8577,726.8199,729.8182,NA,NA,NA,NA,NA,180,39,0,87,87,99,1,2,88,"binary"
"F10BBD77DD6A4D9BBE059E526838676F",1,"0198f77e-53f1-7cd5-93dd-a7b21a26e4b6","0198f767-55c9-7875-8d21-563b3c0b86ed","2025-08-29_16h22.00.161",NA,NA,733.1692,733.1693,733.1693,733.519,NA,NA,NA,NA,NA,NA,NA,TRUE,1,0.719,730.1699,733.1691,NA,NA,NA,NA,NA,60,54,0,88,88,71,1,2,89,"binary"
"F10BBD77DD6A4D9BBE059E526838676F",1,"0198f77e-53f1-7cd5-93dd-a7b21a26e4b6","0198f767-55c9-7875-8d21-563b3c0b86ed","2025-08-29_16h22.00.161",NA,NA,736.5192,736.5192,736.5192,736.8681,NA,NA,NA,NA,NA,NA,NA,TRUE,1,1.9341,733.5208,736.5191,NA,NA,NA,NA,NA,45,26,0,89,89,54,1,2,90,"binary"
"F10BBD77DD6A4D9BBE059E526838676F",1,"0198f77e-53f1-7cd5-93dd-a7b21a26e4b6","0198f767-55c9-7875-8d21-563b3c0b86ed","2025-08-29_16h22.00.161",NA,NA,739.8683,739.8683,739.8683,740.2192,NA,NA,NA,NA,NA,NA,NA,TRUE,1,0.7869,736.8697,739.8682,NA,NA,NA,NA,NA,150,31,0,90,90,90,1,2,91,"binary"
"F10BBD77DD6A4D9BBE059E526838676F",1,"0198f77e-53f1-7cd5-93dd-a7b21a26e4b6","0198f767-55c9-7875-8d21-563b3c0b86ed","2025-08-29_16h22.00.161",NA,NA,743.2192,743.2193,743.2193,743.5681,NA,NA,NA,NA,NA,NA,NA,TRUE,1,1.0672,740.221,743.2191,NA,NA,NA,NA,NA,50,27,0,91,91,60,1,2,92,"binary"
"F10BBD77DD6A4D9BBE059E526838676F",1,"0198f77e-53f1-7cd5-93dd-a7b21a26e4b6","0198f767-55c9-7875-8d21-563b3c0b86ed","2025-08-29_16h22.00.161",NA,NA,746.5692,746.5693,746.5693,746.9181,NA,NA,NA,NA,NA,NA,NA,TRUE,2,1.4365,743.5698,746.569,NA,NA,NA,NA,NA,30,27,0,92,92,43,1,2,93,"binary"
"F10BBD77DD6A4D9BBE059E526838676F",1,"0198f77e-53f1-7cd5-93dd-a7b21a26e4b6","0198f767-55c9-7875-8d21-563b3c0b86ed","2025-08-29_16h22.00.161",NA,NA,749.9192,749.9192,749.9193,750.2689,NA,NA,NA,NA,NA,NA,NA,TRUE,2,0.9842,746.9199,749.919,NA,NA,NA,NA,NA,10,29,0,93,93,9,1,2,94,"binary"
"F10BBD77DD6A4D9BBE059E526838676F",1,"0198f77e-53f1-7cd5-93dd-a7b21a26e4b6","0198f767-55c9-7875-8d21-563b3c0b86ed","2025-08-29_16h22.00.161",NA,NA,753.2691,753.2692,753.2692,753.6189,NA,NA,NA,NA,NA,NA,NA,TRUE,1,1.0163,750.2708,753.269,NA,NA,NA,NA,NA,40,27,0,94,94,48,1,2,95,"binary"
"F10BBD77DD6A4D9BBE059E526838676F",1,"0198f77e-53f1-7cd5-93dd-a7b21a26e4b6","0198f767-55c9-7875-8d21-563b3c0b86ed","2025-08-29_16h22.00.161",NA,NA,756.6192,756.6193,756.6193,756.969,NA,NA,NA,NA,NA,NA,NA,TRUE,2,1.3848,753.6203,756.619,NA,NA,NA,NA,NA,25,46,0,95,95,35,1,2,96,"binary"
"F10BBD77DD6A4D9BBE059E526838676F",1,"0198f77e-53f1-7cd5-93dd-a7b21a26e4b6","0198f767-55c9-7875-8d21-563b3c0b86ed","2025-08-29_16h22.00.161",NA,NA,759.9682,759.9682,759.9683,760.319,NA,NA,NA,NA,NA,NA,NA,TRUE,2,0.9653,756.9707,759.968,NA,NA,NA,NA,NA,14,28,0,96,96,20,1,2,97,"binary"
"F10BBD77DD6A4D9BBE059E526838676F",1,"0198f77e-53f1-7cd5-93dd-a7b21a26e4b6","0198f767-55c9-7875-8d21-563b3c0b86ed","2025-08-29_16h22.00.161",NA,NA,763.3183,763.3183,763.3184,763.669,NA,NA,NA,NA,NA,NA,NA,TRUE,1,1.1827,760.3208,763.3181,NA,NA,NA,NA,NA,30,26,0,97,97,42,1,2,98,"binary"
"F10BBD77DD6A4D9BBE059E526838676F",1,"0198f77e-53f1-7cd5-93dd-a7b21a26e4b6","0198f767-55c9-7875-8d21-563b3c0b86ed","2025-08-29_16h22.00.161",NA,NA,766.6691,766.6692,766.6692,767.0181,NA,NA,NA,NA,NA,NA,NA,TRUE,1,1.0157,763.6707,766.669,NA,NA,NA,NA,NA,150,54,0,98,98,95,1,2,99,"binary"
"F10BBD77DD6A4D9BBE059E526838676F",1,"0198f77e-53f1-7cd5-93dd-a7b21a26e4b6","0198f767-55c9-7875-8d21-563b3c0b86ed","2025-08-29_16h22.00.161",NA,NA,770.0191,770.0191,770.0191,770.369,NA,NA,NA,NA,NA,NA,NA,TRUE,1,0.9597,767.0198,770.0191,NA,NA,NA,NA,NA,14,26,0,99,99,19,1,2,100,"binary"
"F10BBD77DD6A4D9BBE059E526838676F",1,"0198f77e-53f1-7cd5-93dd-a7b21a26e4b6","0198f767-55c9-7875-8d21-563b3c0b86ed","2025-08-29_16h22.00.161",NA,NA,773.3692,773.3692,773.3692,773.719,NA,NA,NA,NA,NA,NA,NA,TRUE,1,1.8175,770.3707,773.3691,NA,NA,NA,NA,NA,30,29,0,100,100,44,1,2,101,"binary"
"F10BBD77DD6A4D9BBE059E526838676F",1,"0198f77e-53f1-7cd5-93dd-a7b21a26e4b6","0198f767-55c9-7875-8d21-563b3c0b86ed","2025-08-29_16h22.00.161",NA,NA,776.7191,776.7191,776.7192,777.0689,NA,NA,NA,NA,NA,NA,NA,TRUE,1,1.5938,773.7208,776.7189,NA,NA,NA,NA,NA,40,33,0,101,101,49,1,2,102,"binary"
"F10BBD77DD6A4D9BBE059E526838676F",1,"0198f77e-53f1-7cd5-93dd-a7b21a26e4b6","0198f767-55c9-7875-8d21-563b3c0b86ed","2025-08-29_16h22.00.161",NA,NA,780.0691,780.0691,780.0691,780.4189,NA,NA,NA,NA,NA,NA,NA,TRUE,1,1.3732,777.0707,780.0689,NA,NA,NA,NA,NA,200,39,0,102,102,105,1,2,103,"binary"
"F10BBD77DD6A4D9BBE059E526838676F",1,"0198f77e-53f1-7cd5-93dd-a7b21a26e4b6","0198f767-55c9-7875-8d21-563b3c0b86ed","2025-08-29_16h22.00.161",NA,NA,783.4191,783.4191,783.4191,783.769,NA,NA,NA,NA,NA,NA,NA,TRUE,2,1.6336,780.4207,783.4189,NA,NA,NA,NA,NA,10,30,0,103,103,10,1,2,104,"binary"
"F10BBD77DD6A4D9BBE059E526838676F",1,"0198f77e-53f1-7cd5-93dd-a7b21a26e4b6","0198f767-55c9-7875-8d21-563b3c0b86ed","2025-08-29_16h22.00.161",NA,NA,786.7692,786.7693,786.7693,787.1189,NA,NA,NA,NA,NA,NA,NA,TRUE,1,2.2172,783.7708,786.7691,NA,NA,NA,NA,NA,90,46,0,104,104,76,1,2,105,"binary"
"F10BBD77DD6A4D9BBE059E526838676F",1,"0198f77e-53f1-7cd5-93dd-a7b21a26e4b6","0198f767-55c9-7875-8d21-563b3c0b86ed","2025-08-29_16h22.00.161",NA,NA,790.1191,790.1192,790.1192,790.4689,NA,NA,NA,NA,NA,NA,NA,TRUE,2,1.6081,787.1207,790.1189,NA,NA,NA,NA,NA,28,39,0,105,105,40,1,2,106,"binary"
"F10BBD77DD6A4D9BBE059E526838676F",1,"0198f77e-53f1-7cd5-93dd-a7b21a26e4b6","0198f767-55c9-7875-8d21-563b3c0b86ed","2025-08-29_16h22.00.161",NA,NA,793.4691,793.4691,793.4691,793.8189,NA,NA,NA,NA,NA,NA,NA,TRUE,1,0.7901,790.4708,793.4689,NA,NA,NA,NA,NA,200,28,0,106,106,103,1,2,107,"binary"
"F10BBD77DD6A4D9BBE059E526838676F",1,"0198f77e-53f1-7cd5-93dd-a7b21a26e4b6","0198f767-55c9-7875-8d21-563b3c0b86ed","2025-08-29_16h22.00.161",NA,NA,796.8191,796.8191,796.8192,797.1689,NA,NA,NA,NA,NA,NA,NA,TRUE,2,0.8266,793.8207,796.819,NA,NA,NA,NA,NA,12,33,0,107,107,16,1,2,108,"binary"
