"participant","session","assignmentId","projectId","date","practiceTrial.started","practiceTrial.stopped","tooLate.started","tooLate.stopped","blank.started","blank.stopped","trials_pract.thisRepN","trials_pract.thisTrialN","trials_pract.thisN","trials_pract.thisIndex","trials_pract.ran","delay_pract","amount_pract","responseMade","key","rt","trial.started","trial.stopped","trials.thisRepN","trials.thisTrialN","trials.thisN","trials.thisIndex","trials.ran","delay","amount","trials_2.thisRepN","trials_2.thisTrialN","trials_2.thisN","trials_2.thisIndex","trials_2.ran","block","trial","taskType"
"F23C5455D9794CD9B96FBE715F906BF7",1,"0198f782-9f98-7e3d-9dcd-d25bd74ccc58","0198f767-55c9-7875-8d21-563b3c0b86ed","2025-08-29_15h26.54.193",27.5268,30.5115,30.5119,30.517,30.517,30.8608,0,0,0,2,1,14,45,TRUE,2,1.7402,NA,NA,NA,NA,NA,NA,NA,NA,NA,NA,NA,NA,NA,NA,0,1,"binary"
"F23C5455D9794CD9B96FBE715F906BF7",1,"0198f782-9f98-7e3d-9dcd-d25bd74ccc58","0198f767-55c9-7875-8d21-563b3c0b86ed","2025-08-29_15h26.54.193",30.8649,33.8613,33.8616,33.8616,33.8616,34.2103,0,1,1,3,1,3,27,TRUE,2,1.5852,NA,NA,NA,NA,NA,NA,NA,NA,NA,NA,NA,NA,NA,NA,0,2,"binary"
"F23C5455D9794CD9B96FBE715F906BF7",1,"0198f782-9f98-7e3d-9dcd-d25bd74ccc58","0198f767-55c9-7875-8d21-563b3c0b86ed","2025-08-29_15h26.54.193",34.2125,37.2112,37.2115,37.2116,37.2116,37.5611,0,2,2,1,1,100,50,TRUE,2,0.9306,NA,NA,NA,NA,NA,NA,NA,NA,NA,NA,NA,NA,NA,NA,0,3,"binary"
"F23C5455D9794CD9B96FBE715F906BF7",1,"0198f782-9f98-7e3d-9dcd-d25bd74ccc58","0198f767-55c9-7875-8d21-563b3c0b86ed","2025-08-29_15h26.54.193",37.5636,40.5606,40.5608,40.5609,40.5609,40.911,0,3,3,4,1,30,40,TRUE,2,1.2852,NA,NA,NA,NA,NA,NA,NA,NA,NA,NA,NA,NA,NA,NA,0,4,"binary"
"F23C5455D9794CD9B96FBE715F906BF7",1,"0198f782-9f98-7e3d-9dcd-d25bd74ccc58","0198f767-55c9-7875-8d21-563b3c0b86ed","2025-08-29_15h26.54.193",40.9126,43.9105,43.9107,43.9107,43.9107,44.2604,0,4,4,0,1,7,30,TRUE,2,1.2849,NA,NA,NA,NA,NA,NA,NA,NA,NA,NA,NA,NA,NA,NA,0,5,"binary"
"F23C5455D9794CD9B96FBE715F906BF7",1,"0198f782-9f98-7e3d-9dcd-d25bd74ccc58","0198f767-55c9-7875-8d21-563b3c0b86ed","2025-08-29_15h26.54.193",NA,NA,449.8933,449.8935,449.8938,450.2426,NA,NA,NA,NA,NA,NA,NA,TRUE,2,1.0112,446.9051,449.8929,0,0,0,38,1,28,32,NA,NA,NA,NA,NA,1,1,"binary"
"F23C5455D9794CD9B96FBE715F906BF7",1,"0198f782-9f98-7e3d-9dcd-d25bd74ccc58","0198f767-55c9-7875-8d21-563b3c0b86ed","2025-08-29_15h26.54.193",NA,NA,453.2425,453.2426,453.2427,453.5922,NA,NA,NA,NA,NA,NA,NA,TRUE,2,0.854,450.245,453.2423,0,1,1,93,1,150,40,NA,NA,NA,NA,NA,1,2,"binary"
"F23C5455D9794CD9B96FBE715F906BF7",1,"0198f782-9f98-7e3d-9dcd-d25bd74ccc58","0198f767-55c9-7875-8d21-563b3c0b86ed","2025-08-29_15h26.54.193",NA,NA,456.5921,456.5921,456.5921,456.9425,NA,NA,NA,NA,NA,NA,NA,TRUE,2,1.0009,453.5943,456.592,0,2,2,57,1,45,35,NA,NA,NA,NA,NA,1,3,"binary"
"F23C5455D9794CD9B96FBE715F906BF7",1,"0198f782-9f98-7e3d-9dcd-d25bd74ccc58","0198f767-55c9-7875-8d21-563b3c0b86ed","2025-08-29_15h26.54.193",NA,NA,459.9426,459.9427,459.9428,460.292,NA,NA,NA,NA,NA,NA,NA,TRUE,1,1.317,456.9444,459.9424,0,3,3,36,1,28,26,NA,NA,NA,NA,NA,1,4,"binary"
"F23C5455D9794CD9B96FBE715F906BF7",1,"0198f782-9f98-7e3d-9dcd-d25bd74ccc58","0198f767-55c9-7875-8d21-563b3c0b86ed","2025-08-29_15h26.54.193",NA,NA,463.2911,463.2912,463.2912,463.6422,NA,NA,NA,NA,NA,NA,NA,TRUE,1,0.8442,460.2935,463.291,0,4,4,60,1,50,27,NA,NA,NA,NA,NA,1,5,"binary"
"F23C5455D9794CD9B96FBE715F906BF7",1,"0198f782-9f98-7e3d-9dcd-d25bd74ccc58","0198f767-55c9-7875-8d21-563b3c0b86ed","2025-08-29_15h26.54.193",NA,NA,466.6417,466.6417,466.6417,466.9923,NA,NA,NA,NA,NA,NA,NA,TRUE,2,0.6636,463.6454,466.6416,0,5,5,58,1,45,40,NA,NA,NA,NA,NA,1,6,"binary"
"F23C5455D9794CD9B96FBE715F906BF7",1,"0198f782-9f98-7e3d-9dcd-d25bd74ccc58","0198f767-55c9-7875-8d21-563b3c0b86ed","2025-08-29_15h26.54.193",NA,NA,469.9928,469.9928,469.9928,470.342,NA,NA,NA,NA,NA,NA,NA,TRUE,2,1.0905,466.9951,469.9925,0,6,6,81,1,95,40,NA,NA,NA,NA,NA,1,7,"binary"
"F23C5455D9794CD9B96FBE715F906BF7",1,"0198f782-9f98-7e3d-9dcd-d25bd74ccc58","0198f767-55c9-7875-8d21-563b3c0b86ed","2025-08-29_15h26.54.193",NA,NA,473.3422,473.3422,473.3422,473.6926,NA,NA,NA,NA,NA,NA,NA,TRUE,2,1.9183,470.344,473.342,0,7,7,94,1,150,47,NA,NA,NA,NA,NA,1,8,"binary"
"F23C5455D9794CD9B96FBE715F906BF7",1,"0198f782-9f98-7e3d-9dcd-d25bd74ccc58","0198f767-55c9-7875-8d21-563b3c0b86ed","2025-08-29_15h26.54.193",NA,NA,476.6923,476.6924,476.6924,477.0421,NA,NA,NA,NA,NA,NA,NA,TRUE,1,0.9838,473.6946,476.6921,0,8,8,0,1,7,25,NA,NA,NA,NA,NA,1,9,"binary"
"F23C5455D9794CD9B96FBE715F906BF7",1,"0198f782-9f98-7e3d-9dcd-d25bd74ccc58","0198f767-55c9-7875-8d21-563b3c0b86ed","2025-08-29_15h26.54.193",NA,NA,480.0425,480.0427,480.0427,480.3914,NA,NA,NA,NA,NA,NA,NA,TRUE,2,1.9074,477.0433,480.0423,0,9,9,23,1,14,39,NA,NA,NA,NA,NA,1,10,"binary"
"F23C5455D9794CD9B96FBE715F906BF7",1,"0198f782-9f98-7e3d-9dcd-d25bd74ccc58","0198f767-55c9-7875-8d21-563b3c0b86ed","2025-08-29_15h26.54.193",NA,NA,483.3923,483.3924,483.3924,483.7422,NA,NA,NA,NA,NA,NA,NA,TRUE,2,1.4992,480.3937,483.3922,0,10,10,32,1,25,31,NA,NA,NA,NA,NA,1,11,"binary"
"F23C5455D9794CD9B96FBE715F906BF7",1,"0198f782-9f98-7e3d-9dcd-d25bd74ccc58","0198f767-55c9-7875-8d21-563b3c0b86ed","2025-08-29_15h26.54.193",NA,NA,486.7425,486.7426,486.7426,487.0923,NA,NA,NA,NA,NA,NA,NA,TRUE,2,2.4624,483.7435,486.7423,0,11,11,98,1,180,35,NA,NA,NA,NA,NA,1,12,"binary"
"F23C5455D9794CD9B96FBE715F906BF7",1,"0198f782-9f98-7e3d-9dcd-d25bd74ccc58","0198f767-55c9-7875-8d21-563b3c0b86ed","2025-08-29_15h26.54.193",NA,NA,490.0885,490.0887,490.0887,490.4382,NA,NA,NA,NA,NA,NA,NA,TRUE,2,1.0027,487.0943,490.0883,0,12,12,89,1,100,54,NA,NA,NA,NA,NA,1,13,"binary"
"F23C5455D9794CD9B96FBE715F906BF7",1,"0198f782-9f98-7e3d-9dcd-d25bd74ccc58","0198f767-55c9-7875-8d21-563b3c0b86ed","2025-08-29_15h26.54.193",NA,NA,493.4377,493.4377,493.4377,493.7879,NA,NA,NA,NA,NA,NA,NA,TRUE,2,0.7656,490.4403,493.4375,0,13,13,95,1,150,54,NA,NA,NA,NA,NA,1,14,"binary"
"F23C5455D9794CD9B96FBE715F906BF7",1,"0198f782-9f98-7e3d-9dcd-d25bd74ccc58","0198f767-55c9-7875-8d21-563b3c0b86ed","2025-08-29_15h26.54.193",NA,NA,496.7928,496.7929,496.7929,497.1422,NA,NA,NA,NA,NA,NA,NA,TRUE,2,1.2453,493.7895,496.7927,0,14,14,68,1,60,35,NA,NA,NA,NA,NA,1,15,"binary"
"F23C5455D9794CD9B96FBE715F906BF7",1,"0198f782-9f98-7e3d-9dcd-d25bd74ccc58","0198f767-55c9-7875-8d21-563b3c0b86ed","2025-08-29_15h26.54.193",NA,NA,500.1416,500.1418,500.1418,500.4925,NA,NA,NA,NA,NA,NA,NA,TRUE,1,0.8775,497.1433,500.1415,0,15,15,14,1,12,28,NA,NA,NA,NA,NA,1,16,"binary"
"F23C5455D9794CD9B96FBE715F906BF7",1,"0198f782-9f98-7e3d-9dcd-d25bd74ccc58","0198f767-55c9-7875-8d21-563b3c0b86ed","2025-08-29_15h26.54.193",NA,NA,503.488,503.4881,503.4881,503.8384,NA,NA,NA,NA,NA,NA,NA,TRUE,2,1.0445,500.495,503.4878,0,16,16,64,1,50,46,NA,NA,NA,NA,NA,1,17,"binary"
"F23C5455D9794CD9B96FBE715F906BF7",1,"0198f782-9f98-7e3d-9dcd-d25bd74ccc58","0198f767-55c9-7875-8d21-563b3c0b86ed","2025-08-29_15h26.54.193",NA,NA,506.838,507.0884,507.0884,507.1886,NA,NA,NA,NA,NA,NA,NA,FALSE,NA,NA,503.8409,506.8379,0,17,17,61,1,50,30,NA,NA,NA,NA,NA,1,18,"binary"
"F23C5455D9794CD9B96FBE715F906BF7",1,"0198f782-9f98-7e3d-9dcd-d25bd74ccc58","0198f767-55c9-7875-8d21-563b3c0b86ed","2025-08-29_15h26.54.193",NA,NA,510.1887,510.1887,510.1887,510.5374,NA,NA,NA,NA,NA,NA,NA,TRUE,1,2.1333,507.1915,510.1884,0,18,18,73,1,90,30,NA,NA,NA,NA,NA,1,19,"binary"
"F23C5455D9794CD9B96FBE715F906BF7",1,"0198f782-9f98-7e3d-9dcd-d25bd74ccc58","0198f767-55c9-7875-8d21-563b3c0b86ed","2025-08-29_15h26.54.193",NA,NA,513.538,513.538,513.538,513.888,NA,NA,NA,NA,NA,NA,NA,TRUE,2,1.1675,510.5396,513.538,0,19,19,21,1,14,32,NA,NA,NA,NA,NA,1,20,"binary"
"F23C5455D9794CD9B96FBE715F906BF7",1,"0198f782-9f98-7e3d-9dcd-d25bd74ccc58","0198f767-55c9-7875-8d21-563b3c0b86ed","2025-08-29_15h26.54.193",NA,NA,516.8878,516.888,516.888,517.2382,NA,NA,NA,NA,NA,NA,NA,TRUE,1,1.2969,513.8889,516.8878,0,20,20,55,1,45,29,NA,NA,NA,NA,NA,1,21,"binary"
"F23C5455D9794CD9B96FBE715F906BF7",1,"0198f782-9f98-7e3d-9dcd-d25bd74ccc58","0198f767-55c9-7875-8d21-563b3c0b86ed","2025-08-29_15h26.54.193",NA,NA,520.2388,520.2389,520.239,520.5878,NA,NA,NA,NA,NA,NA,NA,TRUE,1,1.2473,517.2404,520.2385,0,21,21,97,1,180,31,NA,NA,NA,NA,NA,1,22,"binary"
"F23C5455D9794CD9B96FBE715F906BF7",1,"0198f782-9f98-7e3d-9dcd-d25bd74ccc58","0198f767-55c9-7875-8d21-563b3c0b86ed","2025-08-29_15h26.54.193",NA,NA,523.5888,523.5888,523.5888,523.9377,NA,NA,NA,NA,NA,NA,NA,TRUE,1,0.6831,520.5903,523.5886,0,22,22,18,1,14,25,NA,NA,NA,NA,NA,1,23,"binary"
"F23C5455D9794CD9B96FBE715F906BF7",1,"0198f782-9f98-7e3d-9dcd-d25bd74ccc58","0198f767-55c9-7875-8d21-563b3c0b86ed","2025-08-29_15h26.54.193",NA,NA,526.9376,526.9377,526.9377,527.2886,NA,NA,NA,NA,NA,NA,NA,TRUE,1,0.7603,523.9396,526.9375,0,23,23,90,1,150,31,NA,NA,NA,NA,NA,1,24,"binary"
"F23C5455D9794CD9B96FBE715F906BF7",1,"0198f782-9f98-7e3d-9dcd-d25bd74ccc58","0198f767-55c9-7875-8d21-563b3c0b86ed","2025-08-29_15h26.54.193",NA,NA,530.2884,530.2885,530.2885,530.6381,NA,NA,NA,NA,NA,NA,NA,TRUE,1,0.6547,527.2907,530.2883,0,24,24,43,1,30,27,NA,NA,NA,NA,NA,1,25,"binary"
"F23C5455D9794CD9B96FBE715F906BF7",1,"0198f782-9f98-7e3d-9dcd-d25bd74ccc58","0198f767-55c9-7875-8d21-563b3c0b86ed","2025-08-29_15h26.54.193",NA,NA,533.6387,533.6388,533.6388,533.9886,NA,NA,NA,NA,NA,NA,NA,TRUE,2,1.1703,530.6392,533.6385,0,25,25,4,1,7,32,NA,NA,NA,NA,NA,1,26,"binary"
"F23C5455D9794CD9B96FBE715F906BF7",1,"0198f782-9f98-7e3d-9dcd-d25bd74ccc58","0198f767-55c9-7875-8d21-563b3c0b86ed","2025-08-29_15h26.54.193",NA,NA,536.9885,536.9885,536.9886,537.3386,NA,NA,NA,NA,NA,NA,NA,TRUE,2,0.8997,533.991,536.9883,0,26,26,82,1,95,47,NA,NA,NA,NA,NA,1,27,"binary"
"F23C5455D9794CD9B96FBE715F906BF7",1,"0198f782-9f98-7e3d-9dcd-d25bd74ccc58","0198f767-55c9-7875-8d21-563b3c0b86ed","2025-08-29_15h26.54.193",NA,NA,540.3385,540.3385,540.3385,540.6882,NA,NA,NA,NA,NA,NA,NA,TRUE,2,0.8758,537.3411,540.3383,0,27,27,101,1,180,54,NA,NA,NA,NA,NA,1,28,"binary"
"F23C5455D9794CD9B96FBE715F906BF7",1,"0198f782-9f98-7e3d-9dcd-d25bd74ccc58","0198f767-55c9-7875-8d21-563b3c0b86ed","2025-08-29_15h26.54.193",NA,NA,543.6885,543.6885,543.6885,544.0376,NA,NA,NA,NA,NA,NA,NA,TRUE,2,0.9094,540.6893,543.6884,0,28,28,11,1,10,32,NA,NA,NA,NA,NA,1,29,"binary"
"F23C5455D9794CD9B96FBE715F906BF7",1,"0198f782-9f98-7e3d-9dcd-d25bd74ccc58","0198f767-55c9-7875-8d21-563b3c0b86ed","2025-08-29_15h26.54.193",NA,NA,547.0389,547.0389,547.0389,547.3883,NA,NA,NA,NA,NA,NA,NA,TRUE,2,0.532,544.0398,547.0386,0,29,29,71,1,60,54,NA,NA,NA,NA,NA,1,30,"binary"
"F23C5455D9794CD9B96FBE715F906BF7",1,"0198f782-9f98-7e3d-9dcd-d25bd74ccc58","0198f767-55c9-7875-8d21-563b3c0b86ed","2025-08-29_15h26.54.193",NA,NA,550.3888,550.3888,550.3888,550.7383,NA,NA,NA,NA,NA,NA,NA,TRUE,1,0.8326,547.3896,550.3886,0,30,30,25,1,21,27,NA,NA,NA,NA,NA,1,31,"binary"
"F23C5455D9794CD9B96FBE715F906BF7",1,"0198f782-9f98-7e3d-9dcd-d25bd74ccc58","0198f767-55c9-7875-8d21-563b3c0b86ed","2025-08-29_15h26.54.193",NA,NA,553.7388,553.7388,553.7388,554.0886,NA,NA,NA,NA,NA,NA,NA,TRUE,1,0.8585,550.7394,553.7386,0,31,31,19,1,14,26,NA,NA,NA,NA,NA,1,32,"binary"
"F23C5455D9794CD9B96FBE715F906BF7",1,"0198f782-9f98-7e3d-9dcd-d25bd74ccc58","0198f767-55c9-7875-8d21-563b3c0b86ed","2025-08-29_15h26.54.193",NA,NA,557.089,557.0891,557.0891,557.4384,NA,NA,NA,NA,NA,NA,NA,TRUE,2,0.8089,554.0904,557.0886,0,32,32,80,1,95,35,NA,NA,NA,NA,NA,1,33,"binary"
"F23C5455D9794CD9B96FBE715F906BF7",1,"0198f782-9f98-7e3d-9dcd-d25bd74ccc58","0198f767-55c9-7875-8d21-563b3c0b86ed","2025-08-29_15h26.54.193",NA,NA,560.4387,560.4387,560.4388,560.7887,NA,NA,NA,NA,NA,NA,NA,TRUE,2,2.1738,557.4401,560.4386,0,33,33,105,1,200,39,NA,NA,NA,NA,NA,1,34,"binary"
"F23C5455D9794CD9B96FBE715F906BF7",1,"0198f782-9f98-7e3d-9dcd-d25bd74ccc58","0198f767-55c9-7875-8d21-563b3c0b86ed","2025-08-29_15h26.54.193",NA,NA,563.7891,563.7892,563.7892,564.1385,NA,NA,NA,NA,NA,NA,NA,TRUE,1,2.6655,560.791,563.7888,0,34,34,74,1,90,33,NA,NA,NA,NA,NA,1,35,"binary"
"F23C5455D9794CD9B96FBE715F906BF7",1,"0198f782-9f98-7e3d-9dcd-d25bd74ccc58","0198f767-55c9-7875-8d21-563b3c0b86ed","2025-08-29_15h26.54.193",NA,NA,567.1399,567.1399,567.1399,567.4884,NA,NA,NA,NA,NA,NA,NA,TRUE,2,1.4011,564.1401,567.1397,0,35,35,5,1,7,35,NA,NA,NA,NA,NA,1,36,"binary"
"F23C5455D9794CD9B96FBE715F906BF7",1,"0198f782-9f98-7e3d-9dcd-d25bd74ccc58","0198f767-55c9-7875-8d21-563b3c0b86ed","2025-08-29_15h26.54.193",NA,NA,570.4886,570.4887,570.4887,570.8396,NA,NA,NA,NA,NA,NA,NA,TRUE,2,0.6109,567.4904,570.4885,0,36,36,106,1,200,47,NA,NA,NA,NA,NA,1,37,"binary"
"F23C5455D9794CD9B96FBE715F906BF7",1,"0198f782-9f98-7e3d-9dcd-d25bd74ccc58","0198f767-55c9-7875-8d21-563b3c0b86ed","2025-08-29_15h26.54.193",NA,NA,573.8388,573.8388,573.8388,574.1887,NA,NA,NA,NA,NA,NA,NA,TRUE,1,2.6644,570.8416,573.8386,0,37,37,79,1,95,33,NA,NA,NA,NA,NA,1,38,"binary"
"F23C5455D9794CD9B96FBE715F906BF7",1,"0198f782-9f98-7e3d-9dcd-d25bd74ccc58","0198f767-55c9-7875-8d21-563b3c0b86ed","2025-08-29_15h26.54.193",NA,NA,577.1888,577.4391,577.4391,577.5395,NA,NA,NA,NA,NA,NA,NA,FALSE,NA,NA,574.1907,577.1885,0,38,38,28,1,21,32,NA,NA,NA,NA,NA,1,39,"binary"
"F23C5455D9794CD9B96FBE715F906BF7",1,"0198f782-9f98-7e3d-9dcd-d25bd74ccc58","0198f767-55c9-7875-8d21-563b3c0b86ed","2025-08-29_15h26.54.193",NA,NA,580.5386,580.5386,580.5386,580.8883,NA,NA,NA,NA,NA,NA,NA,TRUE,1,1.6827,577.5414,580.5385,0,39,39,27,1,21,30,NA,NA,NA,NA,NA,1,40,"binary"
"F23C5455D9794CD9B96FBE715F906BF7",1,"0198f782-9f98-7e3d-9dcd-d25bd74ccc58","0198f767-55c9-7875-8d21-563b3c0b86ed","2025-08-29_15h26.54.193",NA,NA,583.8889,583.889,583.889,584.2387,NA,NA,NA,NA,NA,NA,NA,TRUE,2,0.7281,580.8891,583.8888,0,40,40,39,1,28,35,NA,NA,NA,NA,NA,1,41,"binary"
"F23C5455D9794CD9B96FBE715F906BF7",1,"0198f782-9f98-7e3d-9dcd-d25bd74ccc58","0198f767-55c9-7875-8d21-563b3c0b86ed","2025-08-29_15h26.54.193",NA,NA,587.2391,587.2391,587.2391,587.5883,NA,NA,NA,NA,NA,NA,NA,TRUE,2,1.7394,584.2412,587.2389,0,41,41,70,1,60,47,NA,NA,NA,NA,NA,1,42,"binary"
"F23C5455D9794CD9B96FBE715F906BF7",1,"0198f782-9f98-7e3d-9dcd-d25bd74ccc58","0198f767-55c9-7875-8d21-563b3c0b86ed","2025-08-29_15h26.54.193",NA,NA,590.5888,590.5889,590.5889,590.9389,NA,NA,NA,NA,NA,NA,NA,TRUE,1,0.872,587.59,590.5887,0,42,42,72,1,90,26,NA,NA,NA,NA,NA,1,43,"binary"
"F23C5455D9794CD9B96FBE715F906BF7",1,"0198f782-9f98-7e3d-9dcd-d25bd74ccc58","0198f767-55c9-7875-8d21-563b3c0b86ed","2025-08-29_15h26.54.193",NA,NA,593.9382,593.9382,593.9382,594.2896,NA,NA,NA,NA,NA,NA,NA,TRUE,1,1.7163,590.9407,593.9381,0,43,43,15,1,12,31,NA,NA,NA,NA,NA,1,44,"binary"
"F23C5455D9794CD9B96FBE715F906BF7",1,"0198f782-9f98-7e3d-9dcd-d25bd74ccc58","0198f767-55c9-7875-8d21-563b3c0b86ed","2025-08-29_15h26.54.193",NA,NA,597.2888,597.2889,597.2889,597.6387,NA,NA,NA,NA,NA,NA,NA,TRUE,1,1.2813,594.2916,597.2886,0,44,44,45,1,30,30,NA,NA,NA,NA,NA,1,45,"binary"
"F23C5455D9794CD9B96FBE715F906BF7",1,"0198f782-9f98-7e3d-9dcd-d25bd74ccc58","0198f767-55c9-7875-8d21-563b3c0b86ed","2025-08-29_15h26.54.193",NA,NA,600.639,600.639,600.639,600.9887,NA,NA,NA,NA,NA,NA,NA,TRUE,1,0.6815,597.6406,600.6387,0,45,45,37,1,28,28,NA,NA,NA,NA,NA,1,46,"binary"
"F23C5455D9794CD9B96FBE715F906BF7",1,"0198f782-9f98-7e3d-9dcd-d25bd74ccc58","0198f767-55c9-7875-8d21-563b3c0b86ed","2025-08-29_15h26.54.193",NA,NA,603.9886,603.9886,603.9886,604.3389,NA,NA,NA,NA,NA,NA,NA,TRUE,2,1.1483,600.9906,603.9885,0,46,46,51,1,40,40,NA,NA,NA,NA,NA,1,47,"binary"
"F23C5455D9794CD9B96FBE715F906BF7",1,"0198f782-9f98-7e3d-9dcd-d25bd74ccc58","0198f767-55c9-7875-8d21-563b3c0b86ed","2025-08-29_15h26.54.193",NA,NA,607.3391,607.3391,607.3392,607.6886,NA,NA,NA,NA,NA,NA,NA,TRUE,1,0.6149,604.3412,607.3389,0,47,47,42,1,30,26,NA,NA,NA,NA,NA,1,48,"binary"
"F23C5455D9794CD9B96FBE715F906BF7",1,"0198f782-9f98-7e3d-9dcd-d25bd74ccc58","0198f767-55c9-7875-8d21-563b3c0b86ed","2025-08-29_15h26.54.193",NA,NA,610.6887,610.6887,610.6888,611.0393,NA,NA,NA,NA,NA,NA,NA,TRUE,2,0.7952,607.6897,610.6885,0,48,48,52,1,40,47,NA,NA,NA,NA,NA,1,49,"binary"
"F23C5455D9794CD9B96FBE715F906BF7",1,"0198f782-9f98-7e3d-9dcd-d25bd74ccc58","0198f767-55c9-7875-8d21-563b3c0b86ed","2025-08-29_15h26.54.193",NA,NA,614.0389,614.039,614.039,614.3888,NA,NA,NA,NA,NA,NA,NA,TRUE,2,1.015,611.0413,614.0389,0,49,49,35,1,25,46,NA,NA,NA,NA,NA,1,50,"binary"
"F23C5455D9794CD9B96FBE715F906BF7",1,"0198f782-9f98-7e3d-9dcd-d25bd74ccc58","0198f767-55c9-7875-8d21-563b3c0b86ed","2025-08-29_15h26.54.193",NA,NA,617.3884,617.3884,617.3884,617.7388,NA,NA,NA,NA,NA,NA,NA,TRUE,1,1.656,614.3907,617.3882,0,50,50,84,1,100,26,NA,NA,NA,NA,NA,1,51,"binary"
"F23C5455D9794CD9B96FBE715F906BF7",1,"0198f782-9f98-7e3d-9dcd-d25bd74ccc58","0198f767-55c9-7875-8d21-563b3c0b86ed","2025-08-29_15h26.54.193",NA,NA,620.7387,620.7388,620.7388,621.0884,NA,NA,NA,NA,NA,NA,NA,TRUE,2,1.5718,617.7406,620.7385,0,51,51,62,1,50,35,NA,NA,NA,NA,NA,1,52,"binary"
"F23C5455D9794CD9B96FBE715F906BF7",1,"0198f782-9f98-7e3d-9dcd-d25bd74ccc58","0198f767-55c9-7875-8d21-563b3c0b86ed","2025-08-29_15h26.54.193",NA,NA,624.0885,624.0885,624.0885,624.4387,NA,NA,NA,NA,NA,NA,NA,TRUE,2,0.6935,621.0892,624.0882,0,52,52,47,1,30,38,NA,NA,NA,NA,NA,1,53,"binary"
"F23C5455D9794CD9B96FBE715F906BF7",1,"0198f782-9f98-7e3d-9dcd-d25bd74ccc58","0198f767-55c9-7875-8d21-563b3c0b86ed","2025-08-29_15h26.54.193",NA,NA,627.4392,627.4392,627.4392,627.7888,NA,NA,NA,NA,NA,NA,NA,TRUE,2,0.5951,624.4401,627.439,0,53,53,92,1,150,35,NA,NA,NA,NA,NA,1,54,"binary"
"F23C5455D9794CD9B96FBE715F906BF7",1,"0198f782-9f98-7e3d-9dcd-d25bd74ccc58","0198f767-55c9-7875-8d21-563b3c0b86ed","2025-08-29_15h26.54.193",NA,NA,630.7893,630.7894,630.7894,631.1388,NA,NA,NA,NA,NA,NA,NA,TRUE,1,0.613,627.7911,630.7891,0,54,54,24,1,21,26,NA,NA,NA,NA,NA,1,55,"binary"
"F23C5455D9794CD9B96FBE715F906BF7",1,"0198f782-9f98-7e3d-9dcd-d25bd74ccc58","0198f767-55c9-7875-8d21-563b3c0b86ed","2025-08-29_15h26.54.193",NA,NA,634.1395,634.1396,634.1396,634.4892,NA,NA,NA,NA,NA,NA,NA,TRUE,1,1.4984,631.1411,634.1394,0,55,55,26,1,21,29,NA,NA,NA,NA,NA,1,56,"binary"
"F23C5455D9794CD9B96FBE715F906BF7",1,"0198f782-9f98-7e3d-9dcd-d25bd74ccc58","0198f767-55c9-7875-8d21-563b3c0b86ed","2025-08-29_15h26.54.193",NA,NA,637.4891,637.4891,637.4892,637.8387,NA,NA,NA,NA,NA,NA,NA,TRUE,2,0.8495,634.4909,637.4889,0,56,56,65,1,50,54,NA,NA,NA,NA,NA,1,57,"binary"
"F23C5455D9794CD9B96FBE715F906BF7",1,"0198f782-9f98-7e3d-9dcd-d25bd74ccc58","0198f767-55c9-7875-8d21-563b3c0b86ed","2025-08-29_15h26.54.193",NA,NA,640.839,640.839,640.839,641.189,NA,NA,NA,NA,NA,NA,NA,TRUE,2,0.6912,637.8402,640.8389,0,57,57,29,1,21,38,NA,NA,NA,NA,NA,1,58,"binary"
"F23C5455D9794CD9B96FBE715F906BF7",1,"0198f782-9f98-7e3d-9dcd-d25bd74ccc58","0198f767-55c9-7875-8d21-563b3c0b86ed","2025-08-29_15h26.54.193",NA,NA,644.189,644.189,644.1891,644.539,NA,NA,NA,NA,NA,NA,NA,TRUE,2,1.4975,641.1916,644.1889,0,58,58,34,1,25,35,NA,NA,NA,NA,NA,1,59,"binary"
"F23C5455D9794CD9B96FBE715F906BF7",1,"0198f782-9f98-7e3d-9dcd-d25bd74ccc58","0198f767-55c9-7875-8d21-563b3c0b86ed","2025-08-29_15h26.54.193",NA,NA,647.5393,647.5394,647.5394,647.8886,NA,NA,NA,NA,NA,NA,NA,TRUE,2,1.1658,644.541,647.5392,0,59,59,88,1,100,46,NA,NA,NA,NA,NA,1,60,"binary"
"F23C5455D9794CD9B96FBE715F906BF7",1,"0198f782-9f98-7e3d-9dcd-d25bd74ccc58","0198f767-55c9-7875-8d21-563b3c0b86ed","2025-08-29_15h26.54.193",NA,NA,650.8892,650.8892,650.8893,651.2383,NA,NA,NA,NA,NA,NA,NA,TRUE,1,0.8233,647.8898,650.8891,0,60,60,3,1,7,30,NA,NA,NA,NA,NA,1,61,"binary"
"F23C5455D9794CD9B96FBE715F906BF7",1,"0198f782-9f98-7e3d-9dcd-d25bd74ccc58","0198f767-55c9-7875-8d21-563b3c0b86ed","2025-08-29_15h26.54.193",NA,NA,654.2394,654.2395,654.2395,654.5892,NA,NA,NA,NA,NA,NA,NA,TRUE,2,0.6407,651.2402,654.2391,0,61,61,41,1,28,46,NA,NA,NA,NA,NA,1,62,"binary"
"F23C5455D9794CD9B96FBE715F906BF7",1,"0198f782-9f98-7e3d-9dcd-d25bd74ccc58","0198f767-55c9-7875-8d21-563b3c0b86ed","2025-08-29_15h26.54.193",NA,NA,657.5894,657.5894,657.5894,657.9392,NA,NA,NA,NA,NA,NA,NA,TRUE,1,1.2064,654.5916,657.5892,0,62,62,56,1,45,31,NA,NA,NA,NA,NA,1,63,"binary"
"F23C5455D9794CD9B96FBE715F906BF7",1,"0198f782-9f98-7e3d-9dcd-d25bd74ccc58","0198f767-55c9-7875-8d21-563b3c0b86ed","2025-08-29_15h26.54.193",NA,NA,660.9394,660.9394,660.9395,661.2892,NA,NA,NA,NA,NA,NA,NA,TRUE,2,0.8801,657.9411,660.9392,0,63,63,53,1,40,54,NA,NA,NA,NA,NA,1,64,"binary"
"F23C5455D9794CD9B96FBE715F906BF7",1,"0198f782-9f98-7e3d-9dcd-d25bd74ccc58","0198f767-55c9-7875-8d21-563b3c0b86ed","2025-08-29_15h26.54.193",NA,NA,664.2895,664.5393,664.5394,664.6391,NA,NA,NA,NA,NA,NA,NA,FALSE,NA,NA,661.2911,664.2892,0,64,64,63,1,50,40,NA,NA,NA,NA,NA,1,65,"binary"
"F23C5455D9794CD9B96FBE715F906BF7",1,"0198f782-9f98-7e3d-9dcd-d25bd74ccc58","0198f767-55c9-7875-8d21-563b3c0b86ed","2025-08-29_15h26.54.193",NA,NA,667.6391,667.6391,667.6391,667.9887,NA,NA,NA,NA,NA,NA,NA,TRUE,2,2.402,664.6415,667.6388,0,65,65,59,1,45,46,NA,NA,NA,NA,NA,1,66,"binary"
"F23C5455D9794CD9B96FBE715F906BF7",1,"0198f782-9f98-7e3d-9dcd-d25bd74ccc58","0198f767-55c9-7875-8d21-563b3c0b86ed","2025-08-29_15h26.54.193",NA,NA,670.9902,670.9903,670.9903,671.3389,NA,NA,NA,NA,NA,NA,NA,TRUE,1,2.5567,667.9908,670.99,0,66,66,44,1,30,29,NA,NA,NA,NA,NA,1,67,"binary"
"F23C5455D9794CD9B96FBE715F906BF7",1,"0198f782-9f98-7e3d-9dcd-d25bd74ccc58","0198f767-55c9-7875-8d21-563b3c0b86ed","2025-08-29_15h26.54.193",NA,NA,674.3392,674.5887,674.5889,674.6884,NA,NA,NA,NA,NA,NA,NA,FALSE,NA,NA,671.3408,674.339,0,67,67,12,1,12,25,NA,NA,NA,NA,NA,1,68,"binary"
"F23C5455D9794CD9B96FBE715F906BF7",1,"0198f782-9f98-7e3d-9dcd-d25bd74ccc58","0198f767-55c9-7875-8d21-563b3c0b86ed","2025-08-29_15h26.54.193",NA,NA,677.6884,677.6884,677.6885,678.0392,NA,NA,NA,NA,NA,NA,NA,TRUE,1,2.9343,674.6896,677.6883,0,68,68,9,1,10,29,NA,NA,NA,NA,NA,1,69,"binary"
"F23C5455D9794CD9B96FBE715F906BF7",1,"0198f782-9f98-7e3d-9dcd-d25bd74ccc58","0198f767-55c9-7875-8d21-563b3c0b86ed","2025-08-29_15h26.54.193",NA,NA,681.0391,681.0392,681.0392,681.3891,NA,NA,NA,NA,NA,NA,NA,TRUE,1,2.0059,678.0414,681.039,0,69,69,16,1,12,33,NA,NA,NA,NA,NA,1,70,"binary"
"F23C5455D9794CD9B96FBE715F906BF7",1,"0198f782-9f98-7e3d-9dcd-d25bd74ccc58","0198f767-55c9-7875-8d21-563b3c0b86ed","2025-08-29_15h26.54.193",NA,NA,684.3895,684.3896,684.3896,684.7389,NA,NA,NA,NA,NA,NA,NA,TRUE,1,1.0325,681.3909,684.3893,0,70,70,91,1,150,33,NA,NA,NA,NA,NA,1,71,"binary"
"F23C5455D9794CD9B96FBE715F906BF7",1,"0198f782-9f98-7e3d-9dcd-d25bd74ccc58","0198f767-55c9-7875-8d21-563b3c0b86ed","2025-08-29_15h26.54.193",NA,NA,687.7387,687.7388,687.7389,688.0892,NA,NA,NA,NA,NA,NA,NA,TRUE,1,0.9367,684.7398,687.7385,0,71,71,66,1,60,29,NA,NA,NA,NA,NA,1,72,"binary"
"F23C5455D9794CD9B96FBE715F906BF7",1,"0198f782-9f98-7e3d-9dcd-d25bd74ccc58","0198f767-55c9-7875-8d21-563b3c0b86ed","2025-08-29_15h26.54.193",NA,NA,691.0895,691.0896,691.0896,691.4392,NA,NA,NA,NA,NA,NA,NA,TRUE,1,0.7341,688.0913,691.0894,0,72,72,40,1,28,39,NA,NA,NA,NA,NA,1,73,"binary"
"F23C5455D9794CD9B96FBE715F906BF7",1,"0198f782-9f98-7e3d-9dcd-d25bd74ccc58","0198f767-55c9-7875-8d21-563b3c0b86ed","2025-08-29_15h26.54.193",NA,NA,694.4392,694.4392,694.4392,694.7895,NA,NA,NA,NA,NA,NA,NA,TRUE,1,0.9321,691.4412,694.439,0,73,73,6,1,10,25,NA,NA,NA,NA,NA,1,74,"binary"
"F23C5455D9794CD9B96FBE715F906BF7",1,"0198f782-9f98-7e3d-9dcd-d25bd74ccc58","0198f767-55c9-7875-8d21-563b3c0b86ed","2025-08-29_15h26.54.193",NA,NA,697.7894,697.7895,697.7896,698.1392,NA,NA,NA,NA,NA,NA,NA,TRUE,1,0.6237,694.7913,697.7893,0,74,74,17,1,12,35,NA,NA,NA,NA,NA,1,75,"binary"
"F23C5455D9794CD9B96FBE715F906BF7",1,"0198f782-9f98-7e3d-9dcd-d25bd74ccc58","0198f767-55c9-7875-8d21-563b3c0b86ed","2025-08-29_15h26.54.193",NA,NA,701.1393,701.1393,701.1393,701.4893,NA,NA,NA,NA,NA,NA,NA,TRUE,1,0.7205,698.1409,701.1392,0,75,75,85,1,100,31,NA,NA,NA,NA,NA,1,76,"binary"
"F23C5455D9794CD9B96FBE715F906BF7",1,"0198f782-9f98-7e3d-9dcd-d25bd74ccc58","0198f767-55c9-7875-8d21-563b3c0b86ed","2025-08-29_15h26.54.193",NA,NA,704.4895,704.4895,704.4895,704.8388,NA,NA,NA,NA,NA,NA,NA,TRUE,1,0.6388,701.4913,704.4893,0,76,76,103,1,200,28,NA,NA,NA,NA,NA,1,77,"binary"
"F23C5455D9794CD9B96FBE715F906BF7",1,"0198f782-9f98-7e3d-9dcd-d25bd74ccc58","0198f767-55c9-7875-8d21-563b3c0b86ed","2025-08-29_15h26.54.193",NA,NA,707.8394,707.8394,707.8395,708.1894,NA,NA,NA,NA,NA,NA,NA,TRUE,2,0.9026,704.8394,707.8392,0,77,77,100,1,180,46,NA,NA,NA,NA,NA,1,78,"binary"
"F23C5455D9794CD9B96FBE715F906BF7",1,"0198f782-9f98-7e3d-9dcd-d25bd74ccc58","0198f767-55c9-7875-8d21-563b3c0b86ed","2025-08-29_15h26.54.193",NA,NA,711.1884,711.1884,711.1884,711.5391,NA,NA,NA,NA,NA,NA,NA,TRUE,2,1.1216,708.1918,711.1883,0,78,78,107,1,200,54,NA,NA,NA,NA,NA,1,79,"binary"
"F23C5455D9794CD9B96FBE715F906BF7",1,"0198f782-9f98-7e3d-9dcd-d25bd74ccc58","0198f767-55c9-7875-8d21-563b3c0b86ed","2025-08-29_15h26.54.193",NA,NA,714.5393,714.5393,714.5393,714.8894,NA,NA,NA,NA,NA,NA,NA,TRUE,1,0.6398,711.541,714.5391,0,79,79,8,1,10,27,NA,NA,NA,NA,NA,1,80,"binary"
"F23C5455D9794CD9B96FBE715F906BF7",1,"0198f782-9f98-7e3d-9dcd-d25bd74ccc58","0198f767-55c9-7875-8d21-563b3c0b86ed","2025-08-29_15h26.54.193",NA,NA,717.8897,717.8897,717.8897,718.2393,NA,NA,NA,NA,NA,NA,NA,TRUE,1,0.8223,714.8917,717.8894,0,80,80,10,1,10,30,NA,NA,NA,NA,NA,1,81,"binary"
"F23C5455D9794CD9B96FBE715F906BF7",1,"0198f782-9f98-7e3d-9dcd-d25bd74ccc58","0198f767-55c9-7875-8d21-563b3c0b86ed","2025-08-29_15h26.54.193",NA,NA,721.2395,721.2396,721.2396,721.5889,NA,NA,NA,NA,NA,NA,NA,TRUE,1,2.1976,718.2413,721.2393,0,81,81,99,1,180,39,NA,NA,NA,NA,NA,1,82,"binary"
"F23C5455D9794CD9B96FBE715F906BF7",1,"0198f782-9f98-7e3d-9dcd-d25bd74ccc58","0198f767-55c9-7875-8d21-563b3c0b86ed","2025-08-29_15h26.54.193",NA,NA,724.5897,724.5898,724.5898,724.9394,NA,NA,NA,NA,NA,NA,NA,TRUE,1,1.5193,721.5897,724.5896,0,82,82,49,1,40,33,NA,NA,NA,NA,NA,1,83,"binary"
"F23C5455D9794CD9B96FBE715F906BF7",1,"0198f782-9f98-7e3d-9dcd-d25bd74ccc58","0198f767-55c9-7875-8d21-563b3c0b86ed","2025-08-29_15h26.54.193",NA,NA,727.9386,727.9387,727.9387,728.2894,NA,NA,NA,NA,NA,NA,NA,TRUE,1,1.4084,724.9417,727.9384,0,83,83,67,1,60,33,NA,NA,NA,NA,NA,1,84,"binary"
"F23C5455D9794CD9B96FBE715F906BF7",1,"0198f782-9f98-7e3d-9dcd-d25bd74ccc58","0198f767-55c9-7875-8d21-563b3c0b86ed","2025-08-29_15h26.54.193",NA,NA,731.2894,731.2894,731.2894,731.6387,NA,NA,NA,NA,NA,NA,NA,TRUE,1,1.0903,728.2912,731.2891,0,84,84,46,1,30,32,NA,NA,NA,NA,NA,1,85,"binary"
"F23C5455D9794CD9B96FBE715F906BF7",1,"0198f782-9f98-7e3d-9dcd-d25bd74ccc58","0198f767-55c9-7875-8d21-563b3c0b86ed","2025-08-29_15h26.54.193",NA,NA,734.6397,734.6398,734.6398,734.9884,NA,NA,NA,NA,NA,NA,NA,TRUE,1,0.7322,731.6408,734.6395,0,85,85,96,1,180,27,NA,NA,NA,NA,NA,1,86,"binary"
"F23C5455D9794CD9B96FBE715F906BF7",1,"0198f782-9f98-7e3d-9dcd-d25bd74ccc58","0198f767-55c9-7875-8d21-563b3c0b86ed","2025-08-29_15h26.54.193",NA,NA,737.9898,737.9898,737.9899,738.339,NA,NA,NA,NA,NA,NA,NA,TRUE,1,0.7386,734.9906,737.9895,0,86,86,1,1,7,26,NA,NA,NA,NA,NA,1,87,"binary"
"F23C5455D9794CD9B96FBE715F906BF7",1,"0198f782-9f98-7e3d-9dcd-d25bd74ccc58","0198f767-55c9-7875-8d21-563b3c0b86ed","2025-08-29_15h26.54.193",NA,NA,741.3391,741.3391,741.3391,741.6893,NA,NA,NA,NA,NA,NA,NA,TRUE,1,1.375,738.3408,741.3389,0,87,87,2,1,7,28,NA,NA,NA,NA,NA,1,88,"binary"
"F23C5455D9794CD9B96FBE715F906BF7",1,"0198f782-9f98-7e3d-9dcd-d25bd74ccc58","0198f767-55c9-7875-8d21-563b3c0b86ed","2025-08-29_15h26.54.193",NA,NA,744.6891,744.6892,744.6892,745.0396,NA,NA,NA,NA,NA,NA,NA,TRUE,1,0.7567,741.6911,744.689,0,88,88,20,1,14,28,NA,NA,NA,NA,NA,1,89,"binary"
"F23C5455D9794CD9B96FBE715F906BF7",1,"0198f782-9f98-7e3d-9dcd-d25bd74ccc58","0198f767-55c9-7875-8d21-563b3c0b86ed","2025-08-29_15h26.54.193",NA,NA,748.0398,748.0398,748.0398,748.3894,NA,NA,NA,NA,NA,NA,NA,TRUE,1,0.5559,745.0418,748.0396,0,89,89,102,1,200,26,NA,NA,NA,NA,NA,1,90,"binary"
"F23C5455D9794CD9B96FBE715F906BF7",1,"0198f782-9f98-7e3d-9dcd-d25bd74ccc58","0198f767-55c9-7875-8d21-563b3c0b86ed","2025-08-29_15h26.54.193",NA,NA,751.3898,751.3899,751.3899,751.7393,NA,NA,NA,NA,NA,NA,NA,TRUE,1,1.084,748.3912,751.3896,0,90,90,48,1,40,27,NA,NA,NA,NA,NA,1,91,"binary"
"F23C5455D9794CD9B96FBE715F906BF7",1,"0198f782-9f98-7e3d-9dcd-d25bd74ccc58","0198f767-55c9-7875-8d21-563b3c0b86ed","2025-08-29_15h26.54.193",NA,NA,754.7398,754.7399,754.7399,755.0896,NA,NA,NA,NA,NA,NA,NA,TRUE,1,0.4577,751.7415,754.7396,0,91,91,13,1,12,26,NA,NA,NA,NA,NA,1,92,"binary"
"F23C5455D9794CD9B96FBE715F906BF7",1,"0198f782-9f98-7e3d-9dcd-d25bd74ccc58","0198f767-55c9-7875-8d21-563b3c0b86ed","2025-08-29_15h26.54.193",NA,NA,758.0898,758.0898,758.0898,758.4393,NA,NA,NA,NA,NA,NA,NA,TRUE,1,0.4547,755.0919,758.0895,0,92,92,7,1,10,26,NA,NA,NA,NA,NA,1,93,"binary"
"F23C5455D9794CD9B96FBE715F906BF7",1,"0198f782-9f98-7e3d-9dcd-d25bd74ccc58","0198f767-55c9-7875-8d21-563b3c0b86ed","2025-08-29_15h26.54.193",NA,NA,761.4397,761.4397,761.4397,761.7894,NA,NA,NA,NA,NA,NA,NA,TRUE,2,1.7488,758.4406,761.4396,0,93,93,76,1,90,46,NA,NA,NA,NA,NA,1,94,"binary"
"F23C5455D9794CD9B96FBE715F906BF7",1,"0198f782-9f98-7e3d-9dcd-d25bd74ccc58","0198f767-55c9-7875-8d21-563b3c0b86ed","2025-08-29_15h26.54.193",NA,NA,764.7892,764.7892,764.7892,765.1395,NA,NA,NA,NA,NA,NA,NA,TRUE,2,0.6886,761.7916,764.7891,0,94,94,86,1,100,38,NA,NA,NA,NA,NA,1,95,"binary"
"F23C5455D9794CD9B96FBE715F906BF7",1,"0198f782-9f98-7e3d-9dcd-d25bd74ccc58","0198f767-55c9-7875-8d21-563b3c0b86ed","2025-08-29_15h26.54.193",NA,NA,768.1398,768.1398,768.1399,768.4895,NA,NA,NA,NA,NA,NA,NA,TRUE,2,1.925,765.1415,768.1396,0,95,95,31,1,25,29,NA,NA,NA,NA,NA,1,96,"binary"
"F23C5455D9794CD9B96FBE715F906BF7",1,"0198f782-9f98-7e3d-9dcd-d25bd74ccc58","0198f767-55c9-7875-8d21-563b3c0b86ed","2025-08-29_15h26.54.193",NA,NA,771.4893,771.4893,771.4893,771.8396,NA,NA,NA,NA,NA,NA,NA,TRUE,2,0.65,768.4917,771.4891,0,96,96,50,1,40,35,NA,NA,NA,NA,NA,1,97,"binary"
"F23C5455D9794CD9B96FBE715F906BF7",1,"0198f782-9f98-7e3d-9dcd-d25bd74ccc58","0198f767-55c9-7875-8d21-563b3c0b86ed","2025-08-29_15h26.54.193",NA,NA,774.8389,774.8389,774.8389,775.1889,NA,NA,NA,NA,NA,NA,NA,TRUE,1,1.9664,771.842,774.8387,0,97,97,54,1,45,26,NA,NA,NA,NA,NA,1,98,"binary"
"F23C5455D9794CD9B96FBE715F906BF7",1,"0198f782-9f98-7e3d-9dcd-d25bd74ccc58","0198f767-55c9-7875-8d21-563b3c0b86ed","2025-08-29_15h26.54.193",NA,NA,778.1897,778.1897,778.1897,778.5389,NA,NA,NA,NA,NA,NA,NA,TRUE,2,2.0205,775.1911,778.1896,0,98,98,22,1,14,35,NA,NA,NA,NA,NA,1,99,"binary"
"F23C5455D9794CD9B96FBE715F906BF7",1,"0198f782-9f98-7e3d-9dcd-d25bd74ccc58","0198f767-55c9-7875-8d21-563b3c0b86ed","2025-08-29_15h26.54.193",NA,NA,781.5386,781.5386,781.5386,781.8894,NA,NA,NA,NA,NA,NA,NA,TRUE,2,2.0325,778.5407,781.5385,0,99,99,83,1,95,54,NA,NA,NA,NA,NA,1,100,"binary"
"F23C5455D9794CD9B96FBE715F906BF7",1,"0198f782-9f98-7e3d-9dcd-d25bd74ccc58","0198f767-55c9-7875-8d21-563b3c0b86ed","2025-08-29_15h26.54.193",NA,NA,784.8898,784.8898,784.8899,785.2395,NA,NA,NA,NA,NA,NA,NA,TRUE,1,1.8745,781.8912,784.8897,0,100,100,104,1,200,35,NA,NA,NA,NA,NA,1,101,"binary"
"F23C5455D9794CD9B96FBE715F906BF7",1,"0198f782-9f98-7e3d-9dcd-d25bd74ccc58","0198f767-55c9-7875-8d21-563b3c0b86ed","2025-08-29_15h26.54.193",NA,NA,788.2401,788.2401,788.2401,788.5896,NA,NA,NA,NA,NA,NA,NA,TRUE,2,1.2898,785.2414,788.2399,0,101,101,75,1,90,40,NA,NA,NA,NA,NA,1,102,"binary"
"F23C5455D9794CD9B96FBE715F906BF7",1,"0198f782-9f98-7e3d-9dcd-d25bd74ccc58","0198f767-55c9-7875-8d21-563b3c0b86ed","2025-08-29_15h26.54.193",NA,NA,791.5891,791.5891,791.5891,791.9389,NA,NA,NA,NA,NA,NA,NA,TRUE,1,0.6222,788.5915,791.5889,0,102,102,30,1,25,27,NA,NA,NA,NA,NA,1,103,"binary"
"F23C5455D9794CD9B96FBE715F906BF7",1,"0198f782-9f98-7e3d-9dcd-d25bd74ccc58","0198f767-55c9-7875-8d21-563b3c0b86ed","2025-08-29_15h26.54.193",NA,NA,794.9399,794.94,794.94,795.2896,NA,NA,NA,NA,NA,NA,NA,TRUE,2,0.598,791.941,794.9397,0,103,103,77,1,90,54,NA,NA,NA,NA,NA,1,104,"binary"
"F23C5455D9794CD9B96FBE715F906BF7",1,"0198f782-9f98-7e3d-9dcd-d25bd74ccc58","0198f767-55c9-7875-8d21-563b3c0b86ed","2025-08-29_15h26.54.193",NA,NA,798.2897,798.2898,798.2898,798.6396,NA,NA,NA,NA,NA,NA,NA,TRUE,2,1.9478,795.2914,798.2896,0,104,104,78,1,95,31,NA,NA,NA,NA,NA,1,105,"binary"
"F23C5455D9794CD9B96FBE715F906BF7",1,"0198f782-9f98-7e3d-9dcd-d25bd74ccc58","0198f767-55c9-7875-8d21-563b3c0b86ed","2025-08-29_15h26.54.193",NA,NA,801.6393,801.6393,801.6393,801.989,NA,NA,NA,NA,NA,NA,NA,TRUE,2,1.549,798.6417,801.6392,0,105,105,33,1,25,33,NA,NA,NA,NA,NA,1,106,"binary"
"F23C5455D9794CD9B96FBE715F906BF7",1,"0198f782-9f98-7e3d-9dcd-d25bd74ccc58","0198f767-55c9-7875-8d21-563b3c0b86ed","2025-08-29_15h26.54.193",NA,NA,804.9894,804.9895,804.9895,805.3391,NA,NA,NA,NA,NA,NA,NA,TRUE,2,1.3911,801.9917,804.9892,0,106,106,69,1,60,40,NA,NA,NA,NA,NA,1,107,"binary"
"F23C5455D9794CD9B96FBE715F906BF7",1,"0198f782-9f98-7e3d-9dcd-d25bd74ccc58","0198f767-55c9-7875-8d21-563b3c0b86ed","2025-08-29_15h26.54.193",NA,NA,808.3396,808.3397,808.3397,808.6894,NA,NA,NA,NA,NA,NA,NA,TRUE,2,2.0649,805.3411,808.3395,0,107,107,87,1,100,39,NA,NA,NA,NA,NA,1,108,"binary"
"F23C5455D9794CD9B96FBE715F906BF7",1,"0198f782-9f98-7e3d-9dcd-d25bd74ccc58","0198f767-55c9-7875-8d21-563b3c0b86ed","2025-08-29_15h26.54.193",NA,NA,816.2484,816.2484,816.2485,816.5977,NA,NA,NA,NA,NA,NA,NA,TRUE,2,1.4498,813.2619,816.248,NA,NA,NA,NA,NA,60,54,0,0,0,71,1,2,1,"binary"
"F23C5455D9794CD9B96FBE715F906BF7",1,"0198f782-9f98-7e3d-9dcd-d25bd74ccc58","0198f767-55c9-7875-8d21-563b3c0b86ed","2025-08-29_15h26.54.193",NA,NA,819.5975,819.5975,819.5975,819.948,NA,NA,NA,NA,NA,NA,NA,TRUE,2,1.5541,816.599,819.5973,NA,NA,NA,NA,NA,25,33,0,1,1,33,1,2,2,"binary"
"F23C5455D9794CD9B96FBE715F906BF7",1,"0198f782-9f98-7e3d-9dcd-d25bd74ccc58","0198f767-55c9-7875-8d21-563b3c0b86ed","2025-08-29_15h26.54.193",NA,NA,822.9482,822.9483,822.9483,823.2979,NA,NA,NA,NA,NA,NA,NA,TRUE,1,0.7379,819.9504,822.948,NA,NA,NA,NA,NA,28,32,0,2,2,38,1,2,3,"binary"
"F23C5455D9794CD9B96FBE715F906BF7",1,"0198f782-9f98-7e3d-9dcd-d25bd74ccc58","0198f767-55c9-7875-8d21-563b3c0b86ed","2025-08-29_15h26.54.193",NA,NA,826.2974,826.2974,826.2974,826.6469,NA,NA,NA,NA,NA,NA,NA,TRUE,2,0.6021,823.3001,826.2972,NA,NA,NA,NA,NA,100,46,0,3,3,88,1,2,4,"binary"
"F23C5455D9794CD9B96FBE715F906BF7",1,"0198f782-9f98-7e3d-9dcd-d25bd74ccc58","0198f767-55c9-7875-8d21-563b3c0b86ed","2025-08-29_15h26.54.193",NA,NA,829.6488,829.6489,829.6489,829.9972,NA,NA,NA,NA,NA,NA,NA,TRUE,2,0.9966,826.648,829.6485,NA,NA,NA,NA,NA,95,47,0,4,4,82,1,2,5,"binary"
"F23C5455D9794CD9B96FBE715F906BF7",1,"0198f782-9f98-7e3d-9dcd-d25bd74ccc58","0198f767-55c9-7875-8d21-563b3c0b86ed","2025-08-29_15h26.54.193",NA,NA,832.9984,832.9985,832.9985,833.3482,NA,NA,NA,NA,NA,NA,NA,TRUE,1,2.0353,830,832.9981,NA,NA,NA,NA,NA,12,31,0,5,5,15,1,2,6,"binary"
"F23C5455D9794CD9B96FBE715F906BF7",1,"0198f782-9f98-7e3d-9dcd-d25bd74ccc58","0198f767-55c9-7875-8d21-563b3c0b86ed","2025-08-29_15h26.54.193",NA,NA,836.3488,836.3488,836.3489,836.6979,NA,NA,NA,NA,NA,NA,NA,TRUE,2,2.1009,833.3509,836.3487,NA,NA,NA,NA,NA,30,30,0,6,6,45,1,2,7,"binary"
"F23C5455D9794CD9B96FBE715F906BF7",1,"0198f782-9f98-7e3d-9dcd-d25bd74ccc58","0198f767-55c9-7875-8d21-563b3c0b86ed","2025-08-29_15h26.54.193",NA,NA,839.698,839.698,839.698,840.0482,NA,NA,NA,NA,NA,NA,NA,TRUE,2,1.2857,836.6992,839.6978,NA,NA,NA,NA,NA,10,30,0,7,7,10,1,2,8,"binary"
"F23C5455D9794CD9B96FBE715F906BF7",1,"0198f782-9f98-7e3d-9dcd-d25bd74ccc58","0198f767-55c9-7875-8d21-563b3c0b86ed","2025-08-29_15h26.54.193",NA,NA,843.0483,843.0485,843.0485,843.3982,NA,NA,NA,NA,NA,NA,NA,TRUE,2,1.0848,840.0509,843.0481,NA,NA,NA,NA,NA,60,47,0,8,8,70,1,2,9,"binary"
"F23C5455D9794CD9B96FBE715F906BF7",1,"0198f782-9f98-7e3d-9dcd-d25bd74ccc58","0198f767-55c9-7875-8d21-563b3c0b86ed","2025-08-29_15h26.54.193",NA,NA,846.3975,846.3975,846.3976,846.748,NA,NA,NA,NA,NA,NA,NA,TRUE,2,1.0842,843.4005,846.3974,NA,NA,NA,NA,NA,30,38,0,9,9,47,1,2,10,"binary"
"F23C5455D9794CD9B96FBE715F906BF7",1,"0198f782-9f98-7e3d-9dcd-d25bd74ccc58","0198f767-55c9-7875-8d21-563b3c0b86ed","2025-08-29_15h26.54.193",NA,NA,849.7482,849.7483,849.7483,850.0983,NA,NA,NA,NA,NA,NA,NA,TRUE,1,1.8032,846.75,849.748,NA,NA,NA,NA,NA,180,31,0,10,10,97,1,2,11,"binary"
"F23C5455D9794CD9B96FBE715F906BF7",1,"0198f782-9f98-7e3d-9dcd-d25bd74ccc58","0198f767-55c9-7875-8d21-563b3c0b86ed","2025-08-29_15h26.54.193",NA,NA,853.0981,853.0981,853.0981,853.4484,NA,NA,NA,NA,NA,NA,NA,TRUE,1,1.2801,850.1008,853.0979,NA,NA,NA,NA,NA,28,28,0,11,11,37,1,2,12,"binary"
"F23C5455D9794CD9B96FBE715F906BF7",1,"0198f782-9f98-7e3d-9dcd-d25bd74ccc58","0198f767-55c9-7875-8d21-563b3c0b86ed","2025-08-29_15h26.54.193",NA,NA,856.4487,856.4487,856.4487,856.7983,NA,NA,NA,NA,NA,NA,NA,TRUE,1,0.7023,853.4503,856.4483,NA,NA,NA,NA,NA,12,28,0,12,12,14,1,2,13,"binary"
"F23C5455D9794CD9B96FBE715F906BF7",1,"0198f782-9f98-7e3d-9dcd-d25bd74ccc58","0198f767-55c9-7875-8d21-563b3c0b86ed","2025-08-29_15h26.54.193",NA,NA,859.798,859.798,859.798,860.148,NA,NA,NA,NA,NA,NA,NA,TRUE,1,0.653,856.8006,859.7979,NA,NA,NA,NA,NA,100,26,0,13,13,84,1,2,14,"binary"
"F23C5455D9794CD9B96FBE715F906BF7",1,"0198f782-9f98-7e3d-9dcd-d25bd74ccc58","0198f767-55c9-7875-8d21-563b3c0b86ed","2025-08-29_15h26.54.193",NA,NA,863.1489,863.149,863.149,863.4982,NA,NA,NA,NA,NA,NA,NA,TRUE,2,1.3185,860.1501,863.1486,NA,NA,NA,NA,NA,14,32,0,14,14,21,1,2,15,"binary"
"F23C5455D9794CD9B96FBE715F906BF7",1,"0198f782-9f98-7e3d-9dcd-d25bd74ccc58","0198f767-55c9-7875-8d21-563b3c0b86ed","2025-08-29_15h26.54.193",NA,NA,866.4987,866.4987,866.4987,866.8479,NA,NA,NA,NA,NA,NA,NA,TRUE,1,1.5927,863.5009,866.4985,NA,NA,NA,NA,NA,7,28,0,15,15,2,1,2,16,"binary"
"F23C5455D9794CD9B96FBE715F906BF7",1,"0198f782-9f98-7e3d-9dcd-d25bd74ccc58","0198f767-55c9-7875-8d21-563b3c0b86ed","2025-08-29_15h26.54.193",NA,NA,869.8481,869.8481,869.8481,870.198,NA,NA,NA,NA,NA,NA,NA,TRUE,2,0.7241,866.8486,869.848,NA,NA,NA,NA,NA,12,35,0,16,16,17,1,2,17,"binary"
"F23C5455D9794CD9B96FBE715F906BF7",1,"0198f782-9f98-7e3d-9dcd-d25bd74ccc58","0198f767-55c9-7875-8d21-563b3c0b86ed","2025-08-29_15h26.54.193",NA,NA,873.1987,873.1988,873.1988,873.5477,NA,NA,NA,NA,NA,NA,NA,TRUE,1,1.3813,870.199,873.1984,NA,NA,NA,NA,NA,45,26,0,17,17,54,1,2,18,"binary"
"F23C5455D9794CD9B96FBE715F906BF7",1,"0198f782-9f98-7e3d-9dcd-d25bd74ccc58","0198f767-55c9-7875-8d21-563b3c0b86ed","2025-08-29_15h26.54.193",NA,NA,876.548,876.5481,876.5481,876.8973,NA,NA,NA,NA,NA,NA,NA,TRUE,2,0.0522,873.5506,876.548,NA,NA,NA,NA,NA,200,35,0,18,18,104,1,2,19,"binary"
"F23C5455D9794CD9B96FBE715F906BF7",1,"0198f782-9f98-7e3d-9dcd-d25bd74ccc58","0198f767-55c9-7875-8d21-563b3c0b86ed","2025-08-29_15h26.54.193",NA,NA,879.8988,879.8989,879.8989,880.2484,NA,NA,NA,NA,NA,NA,NA,TRUE,2,0.9271,876.8998,879.8986,NA,NA,NA,NA,NA,10,32,0,19,19,11,1,2,20,"binary"
"F23C5455D9794CD9B96FBE715F906BF7",1,"0198f782-9f98-7e3d-9dcd-d25bd74ccc58","0198f767-55c9-7875-8d21-563b3c0b86ed","2025-08-29_15h26.54.193",NA,NA,883.2482,883.2483,883.2483,883.5984,NA,NA,NA,NA,NA,NA,NA,TRUE,2,0.4777,880.2505,883.2481,NA,NA,NA,NA,NA,30,32,0,20,20,46,1,2,21,"binary"
"F23C5455D9794CD9B96FBE715F906BF7",1,"0198f782-9f98-7e3d-9dcd-d25bd74ccc58","0198f767-55c9-7875-8d21-563b3c0b86ed","2025-08-29_15h26.54.193",NA,NA,886.5978,886.5979,886.5979,886.9485,NA,NA,NA,NA,NA,NA,NA,TRUE,2,1.193,883.601,886.5977,NA,NA,NA,NA,NA,45,31,0,21,21,56,1,2,22,"binary"
"F23C5455D9794CD9B96FBE715F906BF7",1,"0198f782-9f98-7e3d-9dcd-d25bd74ccc58","0198f767-55c9-7875-8d21-563b3c0b86ed","2025-08-29_15h26.54.193",NA,NA,889.9439,889.9439,889.944,890.293,NA,NA,NA,NA,NA,NA,NA,TRUE,2,0.5385,886.95,889.9438,NA,NA,NA,NA,NA,40,54,0,22,22,53,1,2,23,"binary"
"F23C5455D9794CD9B96FBE715F906BF7",1,"0198f782-9f98-7e3d-9dcd-d25bd74ccc58","0198f767-55c9-7875-8d21-563b3c0b86ed","2025-08-29_15h26.54.193",NA,NA,893.294,893.5444,893.5444,893.6439,NA,NA,NA,NA,NA,NA,NA,FALSE,NA,NA,890.2937,893.294,NA,NA,NA,NA,NA,30,26,0,23,23,42,1,2,24,"binary"
"F23C5455D9794CD9B96FBE715F906BF7",1,"0198f782-9f98-7e3d-9dcd-d25bd74ccc58","0198f767-55c9-7875-8d21-563b3c0b86ed","2025-08-29_15h26.54.193",NA,NA,896.644,896.8946,896.8946,896.9941,NA,NA,NA,NA,NA,NA,NA,FALSE,NA,NA,893.6449,896.6438,NA,NA,NA,NA,NA,45,46,0,24,24,59,1,2,25,"binary"
"F23C5455D9794CD9B96FBE715F906BF7",1,"0198f782-9f98-7e3d-9dcd-d25bd74ccc58","0198f767-55c9-7875-8d21-563b3c0b86ed","2025-08-29_15h26.54.193",NA,NA,899.9941,899.9941,899.9941,900.3438,NA,NA,NA,NA,NA,NA,NA,TRUE,2,0.9362,896.9956,899.994,NA,NA,NA,NA,NA,60,33,0,25,25,67,1,2,26,"binary"
"F23C5455D9794CD9B96FBE715F906BF7",1,"0198f782-9f98-7e3d-9dcd-d25bd74ccc58","0198f767-55c9-7875-8d21-563b3c0b86ed","2025-08-29_15h26.54.193",NA,NA,903.3441,903.3442,903.3442,903.694,NA,NA,NA,NA,NA,NA,NA,TRUE,2,0.5519,900.3449,903.344,NA,NA,NA,NA,NA,90,54,0,26,26,77,1,2,27,"binary"
"F23C5455D9794CD9B96FBE715F906BF7",1,"0198f782-9f98-7e3d-9dcd-d25bd74ccc58","0198f767-55c9-7875-8d21-563b3c0b86ed","2025-08-29_15h26.54.193",NA,NA,906.6933,906.6933,906.6933,907.0439,NA,NA,NA,NA,NA,NA,NA,TRUE,2,0.6258,903.695,906.6931,NA,NA,NA,NA,NA,50,35,0,27,27,62,1,2,28,"binary"
"F23C5455D9794CD9B96FBE715F906BF7",1,"0198f782-9f98-7e3d-9dcd-d25bd74ccc58","0198f767-55c9-7875-8d21-563b3c0b86ed","2025-08-29_15h26.54.193",NA,NA,910.044,910.0441,910.0441,910.3941,NA,NA,NA,NA,NA,NA,NA,TRUE,1,0.5049,907.0459,910.044,NA,NA,NA,NA,NA,28,26,0,28,28,36,1,2,29,"binary"
"F23C5455D9794CD9B96FBE715F906BF7",1,"0198f782-9f98-7e3d-9dcd-d25bd74ccc58","0198f767-55c9-7875-8d21-563b3c0b86ed","2025-08-29_15h26.54.193",NA,NA,913.394,913.394,913.3941,913.7439,NA,NA,NA,NA,NA,NA,NA,TRUE,2,1.3158,910.3955,913.3939,NA,NA,NA,NA,NA,30,29,0,29,29,44,1,2,30,"binary"
"F23C5455D9794CD9B96FBE715F906BF7",1,"0198f782-9f98-7e3d-9dcd-d25bd74ccc58","0198f767-55c9-7875-8d21-563b3c0b86ed","2025-08-29_15h26.54.193",NA,NA,916.7441,916.7441,916.7441,917.094,NA,NA,NA,NA,NA,NA,NA,TRUE,1,0.6209,913.745,916.7439,NA,NA,NA,NA,NA,12,26,0,30,30,13,1,2,31,"binary"
"F23C5455D9794CD9B96FBE715F906BF7",1,"0198f782-9f98-7e3d-9dcd-d25bd74ccc58","0198f767-55c9-7875-8d21-563b3c0b86ed","2025-08-29_15h26.54.193",NA,NA,920.0959,920.0959,920.0959,920.444,NA,NA,NA,NA,NA,NA,NA,TRUE,2,1.4767,917.0953,920.0956,NA,NA,NA,NA,NA,95,33,0,31,31,79,1,2,32,"binary"
"F23C5455D9794CD9B96FBE715F906BF7",1,"0198f782-9f98-7e3d-9dcd-d25bd74ccc58","0198f767-55c9-7875-8d21-563b3c0b86ed","2025-08-29_15h26.54.193",NA,NA,923.4444,923.4444,923.4444,923.7942,NA,NA,NA,NA,NA,NA,NA,TRUE,2,0.6787,920.4448,923.4443,NA,NA,NA,NA,NA,95,35,0,32,32,80,1,2,33,"binary"
"F23C5455D9794CD9B96FBE715F906BF7",1,"0198f782-9f98-7e3d-9dcd-d25bd74ccc58","0198f767-55c9-7875-8d21-563b3c0b86ed","2025-08-29_15h26.54.193",NA,NA,926.7933,926.7933,926.7933,927.144,NA,NA,NA,NA,NA,NA,NA,TRUE,2,0.5379,923.7961,926.7932,NA,NA,NA,NA,NA,14,39,0,33,33,23,1,2,34,"binary"
"F23C5455D9794CD9B96FBE715F906BF7",1,"0198f782-9f98-7e3d-9dcd-d25bd74ccc58","0198f767-55c9-7875-8d21-563b3c0b86ed","2025-08-29_15h26.54.193",NA,NA,930.1442,930.1442,930.1443,930.494,NA,NA,NA,NA,NA,NA,NA,TRUE,2,0.7356,927.1449,930.144,NA,NA,NA,NA,NA,150,40,0,34,34,93,1,2,35,"binary"
"F23C5455D9794CD9B96FBE715F906BF7",1,"0198f782-9f98-7e3d-9dcd-d25bd74ccc58","0198f767-55c9-7875-8d21-563b3c0b86ed","2025-08-29_15h26.54.193",NA,NA,933.4944,933.4944,933.4944,933.8443,NA,NA,NA,NA,NA,NA,NA,TRUE,1,0.6941,930.4949,933.4942,NA,NA,NA,NA,NA,7,26,0,35,35,1,1,2,36,"binary"
"F23C5455D9794CD9B96FBE715F906BF7",1,"0198f782-9f98-7e3d-9dcd-d25bd74ccc58","0198f767-55c9-7875-8d21-563b3c0b86ed","2025-08-29_15h26.54.193",NA,NA,936.8439,936.8439,936.8439,937.1942,NA,NA,NA,NA,NA,NA,NA,TRUE,2,0.6017,933.8461,936.8438,NA,NA,NA,NA,NA,200,39,0,36,36,105,1,2,37,"binary"
"F23C5455D9794CD9B96FBE715F906BF7",1,"0198f782-9f98-7e3d-9dcd-d25bd74ccc58","0198f767-55c9-7875-8d21-563b3c0b86ed","2025-08-29_15h26.54.193",NA,NA,940.1943,940.1944,940.1944,940.5439,NA,NA,NA,NA,NA,NA,NA,TRUE,2,0.751,937.1961,940.1942,NA,NA,NA,NA,NA,60,35,0,37,37,68,1,2,38,"binary"
"F23C5455D9794CD9B96FBE715F906BF7",1,"0198f782-9f98-7e3d-9dcd-d25bd74ccc58","0198f767-55c9-7875-8d21-563b3c0b86ed","2025-08-29_15h26.54.193",NA,NA,943.5443,943.5443,943.5443,943.8941,NA,NA,NA,NA,NA,NA,NA,TRUE,2,1.8157,940.5452,943.5442,NA,NA,NA,NA,NA,25,29,0,38,38,31,1,2,39,"binary"
"F23C5455D9794CD9B96FBE715F906BF7",1,"0198f782-9f98-7e3d-9dcd-d25bd74ccc58","0198f767-55c9-7875-8d21-563b3c0b86ed","2025-08-29_15h26.54.193",NA,NA,946.8943,946.8944,946.8944,947.2443,NA,NA,NA,NA,NA,NA,NA,TRUE,2,1.0626,943.8955,946.8942,NA,NA,NA,NA,NA,21,38,0,39,39,29,1,2,40,"binary"
"F23C5455D9794CD9B96FBE715F906BF7",1,"0198f782-9f98-7e3d-9dcd-d25bd74ccc58","0198f767-55c9-7875-8d21-563b3c0b86ed","2025-08-29_15h26.54.193",NA,NA,950.245,950.245,950.245,950.5934,NA,NA,NA,NA,NA,NA,NA,TRUE,1,2.1633,947.2459,950.2447,NA,NA,NA,NA,NA,25,27,0,40,40,30,1,2,41,"binary"
"F23C5455D9794CD9B96FBE715F906BF7",1,"0198f782-9f98-7e3d-9dcd-d25bd74ccc58","0198f767-55c9-7875-8d21-563b3c0b86ed","2025-08-29_15h26.54.193",NA,NA,953.5943,953.5943,953.5943,953.945,NA,NA,NA,NA,NA,NA,NA,TRUE,1,1.0255,950.5944,953.5942,NA,NA,NA,NA,NA,180,27,0,41,41,96,1,2,42,"binary"
"F23C5455D9794CD9B96FBE715F906BF7",1,"0198f782-9f98-7e3d-9dcd-d25bd74ccc58","0198f767-55c9-7875-8d21-563b3c0b86ed","2025-08-29_15h26.54.193",NA,NA,956.9444,956.9444,956.9444,957.2943,NA,NA,NA,NA,NA,NA,NA,TRUE,2,0.6343,953.9476,956.9443,NA,NA,NA,NA,NA,180,39,0,42,42,99,1,2,43,"binary"
"F23C5455D9794CD9B96FBE715F906BF7",1,"0198f782-9f98-7e3d-9dcd-d25bd74ccc58","0198f767-55c9-7875-8d21-563b3c0b86ed","2025-08-29_15h26.54.193",NA,NA,960.2945,960.2945,960.2945,960.6446,NA,NA,NA,NA,NA,NA,NA,TRUE,2,1.267,957.2954,960.2943,NA,NA,NA,NA,NA,50,30,0,43,43,61,1,2,44,"binary"
"F23C5455D9794CD9B96FBE715F906BF7",1,"0198f782-9f98-7e3d-9dcd-d25bd74ccc58","0198f767-55c9-7875-8d21-563b3c0b86ed","2025-08-29_15h26.54.193",NA,NA,963.6442,963.6442,963.6442,963.9943,NA,NA,NA,NA,NA,NA,NA,TRUE,2,0.7322,960.6472,963.644,NA,NA,NA,NA,NA,100,54,0,44,44,89,1,2,45,"binary"
"F23C5455D9794CD9B96FBE715F906BF7",1,"0198f782-9f98-7e3d-9dcd-d25bd74ccc58","0198f767-55c9-7875-8d21-563b3c0b86ed","2025-08-29_15h26.54.193",NA,NA,966.9943,966.9944,966.9944,967.3445,NA,NA,NA,NA,NA,NA,NA,TRUE,2,0.5787,963.996,966.9943,NA,NA,NA,NA,NA,90,46,0,45,45,76,1,2,46,"binary"
"F23C5455D9794CD9B96FBE715F906BF7",1,"0198f782-9f98-7e3d-9dcd-d25bd74ccc58","0198f767-55c9-7875-8d21-563b3c0b86ed","2025-08-29_15h26.54.193",NA,NA,970.3444,970.3444,970.3444,970.6942,NA,NA,NA,NA,NA,NA,NA,TRUE,2,1.6681,967.3466,970.3443,NA,NA,NA,NA,NA,150,33,0,46,46,91,1,2,47,"binary"
"F23C5455D9794CD9B96FBE715F906BF7",1,"0198f782-9f98-7e3d-9dcd-d25bd74ccc58","0198f767-55c9-7875-8d21-563b3c0b86ed","2025-08-29_15h26.54.193",NA,NA,973.6935,973.6936,973.6936,974.0445,NA,NA,NA,NA,NA,NA,NA,TRUE,2,1.161,970.6946,973.6934,NA,NA,NA,NA,NA,40,47,0,47,47,52,1,2,48,"binary"
"F23C5455D9794CD9B96FBE715F906BF7",1,"0198f782-9f98-7e3d-9dcd-d25bd74ccc58","0198f767-55c9-7875-8d21-563b3c0b86ed","2025-08-29_15h26.54.193",NA,NA,977.0437,977.0438,977.0438,977.3946,NA,NA,NA,NA,NA,NA,NA,TRUE,2,0.6623,974.0466,977.0436,NA,NA,NA,NA,NA,7,30,0,48,48,3,1,2,49,"binary"
"F23C5455D9794CD9B96FBE715F906BF7",1,"0198f782-9f98-7e3d-9dcd-d25bd74ccc58","0198f767-55c9-7875-8d21-563b3c0b86ed","2025-08-29_15h26.54.193",NA,NA,980.3941,980.3942,980.3942,980.7436,NA,NA,NA,NA,NA,NA,NA,TRUE,2,0.5728,977.3968,980.394,NA,NA,NA,NA,NA,12,33,0,49,49,16,1,2,50,"binary"
"F23C5455D9794CD9B96FBE715F906BF7",1,"0198f782-9f98-7e3d-9dcd-d25bd74ccc58","0198f767-55c9-7875-8d21-563b3c0b86ed","2025-08-29_15h26.54.193",NA,NA,983.7443,983.7443,983.7443,984.0944,NA,NA,NA,NA,NA,NA,NA,TRUE,2,0.4992,980.7455,983.7443,NA,NA,NA,NA,NA,90,30,0,50,50,73,1,2,51,"binary"
"F23C5455D9794CD9B96FBE715F906BF7",1,"0198f782-9f98-7e3d-9dcd-d25bd74ccc58","0198f767-55c9-7875-8d21-563b3c0b86ed","2025-08-29_15h26.54.193",NA,NA,987.095,987.095,987.095,987.4449,NA,NA,NA,NA,NA,NA,NA,TRUE,2,1.2931,984.0955,987.0948,NA,NA,NA,NA,NA,21,27,0,51,51,25,1,2,52,"binary"
"F23C5455D9794CD9B96FBE715F906BF7",1,"0198f782-9f98-7e3d-9dcd-d25bd74ccc58","0198f767-55c9-7875-8d21-563b3c0b86ed","2025-08-29_15h26.54.193",NA,NA,990.4435,990.4436,990.4436,990.7947,NA,NA,NA,NA,NA,NA,NA,TRUE,2,0.5135,987.4474,990.4435,NA,NA,NA,NA,NA,45,40,0,52,52,58,1,2,53,"binary"
"F23C5455D9794CD9B96FBE715F906BF7",1,"0198f782-9f98-7e3d-9dcd-d25bd74ccc58","0198f767-55c9-7875-8d21-563b3c0b86ed","2025-08-29_15h26.54.193",NA,NA,993.7943,993.7944,993.7944,994.1444,NA,NA,NA,NA,NA,NA,NA,TRUE,2,0.468,990.797,993.7943,NA,NA,NA,NA,NA,100,38,0,53,53,86,1,2,54,"binary"
"F23C5455D9794CD9B96FBE715F906BF7",1,"0198f782-9f98-7e3d-9dcd-d25bd74ccc58","0198f767-55c9-7875-8d21-563b3c0b86ed","2025-08-29_15h26.54.193",NA,NA,997.1446,997.1446,997.1446,997.4952,NA,NA,NA,NA,NA,NA,NA,TRUE,2,0.5587,994.1459,997.1445,NA,NA,NA,NA,NA,150,31,0,54,54,90,1,2,55,"binary"
"F23C5455D9794CD9B96FBE715F906BF7",1,"0198f782-9f98-7e3d-9dcd-d25bd74ccc58","0198f767-55c9-7875-8d21-563b3c0b86ed","2025-08-29_15h26.54.193",NA,NA,1000.4945,1000.4945,1000.4945,1000.8444,NA,NA,NA,NA,NA,NA,NA,TRUE,2,0.5698,997.4973,1000.4944,NA,NA,NA,NA,NA,200,54,0,55,55,107,1,2,56,"binary"
"F23C5455D9794CD9B96FBE715F906BF7",1,"0198f782-9f98-7e3d-9dcd-d25bd74ccc58","0198f767-55c9-7875-8d21-563b3c0b86ed","2025-08-29_15h26.54.193",NA,NA,1003.8446,1003.8446,1003.8446,1004.1943,NA,NA,NA,NA,NA,NA,NA,TRUE,2,0.3806,1000.8455,1003.8445,NA,NA,NA,NA,NA,150,35,0,56,56,92,1,2,57,"binary"
"F23C5455D9794CD9B96FBE715F906BF7",1,"0198f782-9f98-7e3d-9dcd-d25bd74ccc58","0198f767-55c9-7875-8d21-563b3c0b86ed","2025-08-29_15h26.54.193",NA,NA,1007.1946,1007.1946,1007.1946,1007.5445,NA,NA,NA,NA,NA,NA,NA,TRUE,2,0.5999,1004.1952,1007.1945,NA,NA,NA,NA,NA,60,40,0,57,57,69,1,2,58,"binary"
"F23C5455D9794CD9B96FBE715F906BF7",1,"0198f782-9f98-7e3d-9dcd-d25bd74ccc58","0198f767-55c9-7875-8d21-563b3c0b86ed","2025-08-29_15h26.54.193",NA,NA,1010.5446,1010.5446,1010.5446,1010.8952,NA,NA,NA,NA,NA,NA,NA,TRUE,1,0.6055,1007.5457,1010.5445,NA,NA,NA,NA,NA,200,26,0,58,58,102,1,2,59,"binary"
"F23C5455D9794CD9B96FBE715F906BF7",1,"0198f782-9f98-7e3d-9dcd-d25bd74ccc58","0198f767-55c9-7875-8d21-563b3c0b86ed","2025-08-29_15h26.54.193",NA,NA,1013.896,1013.896,1013.896,1014.2446,NA,NA,NA,NA,NA,NA,NA,TRUE,2,1.2353,1010.8979,1013.8958,NA,NA,NA,NA,NA,45,29,0,59,59,55,1,2,60,"binary"
"F23C5455D9794CD9B96FBE715F906BF7",1,"0198f782-9f98-7e3d-9dcd-d25bd74ccc58","0198f767-55c9-7875-8d21-563b3c0b86ed","2025-08-29_15h26.54.193",NA,NA,1017.2445,1017.2446,1017.2446,1017.5945,NA,NA,NA,NA,NA,NA,NA,TRUE,2,0.7498,1014.2461,1017.2445,NA,NA,NA,NA,NA,28,46,0,60,60,41,1,2,61,"binary"
"F23C5455D9794CD9B96FBE715F906BF7",1,"0198f782-9f98-7e3d-9dcd-d25bd74ccc58","0198f767-55c9-7875-8d21-563b3c0b86ed","2025-08-29_15h26.54.193",NA,NA,1020.5937,1020.5937,1020.5937,1020.9438,NA,NA,NA,NA,NA,NA,NA,TRUE,2,0.5302,1017.5955,1020.5936,NA,NA,NA,NA,NA,40,40,0,61,61,51,1,2,62,"binary"
"F23C5455D9794CD9B96FBE715F906BF7",1,"0198f782-9f98-7e3d-9dcd-d25bd74ccc58","0198f767-55c9-7875-8d21-563b3c0b86ed","2025-08-29_15h26.54.193",NA,NA,1023.9447,1023.9448,1023.9448,1024.2946,NA,NA,NA,NA,NA,NA,NA,TRUE,2,0.7799,1020.9457,1023.9446,NA,NA,NA,NA,NA,100,31,0,62,62,85,1,2,63,"binary"
"F23C5455D9794CD9B96FBE715F906BF7",1,"0198f782-9f98-7e3d-9dcd-d25bd74ccc58","0198f767-55c9-7875-8d21-563b3c0b86ed","2025-08-29_15h26.54.193",NA,NA,1027.2946,1027.2946,1027.2946,1027.6448,NA,NA,NA,NA,NA,NA,NA,TRUE,2,0.5016,1024.2956,1027.2945,NA,NA,NA,NA,NA,50,46,0,63,63,64,1,2,64,"binary"
"F23C5455D9794CD9B96FBE715F906BF7",1,"0198f782-9f98-7e3d-9dcd-d25bd74ccc58","0198f767-55c9-7875-8d21-563b3c0b86ed","2025-08-29_15h26.54.193",NA,NA,1030.6448,1030.6448,1030.6448,1030.9946,NA,NA,NA,NA,NA,NA,NA,TRUE,1,0.6119,1027.647,1030.6447,NA,NA,NA,NA,NA,40,27,0,64,64,48,1,2,65,"binary"
"F23C5455D9794CD9B96FBE715F906BF7",1,"0198f782-9f98-7e3d-9dcd-d25bd74ccc58","0198f767-55c9-7875-8d21-563b3c0b86ed","2025-08-29_15h26.54.193",NA,NA,1033.9947,1033.9947,1033.9947,1034.3445,NA,NA,NA,NA,NA,NA,NA,TRUE,2,0.6331,1030.9958,1033.9945,NA,NA,NA,NA,NA,40,35,0,65,65,50,1,2,66,"binary"
"F23C5455D9794CD9B96FBE715F906BF7",1,"0198f782-9f98-7e3d-9dcd-d25bd74ccc58","0198f767-55c9-7875-8d21-563b3c0b86ed","2025-08-29_15h26.54.193",NA,NA,1037.3451,1037.3451,1037.3451,1037.6946,NA,NA,NA,NA,NA,NA,NA,TRUE,1,0.5277,1034.3456,1037.3449,NA,NA,NA,NA,NA,10,27,0,66,66,8,1,2,67,"binary"
"F23C5455D9794CD9B96FBE715F906BF7",1,"0198f782-9f98-7e3d-9dcd-d25bd74ccc58","0198f767-55c9-7875-8d21-563b3c0b86ed","2025-08-29_15h26.54.193",NA,NA,1040.6938,1040.6938,1040.6938,1041.045,NA,NA,NA,NA,NA,NA,NA,TRUE,1,0.9738,1037.6958,1040.6937,NA,NA,NA,NA,NA,50,27,0,67,67,60,1,2,68,"binary"
"F23C5455D9794CD9B96FBE715F906BF7",1,"0198f782-9f98-7e3d-9dcd-d25bd74ccc58","0198f767-55c9-7875-8d21-563b3c0b86ed","2025-08-29_15h26.54.193",NA,NA,1044.0449,1044.0449,1044.0449,1044.394,NA,NA,NA,NA,NA,NA,NA,TRUE,2,0.9464,1041.047,1044.0447,NA,NA,NA,NA,NA,10,29,0,68,68,9,1,2,69,"binary"
"F23C5455D9794CD9B96FBE715F906BF7",1,"0198f782-9f98-7e3d-9dcd-d25bd74ccc58","0198f767-55c9-7875-8d21-563b3c0b86ed","2025-08-29_15h26.54.193",NA,NA,1047.3948,1047.3948,1047.3948,1047.7451,NA,NA,NA,NA,NA,NA,NA,TRUE,2,0.9397,1044.3954,1047.3947,NA,NA,NA,NA,NA,14,28,0,69,69,20,1,2,70,"binary"
"F23C5455D9794CD9B96FBE715F906BF7",1,"0198f782-9f98-7e3d-9dcd-d25bd74ccc58","0198f767-55c9-7875-8d21-563b3c0b86ed","2025-08-29_15h26.54.193",NA,NA,1050.7447,1050.7448,1050.7448,1051.0954,NA,NA,NA,NA,NA,NA,NA,TRUE,2,0.6906,1047.7472,1050.7446,NA,NA,NA,NA,NA,25,35,0,70,70,34,1,2,71,"binary"
"F23C5455D9794CD9B96FBE715F906BF7",1,"0198f782-9f98-7e3d-9dcd-d25bd74ccc58","0198f767-55c9-7875-8d21-563b3c0b86ed","2025-08-29_15h26.54.193",NA,NA,1054.0946,1054.0947,1054.0947,1054.4447,NA,NA,NA,NA,NA,NA,NA,TRUE,1,0.8757,1051.0983,1054.0946,NA,NA,NA,NA,NA,12,25,0,71,71,12,1,2,72,"binary"
"F23C5455D9794CD9B96FBE715F906BF7",1,"0198f782-9f98-7e3d-9dcd-d25bd74ccc58","0198f767-55c9-7875-8d21-563b3c0b86ed","2025-08-29_15h26.54.193",NA,NA,1057.445,1057.445,1057.445,1057.795,NA,NA,NA,NA,NA,NA,NA,TRUE,2,0.5024,1054.4462,1057.4448,NA,NA,NA,NA,NA,50,54,0,72,72,65,1,2,73,"binary"
"F23C5455D9794CD9B96FBE715F906BF7",1,"0198f782-9f98-7e3d-9dcd-d25bd74ccc58","0198f767-55c9-7875-8d21-563b3c0b86ed","2025-08-29_15h26.54.193",NA,NA,1060.7947,1060.7948,1060.7948,1061.1452,NA,NA,NA,NA,NA,NA,NA,TRUE,2,2.5995,1057.7988,1060.7947,NA,NA,NA,NA,NA,200,28,0,73,73,103,1,2,74,"binary"
"F23C5455D9794CD9B96FBE715F906BF7",1,"0198f782-9f98-7e3d-9dcd-d25bd74ccc58","0198f767-55c9-7875-8d21-563b3c0b86ed","2025-08-29_15h26.54.193",NA,NA,1064.1448,1064.1448,1064.1448,1064.4947,NA,NA,NA,NA,NA,NA,NA,TRUE,2,1.004,1061.1484,1064.1447,NA,NA,NA,NA,NA,50,40,0,74,74,63,1,2,75,"binary"
"F23C5455D9794CD9B96FBE715F906BF7",1,"0198f782-9f98-7e3d-9dcd-d25bd74ccc58","0198f767-55c9-7875-8d21-563b3c0b86ed","2025-08-29_15h26.54.193",NA,NA,1067.4949,1067.4949,1067.4949,1067.8448,NA,NA,NA,NA,NA,NA,NA,TRUE,1,1.1755,1064.4954,1067.4948,NA,NA,NA,NA,NA,21,26,0,75,75,24,1,2,76,"binary"
"F23C5455D9794CD9B96FBE715F906BF7",1,"0198f782-9f98-7e3d-9dcd-d25bd74ccc58","0198f767-55c9-7875-8d21-563b3c0b86ed","2025-08-29_15h26.54.193",NA,NA,1070.845,1070.845,1070.845,1071.1946,NA,NA,NA,NA,NA,NA,NA,TRUE,2,2.5254,1067.8462,1070.8448,NA,NA,NA,NA,NA,7,32,0,76,76,4,1,2,77,"binary"
"F23C5455D9794CD9B96FBE715F906BF7",1,"0198f782-9f98-7e3d-9dcd-d25bd74ccc58","0198f767-55c9-7875-8d21-563b3c0b86ed","2025-08-29_15h26.54.193",NA,NA,1074.1948,1074.1948,1074.1948,1074.5448,NA,NA,NA,NA,NA,NA,NA,TRUE,2,1.7899,1071.1966,1074.1947,NA,NA,NA,NA,NA,25,31,0,77,77,32,1,2,78,"binary"
"F23C5455D9794CD9B96FBE715F906BF7",1,"0198f782-9f98-7e3d-9dcd-d25bd74ccc58","0198f767-55c9-7875-8d21-563b3c0b86ed","2025-08-29_15h26.54.193",NA,NA,1077.545,1077.545,1077.545,1077.8948,NA,NA,NA,NA,NA,NA,NA,TRUE,2,0.4994,1074.5459,1077.5448,NA,NA,NA,NA,NA,28,39,0,78,78,40,1,2,79,"binary"
"F23C5455D9794CD9B96FBE715F906BF7",1,"0198f782-9f98-7e3d-9dcd-d25bd74ccc58","0198f767-55c9-7875-8d21-563b3c0b86ed","2025-08-29_15h26.54.193",NA,NA,1080.895,1080.895,1080.895,1081.2448,NA,NA,NA,NA,NA,NA,NA,TRUE,2,0.5524,1077.8957,1080.8949,NA,NA,NA,NA,NA,200,47,0,79,79,106,1,2,80,"binary"
"F23C5455D9794CD9B96FBE715F906BF7",1,"0198f782-9f98-7e3d-9dcd-d25bd74ccc58","0198f767-55c9-7875-8d21-563b3c0b86ed","2025-08-29_15h26.54.193",NA,NA,1084.2449,1084.2449,1084.2449,1084.5947,NA,NA,NA,NA,NA,NA,NA,TRUE,2,0.443,1081.246,1084.2448,NA,NA,NA,NA,NA,100,39,0,80,80,87,1,2,81,"binary"
"F23C5455D9794CD9B96FBE715F906BF7",1,"0198f782-9f98-7e3d-9dcd-d25bd74ccc58","0198f767-55c9-7875-8d21-563b3c0b86ed","2025-08-29_15h26.54.193",NA,NA,1087.5948,1087.5949,1087.5949,1087.945,NA,NA,NA,NA,NA,NA,NA,TRUE,1,0.5995,1084.5955,1087.5947,NA,NA,NA,NA,NA,14,25,0,81,81,18,1,2,82,"binary"
"F23C5455D9794CD9B96FBE715F906BF7",1,"0198f782-9f98-7e3d-9dcd-d25bd74ccc58","0198f767-55c9-7875-8d21-563b3c0b86ed","2025-08-29_15h26.54.193",NA,NA,1090.9451,1090.9455,1090.9456,1091.2949,NA,NA,NA,NA,NA,NA,NA,TRUE,2,0.7084,1087.9465,1090.9449,NA,NA,NA,NA,NA,14,35,0,82,82,22,1,2,83,"binary"
"F23C5455D9794CD9B96FBE715F906BF7",1,"0198f782-9f98-7e3d-9dcd-d25bd74ccc58","0198f767-55c9-7875-8d21-563b3c0b86ed","2025-08-29_15h26.54.193",NA,NA,1094.2952,1094.2952,1094.2952,1094.6448,NA,NA,NA,NA,NA,NA,NA,TRUE,2,0.7959,1091.2958,1094.2949,NA,NA,NA,NA,NA,21,29,0,83,83,26,1,2,84,"binary"
"F23C5455D9794CD9B96FBE715F906BF7",1,"0198f782-9f98-7e3d-9dcd-d25bd74ccc58","0198f767-55c9-7875-8d21-563b3c0b86ed","2025-08-29_15h26.54.193",NA,NA,1097.645,1097.645,1097.645,1097.9951,NA,NA,NA,NA,NA,NA,NA,TRUE,2,0.4687,1094.6457,1097.6449,NA,NA,NA,NA,NA,150,54,0,84,84,95,1,2,85,"binary"
"F23C5455D9794CD9B96FBE715F906BF7",1,"0198f782-9f98-7e3d-9dcd-d25bd74ccc58","0198f767-55c9-7875-8d21-563b3c0b86ed","2025-08-29_15h26.54.193",NA,NA,1100.9955,1100.9955,1100.9955,1101.3455,NA,NA,NA,NA,NA,NA,NA,TRUE,2,0.8204,1097.9969,1100.9954,NA,NA,NA,NA,NA,7,35,0,85,85,5,1,2,86,"binary"
"F23C5455D9794CD9B96FBE715F906BF7",1,"0198f782-9f98-7e3d-9dcd-d25bd74ccc58","0198f767-55c9-7875-8d21-563b3c0b86ed","2025-08-29_15h26.54.193",NA,NA,1104.3451,1104.3451,1104.3451,1104.6948,NA,NA,NA,NA,NA,NA,NA,TRUE,1,0.6085,1101.348,1104.3449,NA,NA,NA,NA,NA,14,26,0,86,86,19,1,2,87,"binary"
"F23C5455D9794CD9B96FBE715F906BF7",1,"0198f782-9f98-7e3d-9dcd-d25bd74ccc58","0198f767-55c9-7875-8d21-563b3c0b86ed","2025-08-29_15h26.54.193",NA,NA,1107.695,1107.695,1107.695,1108.0446,NA,NA,NA,NA,NA,NA,NA,TRUE,2,0.5958,1104.6956,1107.6949,NA,NA,NA,NA,NA,180,35,0,87,87,98,1,2,88,"binary"
"F23C5455D9794CD9B96FBE715F906BF7",1,"0198f782-9f98-7e3d-9dcd-d25bd74ccc58","0198f767-55c9-7875-8d21-563b3c0b86ed","2025-08-29_15h26.54.193",NA,NA,1111.0456,1111.0456,1111.0456,1111.3953,NA,NA,NA,NA,NA,NA,NA,TRUE,2,0.4833,1108.0459,1111.0454,NA,NA,NA,NA,NA,95,54,0,88,88,83,1,2,89,"binary"
"F23C5455D9794CD9B96FBE715F906BF7",1,"0198f782-9f98-7e3d-9dcd-d25bd74ccc58","0198f767-55c9-7875-8d21-563b3c0b86ed","2025-08-29_15h26.54.193",NA,NA,1114.3949,1114.3949,1114.395,1114.745,NA,NA,NA,NA,NA,NA,NA,TRUE,1,0.8407,1111.3971,1114.3948,NA,NA,NA,NA,NA,90,26,0,89,89,72,1,2,90,"binary"
"F23C5455D9794CD9B96FBE715F906BF7",1,"0198f782-9f98-7e3d-9dcd-d25bd74ccc58","0198f767-55c9-7875-8d21-563b3c0b86ed","2025-08-29_15h26.54.193",NA,NA,1117.7452,1117.7453,1117.7453,1118.0951,NA,NA,NA,NA,NA,NA,NA,TRUE,2,0.5316,1114.7462,1117.7451,NA,NA,NA,NA,NA,90,40,0,90,90,75,1,2,91,"binary"
"F23C5455D9794CD9B96FBE715F906BF7",1,"0198f782-9f98-7e3d-9dcd-d25bd74ccc58","0198f767-55c9-7875-8d21-563b3c0b86ed","2025-08-29_15h26.54.193",NA,NA,1121.0951,1121.0951,1121.0951,1121.4449,NA,NA,NA,NA,NA,NA,NA,TRUE,2,0.4902,1118.0969,1121.095,NA,NA,NA,NA,NA,40,33,0,91,91,49,1,2,92,"binary"
"F23C5455D9794CD9B96FBE715F906BF7",1,"0198f782-9f98-7e3d-9dcd-d25bd74ccc58","0198f767-55c9-7875-8d21-563b3c0b86ed","2025-08-29_15h26.54.193",NA,NA,1124.445,1124.4451,1124.4451,1124.7949,NA,NA,NA,NA,NA,NA,NA,TRUE,2,1.2448,1121.4464,1124.445,NA,NA,NA,NA,NA,95,31,0,92,92,78,1,2,93,"binary"
"F23C5455D9794CD9B96FBE715F906BF7",1,"0198f782-9f98-7e3d-9dcd-d25bd74ccc58","0198f767-55c9-7875-8d21-563b3c0b86ed","2025-08-29_15h26.54.193",NA,NA,1127.7952,1127.7952,1127.7953,1128.1448,NA,NA,NA,NA,NA,NA,NA,TRUE,2,0.6119,1124.7957,1127.795,NA,NA,NA,NA,NA,150,47,0,93,93,94,1,2,94,"binary"
"F23C5455D9794CD9B96FBE715F906BF7",1,"0198f782-9f98-7e3d-9dcd-d25bd74ccc58","0198f767-55c9-7875-8d21-563b3c0b86ed","2025-08-29_15h26.54.193",NA,NA,1131.1446,1131.1446,1131.1446,1131.4946,NA,NA,NA,NA,NA,NA,NA,TRUE,2,0.6066,1128.1467,1131.1445,NA,NA,NA,NA,NA,21,32,0,94,94,28,1,2,95,"binary"
"F23C5455D9794CD9B96FBE715F906BF7",1,"0198f782-9f98-7e3d-9dcd-d25bd74ccc58","0198f767-55c9-7875-8d21-563b3c0b86ed","2025-08-29_15h26.54.193",NA,NA,1134.4951,1134.4951,1134.4951,1134.8451,NA,NA,NA,NA,NA,NA,NA,TRUE,2,0.54,1131.4965,1134.495,NA,NA,NA,NA,NA,28,35,0,95,95,39,1,2,96,"binary"
"F23C5455D9794CD9B96FBE715F906BF7",1,"0198f782-9f98-7e3d-9dcd-d25bd74ccc58","0198f767-55c9-7875-8d21-563b3c0b86ed","2025-08-29_15h26.54.193",NA,NA,1137.8451,1137.8451,1137.8451,1138.195,NA,NA,NA,NA,NA,NA,NA,TRUE,2,0.457,1134.8465,1137.8449,NA,NA,NA,NA,NA,45,35,0,96,96,57,1,2,97,"binary"
"F23C5455D9794CD9B96FBE715F906BF7",1,"0198f782-9f98-7e3d-9dcd-d25bd74ccc58","0198f767-55c9-7875-8d21-563b3c0b86ed","2025-08-29_15h26.54.193",NA,NA,1141.1953,1141.1953,1141.1953,1141.5451,NA,NA,NA,NA,NA,NA,NA,TRUE,1,0.5693,1138.1957,1141.1952,NA,NA,NA,NA,NA,10,26,0,97,97,7,1,2,98,"binary"
"F23C5455D9794CD9B96FBE715F906BF7",1,"0198f782-9f98-7e3d-9dcd-d25bd74ccc58","0198f767-55c9-7875-8d21-563b3c0b86ed","2025-08-29_15h26.54.193",NA,NA,1144.5493,1144.5493,1144.5493,1144.8993,NA,NA,NA,NA,NA,NA,NA,TRUE,2,0.5834,1141.546,1144.5493,NA,NA,NA,NA,NA,21,30,0,98,98,27,1,2,99,"binary"
"F23C5455D9794CD9B96FBE715F906BF7",1,"0198f782-9f98-7e3d-9dcd-d25bd74ccc58","0198f767-55c9-7875-8d21-563b3c0b86ed","2025-08-29_15h26.54.193",NA,NA,1147.8994,1147.8995,1147.8995,1148.2413,NA,NA,NA,NA,NA,NA,NA,TRUE,2,0.4978,1144.9009,1147.8993,NA,NA,NA,NA,NA,25,46,0,99,99,35,1,2,100,"binary"
"F23C5455D9794CD9B96FBE715F906BF7",1,"0198f782-9f98-7e3d-9dcd-d25bd74ccc58","0198f767-55c9-7875-8d21-563b3c0b86ed","2025-08-29_15h26.54.193",NA,NA,1151.2492,1151.2492,1151.2492,1151.5986,NA,NA,NA,NA,NA,NA,NA,TRUE,2,0.5058,1148.2436,1151.2491,NA,NA,NA,NA,NA,7,25,0,100,100,0,1,2,101,"binary"
"F23C5455D9794CD9B96FBE715F906BF7",1,"0198f782-9f98-7e3d-9dcd-d25bd74ccc58","0198f767-55c9-7875-8d21-563b3c0b86ed","2025-08-29_15h26.54.193",NA,NA,1154.591,1154.591,1154.591,1154.9496,NA,NA,NA,NA,NA,NA,NA,TRUE,2,0.4756,1151.6002,1154.5909,NA,NA,NA,NA,NA,90,33,0,101,101,74,1,2,102,"binary"
"F23C5455D9794CD9B96FBE715F906BF7",1,"0198f782-9f98-7e3d-9dcd-d25bd74ccc58","0198f767-55c9-7875-8d21-563b3c0b86ed","2025-08-29_15h26.54.193",NA,NA,1157.9495,1157.9496,1157.9496,1158.2999,NA,NA,NA,NA,NA,NA,NA,TRUE,2,0.5424,1154.9523,1157.9494,NA,NA,NA,NA,NA,180,54,0,102,102,101,1,2,103,"binary"
"F23C5455D9794CD9B96FBE715F906BF7",1,"0198f782-9f98-7e3d-9dcd-d25bd74ccc58","0198f767-55c9-7875-8d21-563b3c0b86ed","2025-08-29_15h26.54.193",NA,NA,1161.2999,1161.2999,1161.2999,1161.6493,NA,NA,NA,NA,NA,NA,NA,TRUE,2,0.2516,1158.3018,1161.2997,NA,NA,NA,NA,NA,30,27,0,103,103,43,1,2,104,"binary"
"F23C5455D9794CD9B96FBE715F906BF7",1,"0198f782-9f98-7e3d-9dcd-d25bd74ccc58","0198f767-55c9-7875-8d21-563b3c0b86ed","2025-08-29_15h26.54.193",NA,NA,1164.6495,1164.6496,1164.6496,1164.9993,NA,NA,NA,NA,NA,NA,NA,TRUE,2,0.01,1161.6517,1164.6495,NA,NA,NA,NA,NA,10,25,0,104,104,6,1,2,105,"binary"
"F23C5455D9794CD9B96FBE715F906BF7",1,"0198f782-9f98-7e3d-9dcd-d25bd74ccc58","0198f767-55c9-7875-8d21-563b3c0b86ed","2025-08-29_15h26.54.193",NA,NA,1167.9995,1167.9996,1167.9996,1168.342,NA,NA,NA,NA,NA,NA,NA,TRUE,2,0.2029,1165.0005,1167.9994,NA,NA,NA,NA,NA,60,29,0,105,105,66,1,2,106,"binary"
"F23C5455D9794CD9B96FBE715F906BF7",1,"0198f782-9f98-7e3d-9dcd-d25bd74ccc58","0198f767-55c9-7875-8d21-563b3c0b86ed","2025-08-29_15h26.54.193",NA,NA,1171.3496,1171.3497,1171.3497,1171.6993,NA,NA,NA,NA,NA,NA,NA,TRUE,2,0.1404,1168.3442,1171.3495,NA,NA,NA,NA,NA,95,40,0,106,106,81,1,2,107,"binary"
"F23C5455D9794CD9B96FBE715F906BF7",1,"0198f782-9f98-7e3d-9dcd-d25bd74ccc58","0198f767-55c9-7875-8d21-563b3c0b86ed","2025-08-29_15h26.54.193",NA,NA,1174.6996,1174.6996,1174.6996,1175.0495,NA,NA,NA,NA,NA,NA,NA,TRUE,2,0.3063,1171.7003,1174.6994,NA,NA,NA,NA,NA,180,46,0,107,107,100,1,2,108,"binary"
