"participant","session","assignmentId","projectId","date","practiceTrial.started","practiceTrial.stopped","tooLate.started","tooLate.stopped","blank.started","blank.stopped","trials_pract.thisRepN","trials_pract.thisTrialN","trials_pract.thisN","trials_pract.thisIndex","trials_pract.ran","delay_pract","amount_pract","responseMade","key","rt","trial.started","trial.stopped","trials.thisRepN","trials.thisTrialN","trials.thisN","trials.thisIndex","trials.ran","delay","amount","trials_2.thisRepN","trials_2.thisTrialN","trials_2.thisN","trials_2.thisIndex","trials_2.ran","block","trial","taskType"
"FA5AE8A8FF3B4494B3E47C5CFBE56EE3",1,"01990a9f-0a1a-7ef5-8f97-99713a52b032","01990a83-7673-7c0c-a792-bbd8fbbaf673","2025-09-02_08h30.34.988",46.8647,49.8218,49.8228,50.0844,50.0846,50.1843,0,0,0,1,1,100,50,FALSE,NA,NA,NA,NA,NA,NA,NA,NA,NA,NA,NA,NA,NA,NA,NA,NA,0,1,"binary"
"FA5AE8A8FF3B4494B3E47C5CFBE56EE3",1,"01990a9f-0a1a-7ef5-8f97-99713a52b032","01990a83-7673-7c0c-a792-bbd8fbbaf673","2025-09-02_08h30.34.988",50.1876,53.1855,53.1856,53.1857,53.1859,53.5353,0,1,1,2,1,14,45,TRUE,1,1.9084,NA,NA,NA,NA,NA,NA,NA,NA,NA,NA,NA,NA,NA,NA,0,2,"binary"
"FA5AE8A8FF3B4494B3E47C5CFBE56EE3",1,"01990a9f-0a1a-7ef5-8f97-99713a52b032","01990a83-7673-7c0c-a792-bbd8fbbaf673","2025-09-02_08h30.34.988",53.5377,56.5366,56.5369,56.537,56.537,56.8866,0,2,2,4,1,30,40,TRUE,1,2.3529,NA,NA,NA,NA,NA,NA,NA,NA,NA,NA,NA,NA,NA,NA,0,3,"binary"
"FA5AE8A8FF3B4494B3E47C5CFBE56EE3",1,"01990a9f-0a1a-7ef5-8f97-99713a52b032","01990a83-7673-7c0c-a792-bbd8fbbaf673","2025-09-02_08h30.34.988",56.8892,59.8878,59.888,59.8881,59.8882,60.2379,0,3,3,3,1,3,27,TRUE,1,2.5601,NA,NA,NA,NA,NA,NA,NA,NA,NA,NA,NA,NA,NA,NA,0,4,"binary"
"FA5AE8A8FF3B4494B3E47C5CFBE56EE3",1,"01990a9f-0a1a-7ef5-8f97-99713a52b032","01990a83-7673-7c0c-a792-bbd8fbbaf673","2025-09-02_08h30.34.988",60.2403,63.2225,63.2227,63.2228,63.2228,63.5725,0,4,4,0,1,7,30,TRUE,2,1.6867,NA,NA,NA,NA,NA,NA,NA,NA,NA,NA,NA,NA,NA,NA,0,5,"binary"
"FA5AE8A8FF3B4494B3E47C5CFBE56EE3",1,"01990a9f-0a1a-7ef5-8f97-99713a52b032","01990a83-7673-7c0c-a792-bbd8fbbaf673","2025-09-02_08h30.34.988",NA,NA,92.0844,92.0846,92.0847,92.4207,NA,NA,NA,NA,NA,NA,NA,TRUE,1,2.0622,89.1145,92.084,0,0,0,81,1,95,40,NA,NA,NA,NA,NA,1,1,"binary"
"FA5AE8A8FF3B4494B3E47C5CFBE56EE3",1,"01990a9f-0a1a-7ef5-8f97-99713a52b032","01990a83-7673-7c0c-a792-bbd8fbbaf673","2025-09-02_08h30.34.988",NA,NA,95.4351,95.4353,95.4353,95.7879,NA,NA,NA,NA,NA,NA,NA,TRUE,1,1.2183,92.4231,95.4348,0,1,1,10,1,10,30,NA,NA,NA,NA,NA,1,2,"binary"
"FA5AE8A8FF3B4494B3E47C5CFBE56EE3",1,"01990a9f-0a1a-7ef5-8f97-99713a52b032","01990a83-7673-7c0c-a792-bbd8fbbaf673","2025-09-02_08h30.34.988",NA,NA,98.7728,98.7729,98.7729,99.1391,NA,NA,NA,NA,NA,NA,NA,TRUE,1,2.3221,95.7905,98.7726,0,2,2,35,1,25,46,NA,NA,NA,NA,NA,1,3,"binary"
"FA5AE8A8FF3B4494B3E47C5CFBE56EE3",1,"01990a9f-0a1a-7ef5-8f97-99713a52b032","01990a83-7673-7c0c-a792-bbd8fbbaf673","2025-09-02_08h30.34.988",NA,NA,102.1247,102.1248,102.1248,102.4708,NA,NA,NA,NA,NA,NA,NA,TRUE,1,1.6513,99.1412,102.1245,0,3,3,78,1,95,31,NA,NA,NA,NA,NA,1,4,"binary"
"FA5AE8A8FF3B4494B3E47C5CFBE56EE3",1,"01990a9f-0a1a-7ef5-8f97-99713a52b032","01990a83-7673-7c0c-a792-bbd8fbbaf673","2025-09-02_08h30.34.988",NA,NA,105.4722,105.4722,105.4722,105.8222,NA,NA,NA,NA,NA,NA,NA,TRUE,2,2.0378,102.4727,105.472,0,4,4,22,1,14,35,NA,NA,NA,NA,NA,1,5,"binary"
"FA5AE8A8FF3B4494B3E47C5CFBE56EE3",1,"01990a9f-0a1a-7ef5-8f97-99713a52b032","01990a83-7673-7c0c-a792-bbd8fbbaf673","2025-09-02_08h30.34.988",NA,NA,108.8274,108.8274,108.8274,109.1732,NA,NA,NA,NA,NA,NA,NA,TRUE,1,1.5973,105.8247,108.8272,0,5,5,102,1,200,26,NA,NA,NA,NA,NA,1,6,"binary"
"FA5AE8A8FF3B4494B3E47C5CFBE56EE3",1,"01990a9f-0a1a-7ef5-8f97-99713a52b032","01990a83-7673-7c0c-a792-bbd8fbbaf673","2025-09-02_08h30.34.988",NA,NA,112.179,112.179,112.179,112.5247,NA,NA,NA,NA,NA,NA,NA,TRUE,1,2.2813,109.1752,112.1787,0,6,6,48,1,40,27,NA,NA,NA,NA,NA,1,7,"binary"
"FA5AE8A8FF3B4494B3E47C5CFBE56EE3",1,"01990a9f-0a1a-7ef5-8f97-99713a52b032","01990a83-7673-7c0c-a792-bbd8fbbaf673","2025-09-02_08h30.34.988",NA,NA,115.5261,115.5261,115.5261,115.8759,NA,NA,NA,NA,NA,NA,NA,TRUE,1,1.2846,112.5272,115.5258,0,7,7,94,1,150,47,NA,NA,NA,NA,NA,1,8,"binary"
"FA5AE8A8FF3B4494B3E47C5CFBE56EE3",1,"01990a9f-0a1a-7ef5-8f97-99713a52b032","01990a83-7673-7c0c-a792-bbd8fbbaf673","2025-09-02_08h30.34.988",NA,NA,118.8815,118.8815,118.8816,119.2306,NA,NA,NA,NA,NA,NA,NA,TRUE,2,2.0309,115.8785,118.8809,0,8,8,6,1,10,25,NA,NA,NA,NA,NA,1,9,"binary"
"FA5AE8A8FF3B4494B3E47C5CFBE56EE3",1,"01990a9f-0a1a-7ef5-8f97-99713a52b032","01990a83-7673-7c0c-a792-bbd8fbbaf673","2025-09-02_08h30.34.988",NA,NA,122.2287,122.2288,122.2288,122.5813,NA,NA,NA,NA,NA,NA,NA,TRUE,1,2.3015,119.2327,122.2286,0,9,9,24,1,21,26,NA,NA,NA,NA,NA,1,10,"binary"
"FA5AE8A8FF3B4494B3E47C5CFBE56EE3",1,"01990a9f-0a1a-7ef5-8f97-99713a52b032","01990a83-7673-7c0c-a792-bbd8fbbaf673","2025-09-02_08h30.34.988",NA,NA,125.5837,125.5838,125.5838,125.9298,NA,NA,NA,NA,NA,NA,NA,TRUE,2,2.5142,122.5834,125.5835,0,10,10,83,1,95,54,NA,NA,NA,NA,NA,1,11,"binary"
"FA5AE8A8FF3B4494B3E47C5CFBE56EE3",1,"01990a9f-0a1a-7ef5-8f97-99713a52b032","01990a83-7673-7c0c-a792-bbd8fbbaf673","2025-09-02_08h30.34.988",NA,NA,128.9311,128.9312,128.9312,129.2812,NA,NA,NA,NA,NA,NA,NA,TRUE,1,1.3333,125.9318,128.9309,0,11,11,43,1,30,27,NA,NA,NA,NA,NA,1,12,"binary"
"FA5AE8A8FF3B4494B3E47C5CFBE56EE3",1,"01990a9f-0a1a-7ef5-8f97-99713a52b032","01990a83-7673-7c0c-a792-bbd8fbbaf673","2025-09-02_08h30.34.988",NA,NA,132.2824,132.2825,132.2825,132.6325,NA,NA,NA,NA,NA,NA,NA,TRUE,1,0.884,129.2833,132.2824,0,12,12,30,1,25,27,NA,NA,NA,NA,NA,1,13,"binary"
"FA5AE8A8FF3B4494B3E47C5CFBE56EE3",1,"01990a9f-0a1a-7ef5-8f97-99713a52b032","01990a83-7673-7c0c-a792-bbd8fbbaf673","2025-09-02_08h30.34.988",NA,NA,135.6211,135.6212,135.6212,135.9836,NA,NA,NA,NA,NA,NA,NA,TRUE,1,1.7007,132.6345,135.621,0,13,13,80,1,95,35,NA,NA,NA,NA,NA,1,14,"binary"
"FA5AE8A8FF3B4494B3E47C5CFBE56EE3",1,"01990a9f-0a1a-7ef5-8f97-99713a52b032","01990a83-7673-7c0c-a792-bbd8fbbaf673","2025-09-02_08h30.34.988",NA,NA,138.985,138.9852,138.9852,139.3348,NA,NA,NA,NA,NA,NA,NA,TRUE,1,1.1176,135.9865,138.9849,0,14,14,37,1,28,28,NA,NA,NA,NA,NA,1,15,"binary"
"FA5AE8A8FF3B4494B3E47C5CFBE56EE3",1,"01990a9f-0a1a-7ef5-8f97-99713a52b032","01990a83-7673-7c0c-a792-bbd8fbbaf673","2025-09-02_08h30.34.988",NA,NA,142.3397,142.3398,142.3398,142.6893,NA,NA,NA,NA,NA,NA,NA,TRUE,1,2.2171,139.3368,142.3396,0,15,15,61,1,50,30,NA,NA,NA,NA,NA,1,16,"binary"
"FA5AE8A8FF3B4494B3E47C5CFBE56EE3",1,"01990a9f-0a1a-7ef5-8f97-99713a52b032","01990a83-7673-7c0c-a792-bbd8fbbaf673","2025-09-02_08h30.34.988",NA,NA,145.6708,145.6709,145.671,146.0244,NA,NA,NA,NA,NA,NA,NA,TRUE,1,2.5293,142.6909,145.6707,0,16,16,53,1,40,54,NA,NA,NA,NA,NA,1,17,"binary"
"FA5AE8A8FF3B4494B3E47C5CFBE56EE3",1,"01990a9f-0a1a-7ef5-8f97-99713a52b032","01990a83-7673-7c0c-a792-bbd8fbbaf673","2025-09-02_08h30.34.988",NA,NA,149.022,149.0221,149.0221,149.3758,NA,NA,NA,NA,NA,NA,NA,TRUE,1,1.7182,146.0266,149.0219,0,17,17,89,1,100,54,NA,NA,NA,NA,NA,1,18,"binary"
"FA5AE8A8FF3B4494B3E47C5CFBE56EE3",1,"01990a9f-0a1a-7ef5-8f97-99713a52b032","01990a83-7673-7c0c-a792-bbd8fbbaf673","2025-09-02_08h30.34.988",NA,NA,152.3733,152.3734,152.3734,152.7262,NA,NA,NA,NA,NA,NA,NA,TRUE,1,1.3976,149.3779,152.3732,0,18,18,41,1,28,46,NA,NA,NA,NA,NA,1,19,"binary"
"FA5AE8A8FF3B4494B3E47C5CFBE56EE3",1,"01990a9f-0a1a-7ef5-8f97-99713a52b032","01990a83-7673-7c0c-a792-bbd8fbbaf673","2025-09-02_08h30.34.988",NA,NA,155.7249,155.7249,155.7249,156.0744,NA,NA,NA,NA,NA,NA,NA,TRUE,1,1.4638,152.7284,155.7247,0,19,19,64,1,50,46,NA,NA,NA,NA,NA,1,20,"binary"
"FA5AE8A8FF3B4494B3E47C5CFBE56EE3",1,"01990a9f-0a1a-7ef5-8f97-99713a52b032","01990a83-7673-7c0c-a792-bbd8fbbaf673","2025-09-02_08h30.34.988",NA,NA,159.0759,159.0759,159.076,159.4259,NA,NA,NA,NA,NA,NA,NA,TRUE,2,2.7528,156.0764,159.0757,0,20,20,59,1,45,46,NA,NA,NA,NA,NA,1,21,"binary"
"FA5AE8A8FF3B4494B3E47C5CFBE56EE3",1,"01990a9f-0a1a-7ef5-8f97-99713a52b032","01990a83-7673-7c0c-a792-bbd8fbbaf673","2025-09-02_08h30.34.988",NA,NA,162.4314,162.4315,162.4315,162.7771,NA,NA,NA,NA,NA,NA,NA,TRUE,1,1.2862,159.4284,162.4309,0,21,21,98,1,180,35,NA,NA,NA,NA,NA,1,22,"binary"
"FA5AE8A8FF3B4494B3E47C5CFBE56EE3",1,"01990a9f-0a1a-7ef5-8f97-99713a52b032","01990a83-7673-7c0c-a792-bbd8fbbaf673","2025-09-02_08h30.34.988",NA,NA,165.7787,165.7787,165.7787,166.1284,NA,NA,NA,NA,NA,NA,NA,TRUE,2,1.4971,162.7799,165.7784,0,22,22,77,1,90,54,NA,NA,NA,NA,NA,1,23,"binary"
"FA5AE8A8FF3B4494B3E47C5CFBE56EE3",1,"01990a9f-0a1a-7ef5-8f97-99713a52b032","01990a83-7673-7c0c-a792-bbd8fbbaf673","2025-09-02_08h30.34.988",NA,NA,169.1338,169.1339,169.134,169.4797,NA,NA,NA,NA,NA,NA,NA,TRUE,1,0.8694,166.1304,169.1336,0,23,23,105,1,200,39,NA,NA,NA,NA,NA,1,24,"binary"
"FA5AE8A8FF3B4494B3E47C5CFBE56EE3",1,"01990a9f-0a1a-7ef5-8f97-99713a52b032","01990a83-7673-7c0c-a792-bbd8fbbaf673","2025-09-02_08h30.34.988",NA,NA,172.4811,172.4811,172.4811,172.831,NA,NA,NA,NA,NA,NA,NA,TRUE,1,1.4678,169.4822,172.481,0,24,24,36,1,28,26,NA,NA,NA,NA,NA,1,25,"binary"
"FA5AE8A8FF3B4494B3E47C5CFBE56EE3",1,"01990a9f-0a1a-7ef5-8f97-99713a52b032","01990a83-7673-7c0c-a792-bbd8fbbaf673","2025-09-02_08h30.34.988",NA,NA,175.8323,175.8323,175.8323,176.1821,NA,NA,NA,NA,NA,NA,NA,TRUE,2,1.5068,172.8334,175.8321,0,25,25,2,1,7,28,NA,NA,NA,NA,NA,1,26,"binary"
"FA5AE8A8FF3B4494B3E47C5CFBE56EE3",1,"01990a9f-0a1a-7ef5-8f97-99713a52b032","01990a83-7673-7c0c-a792-bbd8fbbaf673","2025-09-02_08h30.34.988",NA,NA,179.171,179.171,179.171,179.5205,NA,NA,NA,NA,NA,NA,NA,TRUE,1,1.6606,176.1843,179.1707,0,26,26,46,1,30,32,NA,NA,NA,NA,NA,1,27,"binary"
"FA5AE8A8FF3B4494B3E47C5CFBE56EE3",1,"01990a9f-0a1a-7ef5-8f97-99713a52b032","01990a83-7673-7c0c-a792-bbd8fbbaf673","2025-09-02_08h30.34.988",NA,NA,182.5218,182.5219,182.5219,182.8851,NA,NA,NA,NA,NA,NA,NA,TRUE,1,1.1695,179.5228,182.5216,0,27,27,14,1,12,28,NA,NA,NA,NA,NA,1,28,"binary"
"FA5AE8A8FF3B4494B3E47C5CFBE56EE3",1,"01990a9f-0a1a-7ef5-8f97-99713a52b032","01990a83-7673-7c0c-a792-bbd8fbbaf673","2025-09-02_08h30.34.988",NA,NA,185.8735,185.8736,185.8736,186.236,NA,NA,NA,NA,NA,NA,NA,TRUE,2,1.301,182.8871,185.8733,0,28,28,15,1,12,31,NA,NA,NA,NA,NA,1,29,"binary"
"FA5AE8A8FF3B4494B3E47C5CFBE56EE3",1,"01990a9f-0a1a-7ef5-8f97-99713a52b032","01990a83-7673-7c0c-a792-bbd8fbbaf673","2025-09-02_08h30.34.988",NA,NA,189.2248,189.2249,189.2249,189.5707,NA,NA,NA,NA,NA,NA,NA,TRUE,2,1.9015,186.238,189.2247,0,29,29,33,1,25,33,NA,NA,NA,NA,NA,1,30,"binary"
"FA5AE8A8FF3B4494B3E47C5CFBE56EE3",1,"01990a9f-0a1a-7ef5-8f97-99713a52b032","01990a83-7673-7c0c-a792-bbd8fbbaf673","2025-09-02_08h30.34.988",NA,NA,192.5749,192.5749,192.575,192.9221,NA,NA,NA,NA,NA,NA,NA,TRUE,1,2.1669,189.5729,192.5746,0,30,30,0,1,7,25,NA,NA,NA,NA,NA,1,31,"binary"
"FA5AE8A8FF3B4494B3E47C5CFBE56EE3",1,"01990a9f-0a1a-7ef5-8f97-99713a52b032","01990a83-7673-7c0c-a792-bbd8fbbaf673","2025-09-02_08h30.34.988",NA,NA,195.9232,195.9232,195.9232,196.2771,NA,NA,NA,NA,NA,NA,NA,TRUE,1,2.3983,192.9246,195.923,0,31,31,71,1,60,54,NA,NA,NA,NA,NA,1,32,"binary"
"FA5AE8A8FF3B4494B3E47C5CFBE56EE3",1,"01990a9f-0a1a-7ef5-8f97-99713a52b032","01990a83-7673-7c0c-a792-bbd8fbbaf673","2025-09-02_08h30.34.988",NA,NA,199.2746,199.2746,199.2747,199.6246,NA,NA,NA,NA,NA,NA,NA,TRUE,1,1.0798,196.2794,199.2745,0,32,32,103,1,200,28,NA,NA,NA,NA,NA,1,33,"binary"
"FA5AE8A8FF3B4494B3E47C5CFBE56EE3",1,"01990a9f-0a1a-7ef5-8f97-99713a52b032","01990a83-7673-7c0c-a792-bbd8fbbaf673","2025-09-02_08h30.34.988",NA,NA,202.6259,202.6259,202.6259,202.9759,NA,NA,NA,NA,NA,NA,NA,TRUE,1,1.7432,199.6265,202.6256,0,33,33,9,1,10,29,NA,NA,NA,NA,NA,1,34,"binary"
"FA5AE8A8FF3B4494B3E47C5CFBE56EE3",1,"01990a9f-0a1a-7ef5-8f97-99713a52b032","01990a83-7673-7c0c-a792-bbd8fbbaf673","2025-09-02_08h30.34.988",NA,NA,205.9805,205.9805,205.9806,206.3272,NA,NA,NA,NA,NA,NA,NA,TRUE,2,1.4304,202.9779,205.9802,0,34,34,16,1,12,33,NA,NA,NA,NA,NA,1,35,"binary"
"FA5AE8A8FF3B4494B3E47C5CFBE56EE3",1,"01990a9f-0a1a-7ef5-8f97-99713a52b032","01990a83-7673-7c0c-a792-bbd8fbbaf673","2025-09-02_08h30.34.988",NA,NA,209.3283,209.3283,209.3283,209.6786,NA,NA,NA,NA,NA,NA,NA,TRUE,1,0.7677,206.3295,209.3282,0,35,35,88,1,100,46,NA,NA,NA,NA,NA,1,36,"binary"
"FA5AE8A8FF3B4494B3E47C5CFBE56EE3",1,"01990a9f-0a1a-7ef5-8f97-99713a52b032","01990a83-7673-7c0c-a792-bbd8fbbaf673","2025-09-02_08h30.34.988",NA,NA,212.6837,212.6839,212.6839,213.03,NA,NA,NA,NA,NA,NA,NA,TRUE,1,1.5967,209.6816,212.6836,0,36,36,45,1,30,30,NA,NA,NA,NA,NA,1,37,"binary"
"FA5AE8A8FF3B4494B3E47C5CFBE56EE3",1,"01990a9f-0a1a-7ef5-8f97-99713a52b032","01990a83-7673-7c0c-a792-bbd8fbbaf673","2025-09-02_08h30.34.988",NA,NA,216.0309,216.031,216.0311,216.3809,NA,NA,NA,NA,NA,NA,NA,TRUE,1,1.0637,213.0322,216.0308,0,37,37,73,1,90,30,NA,NA,NA,NA,NA,1,38,"binary"
"FA5AE8A8FF3B4494B3E47C5CFBE56EE3",1,"01990a9f-0a1a-7ef5-8f97-99713a52b032","01990a83-7673-7c0c-a792-bbd8fbbaf673","2025-09-02_08h30.34.988",NA,NA,219.3852,219.3852,219.3853,219.7323,NA,NA,NA,NA,NA,NA,NA,TRUE,1,1.5044,216.3828,219.385,0,38,38,87,1,100,39,NA,NA,NA,NA,NA,1,39,"binary"
"FA5AE8A8FF3B4494B3E47C5CFBE56EE3",1,"01990a9f-0a1a-7ef5-8f97-99713a52b032","01990a83-7673-7c0c-a792-bbd8fbbaf673","2025-09-02_08h30.34.988",NA,NA,222.7208,222.7208,222.7208,223.0837,NA,NA,NA,NA,NA,NA,NA,TRUE,1,1.263,219.735,222.7205,0,39,39,7,1,10,26,NA,NA,NA,NA,NA,1,40,"binary"
"FA5AE8A8FF3B4494B3E47C5CFBE56EE3",1,"01990a9f-0a1a-7ef5-8f97-99713a52b032","01990a83-7673-7c0c-a792-bbd8fbbaf673","2025-09-02_08h30.34.988",NA,NA,226.0721,226.0721,226.0721,226.4217,NA,NA,NA,NA,NA,NA,NA,TRUE,1,2.3253,223.0861,226.072,0,40,40,20,1,14,28,NA,NA,NA,NA,NA,1,41,"binary"
"FA5AE8A8FF3B4494B3E47C5CFBE56EE3",1,"01990a9f-0a1a-7ef5-8f97-99713a52b032","01990a83-7673-7c0c-a792-bbd8fbbaf673","2025-09-02_08h30.34.988",NA,NA,229.4398,229.4399,229.4399,229.786,NA,NA,NA,NA,NA,NA,NA,TRUE,1,2.4798,226.4238,229.4396,0,41,41,99,1,180,39,NA,NA,NA,NA,NA,1,42,"binary"
"FA5AE8A8FF3B4494B3E47C5CFBE56EE3",1,"01990a9f-0a1a-7ef5-8f97-99713a52b032","01990a83-7673-7c0c-a792-bbd8fbbaf673","2025-09-02_08h30.34.988",NA,NA,232.7754,232.7754,232.7755,233.1246,NA,NA,NA,NA,NA,NA,NA,TRUE,1,1.1842,229.7886,232.7752,0,42,42,65,1,50,54,NA,NA,NA,NA,NA,1,43,"binary"
"FA5AE8A8FF3B4494B3E47C5CFBE56EE3",1,"01990a9f-0a1a-7ef5-8f97-99713a52b032","01990a83-7673-7c0c-a792-bbd8fbbaf673","2025-09-02_08h30.34.988",NA,NA,236.1222,236.1222,236.1222,236.475,NA,NA,NA,NA,NA,NA,NA,TRUE,1,1.2253,233.1266,236.1219,0,43,43,27,1,21,30,NA,NA,NA,NA,NA,1,44,"binary"
"FA5AE8A8FF3B4494B3E47C5CFBE56EE3",1,"01990a9f-0a1a-7ef5-8f97-99713a52b032","01990a83-7673-7c0c-a792-bbd8fbbaf673","2025-09-02_08h30.34.988",NA,NA,239.4769,239.4769,239.477,239.8233,NA,NA,NA,NA,NA,NA,NA,TRUE,1,1.0905,236.4769,239.4767,0,44,44,91,1,150,33,NA,NA,NA,NA,NA,1,45,"binary"
"FA5AE8A8FF3B4494B3E47C5CFBE56EE3",1,"01990a9f-0a1a-7ef5-8f97-99713a52b032","01990a83-7673-7c0c-a792-bbd8fbbaf673","2025-09-02_08h30.34.988",NA,NA,242.8246,242.8246,242.8246,243.1744,NA,NA,NA,NA,NA,NA,NA,TRUE,1,1.6639,239.8252,242.8244,0,45,45,60,1,50,27,NA,NA,NA,NA,NA,1,46,"binary"
"FA5AE8A8FF3B4494B3E47C5CFBE56EE3",1,"01990a9f-0a1a-7ef5-8f97-99713a52b032","01990a83-7673-7c0c-a792-bbd8fbbaf673","2025-09-02_08h30.34.988",NA,NA,246.1791,246.1791,246.1791,246.5258,NA,NA,NA,NA,NA,NA,NA,TRUE,1,1.0145,243.1764,246.1789,0,46,46,28,1,21,32,NA,NA,NA,NA,NA,1,47,"binary"
"FA5AE8A8FF3B4494B3E47C5CFBE56EE3",1,"01990a9f-0a1a-7ef5-8f97-99713a52b032","01990a83-7673-7c0c-a792-bbd8fbbaf673","2025-09-02_08h30.34.988",NA,NA,249.5271,249.5272,249.5273,249.8809,NA,NA,NA,NA,NA,NA,NA,TRUE,1,2.3846,246.5278,249.5269,0,47,47,18,1,14,25,NA,NA,NA,NA,NA,1,48,"binary"
"FA5AE8A8FF3B4494B3E47C5CFBE56EE3",1,"01990a9f-0a1a-7ef5-8f97-99713a52b032","01990a83-7673-7c0c-a792-bbd8fbbaf673","2025-09-02_08h30.34.988",NA,NA,252.8818,252.8818,252.8819,253.2286,NA,NA,NA,NA,NA,NA,NA,TRUE,1,1.5092,249.883,252.8816,0,48,48,57,1,45,35,NA,NA,NA,NA,NA,1,49,"binary"
"FA5AE8A8FF3B4494B3E47C5CFBE56EE3",1,"01990a9f-0a1a-7ef5-8f97-99713a52b032","01990a83-7673-7c0c-a792-bbd8fbbaf673","2025-09-02_08h30.34.988",NA,NA,256.2325,256.2325,256.2325,256.5796,NA,NA,NA,NA,NA,NA,NA,TRUE,1,0.7086,253.2305,256.2323,0,49,49,106,1,200,47,NA,NA,NA,NA,NA,1,50,"binary"
"FA5AE8A8FF3B4494B3E47C5CFBE56EE3",1,"01990a9f-0a1a-7ef5-8f97-99713a52b032","01990a83-7673-7c0c-a792-bbd8fbbaf673","2025-09-02_08h30.34.988",NA,NA,259.581,259.5811,259.5811,259.9343,NA,NA,NA,NA,NA,NA,NA,TRUE,1,0.7702,256.5815,259.5809,0,50,50,107,1,200,54,NA,NA,NA,NA,NA,1,51,"binary"
"FA5AE8A8FF3B4494B3E47C5CFBE56EE3",1,"01990a9f-0a1a-7ef5-8f97-99713a52b032","01990a83-7673-7c0c-a792-bbd8fbbaf673","2025-09-02_08h30.34.988",NA,NA,262.9325,262.9325,262.9325,263.282,NA,NA,NA,NA,NA,NA,NA,TRUE,1,0.6341,259.9364,262.9322,0,51,51,62,1,50,35,NA,NA,NA,NA,NA,1,52,"binary"
"FA5AE8A8FF3B4494B3E47C5CFBE56EE3",1,"01990a9f-0a1a-7ef5-8f97-99713a52b032","01990a83-7673-7c0c-a792-bbd8fbbaf673","2025-09-02_08h30.34.988",NA,NA,266.2835,266.2837,266.2837,266.6337,NA,NA,NA,NA,NA,NA,NA,TRUE,1,0.9002,263.2847,266.2833,0,52,52,40,1,28,39,NA,NA,NA,NA,NA,1,53,"binary"
"FA5AE8A8FF3B4494B3E47C5CFBE56EE3",1,"01990a9f-0a1a-7ef5-8f97-99713a52b032","01990a83-7673-7c0c-a792-bbd8fbbaf673","2025-09-02_08h30.34.988",NA,NA,269.6381,269.6382,269.6382,269.9712,NA,NA,NA,NA,NA,NA,NA,TRUE,1,0.6903,266.6359,269.638,0,53,53,85,1,100,31,NA,NA,NA,NA,NA,1,54,"binary"
"FA5AE8A8FF3B4494B3E47C5CFBE56EE3",1,"01990a9f-0a1a-7ef5-8f97-99713a52b032","01990a83-7673-7c0c-a792-bbd8fbbaf673","2025-09-02_08h30.34.988",NA,NA,272.9861,272.9863,272.9863,273.3233,NA,NA,NA,NA,NA,NA,NA,TRUE,1,0.6954,269.9732,272.9859,0,54,54,82,1,95,47,NA,NA,NA,NA,NA,1,55,"binary"
"FA5AE8A8FF3B4494B3E47C5CFBE56EE3",1,"01990a9f-0a1a-7ef5-8f97-99713a52b032","01990a83-7673-7c0c-a792-bbd8fbbaf673","2025-09-02_08h30.34.988",NA,NA,276.3248,276.3248,276.3249,276.6705,NA,NA,NA,NA,NA,NA,NA,TRUE,1,1.4139,273.3252,276.3246,0,55,55,39,1,28,35,NA,NA,NA,NA,NA,1,56,"binary"
"FA5AE8A8FF3B4494B3E47C5CFBE56EE3",1,"01990a9f-0a1a-7ef5-8f97-99713a52b032","01990a83-7673-7c0c-a792-bbd8fbbaf673","2025-09-02_08h30.34.988",NA,NA,279.6717,279.6717,279.6717,280.0254,NA,NA,NA,NA,NA,NA,NA,TRUE,1,0.5021,276.6724,279.6716,0,56,56,63,1,50,40,NA,NA,NA,NA,NA,1,57,"binary"
"FA5AE8A8FF3B4494B3E47C5CFBE56EE3",1,"01990a9f-0a1a-7ef5-8f97-99713a52b032","01990a83-7673-7c0c-a792-bbd8fbbaf673","2025-09-02_08h30.34.988",NA,NA,283.0262,283.0262,283.0264,283.3736,NA,NA,NA,NA,NA,NA,NA,TRUE,1,1.6167,280.0275,283.026,0,57,57,25,1,21,27,NA,NA,NA,NA,NA,1,58,"binary"
"FA5AE8A8FF3B4494B3E47C5CFBE56EE3",1,"01990a9f-0a1a-7ef5-8f97-99713a52b032","01990a83-7673-7c0c-a792-bbd8fbbaf673","2025-09-02_08h30.34.988",NA,NA,286.3785,286.3785,286.3785,286.7243,NA,NA,NA,NA,NA,NA,NA,TRUE,1,0.7758,283.3762,286.3783,0,58,58,58,1,45,40,NA,NA,NA,NA,NA,1,59,"binary"
"FA5AE8A8FF3B4494B3E47C5CFBE56EE3",1,"01990a9f-0a1a-7ef5-8f97-99713a52b032","01990a83-7673-7c0c-a792-bbd8fbbaf673","2025-09-02_08h30.34.988",NA,NA,289.7258,289.7258,289.7259,290.0758,NA,NA,NA,NA,NA,NA,NA,TRUE,1,0.8182,286.7263,289.7256,0,59,59,69,1,60,40,NA,NA,NA,NA,NA,1,60,"binary"
"FA5AE8A8FF3B4494B3E47C5CFBE56EE3",1,"01990a9f-0a1a-7ef5-8f97-99713a52b032","01990a83-7673-7c0c-a792-bbd8fbbaf673","2025-09-02_08h30.34.988",NA,NA,293.0772,293.0772,293.0772,293.4269,NA,NA,NA,NA,NA,NA,NA,TRUE,1,0.647,290.0777,293.077,0,60,60,17,1,12,35,NA,NA,NA,NA,NA,1,61,"binary"
"FA5AE8A8FF3B4494B3E47C5CFBE56EE3",1,"01990a9f-0a1a-7ef5-8f97-99713a52b032","01990a83-7673-7c0c-a792-bbd8fbbaf673","2025-09-02_08h30.34.988",NA,NA,296.4321,296.4321,296.4322,296.7782,NA,NA,NA,NA,NA,NA,NA,TRUE,1,0.883,293.429,296.4318,0,61,61,72,1,90,26,NA,NA,NA,NA,NA,1,62,"binary"
"FA5AE8A8FF3B4494B3E47C5CFBE56EE3",1,"01990a9f-0a1a-7ef5-8f97-99713a52b032","01990a83-7673-7c0c-a792-bbd8fbbaf673","2025-09-02_08h30.34.988",NA,NA,299.7796,299.7797,299.7797,300.1294,NA,NA,NA,NA,NA,NA,NA,TRUE,1,1.3989,296.7801,299.7794,0,62,62,21,1,14,32,NA,NA,NA,NA,NA,1,63,"binary"
"FA5AE8A8FF3B4494B3E47C5CFBE56EE3",1,"01990a9f-0a1a-7ef5-8f97-99713a52b032","01990a83-7673-7c0c-a792-bbd8fbbaf673","2025-09-02_08h30.34.988",NA,NA,303.1351,303.1352,303.1352,303.4806,NA,NA,NA,NA,NA,NA,NA,TRUE,1,0.5539,300.1314,303.1349,0,63,63,67,1,60,33,NA,NA,NA,NA,NA,1,64,"binary"
"FA5AE8A8FF3B4494B3E47C5CFBE56EE3",1,"01990a9f-0a1a-7ef5-8f97-99713a52b032","01990a83-7673-7c0c-a792-bbd8fbbaf673","2025-09-02_08h30.34.988",NA,NA,306.4822,306.4822,306.4823,306.8322,NA,NA,NA,NA,NA,NA,NA,TRUE,1,0.7505,303.4828,306.482,0,64,64,74,1,90,33,NA,NA,NA,NA,NA,1,65,"binary"
"FA5AE8A8FF3B4494B3E47C5CFBE56EE3",1,"01990a9f-0a1a-7ef5-8f97-99713a52b032","01990a83-7673-7c0c-a792-bbd8fbbaf673","2025-09-02_08h30.34.988",NA,NA,309.8373,309.8374,309.8374,310.1835,NA,NA,NA,NA,NA,NA,NA,TRUE,1,0.9545,306.8345,309.837,0,65,65,96,1,180,27,NA,NA,NA,NA,NA,1,66,"binary"
"FA5AE8A8FF3B4494B3E47C5CFBE56EE3",1,"01990a9f-0a1a-7ef5-8f97-99713a52b032","01990a83-7673-7c0c-a792-bbd8fbbaf673","2025-09-02_08h30.34.988",NA,NA,313.1715,313.1715,313.1715,313.5384,NA,NA,NA,NA,NA,NA,NA,TRUE,1,0.8166,310.186,313.1713,0,66,66,86,1,100,38,NA,NA,NA,NA,NA,1,67,"binary"
"FA5AE8A8FF3B4494B3E47C5CFBE56EE3",1,"01990a9f-0a1a-7ef5-8f97-99713a52b032","01990a83-7673-7c0c-a792-bbd8fbbaf673","2025-09-02_08h30.34.988",NA,NA,316.5232,316.5232,316.5232,316.8728,NA,NA,NA,NA,NA,NA,NA,TRUE,1,1.0545,313.5406,316.5231,0,67,67,66,1,60,29,NA,NA,NA,NA,NA,1,68,"binary"
"FA5AE8A8FF3B4494B3E47C5CFBE56EE3",1,"01990a9f-0a1a-7ef5-8f97-99713a52b032","01990a83-7673-7c0c-a792-bbd8fbbaf673","2025-09-02_08h30.34.988",NA,NA,319.8709,319.8709,319.8709,320.2207,NA,NA,NA,NA,NA,NA,NA,TRUE,1,0.9,316.8749,319.8707,0,68,68,54,1,45,26,NA,NA,NA,NA,NA,1,69,"binary"
"FA5AE8A8FF3B4494B3E47C5CFBE56EE3",1,"01990a9f-0a1a-7ef5-8f97-99713a52b032","01990a83-7673-7c0c-a792-bbd8fbbaf673","2025-09-02_08h30.34.988",NA,NA,323.2251,323.2252,323.2252,323.5718,NA,NA,NA,NA,NA,NA,NA,TRUE,1,1.1638,320.2227,323.2249,0,69,69,50,1,40,35,NA,NA,NA,NA,NA,1,70,"binary"
"FA5AE8A8FF3B4494B3E47C5CFBE56EE3",1,"01990a9f-0a1a-7ef5-8f97-99713a52b032","01990a83-7673-7c0c-a792-bbd8fbbaf673","2025-09-02_08h30.34.988",NA,NA,326.5733,326.5734,326.5734,326.9266,NA,NA,NA,NA,NA,NA,NA,TRUE,1,0.7309,323.5742,326.5731,0,70,70,90,1,150,31,NA,NA,NA,NA,NA,1,71,"binary"
"FA5AE8A8FF3B4494B3E47C5CFBE56EE3",1,"01990a9f-0a1a-7ef5-8f97-99713a52b032","01990a83-7673-7c0c-a792-bbd8fbbaf673","2025-09-02_08h30.34.988",NA,NA,329.9279,329.9279,329.9279,330.2744,NA,NA,NA,NA,NA,NA,NA,TRUE,1,1.5153,326.929,329.9278,0,71,71,38,1,28,32,NA,NA,NA,NA,NA,1,72,"binary"
"FA5AE8A8FF3B4494B3E47C5CFBE56EE3",1,"01990a9f-0a1a-7ef5-8f97-99713a52b032","01990a83-7673-7c0c-a792-bbd8fbbaf673","2025-09-02_08h30.34.988",NA,NA,333.2759,333.276,333.276,333.6258,NA,NA,NA,NA,NA,NA,NA,TRUE,1,1.3639,330.2767,333.2758,0,72,72,1,1,7,26,NA,NA,NA,NA,NA,1,73,"binary"
"FA5AE8A8FF3B4494B3E47C5CFBE56EE3",1,"01990a9f-0a1a-7ef5-8f97-99713a52b032","01990a83-7673-7c0c-a792-bbd8fbbaf673","2025-09-02_08h30.34.988",NA,NA,336.6269,336.6269,336.6269,336.9771,NA,NA,NA,NA,NA,NA,NA,TRUE,1,0.7192,333.6282,336.6267,0,73,73,104,1,200,35,NA,NA,NA,NA,NA,1,74,"binary"
"FA5AE8A8FF3B4494B3E47C5CFBE56EE3",1,"01990a9f-0a1a-7ef5-8f97-99713a52b032","01990a83-7673-7c0c-a792-bbd8fbbaf673","2025-09-02_08h30.34.988",NA,NA,339.9813,339.9813,339.9813,340.3285,NA,NA,NA,NA,NA,NA,NA,TRUE,1,0.8473,336.9791,339.981,0,74,74,52,1,40,47,NA,NA,NA,NA,NA,1,75,"binary"
"FA5AE8A8FF3B4494B3E47C5CFBE56EE3",1,"01990a9f-0a1a-7ef5-8f97-99713a52b032","01990a83-7673-7c0c-a792-bbd8fbbaf673","2025-09-02_08h30.34.988",NA,NA,343.3297,343.3298,343.3298,343.6795,NA,NA,NA,NA,NA,NA,NA,TRUE,1,0.5483,340.3316,343.3295,0,75,75,12,1,12,25,NA,NA,NA,NA,NA,1,76,"binary"
"FA5AE8A8FF3B4494B3E47C5CFBE56EE3",1,"01990a9f-0a1a-7ef5-8f97-99713a52b032","01990a83-7673-7c0c-a792-bbd8fbbaf673","2025-09-02_08h30.34.988",NA,NA,346.6811,346.6811,346.6811,347.0349,NA,NA,NA,NA,NA,NA,NA,TRUE,1,0.4804,343.6817,346.6808,0,76,76,51,1,40,40,NA,NA,NA,NA,NA,1,77,"binary"
"FA5AE8A8FF3B4494B3E47C5CFBE56EE3",1,"01990a9f-0a1a-7ef5-8f97-99713a52b032","01990a83-7673-7c0c-a792-bbd8fbbaf673","2025-09-02_08h30.34.988",NA,NA,350.0322,350.0322,350.0323,350.3822,NA,NA,NA,NA,NA,NA,NA,TRUE,1,0.6343,347.037,350.032,0,77,77,68,1,60,35,NA,NA,NA,NA,NA,1,78,"binary"
"FA5AE8A8FF3B4494B3E47C5CFBE56EE3",1,"01990a9f-0a1a-7ef5-8f97-99713a52b032","01990a83-7673-7c0c-a792-bbd8fbbaf673","2025-09-02_08h30.34.988",NA,NA,353.3877,353.3877,353.3877,353.7334,NA,NA,NA,NA,NA,NA,NA,TRUE,2,0.9511,350.3848,353.3874,0,78,78,4,1,7,32,NA,NA,NA,NA,NA,1,79,"binary"
"FA5AE8A8FF3B4494B3E47C5CFBE56EE3",1,"01990a9f-0a1a-7ef5-8f97-99713a52b032","01990a83-7673-7c0c-a792-bbd8fbbaf673","2025-09-02_08h30.34.988",NA,NA,356.7394,356.7395,356.7395,357.0884,NA,NA,NA,NA,NA,NA,NA,TRUE,1,0.6663,353.7351,356.7391,0,79,79,79,1,95,33,NA,NA,NA,NA,NA,1,80,"binary"
"FA5AE8A8FF3B4494B3E47C5CFBE56EE3",1,"01990a9f-0a1a-7ef5-8f97-99713a52b032","01990a83-7673-7c0c-a792-bbd8fbbaf673","2025-09-02_08h30.34.988",NA,NA,360.0858,360.0858,360.0858,360.4359,NA,NA,NA,NA,NA,NA,NA,TRUE,1,0.5174,357.0905,360.0856,0,80,80,92,1,150,35,NA,NA,NA,NA,NA,1,81,"binary"
"FA5AE8A8FF3B4494B3E47C5CFBE56EE3",1,"01990a9f-0a1a-7ef5-8f97-99713a52b032","01990a83-7673-7c0c-a792-bbd8fbbaf673","2025-09-02_08h30.34.988",NA,NA,363.4207,363.4208,363.4209,363.7743,NA,NA,NA,NA,NA,NA,NA,TRUE,1,0.9331,360.4382,363.4206,0,81,81,76,1,90,46,NA,NA,NA,NA,NA,1,82,"binary"
"FA5AE8A8FF3B4494B3E47C5CFBE56EE3",1,"01990a9f-0a1a-7ef5-8f97-99713a52b032","01990a83-7673-7c0c-a792-bbd8fbbaf673","2025-09-02_08h30.34.988",NA,NA,366.7717,366.7718,366.7718,367.1253,NA,NA,NA,NA,NA,NA,NA,TRUE,1,0.509,363.7763,366.7716,0,82,82,42,1,30,26,NA,NA,NA,NA,NA,1,83,"binary"
"FA5AE8A8FF3B4494B3E47C5CFBE56EE3",1,"01990a9f-0a1a-7ef5-8f97-99713a52b032","01990a83-7673-7c0c-a792-bbd8fbbaf673","2025-09-02_08h30.34.988",NA,NA,370.126,370.1261,370.1261,370.4734,NA,NA,NA,NA,NA,NA,NA,TRUE,1,1.0019,367.1273,370.1259,0,83,83,5,1,7,35,NA,NA,NA,NA,NA,1,84,"binary"
"FA5AE8A8FF3B4494B3E47C5CFBE56EE3",1,"01990a9f-0a1a-7ef5-8f97-99713a52b032","01990a83-7673-7c0c-a792-bbd8fbbaf673","2025-09-02_08h30.34.988",NA,NA,373.4775,373.4776,373.4776,373.8244,NA,NA,NA,NA,NA,NA,NA,TRUE,1,0.8804,370.4754,373.4771,0,84,84,32,1,25,31,NA,NA,NA,NA,NA,1,85,"binary"
"FA5AE8A8FF3B4494B3E47C5CFBE56EE3",1,"01990a9f-0a1a-7ef5-8f97-99713a52b032","01990a83-7673-7c0c-a792-bbd8fbbaf673","2025-09-02_08h30.34.988",NA,NA,376.8256,376.8257,376.8257,377.1755,NA,NA,NA,NA,NA,NA,NA,TRUE,1,0.5904,373.8265,376.8254,0,85,85,100,1,180,46,NA,NA,NA,NA,NA,1,86,"binary"
"FA5AE8A8FF3B4494B3E47C5CFBE56EE3",1,"01990a9f-0a1a-7ef5-8f97-99713a52b032","01990a83-7673-7c0c-a792-bbd8fbbaf673","2025-09-02_08h30.34.988",NA,NA,380.1771,380.1772,380.1772,380.5269,NA,NA,NA,NA,NA,NA,NA,TRUE,2,1.6812,377.1772,380.177,0,86,86,23,1,14,39,NA,NA,NA,NA,NA,1,87,"binary"
"FA5AE8A8FF3B4494B3E47C5CFBE56EE3",1,"01990a9f-0a1a-7ef5-8f97-99713a52b032","01990a83-7673-7c0c-a792-bbd8fbbaf673","2025-09-02_08h30.34.988",NA,NA,383.5283,383.5283,383.5283,383.8783,NA,NA,NA,NA,NA,NA,NA,TRUE,1,2.1969,380.5291,383.528,0,87,87,8,1,10,27,NA,NA,NA,NA,NA,1,88,"binary"
"FA5AE8A8FF3B4494B3E47C5CFBE56EE3",1,"01990a9f-0a1a-7ef5-8f97-99713a52b032","01990a83-7673-7c0c-a792-bbd8fbbaf673","2025-09-02_08h30.34.988",NA,NA,386.8796,386.8796,386.8796,387.2296,NA,NA,NA,NA,NA,NA,NA,TRUE,1,2.1307,383.8808,386.8794,0,88,88,75,1,90,40,NA,NA,NA,NA,NA,1,89,"binary"
"FA5AE8A8FF3B4494B3E47C5CFBE56EE3",1,"01990a9f-0a1a-7ef5-8f97-99713a52b032","01990a83-7673-7c0c-a792-bbd8fbbaf673","2025-09-02_08h30.34.988",NA,NA,390.2307,390.2308,390.2308,390.5835,NA,NA,NA,NA,NA,NA,NA,TRUE,2,2.3884,387.2322,390.2306,0,89,89,34,1,25,35,NA,NA,NA,NA,NA,1,90,"binary"
"FA5AE8A8FF3B4494B3E47C5CFBE56EE3",1,"01990a9f-0a1a-7ef5-8f97-99713a52b032","01990a83-7673-7c0c-a792-bbd8fbbaf673","2025-09-02_08h30.34.988",NA,NA,393.5822,393.5823,393.5823,393.9354,NA,NA,NA,NA,NA,NA,NA,TRUE,1,0.8673,390.5853,393.582,0,90,90,95,1,150,54,NA,NA,NA,NA,NA,1,91,"binary"
"FA5AE8A8FF3B4494B3E47C5CFBE56EE3",1,"01990a9f-0a1a-7ef5-8f97-99713a52b032","01990a83-7673-7c0c-a792-bbd8fbbaf673","2025-09-02_08h30.34.988",NA,NA,396.9359,396.936,396.936,397.2868,NA,NA,NA,NA,NA,NA,NA,TRUE,2,1.3174,393.9372,396.9358,0,91,91,11,1,10,32,NA,NA,NA,NA,NA,1,92,"binary"
"FA5AE8A8FF3B4494B3E47C5CFBE56EE3",1,"01990a9f-0a1a-7ef5-8f97-99713a52b032","01990a83-7673-7c0c-a792-bbd8fbbaf673","2025-09-02_08h30.34.988",NA,NA,400.2847,400.2847,400.2847,400.6344,NA,NA,NA,NA,NA,NA,NA,TRUE,1,1.5344,397.2886,400.2845,0,92,92,44,1,30,29,NA,NA,NA,NA,NA,1,93,"binary"
"FA5AE8A8FF3B4494B3E47C5CFBE56EE3",1,"01990a9f-0a1a-7ef5-8f97-99713a52b032","01990a83-7673-7c0c-a792-bbd8fbbaf673","2025-09-02_08h30.34.988",NA,NA,403.6359,403.636,403.636,403.9726,NA,NA,NA,NA,NA,NA,NA,TRUE,1,0.8711,400.6362,403.6358,0,93,93,70,1,60,47,NA,NA,NA,NA,NA,1,94,"binary"
"FA5AE8A8FF3B4494B3E47C5CFBE56EE3",1,"01990a9f-0a1a-7ef5-8f97-99713a52b032","01990a83-7673-7c0c-a792-bbd8fbbaf673","2025-09-02_08h30.34.988",NA,NA,406.9742,406.9742,406.9742,407.3239,NA,NA,NA,NA,NA,NA,NA,TRUE,1,0.9064,403.9744,406.9739,0,94,94,84,1,100,26,NA,NA,NA,NA,NA,1,95,"binary"
"FA5AE8A8FF3B4494B3E47C5CFBE56EE3",1,"01990a9f-0a1a-7ef5-8f97-99713a52b032","01990a83-7673-7c0c-a792-bbd8fbbaf673","2025-09-02_08h30.34.988",NA,NA,410.3258,410.3259,410.3259,410.6718,NA,NA,NA,NA,NA,NA,NA,TRUE,1,0.631,407.3257,410.3256,0,95,95,55,1,45,29,NA,NA,NA,NA,NA,1,96,"binary"
"FA5AE8A8FF3B4494B3E47C5CFBE56EE3",1,"01990a9f-0a1a-7ef5-8f97-99713a52b032","01990a83-7673-7c0c-a792-bbd8fbbaf673","2025-09-02_08h30.34.988",NA,NA,413.6731,413.6731,413.6731,414.0228,NA,NA,NA,NA,NA,NA,NA,TRUE,2,1.4806,410.6739,413.6728,0,96,96,13,1,12,26,NA,NA,NA,NA,NA,1,97,"binary"
"FA5AE8A8FF3B4494B3E47C5CFBE56EE3",1,"01990a9f-0a1a-7ef5-8f97-99713a52b032","01990a83-7673-7c0c-a792-bbd8fbbaf673","2025-09-02_08h30.34.988",NA,NA,417.0284,417.0284,417.0284,417.3744,NA,NA,NA,NA,NA,NA,NA,TRUE,1,0.9833,414.0249,417.0281,0,97,97,93,1,150,40,NA,NA,NA,NA,NA,1,98,"binary"
"FA5AE8A8FF3B4494B3E47C5CFBE56EE3",1,"01990a9f-0a1a-7ef5-8f97-99713a52b032","01990a83-7673-7c0c-a792-bbd8fbbaf673","2025-09-02_08h30.34.988",NA,NA,420.3794,420.3794,420.3794,420.7254,NA,NA,NA,NA,NA,NA,NA,TRUE,1,1.6309,417.3769,420.3791,0,98,98,56,1,45,31,NA,NA,NA,NA,NA,1,99,"binary"
"FA5AE8A8FF3B4494B3E47C5CFBE56EE3",1,"01990a9f-0a1a-7ef5-8f97-99713a52b032","01990a83-7673-7c0c-a792-bbd8fbbaf673","2025-09-02_08h30.34.988",NA,NA,423.731,423.731,423.731,424.0769,NA,NA,NA,NA,NA,NA,NA,TRUE,1,0.4662,420.7275,423.7306,0,99,99,49,1,40,33,NA,NA,NA,NA,NA,1,100,"binary"
"FA5AE8A8FF3B4494B3E47C5CFBE56EE3",1,"01990a9f-0a1a-7ef5-8f97-99713a52b032","01990a83-7673-7c0c-a792-bbd8fbbaf673","2025-09-02_08h30.34.988",NA,NA,427.0781,427.0782,427.0782,427.4282,NA,NA,NA,NA,NA,NA,NA,TRUE,1,1.4476,424.0795,427.078,0,100,100,101,1,180,54,NA,NA,NA,NA,NA,1,101,"binary"
"FA5AE8A8FF3B4494B3E47C5CFBE56EE3",1,"01990a9f-0a1a-7ef5-8f97-99713a52b032","01990a83-7673-7c0c-a792-bbd8fbbaf673","2025-09-02_08h30.34.988",NA,NA,430.4324,430.4325,430.4325,430.7792,NA,NA,NA,NA,NA,NA,NA,TRUE,2,2.2468,427.4302,430.4323,0,101,101,47,1,30,38,NA,NA,NA,NA,NA,1,102,"binary"
"FA5AE8A8FF3B4494B3E47C5CFBE56EE3",1,"01990a9f-0a1a-7ef5-8f97-99713a52b032","01990a83-7673-7c0c-a792-bbd8fbbaf673","2025-09-02_08h30.34.988",NA,NA,433.7807,433.7808,433.7808,434.1344,NA,NA,NA,NA,NA,NA,NA,TRUE,2,1.4475,430.7812,433.7806,0,102,102,3,1,7,30,NA,NA,NA,NA,NA,1,103,"binary"
"FA5AE8A8FF3B4494B3E47C5CFBE56EE3",1,"01990a9f-0a1a-7ef5-8f97-99713a52b032","01990a83-7673-7c0c-a792-bbd8fbbaf673","2025-09-02_08h30.34.988",NA,NA,437.1321,437.1322,437.1322,437.4818,NA,NA,NA,NA,NA,NA,NA,TRUE,1,1.8436,434.1363,437.132,0,103,103,19,1,14,26,NA,NA,NA,NA,NA,1,104,"binary"
"FA5AE8A8FF3B4494B3E47C5CFBE56EE3",1,"01990a9f-0a1a-7ef5-8f97-99713a52b032","01990a83-7673-7c0c-a792-bbd8fbbaf673","2025-09-02_08h30.34.988",NA,NA,440.4873,440.4874,440.4875,440.8335,NA,NA,NA,NA,NA,NA,NA,TRUE,2,1.3287,437.4838,440.4872,0,104,104,31,1,25,29,NA,NA,NA,NA,NA,1,105,"binary"
"FA5AE8A8FF3B4494B3E47C5CFBE56EE3",1,"01990a9f-0a1a-7ef5-8f97-99713a52b032","01990a83-7673-7c0c-a792-bbd8fbbaf673","2025-09-02_08h30.34.988",NA,NA,443.8219,443.8219,443.8219,444.1845,NA,NA,NA,NA,NA,NA,NA,TRUE,1,1.5347,440.8354,443.8217,0,105,105,26,1,21,29,NA,NA,NA,NA,NA,1,106,"binary"
"FA5AE8A8FF3B4494B3E47C5CFBE56EE3",1,"01990a9f-0a1a-7ef5-8f97-99713a52b032","01990a83-7673-7c0c-a792-bbd8fbbaf673","2025-09-02_08h30.34.988",NA,NA,447.1859,447.1859,447.186,447.5233,NA,NA,NA,NA,NA,NA,NA,TRUE,1,0.5784,444.1868,447.1858,0,106,106,29,1,21,38,NA,NA,NA,NA,NA,1,107,"binary"
"FA5AE8A8FF3B4494B3E47C5CFBE56EE3",1,"01990a9f-0a1a-7ef5-8f97-99713a52b032","01990a83-7673-7c0c-a792-bbd8fbbaf673","2025-09-02_08h30.34.988",NA,NA,450.5205,450.5205,450.5206,450.8743,NA,NA,NA,NA,NA,NA,NA,TRUE,1,0.5893,447.5254,450.5203,0,107,107,97,1,180,31,NA,NA,NA,NA,NA,1,108,"binary"
"FA5AE8A8FF3B4494B3E47C5CFBE56EE3",1,"01990a9f-0a1a-7ef5-8f97-99713a52b032","01990a83-7673-7c0c-a792-bbd8fbbaf673","2025-09-02_08h30.34.988",NA,NA,545.6439,545.644,545.644,545.99,NA,NA,NA,NA,NA,NA,NA,TRUE,1,2.2088,542.657,545.6437,NA,NA,NA,NA,NA,10,25,0,0,0,6,1,2,1,"binary"
"FA5AE8A8FF3B4494B3E47C5CFBE56EE3",1,"01990a9f-0a1a-7ef5-8f97-99713a52b032","01990a83-7673-7c0c-a792-bbd8fbbaf673","2025-09-02_08h30.34.988",NA,NA,548.9944,548.9944,548.9944,549.3276,NA,NA,NA,NA,NA,NA,NA,TRUE,1,1.5401,545.9922,548.9941,NA,NA,NA,NA,NA,30,26,0,1,1,42,1,2,2,"binary"
"FA5AE8A8FF3B4494B3E47C5CFBE56EE3",1,"01990a9f-0a1a-7ef5-8f97-99713a52b032","01990a83-7673-7c0c-a792-bbd8fbbaf673","2025-09-02_08h30.34.988",NA,NA,552.3426,552.3427,552.3428,552.6925,NA,NA,NA,NA,NA,NA,NA,TRUE,1,1.8025,549.3298,552.3424,NA,NA,NA,NA,NA,14,26,0,2,2,19,1,2,3,"binary"
"FA5AE8A8FF3B4494B3E47C5CFBE56EE3",1,"01990a9f-0a1a-7ef5-8f97-99713a52b032","01990a83-7673-7c0c-a792-bbd8fbbaf673","2025-09-02_08h30.34.988",NA,NA,555.6808,555.6808,555.6808,556.0272,NA,NA,NA,NA,NA,NA,NA,TRUE,2,1.9343,552.6945,555.6806,NA,NA,NA,NA,NA,10,32,0,3,3,11,1,2,4,"binary"
"FA5AE8A8FF3B4494B3E47C5CFBE56EE3",1,"01990a9f-0a1a-7ef5-8f97-99713a52b032","01990a83-7673-7c0c-a792-bbd8fbbaf673","2025-09-02_08h30.34.988",NA,NA,559.0325,559.0325,559.0325,559.3818,NA,NA,NA,NA,NA,NA,NA,TRUE,1,1.1056,556.0291,559.0322,NA,NA,NA,NA,NA,200,54,0,4,4,107,1,2,5,"binary"
"FA5AE8A8FF3B4494B3E47C5CFBE56EE3",1,"01990a9f-0a1a-7ef5-8f97-99713a52b032","01990a83-7673-7c0c-a792-bbd8fbbaf673","2025-09-02_08h30.34.988",NA,NA,562.3834,562.3835,562.3835,562.7332,NA,NA,NA,NA,NA,NA,NA,TRUE,2,1.9651,559.384,562.3833,NA,NA,NA,NA,NA,28,39,0,5,5,40,1,2,6,"binary"
"FA5AE8A8FF3B4494B3E47C5CFBE56EE3",1,"01990a9f-0a1a-7ef5-8f97-99713a52b032","01990a83-7673-7c0c-a792-bbd8fbbaf673","2025-09-02_08h30.34.988",NA,NA,565.7351,565.7353,565.7353,566.0809,NA,NA,NA,NA,NA,NA,NA,TRUE,1,0.8975,562.7353,565.7349,NA,NA,NA,NA,NA,100,54,0,6,6,89,1,2,7,"binary"
"FA5AE8A8FF3B4494B3E47C5CFBE56EE3",1,"01990a9f-0a1a-7ef5-8f97-99713a52b032","01990a83-7673-7c0c-a792-bbd8fbbaf673","2025-09-02_08h30.34.988",NA,NA,569.0826,569.0826,569.0826,569.4361,NA,NA,NA,NA,NA,NA,NA,TRUE,2,2.1181,566.0829,569.0823,NA,NA,NA,NA,NA,30,38,0,7,7,47,1,2,8,"binary"
"FA5AE8A8FF3B4494B3E47C5CFBE56EE3",1,"01990a9f-0a1a-7ef5-8f97-99713a52b032","01990a83-7673-7c0c-a792-bbd8fbbaf673","2025-09-02_08h30.34.988",NA,NA,572.4374,572.4374,572.4374,572.7837,NA,NA,NA,NA,NA,NA,NA,TRUE,2,1.956,569.4381,572.4372,NA,NA,NA,NA,NA,21,38,0,8,8,29,1,2,9,"binary"
"FA5AE8A8FF3B4494B3E47C5CFBE56EE3",1,"01990a9f-0a1a-7ef5-8f97-99713a52b032","01990a83-7673-7c0c-a792-bbd8fbbaf673","2025-09-02_08h30.34.988",NA,NA,575.7849,575.785,575.785,576.1349,NA,NA,NA,NA,NA,NA,NA,TRUE,2,2.0641,572.786,575.7848,NA,NA,NA,NA,NA,50,54,0,9,9,65,1,2,10,"binary"
"FA5AE8A8FF3B4494B3E47C5CFBE56EE3",1,"01990a9f-0a1a-7ef5-8f97-99713a52b032","01990a83-7673-7c0c-a792-bbd8fbbaf673","2025-09-02_08h30.34.988",NA,NA,579.1362,579.1362,579.1362,579.489,NA,NA,NA,NA,NA,NA,NA,TRUE,1,1.6295,576.1368,579.1361,NA,NA,NA,NA,NA,50,27,0,10,10,60,1,2,11,"binary"
"FA5AE8A8FF3B4494B3E47C5CFBE56EE3",1,"01990a9f-0a1a-7ef5-8f97-99713a52b032","01990a83-7673-7c0c-a792-bbd8fbbaf673","2025-09-02_08h30.34.988",NA,NA,582.4875,582.4875,582.4876,582.8375,NA,NA,NA,NA,NA,NA,NA,TRUE,1,1.1063,579.4912,582.4874,NA,NA,NA,NA,NA,200,35,0,11,11,104,1,2,12,"binary"
"FA5AE8A8FF3B4494B3E47C5CFBE56EE3",1,"01990a9f-0a1a-7ef5-8f97-99713a52b032","01990a83-7673-7c0c-a792-bbd8fbbaf673","2025-09-02_08h30.34.988",NA,NA,585.8389,585.839,585.839,586.1888,NA,NA,NA,NA,NA,NA,NA,TRUE,1,1.3917,582.8394,585.8388,NA,NA,NA,NA,NA,95,47,0,12,12,82,1,2,13,"binary"
"FA5AE8A8FF3B4494B3E47C5CFBE56EE3",1,"01990a9f-0a1a-7ef5-8f97-99713a52b032","01990a83-7673-7c0c-a792-bbd8fbbaf673","2025-09-02_08h30.34.988",NA,NA,589.1929,589.193,589.193,589.54,NA,NA,NA,NA,NA,NA,NA,TRUE,1,1.2009,586.1908,589.1927,NA,NA,NA,NA,NA,14,25,0,13,13,18,1,2,14,"binary"
"FA5AE8A8FF3B4494B3E47C5CFBE56EE3",1,"01990a9f-0a1a-7ef5-8f97-99713a52b032","01990a83-7673-7c0c-a792-bbd8fbbaf673","2025-09-02_08h30.34.988",NA,NA,592.5276,592.5276,592.5276,592.878,NA,NA,NA,NA,NA,NA,NA,TRUE,2,2.651,589.5421,592.5274,NA,NA,NA,NA,NA,7,28,0,14,14,2,1,2,15,"binary"
"FA5AE8A8FF3B4494B3E47C5CFBE56EE3",1,"01990a9f-0a1a-7ef5-8f97-99713a52b032","01990a83-7673-7c0c-a792-bbd8fbbaf673","2025-09-02_08h30.34.988",NA,NA,595.8925,595.8925,595.8925,596.2428,NA,NA,NA,NA,NA,NA,NA,TRUE,2,1.7202,592.8803,595.8924,NA,NA,NA,NA,NA,21,26,0,15,15,24,1,2,16,"binary"
"FA5AE8A8FF3B4494B3E47C5CFBE56EE3",1,"01990a9f-0a1a-7ef5-8f97-99713a52b032","01990a83-7673-7c0c-a792-bbd8fbbaf673","2025-09-02_08h30.34.988",NA,NA,599.2308,599.2309,599.2309,599.5807,NA,NA,NA,NA,NA,NA,NA,TRUE,2,1.1844,596.2448,599.2302,NA,NA,NA,NA,NA,14,39,0,16,16,23,1,2,17,"binary"
"FA5AE8A8FF3B4494B3E47C5CFBE56EE3",1,"01990a9f-0a1a-7ef5-8f97-99713a52b032","01990a83-7673-7c0c-a792-bbd8fbbaf673","2025-09-02_08h30.34.988",NA,NA,602.5785,602.5786,602.5786,602.932,NA,NA,NA,NA,NA,NA,NA,TRUE,1,0.6678,599.5832,602.5783,NA,NA,NA,NA,NA,100,26,0,17,17,84,1,2,18,"binary"
"FA5AE8A8FF3B4494B3E47C5CFBE56EE3",1,"01990a9f-0a1a-7ef5-8f97-99713a52b032","01990a83-7673-7c0c-a792-bbd8fbbaf673","2025-09-02_08h30.34.988",NA,NA,605.9336,605.9336,605.9336,606.2833,NA,NA,NA,NA,NA,NA,NA,TRUE,1,2.097,602.934,605.9334,NA,NA,NA,NA,NA,10,26,0,18,18,7,1,2,19,"binary"
"FA5AE8A8FF3B4494B3E47C5CFBE56EE3",1,"01990a9f-0a1a-7ef5-8f97-99713a52b032","01990a83-7673-7c0c-a792-bbd8fbbaf673","2025-09-02_08h30.34.988",NA,NA,609.2845,609.2845,609.2845,609.631,NA,NA,NA,NA,NA,NA,NA,TRUE,1,1.4051,606.2854,609.2843,NA,NA,NA,NA,NA,150,54,0,19,19,95,1,2,20,"binary"
"FA5AE8A8FF3B4494B3E47C5CFBE56EE3",1,"01990a9f-0a1a-7ef5-8f97-99713a52b032","01990a83-7673-7c0c-a792-bbd8fbbaf673","2025-09-02_08h30.34.988",NA,NA,612.6363,612.6363,612.6363,612.9823,NA,NA,NA,NA,NA,NA,NA,TRUE,1,0.8306,609.6333,612.6361,NA,NA,NA,NA,NA,95,35,0,20,20,80,1,2,21,"binary"
"FA5AE8A8FF3B4494B3E47C5CFBE56EE3",1,"01990a9f-0a1a-7ef5-8f97-99713a52b032","01990a83-7673-7c0c-a792-bbd8fbbaf673","2025-09-02_08h30.34.988",NA,NA,615.9835,615.9835,615.9835,616.3335,NA,NA,NA,NA,NA,NA,NA,TRUE,1,1.107,612.9842,615.9832,NA,NA,NA,NA,NA,50,30,0,21,21,61,1,2,22,"binary"
"FA5AE8A8FF3B4494B3E47C5CFBE56EE3",1,"01990a9f-0a1a-7ef5-8f97-99713a52b032","01990a83-7673-7c0c-a792-bbd8fbbaf673","2025-09-02_08h30.34.988",NA,NA,619.3349,619.3349,619.3349,619.6849,NA,NA,NA,NA,NA,NA,NA,TRUE,1,0.754,616.3359,619.3347,NA,NA,NA,NA,NA,100,31,0,22,22,85,1,2,23,"binary"
"FA5AE8A8FF3B4494B3E47C5CFBE56EE3",1,"01990a9f-0a1a-7ef5-8f97-99713a52b032","01990a83-7673-7c0c-a792-bbd8fbbaf673","2025-09-02_08h30.34.988",NA,NA,622.686,622.6862,622.6862,623.036,NA,NA,NA,NA,NA,NA,NA,TRUE,1,0.8793,619.6873,622.6859,NA,NA,NA,NA,NA,150,47,0,23,23,94,1,2,24,"binary"
"FA5AE8A8FF3B4494B3E47C5CFBE56EE3",1,"01990a9f-0a1a-7ef5-8f97-99713a52b032","01990a83-7673-7c0c-a792-bbd8fbbaf673","2025-09-02_08h30.34.988",NA,NA,626.0377,626.0377,626.0377,626.3872,NA,NA,NA,NA,NA,NA,NA,TRUE,2,2.4738,623.0381,626.0374,NA,NA,NA,NA,NA,50,46,0,24,24,64,1,2,25,"binary"
"FA5AE8A8FF3B4494B3E47C5CFBE56EE3",1,"01990a9f-0a1a-7ef5-8f97-99713a52b032","01990a83-7673-7c0c-a792-bbd8fbbaf673","2025-09-02_08h30.34.988",NA,NA,629.393,629.3931,629.3932,629.7386,NA,NA,NA,NA,NA,NA,NA,TRUE,2,1.7575,626.3891,629.3927,NA,NA,NA,NA,NA,14,28,0,25,25,20,1,2,26,"binary"
"FA5AE8A8FF3B4494B3E47C5CFBE56EE3",1,"01990a9f-0a1a-7ef5-8f97-99713a52b032","01990a83-7673-7c0c-a792-bbd8fbbaf673","2025-09-02_08h30.34.988",NA,NA,632.7276,632.7277,632.7277,633.0898,NA,NA,NA,NA,NA,NA,NA,TRUE,2,2.277,629.7408,632.7275,NA,NA,NA,NA,NA,60,54,0,26,26,71,1,2,27,"binary"
"FA5AE8A8FF3B4494B3E47C5CFBE56EE3",1,"01990a9f-0a1a-7ef5-8f97-99713a52b032","01990a83-7673-7c0c-a792-bbd8fbbaf673","2025-09-02_08h30.34.988",NA,NA,636.0941,636.0941,636.0941,636.4414,NA,NA,NA,NA,NA,NA,NA,TRUE,1,0.9173,633.0919,636.0939,NA,NA,NA,NA,NA,180,35,0,27,27,98,1,2,28,"binary"
"FA5AE8A8FF3B4494B3E47C5CFBE56EE3",1,"01990a9f-0a1a-7ef5-8f97-99713a52b032","01990a83-7673-7c0c-a792-bbd8fbbaf673","2025-09-02_08h30.34.988",NA,NA,639.4286,639.4286,639.4286,639.7924,NA,NA,NA,NA,NA,NA,NA,TRUE,2,1.8429,636.444,639.4285,NA,NA,NA,NA,NA,45,46,0,28,28,59,1,2,29,"binary"
"FA5AE8A8FF3B4494B3E47C5CFBE56EE3",1,"01990a9f-0a1a-7ef5-8f97-99713a52b032","01990a83-7673-7c0c-a792-bbd8fbbaf673","2025-09-02_08h30.34.988",NA,NA,642.7771,642.7771,642.7771,643.127,NA,NA,NA,NA,NA,NA,NA,TRUE,2,1.2676,639.7944,642.7769,NA,NA,NA,NA,NA,12,33,0,29,29,16,1,2,30,"binary"
"FA5AE8A8FF3B4494B3E47C5CFBE56EE3",1,"01990a9f-0a1a-7ef5-8f97-99713a52b032","01990a83-7673-7c0c-a792-bbd8fbbaf673","2025-09-02_08h30.34.988",NA,NA,646.1282,646.1282,646.1283,646.4821,NA,NA,NA,NA,NA,NA,NA,TRUE,1,1.4856,643.129,646.1281,NA,NA,NA,NA,NA,40,54,0,30,30,53,1,2,31,"binary"
"FA5AE8A8FF3B4494B3E47C5CFBE56EE3",1,"01990a9f-0a1a-7ef5-8f97-99713a52b032","01990a83-7673-7c0c-a792-bbd8fbbaf673","2025-09-02_08h30.34.988",NA,NA,649.48,649.48,649.48,649.8299,NA,NA,NA,NA,NA,NA,NA,TRUE,1,1.2807,646.4842,649.4797,NA,NA,NA,NA,NA,60,47,0,31,31,70,1,2,32,"binary"
"FA5AE8A8FF3B4494B3E47C5CFBE56EE3",1,"01990a9f-0a1a-7ef5-8f97-99713a52b032","01990a83-7673-7c0c-a792-bbd8fbbaf673","2025-09-02_08h30.34.988",NA,NA,652.8341,652.8341,652.8342,653.1809,NA,NA,NA,NA,NA,NA,NA,TRUE,1,2.2411,649.8326,652.8338,NA,NA,NA,NA,NA,30,27,0,32,32,43,1,2,33,"binary"
"FA5AE8A8FF3B4494B3E47C5CFBE56EE3",1,"01990a9f-0a1a-7ef5-8f97-99713a52b032","01990a83-7673-7c0c-a792-bbd8fbbaf673","2025-09-02_08h30.34.988",NA,NA,656.1822,656.1822,656.1822,656.5322,NA,NA,NA,NA,NA,NA,NA,TRUE,1,2.0103,653.1836,656.182,NA,NA,NA,NA,NA,40,27,0,33,33,48,1,2,34,"binary"
"FA5AE8A8FF3B4494B3E47C5CFBE56EE3",1,"01990a9f-0a1a-7ef5-8f97-99713a52b032","01990a83-7673-7c0c-a792-bbd8fbbaf673","2025-09-02_08h30.34.988",NA,NA,659.5335,659.5337,659.5337,659.8876,NA,NA,NA,NA,NA,NA,NA,TRUE,1,1.535,656.5347,659.5333,NA,NA,NA,NA,NA,21,29,0,34,34,26,1,2,35,"binary"
"FA5AE8A8FF3B4494B3E47C5CFBE56EE3",1,"01990a9f-0a1a-7ef5-8f97-99713a52b032","01990a83-7673-7c0c-a792-bbd8fbbaf673","2025-09-02_08h30.34.988",NA,NA,662.8848,662.8848,662.8848,663.2347,NA,NA,NA,NA,NA,NA,NA,TRUE,1,0.5829,659.89,662.8846,NA,NA,NA,NA,NA,30,30,0,35,35,45,1,2,36,"binary"
"FA5AE8A8FF3B4494B3E47C5CFBE56EE3",1,"01990a9f-0a1a-7ef5-8f97-99713a52b032","01990a83-7673-7c0c-a792-bbd8fbbaf673","2025-09-02_08h30.34.988",NA,NA,666.2361,666.2362,666.2362,666.5897,NA,NA,NA,NA,NA,NA,NA,TRUE,1,1.5147,663.2368,666.2359,NA,NA,NA,NA,NA,25,27,0,36,36,30,1,2,37,"binary"
"FA5AE8A8FF3B4494B3E47C5CFBE56EE3",1,"01990a9f-0a1a-7ef5-8f97-99713a52b032","01990a83-7673-7c0c-a792-bbd8fbbaf673","2025-09-02_08h30.34.988",NA,NA,669.5911,669.5911,669.5911,669.9374,NA,NA,NA,NA,NA,NA,NA,TRUE,1,1.2047,666.5918,669.5907,NA,NA,NA,NA,NA,95,33,0,37,37,79,1,2,38,"binary"
"FA5AE8A8FF3B4494B3E47C5CFBE56EE3",1,"01990a9f-0a1a-7ef5-8f97-99713a52b032","01990a83-7673-7c0c-a792-bbd8fbbaf673","2025-09-02_08h30.34.988",NA,NA,672.9386,672.9386,672.9386,673.2923,NA,NA,NA,NA,NA,NA,NA,TRUE,2,1.7177,669.9401,672.9384,NA,NA,NA,NA,NA,28,32,0,38,38,38,1,2,39,"binary"
"FA5AE8A8FF3B4494B3E47C5CFBE56EE3",1,"01990a9f-0a1a-7ef5-8f97-99713a52b032","01990a83-7673-7c0c-a792-bbd8fbbaf673","2025-09-02_08h30.34.988",NA,NA,676.2771,676.2772,676.2772,676.6398,NA,NA,NA,NA,NA,NA,NA,TRUE,1,0.8664,673.2944,676.277,NA,NA,NA,NA,NA,95,40,0,39,39,81,1,2,40,"binary"
"FA5AE8A8FF3B4494B3E47C5CFBE56EE3",1,"01990a9f-0a1a-7ef5-8f97-99713a52b032","01990a83-7673-7c0c-a792-bbd8fbbaf673","2025-09-02_08h30.34.988",NA,NA,679.6441,679.6442,679.6442,679.9777,NA,NA,NA,NA,NA,NA,NA,TRUE,1,0.8234,676.6419,679.6439,NA,NA,NA,NA,NA,28,28,0,40,40,37,1,2,41,"binary"
"FA5AE8A8FF3B4494B3E47C5CFBE56EE3",1,"01990a9f-0a1a-7ef5-8f97-99713a52b032","01990a83-7673-7c0c-a792-bbd8fbbaf673","2025-09-02_08h30.34.988",NA,NA,682.9926,682.9926,682.9926,683.3424,NA,NA,NA,NA,NA,NA,NA,TRUE,1,0.5733,679.9798,682.9925,NA,NA,NA,NA,NA,60,35,0,41,41,68,1,2,42,"binary"
"FA5AE8A8FF3B4494B3E47C5CFBE56EE3",1,"01990a9f-0a1a-7ef5-8f97-99713a52b032","01990a83-7673-7c0c-a792-bbd8fbbaf673","2025-09-02_08h30.34.988",NA,NA,686.3307,686.3307,686.3307,686.6772,NA,NA,NA,NA,NA,NA,NA,TRUE,1,0.8882,683.3453,686.3306,NA,NA,NA,NA,NA,100,46,0,42,42,88,1,2,43,"binary"
"FA5AE8A8FF3B4494B3E47C5CFBE56EE3",1,"01990a9f-0a1a-7ef5-8f97-99713a52b032","01990a83-7673-7c0c-a792-bbd8fbbaf673","2025-09-02_08h30.34.988",NA,NA,689.6825,689.6825,689.6825,690.0314,NA,NA,NA,NA,NA,NA,NA,TRUE,1,1.1841,686.6793,689.6824,NA,NA,NA,NA,NA,180,39,0,43,43,99,1,2,44,"binary"
"FA5AE8A8FF3B4494B3E47C5CFBE56EE3",1,"01990a9f-0a1a-7ef5-8f97-99713a52b032","01990a83-7673-7c0c-a792-bbd8fbbaf673","2025-09-02_08h30.34.988",NA,NA,693.0296,693.0296,693.0296,693.3795,NA,NA,NA,NA,NA,NA,NA,TRUE,1,0.7896,690.0335,693.0294,NA,NA,NA,NA,NA,150,31,0,44,44,90,1,2,45,"binary"
"FA5AE8A8FF3B4494B3E47C5CFBE56EE3",1,"01990a9f-0a1a-7ef5-8f97-99713a52b032","01990a83-7673-7c0c-a792-bbd8fbbaf673","2025-09-02_08h30.34.988",NA,NA,696.3809,696.381,696.381,696.7306,NA,NA,NA,NA,NA,NA,NA,TRUE,1,1.3191,693.3816,696.3807,NA,NA,NA,NA,NA,200,39,0,45,45,105,1,2,46,"binary"
"FA5AE8A8FF3B4494B3E47C5CFBE56EE3",1,"01990a9f-0a1a-7ef5-8f97-99713a52b032","01990a83-7673-7c0c-a792-bbd8fbbaf673","2025-09-02_08h30.34.988",NA,NA,699.7356,699.7356,699.7357,700.082,NA,NA,NA,NA,NA,NA,NA,TRUE,1,1.6314,696.7326,699.7355,NA,NA,NA,NA,NA,180,31,0,46,46,97,1,2,47,"binary"
"FA5AE8A8FF3B4494B3E47C5CFBE56EE3",1,"01990a9f-0a1a-7ef5-8f97-99713a52b032","01990a83-7673-7c0c-a792-bbd8fbbaf673","2025-09-02_08h30.34.988",NA,NA,703.0836,703.0837,703.0837,703.437,NA,NA,NA,NA,NA,NA,NA,TRUE,1,1.0472,700.084,703.0834,NA,NA,NA,NA,NA,50,40,0,47,47,63,1,2,48,"binary"
"FA5AE8A8FF3B4494B3E47C5CFBE56EE3",1,"01990a9f-0a1a-7ef5-8f97-99713a52b032","01990a83-7673-7c0c-a792-bbd8fbbaf673","2025-09-02_08h30.34.988",NA,NA,706.4347,706.4347,706.4347,706.7845,NA,NA,NA,NA,NA,NA,NA,TRUE,2,2.6171,703.439,706.4345,NA,NA,NA,NA,NA,12,28,0,48,48,14,1,2,49,"binary"
"FA5AE8A8FF3B4494B3E47C5CFBE56EE3",1,"01990a9f-0a1a-7ef5-8f97-99713a52b032","01990a83-7673-7c0c-a792-bbd8fbbaf673","2025-09-02_08h30.34.988",NA,NA,709.7897,709.7898,709.7898,710.136,NA,NA,NA,NA,NA,NA,NA,TRUE,1,1.7671,706.7866,709.7895,NA,NA,NA,NA,NA,7,25,0,49,49,0,1,2,50,"binary"
"FA5AE8A8FF3B4494B3E47C5CFBE56EE3",1,"01990a9f-0a1a-7ef5-8f97-99713a52b032","01990a83-7673-7c0c-a792-bbd8fbbaf673","2025-09-02_08h30.34.988",NA,NA,713.1372,713.1372,713.1372,713.4873,NA,NA,NA,NA,NA,NA,NA,TRUE,1,1.8476,710.1386,713.1371,NA,NA,NA,NA,NA,10,29,0,50,50,9,1,2,51,"binary"
"FA5AE8A8FF3B4494B3E47C5CFBE56EE3",1,"01990a9f-0a1a-7ef5-8f97-99713a52b032","01990a83-7673-7c0c-a792-bbd8fbbaf673","2025-09-02_08h30.34.988",NA,NA,716.4918,716.4919,716.4919,716.8387,NA,NA,NA,NA,NA,NA,NA,TRUE,2,1.9014,713.4894,716.4916,NA,NA,NA,NA,NA,40,40,0,51,51,51,1,2,52,"binary"
"FA5AE8A8FF3B4494B3E47C5CFBE56EE3",1,"01990a9f-0a1a-7ef5-8f97-99713a52b032","01990a83-7673-7c0c-a792-bbd8fbbaf673","2025-09-02_08h30.34.988",NA,NA,719.844,719.8441,719.8441,720.1939,NA,NA,NA,NA,NA,NA,NA,TRUE,1,1.0334,716.8408,719.8436,NA,NA,NA,NA,NA,90,46,0,52,52,76,1,2,53,"binary"
"FA5AE8A8FF3B4494B3E47C5CFBE56EE3",1,"01990a9f-0a1a-7ef5-8f97-99713a52b032","01990a83-7673-7c0c-a792-bbd8fbbaf673","2025-09-02_08h30.34.988",NA,NA,723.1911,723.1911,723.1911,723.5282,NA,NA,NA,NA,NA,NA,NA,TRUE,2,1.2281,720.1961,723.191,NA,NA,NA,NA,NA,7,30,0,53,53,3,1,2,54,"binary"
"FA5AE8A8FF3B4494B3E47C5CFBE56EE3",1,"01990a9f-0a1a-7ef5-8f97-99713a52b032","01990a83-7673-7c0c-a792-bbd8fbbaf673","2025-09-02_08h30.34.988",NA,NA,726.529,726.529,726.529,726.8923,NA,NA,NA,NA,NA,NA,NA,TRUE,2,0.8638,723.5302,726.5288,NA,NA,NA,NA,NA,7,32,0,54,54,4,1,2,55,"binary"
"FA5AE8A8FF3B4494B3E47C5CFBE56EE3",1,"01990a9f-0a1a-7ef5-8f97-99713a52b032","01990a83-7673-7c0c-a792-bbd8fbbaf673","2025-09-02_08h30.34.988",NA,NA,729.8806,729.8807,729.8807,730.227,NA,NA,NA,NA,NA,NA,NA,TRUE,1,1.731,726.8943,729.8804,NA,NA,NA,NA,NA,25,33,0,55,55,33,1,2,56,"binary"
"FA5AE8A8FF3B4494B3E47C5CFBE56EE3",1,"01990a9f-0a1a-7ef5-8f97-99713a52b032","01990a83-7673-7c0c-a792-bbd8fbbaf673","2025-09-02_08h30.34.988",NA,NA,733.2283,733.2283,733.2284,733.5782,NA,NA,NA,NA,NA,NA,NA,TRUE,1,0.8304,730.2291,733.2281,NA,NA,NA,NA,NA,150,33,0,56,56,91,1,2,57,"binary"
"FA5AE8A8FF3B4494B3E47C5CFBE56EE3",1,"01990a9f-0a1a-7ef5-8f97-99713a52b032","01990a83-7673-7c0c-a792-bbd8fbbaf673","2025-09-02_08h30.34.988",NA,NA,736.5795,736.5795,736.5795,736.9296,NA,NA,NA,NA,NA,NA,NA,TRUE,1,1.4012,733.5803,736.5792,NA,NA,NA,NA,NA,60,33,0,57,57,67,1,2,58,"binary"
"FA5AE8A8FF3B4494B3E47C5CFBE56EE3",1,"01990a9f-0a1a-7ef5-8f97-99713a52b032","01990a83-7673-7c0c-a792-bbd8fbbaf673","2025-09-02_08h30.34.988",NA,NA,739.9307,739.9307,739.9307,740.2836,NA,NA,NA,NA,NA,NA,NA,TRUE,1,1.7305,736.9315,739.9305,NA,NA,NA,NA,NA,90,40,0,58,58,75,1,2,59,"binary"
"FA5AE8A8FF3B4494B3E47C5CFBE56EE3",1,"01990a9f-0a1a-7ef5-8f97-99713a52b032","01990a83-7673-7c0c-a792-bbd8fbbaf673","2025-09-02_08h30.34.988",NA,NA,743.2851,743.2851,743.2851,743.632,NA,NA,NA,NA,NA,NA,NA,TRUE,2,1.2308,740.2858,743.2847,NA,NA,NA,NA,NA,21,30,0,59,59,27,1,2,60,"binary"
"FA5AE8A8FF3B4494B3E47C5CFBE56EE3",1,"01990a9f-0a1a-7ef5-8f97-99713a52b032","01990a83-7673-7c0c-a792-bbd8fbbaf673","2025-09-02_08h30.34.988",NA,NA,746.6334,746.6335,746.6335,746.9872,NA,NA,NA,NA,NA,NA,NA,TRUE,1,1.0067,743.6345,746.6332,NA,NA,NA,NA,NA,45,31,0,60,60,56,1,2,61,"binary"
"FA5AE8A8FF3B4494B3E47C5CFBE56EE3",1,"01990a9f-0a1a-7ef5-8f97-99713a52b032","01990a83-7673-7c0c-a792-bbd8fbbaf673","2025-09-02_08h30.34.988",NA,NA,749.9885,749.9885,749.9885,750.3382,NA,NA,NA,NA,NA,NA,NA,TRUE,1,1.6839,746.9894,749.9883,NA,NA,NA,NA,NA,30,29,0,61,61,44,1,2,62,"binary"
"FA5AE8A8FF3B4494B3E47C5CFBE56EE3",1,"01990a9f-0a1a-7ef5-8f97-99713a52b032","01990a83-7673-7c0c-a792-bbd8fbbaf673","2025-09-02_08h30.34.988",NA,NA,753.336,753.3361,753.3361,753.6858,NA,NA,NA,NA,NA,NA,NA,TRUE,2,1.735,750.3405,753.3357,NA,NA,NA,NA,NA,25,46,0,62,62,35,1,2,63,"binary"
"FA5AE8A8FF3B4494B3E47C5CFBE56EE3",1,"01990a9f-0a1a-7ef5-8f97-99713a52b032","01990a83-7673-7c0c-a792-bbd8fbbaf673","2025-09-02_08h30.34.988",NA,NA,756.6872,756.6873,756.6874,757.0406,NA,NA,NA,NA,NA,NA,NA,TRUE,2,1.0636,753.6879,756.687,NA,NA,NA,NA,NA,7,35,0,63,63,5,1,2,64,"binary"
"FA5AE8A8FF3B4494B3E47C5CFBE56EE3",1,"01990a9f-0a1a-7ef5-8f97-99713a52b032","01990a83-7673-7c0c-a792-bbd8fbbaf673","2025-09-02_08h30.34.988",NA,NA,760.0386,760.0386,760.0387,760.3886,NA,NA,NA,NA,NA,NA,NA,TRUE,1,0.7466,757.0427,760.0384,NA,NA,NA,NA,NA,200,47,0,64,64,106,1,2,65,"binary"
"FA5AE8A8FF3B4494B3E47C5CFBE56EE3",1,"01990a9f-0a1a-7ef5-8f97-99713a52b032","01990a83-7673-7c0c-a792-bbd8fbbaf673","2025-09-02_08h30.34.988",NA,NA,763.3899,763.3899,763.3899,763.7398,NA,NA,NA,NA,NA,NA,NA,TRUE,1,0.7504,760.3911,763.3897,NA,NA,NA,NA,NA,200,28,0,65,65,103,1,2,66,"binary"
"FA5AE8A8FF3B4494B3E47C5CFBE56EE3",1,"01990a9f-0a1a-7ef5-8f97-99713a52b032","01990a83-7673-7c0c-a792-bbd8fbbaf673","2025-09-02_08h30.34.988",NA,NA,766.7413,766.7413,766.7413,767.0945,NA,NA,NA,NA,NA,NA,NA,TRUE,2,0.8845,763.7418,766.7412,NA,NA,NA,NA,NA,14,32,0,66,66,21,1,2,67,"binary"
"FA5AE8A8FF3B4494B3E47C5CFBE56EE3",1,"01990a9f-0a1a-7ef5-8f97-99713a52b032","01990a83-7673-7c0c-a792-bbd8fbbaf673","2025-09-02_08h30.34.988",NA,NA,770.0952,770.0953,770.0954,770.4295,NA,NA,NA,NA,NA,NA,NA,TRUE,1,1.6164,767.0966,770.095,NA,NA,NA,NA,NA,40,35,0,67,67,50,1,2,68,"binary"
"FA5AE8A8FF3B4494B3E47C5CFBE56EE3",1,"01990a9f-0a1a-7ef5-8f97-99713a52b032","01990a83-7673-7c0c-a792-bbd8fbbaf673","2025-09-02_08h30.34.988",NA,NA,773.4271,773.4272,773.4273,773.777,NA,NA,NA,NA,NA,NA,NA,TRUE,1,0.8725,770.4315,773.4269,NA,NA,NA,NA,NA,25,35,0,68,68,34,1,2,69,"binary"
"FA5AE8A8FF3B4494B3E47C5CFBE56EE3",1,"01990a9f-0a1a-7ef5-8f97-99713a52b032","01990a83-7673-7c0c-a792-bbd8fbbaf673","2025-09-02_08h30.34.988",NA,NA,776.781,776.7811,776.7811,777.1285,NA,NA,NA,NA,NA,NA,NA,TRUE,1,0.7134,773.7789,776.781,NA,NA,NA,NA,NA,100,39,0,69,69,87,1,2,70,"binary"
"FA5AE8A8FF3B4494B3E47C5CFBE56EE3",1,"01990a9f-0a1a-7ef5-8f97-99713a52b032","01990a83-7673-7c0c-a792-bbd8fbbaf673","2025-09-02_08h30.34.988",NA,NA,780.1295,780.1295,780.1295,780.4795,NA,NA,NA,NA,NA,NA,NA,TRUE,1,1.017,777.1309,780.1293,NA,NA,NA,NA,NA,180,54,0,70,70,101,1,2,71,"binary"
"FA5AE8A8FF3B4494B3E47C5CFBE56EE3",1,"01990a9f-0a1a-7ef5-8f97-99713a52b032","01990a83-7673-7c0c-a792-bbd8fbbaf673","2025-09-02_08h30.34.988",NA,NA,783.481,783.4811,783.4811,783.8307,NA,NA,NA,NA,NA,NA,NA,TRUE,1,1.881,780.4816,783.4808,NA,NA,NA,NA,NA,25,31,0,71,71,32,1,2,72,"binary"
"FA5AE8A8FF3B4494B3E47C5CFBE56EE3",1,"01990a9f-0a1a-7ef5-8f97-99713a52b032","01990a83-7673-7c0c-a792-bbd8fbbaf673","2025-09-02_08h30.34.988",NA,NA,786.8322,786.8323,786.8323,787.1855,NA,NA,NA,NA,NA,NA,NA,TRUE,1,0.7561,783.8326,786.8321,NA,NA,NA,NA,NA,60,29,0,72,72,66,1,2,73,"binary"
"FA5AE8A8FF3B4494B3E47C5CFBE56EE3",1,"01990a9f-0a1a-7ef5-8f97-99713a52b032","01990a83-7673-7c0c-a792-bbd8fbbaf673","2025-09-02_08h30.34.988",NA,NA,790.1869,790.1869,790.1869,790.5333,NA,NA,NA,NA,NA,NA,NA,TRUE,2,1.1138,787.1876,790.1867,NA,NA,NA,NA,NA,7,26,0,73,73,1,1,2,74,"binary"
"FA5AE8A8FF3B4494B3E47C5CFBE56EE3",1,"01990a9f-0a1a-7ef5-8f97-99713a52b032","01990a83-7673-7c0c-a792-bbd8fbbaf673","2025-09-02_08h30.34.988",NA,NA,793.5348,793.5349,793.5349,793.8876,NA,NA,NA,NA,NA,NA,NA,TRUE,1,1.0174,790.5356,793.5347,NA,NA,NA,NA,NA,12,26,0,74,74,13,1,2,75,"binary"
"FA5AE8A8FF3B4494B3E47C5CFBE56EE3",1,"01990a9f-0a1a-7ef5-8f97-99713a52b032","01990a83-7673-7c0c-a792-bbd8fbbaf673","2025-09-02_08h30.34.988",NA,NA,796.886,796.8862,796.8862,797.2359,NA,NA,NA,NA,NA,NA,NA,TRUE,1,0.9672,793.8897,796.8859,NA,NA,NA,NA,NA,150,40,0,75,75,93,1,2,76,"binary"
"FA5AE8A8FF3B4494B3E47C5CFBE56EE3",1,"01990a9f-0a1a-7ef5-8f97-99713a52b032","01990a83-7673-7c0c-a792-bbd8fbbaf673","2025-09-02_08h30.34.988",NA,NA,800.2413,800.2414,800.2414,800.5906,NA,NA,NA,NA,NA,NA,NA,TRUE,1,1.3989,797.2381,800.2409,NA,NA,NA,NA,NA,45,26,0,76,76,54,1,2,77,"binary"
"FA5AE8A8FF3B4494B3E47C5CFBE56EE3",1,"01990a9f-0a1a-7ef5-8f97-99713a52b032","01990a83-7673-7c0c-a792-bbd8fbbaf673","2025-09-02_08h30.34.988",NA,NA,803.5885,803.5885,803.5886,803.9385,NA,NA,NA,NA,NA,NA,NA,TRUE,1,0.9445,800.5926,803.5882,NA,NA,NA,NA,NA,180,27,0,77,77,96,1,2,78,"binary"
"FA5AE8A8FF3B4494B3E47C5CFBE56EE3",1,"01990a9f-0a1a-7ef5-8f97-99713a52b032","01990a83-7673-7c0c-a792-bbd8fbbaf673","2025-09-02_08h30.34.988",NA,NA,806.9435,806.9435,806.9435,807.2897,NA,NA,NA,NA,NA,NA,NA,TRUE,1,2.635,803.9406,806.9433,NA,NA,NA,NA,NA,10,30,0,78,78,10,1,2,79,"binary"
"FA5AE8A8FF3B4494B3E47C5CFBE56EE3",1,"01990a9f-0a1a-7ef5-8f97-99713a52b032","01990a83-7673-7c0c-a792-bbd8fbbaf673","2025-09-02_08h30.34.988",NA,NA,810.291,810.2911,810.2911,810.6437,NA,NA,NA,NA,NA,NA,NA,TRUE,1,1.1012,807.2916,810.2908,NA,NA,NA,NA,NA,150,35,0,79,79,92,1,2,80,"binary"
"FA5AE8A8FF3B4494B3E47C5CFBE56EE3",1,"01990a9f-0a1a-7ef5-8f97-99713a52b032","01990a83-7673-7c0c-a792-bbd8fbbaf673","2025-09-02_08h30.34.988",NA,NA,813.6423,813.6424,813.6425,813.9924,NA,NA,NA,NA,NA,NA,NA,TRUE,1,0.5878,810.6458,813.6422,NA,NA,NA,NA,NA,45,35,0,80,80,57,1,2,81,"binary"
"FA5AE8A8FF3B4494B3E47C5CFBE56EE3",1,"01990a9f-0a1a-7ef5-8f97-99713a52b032","01990a83-7673-7c0c-a792-bbd8fbbaf673","2025-09-02_08h30.34.988",NA,NA,816.9817,816.9817,816.9817,817.3268,NA,NA,NA,NA,NA,NA,NA,TRUE,1,0.5676,813.9947,816.9814,NA,NA,NA,NA,NA,180,46,0,81,81,100,1,2,82,"binary"
"FA5AE8A8FF3B4494B3E47C5CFBE56EE3",1,"01990a9f-0a1a-7ef5-8f97-99713a52b032","01990a83-7673-7c0c-a792-bbd8fbbaf673","2025-09-02_08h30.34.988",NA,NA,820.3282,820.3283,820.3283,820.6809,NA,NA,NA,NA,NA,NA,NA,TRUE,1,0.7456,817.3289,820.3281,NA,NA,NA,NA,NA,60,40,0,82,82,69,1,2,83,"binary"
"FA5AE8A8FF3B4494B3E47C5CFBE56EE3",1,"01990a9f-0a1a-7ef5-8f97-99713a52b032","01990a83-7673-7c0c-a792-bbd8fbbaf673","2025-09-02_08h30.34.988",NA,NA,823.6794,823.6795,823.6795,824.0333,NA,NA,NA,NA,NA,NA,NA,TRUE,1,0.5466,820.683,823.6792,NA,NA,NA,NA,NA,90,26,0,83,83,72,1,2,84,"binary"
"FA5AE8A8FF3B4494B3E47C5CFBE56EE3",1,"01990a9f-0a1a-7ef5-8f97-99713a52b032","01990a83-7673-7c0c-a792-bbd8fbbaf673","2025-09-02_08h30.34.988",NA,NA,827.0337,827.0338,827.0338,827.3808,NA,NA,NA,NA,NA,NA,NA,TRUE,1,1.284,824.0354,827.0335,NA,NA,NA,NA,NA,21,27,0,84,84,25,1,2,85,"binary"
"FA5AE8A8FF3B4494B3E47C5CFBE56EE3",1,"01990a9f-0a1a-7ef5-8f97-99713a52b032","01990a83-7673-7c0c-a792-bbd8fbbaf673","2025-09-02_08h30.34.988",NA,NA,830.3866,830.3866,830.3866,830.7358,NA,NA,NA,NA,NA,NA,NA,TRUE,2,1.0515,827.383,830.386,NA,NA,NA,NA,NA,12,25,0,85,85,12,1,2,86,"binary"
"FA5AE8A8FF3B4494B3E47C5CFBE56EE3",1,"01990a9f-0a1a-7ef5-8f97-99713a52b032","01990a83-7673-7c0c-a792-bbd8fbbaf673","2025-09-02_08h30.34.988",NA,NA,833.7332,833.7332,833.7332,834.0836,NA,NA,NA,NA,NA,NA,NA,TRUE,1,0.7516,830.7379,833.733,NA,NA,NA,NA,NA,95,31,0,86,86,78,1,2,87,"binary"
"FA5AE8A8FF3B4494B3E47C5CFBE56EE3",1,"01990a9f-0a1a-7ef5-8f97-99713a52b032","01990a83-7673-7c0c-a792-bbd8fbbaf673","2025-09-02_08h30.34.988",NA,NA,837.0846,837.0847,837.0847,837.4382,NA,NA,NA,NA,NA,NA,NA,TRUE,2,1.4557,834.0861,837.0844,NA,NA,NA,NA,NA,14,35,0,87,87,22,1,2,88,"binary"
"FA5AE8A8FF3B4494B3E47C5CFBE56EE3",1,"01990a9f-0a1a-7ef5-8f97-99713a52b032","01990a83-7673-7c0c-a792-bbd8fbbaf673","2025-09-02_08h30.34.988",NA,NA,840.436,840.4361,840.4361,840.7902,NA,NA,NA,NA,NA,NA,NA,TRUE,1,0.8166,837.4404,840.4359,NA,NA,NA,NA,NA,40,33,0,88,88,49,1,2,89,"binary"
"FA5AE8A8FF3B4494B3E47C5CFBE56EE3",1,"01990a9f-0a1a-7ef5-8f97-99713a52b032","01990a83-7673-7c0c-a792-bbd8fbbaf673","2025-09-02_08h30.34.988",NA,NA,843.7871,843.7871,843.7871,844.1369,NA,NA,NA,NA,NA,NA,NA,TRUE,1,0.517,840.7922,843.787,NA,NA,NA,NA,NA,100,38,0,89,89,86,1,2,90,"binary"
"FA5AE8A8FF3B4494B3E47C5CFBE56EE3",1,"01990a9f-0a1a-7ef5-8f97-99713a52b032","01990a83-7673-7c0c-a792-bbd8fbbaf673","2025-09-02_08h30.34.988",NA,NA,847.1418,847.1418,847.1419,847.4882,NA,NA,NA,NA,NA,NA,NA,TRUE,1,0.6856,844.139,847.1417,NA,NA,NA,NA,NA,25,29,0,90,90,31,1,2,91,"binary"
"FA5AE8A8FF3B4494B3E47C5CFBE56EE3",1,"01990a9f-0a1a-7ef5-8f97-99713a52b032","01990a83-7673-7c0c-a792-bbd8fbbaf673","2025-09-02_08h30.34.988",NA,NA,850.4925,850.4926,850.4926,850.8396,NA,NA,NA,NA,NA,NA,NA,TRUE,1,0.6357,847.4906,850.4923,NA,NA,NA,NA,NA,90,33,0,91,91,74,1,2,92,"binary"
"FA5AE8A8FF3B4494B3E47C5CFBE56EE3",1,"01990a9f-0a1a-7ef5-8f97-99713a52b032","01990a83-7673-7c0c-a792-bbd8fbbaf673","2025-09-02_08h30.34.988",NA,NA,853.8411,853.8412,853.8412,854.1911,NA,NA,NA,NA,NA,NA,NA,TRUE,1,0.8525,850.8415,853.8411,NA,NA,NA,NA,NA,45,40,0,92,92,58,1,2,93,"binary"
"FA5AE8A8FF3B4494B3E47C5CFBE56EE3",1,"01990a9f-0a1a-7ef5-8f97-99713a52b032","01990a83-7673-7c0c-a792-bbd8fbbaf673","2025-09-02_08h30.34.988",NA,NA,857.1801,857.1802,857.1803,857.5423,NA,NA,NA,NA,NA,NA,NA,TRUE,2,1.2855,854.1938,857.1799,NA,NA,NA,NA,NA,28,46,0,93,93,41,1,2,94,"binary"
"FA5AE8A8FF3B4494B3E47C5CFBE56EE3",1,"01990a9f-0a1a-7ef5-8f97-99713a52b032","01990a83-7673-7c0c-a792-bbd8fbbaf673","2025-09-02_08h30.34.988",NA,NA,860.5464,860.5465,860.5466,860.8974,NA,NA,NA,NA,NA,NA,NA,TRUE,1,0.6828,857.5441,860.5462,NA,NA,NA,NA,NA,95,54,0,94,94,83,1,2,95,"binary"
"FA5AE8A8FF3B4494B3E47C5CFBE56EE3",1,"01990a9f-0a1a-7ef5-8f97-99713a52b032","01990a83-7673-7c0c-a792-bbd8fbbaf673","2025-09-02_08h30.34.988",NA,NA,863.8781,863.8782,863.8782,864.2281,NA,NA,NA,NA,NA,NA,NA,TRUE,1,1.1241,860.8994,863.878,NA,NA,NA,NA,NA,30,32,0,95,95,46,1,2,96,"binary"
"FA5AE8A8FF3B4494B3E47C5CFBE56EE3",1,"01990a9f-0a1a-7ef5-8f97-99713a52b032","01990a83-7673-7c0c-a792-bbd8fbbaf673","2025-09-02_08h30.34.988",NA,NA,867.2332,867.2333,867.2333,867.5795,NA,NA,NA,NA,NA,NA,NA,TRUE,1,0.5583,864.23,867.233,NA,NA,NA,NA,NA,90,54,0,96,96,77,1,2,97,"binary"
"FA5AE8A8FF3B4494B3E47C5CFBE56EE3",1,"01990a9f-0a1a-7ef5-8f97-99713a52b032","01990a83-7673-7c0c-a792-bbd8fbbaf673","2025-09-02_08h30.34.988",NA,NA,870.5844,870.5845,870.5845,870.9305,NA,NA,NA,NA,NA,NA,NA,TRUE,1,0.6349,867.5819,870.5843,NA,NA,NA,NA,NA,28,35,0,97,97,39,1,2,98,"binary"
"FA5AE8A8FF3B4494B3E47C5CFBE56EE3",1,"01990a9f-0a1a-7ef5-8f97-99713a52b032","01990a83-7673-7c0c-a792-bbd8fbbaf673","2025-09-02_08h30.34.988",NA,NA,873.9319,873.932,873.9321,874.2819,NA,NA,NA,NA,NA,NA,NA,TRUE,1,0.7724,870.9324,873.9317,NA,NA,NA,NA,NA,45,29,0,98,98,55,1,2,99,"binary"
"FA5AE8A8FF3B4494B3E47C5CFBE56EE3",1,"01990a9f-0a1a-7ef5-8f97-99713a52b032","01990a83-7673-7c0c-a792-bbd8fbbaf673","2025-09-02_08h30.34.988",NA,NA,877.2868,877.2869,877.2869,877.6334,NA,NA,NA,NA,NA,NA,NA,TRUE,1,0.8841,874.2839,877.2866,NA,NA,NA,NA,NA,90,30,0,99,99,73,1,2,100,"binary"
"FA5AE8A8FF3B4494B3E47C5CFBE56EE3",1,"01990a9f-0a1a-7ef5-8f97-99713a52b032","01990a83-7673-7c0c-a792-bbd8fbbaf673","2025-09-02_08h30.34.988",NA,NA,880.6382,880.6382,880.6382,880.9844,NA,NA,NA,NA,NA,NA,NA,TRUE,1,0.5094,877.6355,880.638,NA,NA,NA,NA,NA,40,47,0,100,100,52,1,2,101,"binary"
"FA5AE8A8FF3B4494B3E47C5CFBE56EE3",1,"01990a9f-0a1a-7ef5-8f97-99713a52b032","01990a83-7673-7c0c-a792-bbd8fbbaf673","2025-09-02_08h30.34.988",NA,NA,883.9858,883.9858,883.9858,884.3357,NA,NA,NA,NA,NA,NA,NA,TRUE,1,0.5971,880.9864,883.9857,NA,NA,NA,NA,NA,28,26,0,101,101,36,1,2,102,"binary"
"FA5AE8A8FF3B4494B3E47C5CFBE56EE3",1,"01990a9f-0a1a-7ef5-8f97-99713a52b032","01990a83-7673-7c0c-a792-bbd8fbbaf673","2025-09-02_08h30.34.988",NA,NA,887.3398,887.3399,887.3399,887.687,NA,NA,NA,NA,NA,NA,NA,TRUE,1,0.5595,884.3377,887.3397,NA,NA,NA,NA,NA,50,35,0,102,102,62,1,2,103,"binary"
"FA5AE8A8FF3B4494B3E47C5CFBE56EE3",1,"01990a9f-0a1a-7ef5-8f97-99713a52b032","01990a83-7673-7c0c-a792-bbd8fbbaf673","2025-09-02_08h30.34.988",NA,NA,890.6918,890.6919,890.6919,891.0384,NA,NA,NA,NA,NA,NA,NA,TRUE,1,0.3286,887.6895,890.6917,NA,NA,NA,NA,NA,12,31,0,103,103,15,1,2,104,"binary"
"FA5AE8A8FF3B4494B3E47C5CFBE56EE3",1,"01990a9f-0a1a-7ef5-8f97-99713a52b032","01990a83-7673-7c0c-a792-bbd8fbbaf673","2025-09-02_08h30.34.988",NA,NA,894.0396,894.0397,894.0397,894.3898,NA,NA,NA,NA,NA,NA,NA,TRUE,1,1.7845,891.0405,894.0394,NA,NA,NA,NA,NA,21,32,0,104,104,28,1,2,105,"binary"
"FA5AE8A8FF3B4494B3E47C5CFBE56EE3",1,"01990a9f-0a1a-7ef5-8f97-99713a52b032","01990a83-7673-7c0c-a792-bbd8fbbaf673","2025-09-02_08h30.34.988",NA,NA,897.3949,897.3951,897.3951,897.727,NA,NA,NA,NA,NA,NA,NA,TRUE,1,0.7682,894.392,897.3948,NA,NA,NA,NA,NA,200,26,0,105,105,102,1,2,106,"binary"
"FA5AE8A8FF3B4494B3E47C5CFBE56EE3",1,"01990a9f-0a1a-7ef5-8f97-99713a52b032","01990a83-7673-7c0c-a792-bbd8fbbaf673","2025-09-02_08h30.34.988",NA,NA,900.7285,900.7285,900.7285,901.0959,NA,NA,NA,NA,NA,NA,NA,TRUE,2,1.2133,897.7291,900.7284,NA,NA,NA,NA,NA,10,27,0,106,106,8,1,2,107,"binary"
"FA5AE8A8FF3B4494B3E47C5CFBE56EE3",1,"01990a9f-0a1a-7ef5-8f97-99713a52b032","01990a83-7673-7c0c-a792-bbd8fbbaf673","2025-09-02_08h30.34.988",NA,NA,904.0975,904.0976,904.0976,904.4433,NA,NA,NA,NA,NA,NA,NA,TRUE,2,1.2011,901.098,904.0972,NA,NA,NA,NA,NA,12,35,0,107,107,17,1,2,108,"binary"
