"participant","session","assignmentId","projectId","date","practiceTrial.started","practiceTrial.stopped","tooLate.started","tooLate.stopped","blank.started","blank.stopped","trials_pract.thisRepN","trials_pract.thisTrialN","trials_pract.thisN","trials_pract.thisIndex","trials_pract.ran","delay_pract","amount_pract","responseMade","key","rt","trial.started","trial.stopped","trials.thisRepN","trials.thisTrialN","trials.thisN","trials.thisIndex","trials.ran","delay","amount","trials_2.thisRepN","trials_2.thisTrialN","trials_2.thisN","trials_2.thisIndex","trials_2.ran","block","trial","taskType"
"FAC2AA4E8E61415A854BA76B9E54D48B",1,"0198f7ab-21ac-7e29-95b1-ac33a374e7b7","0198f767-55c9-7875-8d21-563b3c0b86ed","2025-08-29_17h19.18.812",56.3356,59.3113,59.3124,59.5602,59.5603,59.6611,0,0,0,2,1,14,45,FALSE,NA,NA,NA,NA,NA,NA,NA,NA,NA,NA,NA,NA,NA,NA,NA,NA,0,1,"binary"
"FAC2AA4E8E61415A854BA76B9E54D48B",1,"0198f7ab-21ac-7e29-95b1-ac33a374e7b7","0198f767-55c9-7875-8d21-563b3c0b86ed","2025-08-29_17h19.18.812",59.6651,62.661,62.6612,62.6614,62.6614,63.01,0,1,1,3,1,3,27,TRUE,2,0.044,NA,NA,NA,NA,NA,NA,NA,NA,NA,NA,NA,NA,NA,NA,0,2,"binary"
"FAC2AA4E8E61415A854BA76B9E54D48B",1,"0198f7ab-21ac-7e29-95b1-ac33a374e7b7","0198f767-55c9-7875-8d21-563b3c0b86ed","2025-08-29_17h19.18.812",63.0123,66.0112,66.0115,66.0116,66.0116,66.3612,0,2,2,4,1,30,40,TRUE,1,1.4411,NA,NA,NA,NA,NA,NA,NA,NA,NA,NA,NA,NA,NA,NA,0,3,"binary"
"FAC2AA4E8E61415A854BA76B9E54D48B",1,"0198f7ab-21ac-7e29-95b1-ac33a374e7b7","0198f767-55c9-7875-8d21-563b3c0b86ed","2025-08-29_17h19.18.812",66.3639,69.3609,69.361,69.361,69.361,69.7112,0,3,3,1,1,100,50,TRUE,1,1.6736,NA,NA,NA,NA,NA,NA,NA,NA,NA,NA,NA,NA,NA,NA,0,4,"binary"
"FAC2AA4E8E61415A854BA76B9E54D48B",1,"0198f7ab-21ac-7e29-95b1-ac33a374e7b7","0198f767-55c9-7875-8d21-563b3c0b86ed","2025-08-29_17h19.18.812",69.7138,72.7114,72.7115,72.7116,72.7116,73.0604,0,4,4,0,1,7,30,TRUE,2,1.7061,NA,NA,NA,NA,NA,NA,NA,NA,NA,NA,NA,NA,NA,NA,0,5,"binary"
"FAC2AA4E8E61415A854BA76B9E54D48B",1,"0198f7ab-21ac-7e29-95b1-ac33a374e7b7","0198f767-55c9-7875-8d21-563b3c0b86ed","2025-08-29_17h19.18.812",NA,NA,104.6803,104.6804,104.6805,105.0296,NA,NA,NA,NA,NA,NA,NA,TRUE,1,1.1562,101.7023,104.6798,0,0,0,58,1,45,40,NA,NA,NA,NA,NA,1,1,"binary"
"FAC2AA4E8E61415A854BA76B9E54D48B",1,"0198f7ab-21ac-7e29-95b1-ac33a374e7b7","0198f767-55c9-7875-8d21-563b3c0b86ed","2025-08-29_17h19.18.812",NA,NA,108.0296,108.0297,108.0297,108.3795,NA,NA,NA,NA,NA,NA,NA,TRUE,1,1.4365,105.0315,108.0295,0,1,1,103,1,200,28,NA,NA,NA,NA,NA,1,2,"binary"
"FAC2AA4E8E61415A854BA76B9E54D48B",1,"0198f7ab-21ac-7e29-95b1-ac33a374e7b7","0198f767-55c9-7875-8d21-563b3c0b86ed","2025-08-29_17h19.18.812",NA,NA,111.3798,111.3798,111.3798,111.7296,NA,NA,NA,NA,NA,NA,NA,TRUE,1,0.9058,108.3815,111.3796,0,2,2,34,1,25,35,NA,NA,NA,NA,NA,1,3,"binary"
"FAC2AA4E8E61415A854BA76B9E54D48B",1,"0198f7ab-21ac-7e29-95b1-ac33a374e7b7","0198f767-55c9-7875-8d21-563b3c0b86ed","2025-08-29_17h19.18.812",NA,NA,114.7299,114.73,114.73,115.0795,NA,NA,NA,NA,NA,NA,NA,TRUE,1,0.884,111.7313,114.7297,0,3,3,72,1,90,26,NA,NA,NA,NA,NA,1,4,"binary"
"FAC2AA4E8E61415A854BA76B9E54D48B",1,"0198f7ab-21ac-7e29-95b1-ac33a374e7b7","0198f767-55c9-7875-8d21-563b3c0b86ed","2025-08-29_17h19.18.812",NA,NA,118.0801,118.0802,118.0803,118.43,NA,NA,NA,NA,NA,NA,NA,TRUE,1,0.9123,115.081,118.0799,0,4,4,69,1,60,40,NA,NA,NA,NA,NA,1,5,"binary"
"FAC2AA4E8E61415A854BA76B9E54D48B",1,"0198f7ab-21ac-7e29-95b1-ac33a374e7b7","0198f767-55c9-7875-8d21-563b3c0b86ed","2025-08-29_17h19.18.812",NA,NA,121.4302,121.4303,121.4303,121.7802,NA,NA,NA,NA,NA,NA,NA,TRUE,1,1.309,118.432,121.4301,0,5,5,39,1,28,35,NA,NA,NA,NA,NA,1,6,"binary"
"FAC2AA4E8E61415A854BA76B9E54D48B",1,"0198f7ab-21ac-7e29-95b1-ac33a374e7b7","0198f767-55c9-7875-8d21-563b3c0b86ed","2025-08-29_17h19.18.812",NA,NA,124.7795,124.7795,124.7796,125.1293,NA,NA,NA,NA,NA,NA,NA,TRUE,1,0.8279,121.7826,124.7793,0,6,6,51,1,40,40,NA,NA,NA,NA,NA,1,7,"binary"
"FAC2AA4E8E61415A854BA76B9E54D48B",1,"0198f7ab-21ac-7e29-95b1-ac33a374e7b7","0198f767-55c9-7875-8d21-563b3c0b86ed","2025-08-29_17h19.18.812",NA,NA,128.1306,128.1307,128.1308,128.4803,NA,NA,NA,NA,NA,NA,NA,TRUE,1,0.9026,125.1312,128.1304,0,7,7,104,1,200,35,NA,NA,NA,NA,NA,1,8,"binary"
"FAC2AA4E8E61415A854BA76B9E54D48B",1,"0198f7ab-21ac-7e29-95b1-ac33a374e7b7","0198f767-55c9-7875-8d21-563b3c0b86ed","2025-08-29_17h19.18.812",NA,NA,131.4805,131.4805,131.4805,131.8307,NA,NA,NA,NA,NA,NA,NA,TRUE,1,0.9101,128.4817,131.4803,0,8,8,99,1,180,39,NA,NA,NA,NA,NA,1,9,"binary"
"FAC2AA4E8E61415A854BA76B9E54D48B",1,"0198f7ab-21ac-7e29-95b1-ac33a374e7b7","0198f767-55c9-7875-8d21-563b3c0b86ed","2025-08-29_17h19.18.812",NA,NA,134.8297,134.8299,134.8299,135.1806,NA,NA,NA,NA,NA,NA,NA,TRUE,2,1.4406,131.8331,134.8296,0,9,9,21,1,14,32,NA,NA,NA,NA,NA,1,10,"binary"
"FAC2AA4E8E61415A854BA76B9E54D48B",1,"0198f7ab-21ac-7e29-95b1-ac33a374e7b7","0198f767-55c9-7875-8d21-563b3c0b86ed","2025-08-29_17h19.18.812",NA,NA,138.1808,138.1809,138.1809,138.5304,NA,NA,NA,NA,NA,NA,NA,TRUE,1,0.9099,135.1824,138.1807,0,10,10,36,1,28,26,NA,NA,NA,NA,NA,1,11,"binary"
"FAC2AA4E8E61415A854BA76B9E54D48B",1,"0198f7ab-21ac-7e29-95b1-ac33a374e7b7","0198f767-55c9-7875-8d21-563b3c0b86ed","2025-08-29_17h19.18.812",NA,NA,141.531,141.5311,141.5311,141.8799,NA,NA,NA,NA,NA,NA,NA,TRUE,1,1.0624,138.5317,141.5309,0,11,11,18,1,14,25,NA,NA,NA,NA,NA,1,12,"binary"
"FAC2AA4E8E61415A854BA76B9E54D48B",1,"0198f7ab-21ac-7e29-95b1-ac33a374e7b7","0198f767-55c9-7875-8d21-563b3c0b86ed","2025-08-29_17h19.18.812",NA,NA,144.8813,144.8814,144.8814,145.2311,NA,NA,NA,NA,NA,NA,NA,TRUE,1,0.6575,141.8818,144.8811,0,12,12,33,1,25,33,NA,NA,NA,NA,NA,1,13,"binary"
"FAC2AA4E8E61415A854BA76B9E54D48B",1,"0198f7ab-21ac-7e29-95b1-ac33a374e7b7","0198f767-55c9-7875-8d21-563b3c0b86ed","2025-08-29_17h19.18.812",NA,NA,148.2314,148.2314,148.2314,148.5812,NA,NA,NA,NA,NA,NA,NA,TRUE,1,0.7737,145.233,148.2312,0,13,13,55,1,45,29,NA,NA,NA,NA,NA,1,14,"binary"
"FAC2AA4E8E61415A854BA76B9E54D48B",1,"0198f7ab-21ac-7e29-95b1-ac33a374e7b7","0198f767-55c9-7875-8d21-563b3c0b86ed","2025-08-29_17h19.18.812",NA,NA,151.5815,151.5816,151.5816,151.9316,NA,NA,NA,NA,NA,NA,NA,TRUE,1,0.8408,148.5832,151.5814,0,14,14,77,1,90,54,NA,NA,NA,NA,NA,1,15,"binary"
"FAC2AA4E8E61415A854BA76B9E54D48B",1,"0198f7ab-21ac-7e29-95b1-ac33a374e7b7","0198f767-55c9-7875-8d21-563b3c0b86ed","2025-08-29_17h19.18.812",NA,NA,154.9317,154.9318,154.9318,155.2815,NA,NA,NA,NA,NA,NA,NA,TRUE,1,1.2746,151.9339,154.9316,0,15,15,41,1,28,46,NA,NA,NA,NA,NA,1,16,"binary"
"FAC2AA4E8E61415A854BA76B9E54D48B",1,"0198f7ab-21ac-7e29-95b1-ac33a374e7b7","0198f767-55c9-7875-8d21-563b3c0b86ed","2025-08-29_17h19.18.812",NA,NA,158.2817,158.2818,158.2818,158.6315,NA,NA,NA,NA,NA,NA,NA,TRUE,1,1.0843,155.2834,158.2815,0,16,16,88,1,100,46,NA,NA,NA,NA,NA,1,17,"binary"
"FAC2AA4E8E61415A854BA76B9E54D48B",1,"0198f7ab-21ac-7e29-95b1-ac33a374e7b7","0198f767-55c9-7875-8d21-563b3c0b86ed","2025-08-29_17h19.18.812",NA,NA,161.6319,161.6319,161.632,161.9818,NA,NA,NA,NA,NA,NA,NA,TRUE,2,1.0188,158.6336,161.6318,0,17,17,16,1,12,33,NA,NA,NA,NA,NA,1,18,"binary"
"FAC2AA4E8E61415A854BA76B9E54D48B",1,"0198f7ab-21ac-7e29-95b1-ac33a374e7b7","0198f767-55c9-7875-8d21-563b3c0b86ed","2025-08-29_17h19.18.812",NA,NA,164.9821,164.9821,164.9821,165.3319,NA,NA,NA,NA,NA,NA,NA,TRUE,1,0.7737,161.9842,164.9819,0,18,18,56,1,45,31,NA,NA,NA,NA,NA,1,19,"binary"
"FAC2AA4E8E61415A854BA76B9E54D48B",1,"0198f7ab-21ac-7e29-95b1-ac33a374e7b7","0198f767-55c9-7875-8d21-563b3c0b86ed","2025-08-29_17h19.18.812",NA,NA,168.3322,168.3322,168.3322,168.682,NA,NA,NA,NA,NA,NA,NA,TRUE,1,0.6913,165.3337,168.332,0,19,19,97,1,180,31,NA,NA,NA,NA,NA,1,20,"binary"
"FAC2AA4E8E61415A854BA76B9E54D48B",1,"0198f7ab-21ac-7e29-95b1-ac33a374e7b7","0198f767-55c9-7875-8d21-563b3c0b86ed","2025-08-29_17h19.18.812",NA,NA,171.6822,171.6823,171.6823,172.0322,NA,NA,NA,NA,NA,NA,NA,TRUE,1,0.6907,168.6838,171.6821,0,20,20,84,1,100,26,NA,NA,NA,NA,NA,1,21,"binary"
"FAC2AA4E8E61415A854BA76B9E54D48B",1,"0198f7ab-21ac-7e29-95b1-ac33a374e7b7","0198f767-55c9-7875-8d21-563b3c0b86ed","2025-08-29_17h19.18.812",NA,NA,175.0325,175.0326,175.0326,175.3822,NA,NA,NA,NA,NA,NA,NA,TRUE,1,1.1242,172.0345,175.0324,0,21,21,0,1,7,25,NA,NA,NA,NA,NA,1,22,"binary"
"FAC2AA4E8E61415A854BA76B9E54D48B",1,"0198f7ab-21ac-7e29-95b1-ac33a374e7b7","0198f767-55c9-7875-8d21-563b3c0b86ed","2025-08-29_17h19.18.812",NA,NA,178.3825,178.3827,178.3827,178.7323,NA,NA,NA,NA,NA,NA,NA,TRUE,2,1.2858,175.3843,178.3824,0,22,22,10,1,10,30,NA,NA,NA,NA,NA,1,23,"binary"
"FAC2AA4E8E61415A854BA76B9E54D48B",1,"0198f7ab-21ac-7e29-95b1-ac33a374e7b7","0198f767-55c9-7875-8d21-563b3c0b86ed","2025-08-29_17h19.18.812",NA,NA,181.7327,181.7328,181.7328,182.0827,NA,NA,NA,NA,NA,NA,NA,TRUE,1,0.7903,178.7342,181.7326,0,23,23,57,1,45,35,NA,NA,NA,NA,NA,1,24,"binary"
"FAC2AA4E8E61415A854BA76B9E54D48B",1,"0198f7ab-21ac-7e29-95b1-ac33a374e7b7","0198f767-55c9-7875-8d21-563b3c0b86ed","2025-08-29_17h19.18.812",NA,NA,185.0829,185.0829,185.0831,185.4327,NA,NA,NA,NA,NA,NA,NA,TRUE,1,0.9567,182.085,185.0827,0,24,24,6,1,10,25,NA,NA,NA,NA,NA,1,25,"binary"
"FAC2AA4E8E61415A854BA76B9E54D48B",1,"0198f7ab-21ac-7e29-95b1-ac33a374e7b7","0198f767-55c9-7875-8d21-563b3c0b86ed","2025-08-29_17h19.18.812",NA,NA,188.4331,188.4332,188.4332,188.7828,NA,NA,NA,NA,NA,NA,NA,TRUE,1,1.2663,185.4347,188.4329,0,25,25,40,1,28,39,NA,NA,NA,NA,NA,1,26,"binary"
"FAC2AA4E8E61415A854BA76B9E54D48B",1,"0198f7ab-21ac-7e29-95b1-ac33a374e7b7","0198f767-55c9-7875-8d21-563b3c0b86ed","2025-08-29_17h19.18.812",NA,NA,191.7828,191.7828,191.7828,192.1329,NA,NA,NA,NA,NA,NA,NA,TRUE,1,1.4282,188.7842,191.7827,0,26,26,49,1,40,33,NA,NA,NA,NA,NA,1,27,"binary"
"FAC2AA4E8E61415A854BA76B9E54D48B",1,"0198f7ab-21ac-7e29-95b1-ac33a374e7b7","0198f767-55c9-7875-8d21-563b3c0b86ed","2025-08-29_17h19.18.812",NA,NA,195.1331,195.1332,195.1332,195.4832,NA,NA,NA,NA,NA,NA,NA,TRUE,1,0.991,192.1348,195.133,0,27,27,63,1,50,40,NA,NA,NA,NA,NA,1,28,"binary"
"FAC2AA4E8E61415A854BA76B9E54D48B",1,"0198f7ab-21ac-7e29-95b1-ac33a374e7b7","0198f767-55c9-7875-8d21-563b3c0b86ed","2025-08-29_17h19.18.812",NA,NA,198.4833,198.4834,198.4834,198.8333,NA,NA,NA,NA,NA,NA,NA,TRUE,1,0.7248,195.4853,198.4832,0,28,28,74,1,90,33,NA,NA,NA,NA,NA,1,29,"binary"
"FAC2AA4E8E61415A854BA76B9E54D48B",1,"0198f7ab-21ac-7e29-95b1-ac33a374e7b7","0198f767-55c9-7875-8d21-563b3c0b86ed","2025-08-29_17h19.18.812",NA,NA,201.8337,201.8337,201.8337,202.1833,NA,NA,NA,NA,NA,NA,NA,TRUE,1,0.679,198.8351,201.8335,0,29,29,96,1,180,27,NA,NA,NA,NA,NA,1,30,"binary"
"FAC2AA4E8E61415A854BA76B9E54D48B",1,"0198f7ab-21ac-7e29-95b1-ac33a374e7b7","0198f767-55c9-7875-8d21-563b3c0b86ed","2025-08-29_17h19.18.812",NA,NA,205.1837,205.1838,205.1838,205.5335,NA,NA,NA,NA,NA,NA,NA,TRUE,1,1.4291,202.1852,205.1835,0,30,30,1,1,7,26,NA,NA,NA,NA,NA,1,31,"binary"
"FAC2AA4E8E61415A854BA76B9E54D48B",1,"0198f7ab-21ac-7e29-95b1-ac33a374e7b7","0198f767-55c9-7875-8d21-563b3c0b86ed","2025-08-29_17h19.18.812",NA,NA,208.5338,208.5338,208.5338,208.8836,NA,NA,NA,NA,NA,NA,NA,TRUE,1,1.2598,205.5354,208.5336,0,31,31,79,1,95,33,NA,NA,NA,NA,NA,1,32,"binary"
"FAC2AA4E8E61415A854BA76B9E54D48B",1,"0198f7ab-21ac-7e29-95b1-ac33a374e7b7","0198f767-55c9-7875-8d21-563b3c0b86ed","2025-08-29_17h19.18.812",NA,NA,211.8839,211.8839,211.8839,212.2175,NA,NA,NA,NA,NA,NA,NA,TRUE,1,1.4158,208.8855,211.8838,0,32,32,9,1,10,29,NA,NA,NA,NA,NA,1,33,"binary"
"FAC2AA4E8E61415A854BA76B9E54D48B",1,"0198f7ab-21ac-7e29-95b1-ac33a374e7b7","0198f767-55c9-7875-8d21-563b3c0b86ed","2025-08-29_17h19.18.812",NA,NA,215.2342,215.2343,215.2343,215.584,NA,NA,NA,NA,NA,NA,NA,TRUE,2,1.9674,212.2197,215.234,0,33,33,22,1,14,35,NA,NA,NA,NA,NA,1,34,"binary"
"FAC2AA4E8E61415A854BA76B9E54D48B",1,"0198f7ab-21ac-7e29-95b1-ac33a374e7b7","0198f767-55c9-7875-8d21-563b3c0b86ed","2025-08-29_17h19.18.812",NA,NA,218.5842,218.5843,218.5843,218.934,NA,NA,NA,NA,NA,NA,NA,TRUE,1,1.2069,215.5858,218.584,0,34,34,100,1,180,46,NA,NA,NA,NA,NA,1,35,"binary"
"FAC2AA4E8E61415A854BA76B9E54D48B",1,"0198f7ab-21ac-7e29-95b1-ac33a374e7b7","0198f767-55c9-7875-8d21-563b3c0b86ed","2025-08-29_17h19.18.812",NA,NA,221.9177,221.9177,221.9178,222.2676,NA,NA,NA,NA,NA,NA,NA,TRUE,2,1.6572,218.936,221.9175,0,35,35,65,1,50,54,NA,NA,NA,NA,NA,1,36,"binary"
"FAC2AA4E8E61415A854BA76B9E54D48B",1,"0198f7ab-21ac-7e29-95b1-ac33a374e7b7","0198f767-55c9-7875-8d21-563b3c0b86ed","2025-08-29_17h19.18.812",NA,NA,225.2678,225.2678,225.2678,225.6177,NA,NA,NA,NA,NA,NA,NA,TRUE,2,1.9512,222.2699,225.2677,0,36,36,11,1,10,32,NA,NA,NA,NA,NA,1,37,"binary"
"FAC2AA4E8E61415A854BA76B9E54D48B",1,"0198f7ab-21ac-7e29-95b1-ac33a374e7b7","0198f767-55c9-7875-8d21-563b3c0b86ed","2025-08-29_17h19.18.812",NA,NA,228.6347,228.6347,228.6347,228.9678,NA,NA,NA,NA,NA,NA,NA,TRUE,1,1.8517,225.6195,228.6345,0,37,37,2,1,7,28,NA,NA,NA,NA,NA,1,38,"binary"
"FAC2AA4E8E61415A854BA76B9E54D48B",1,"0198f7ab-21ac-7e29-95b1-ac33a374e7b7","0198f767-55c9-7875-8d21-563b3c0b86ed","2025-08-29_17h19.18.812",NA,NA,231.9682,231.9682,231.9682,232.3179,NA,NA,NA,NA,NA,NA,NA,TRUE,1,2.0461,228.9699,231.968,0,38,38,86,1,100,38,NA,NA,NA,NA,NA,1,39,"binary"
"FAC2AA4E8E61415A854BA76B9E54D48B",1,"0198f7ab-21ac-7e29-95b1-ac33a374e7b7","0198f767-55c9-7875-8d21-563b3c0b86ed","2025-08-29_17h19.18.812",NA,NA,235.3182,235.3183,235.3184,235.6682,NA,NA,NA,NA,NA,NA,NA,TRUE,1,1.0173,232.3203,235.3181,0,39,39,91,1,150,33,NA,NA,NA,NA,NA,1,40,"binary"
"FAC2AA4E8E61415A854BA76B9E54D48B",1,"0198f7ab-21ac-7e29-95b1-ac33a374e7b7","0198f767-55c9-7875-8d21-563b3c0b86ed","2025-08-29_17h19.18.812",NA,NA,238.6841,238.6842,238.6842,239.0182,NA,NA,NA,NA,NA,NA,NA,TRUE,1,1.0287,235.67,238.6839,0,40,40,93,1,150,40,NA,NA,NA,NA,NA,1,41,"binary"
"FAC2AA4E8E61415A854BA76B9E54D48B",1,"0198f7ab-21ac-7e29-95b1-ac33a374e7b7","0198f767-55c9-7875-8d21-563b3c0b86ed","2025-08-29_17h19.18.812",NA,NA,242.0185,242.0186,242.0186,242.3686,NA,NA,NA,NA,NA,NA,NA,TRUE,1,1.4857,239.0204,242.0184,0,41,41,76,1,90,46,NA,NA,NA,NA,NA,1,42,"binary"
"FAC2AA4E8E61415A854BA76B9E54D48B",1,"0198f7ab-21ac-7e29-95b1-ac33a374e7b7","0198f767-55c9-7875-8d21-563b3c0b86ed","2025-08-29_17h19.18.812",NA,NA,245.3687,245.3688,245.3688,245.7186,NA,NA,NA,NA,NA,NA,NA,TRUE,1,1.5509,242.3708,245.3686,0,42,42,105,1,200,39,NA,NA,NA,NA,NA,1,43,"binary"
"FAC2AA4E8E61415A854BA76B9E54D48B",1,"0198f7ab-21ac-7e29-95b1-ac33a374e7b7","0198f767-55c9-7875-8d21-563b3c0b86ed","2025-08-29_17h19.18.812",NA,NA,248.719,248.719,248.7191,249.0687,NA,NA,NA,NA,NA,NA,NA,TRUE,1,2.0338,245.7206,248.7187,0,43,43,44,1,30,29,NA,NA,NA,NA,NA,1,44,"binary"
"FAC2AA4E8E61415A854BA76B9E54D48B",1,"0198f7ab-21ac-7e29-95b1-ac33a374e7b7","0198f767-55c9-7875-8d21-563b3c0b86ed","2025-08-29_17h19.18.812",NA,NA,252.0689,252.069,252.069,252.4178,NA,NA,NA,NA,NA,NA,NA,TRUE,1,1.6513,249.0707,252.0688,0,44,44,94,1,150,47,NA,NA,NA,NA,NA,1,45,"binary"
"FAC2AA4E8E61415A854BA76B9E54D48B",1,"0198f7ab-21ac-7e29-95b1-ac33a374e7b7","0198f767-55c9-7875-8d21-563b3c0b86ed","2025-08-29_17h19.18.812",NA,NA,255.418,255.418,255.418,255.768,NA,NA,NA,NA,NA,NA,NA,TRUE,1,0.9866,252.4198,255.4179,0,45,45,78,1,95,31,NA,NA,NA,NA,NA,1,46,"binary"
"FAC2AA4E8E61415A854BA76B9E54D48B",1,"0198f7ab-21ac-7e29-95b1-ac33a374e7b7","0198f767-55c9-7875-8d21-563b3c0b86ed","2025-08-29_17h19.18.812",NA,NA,258.7682,258.7683,258.7683,259.1189,NA,NA,NA,NA,NA,NA,NA,TRUE,2,1.5997,255.7698,258.7682,0,46,46,15,1,12,31,NA,NA,NA,NA,NA,1,47,"binary"
"FAC2AA4E8E61415A854BA76B9E54D48B",1,"0198f7ab-21ac-7e29-95b1-ac33a374e7b7","0198f767-55c9-7875-8d21-563b3c0b86ed","2025-08-29_17h19.18.812",NA,NA,262.1183,262.1183,262.1183,262.4695,NA,NA,NA,NA,NA,NA,NA,TRUE,1,1.2342,259.1209,262.1182,0,47,47,43,1,30,27,NA,NA,NA,NA,NA,1,48,"binary"
"FAC2AA4E8E61415A854BA76B9E54D48B",1,"0198f7ab-21ac-7e29-95b1-ac33a374e7b7","0198f767-55c9-7875-8d21-563b3c0b86ed","2025-08-29_17h19.18.812",NA,NA,265.4695,265.4696,265.4696,265.8194,NA,NA,NA,NA,NA,NA,NA,TRUE,2,1.6674,262.4717,265.4694,0,48,48,27,1,21,30,NA,NA,NA,NA,NA,1,49,"binary"
"FAC2AA4E8E61415A854BA76B9E54D48B",1,"0198f7ab-21ac-7e29-95b1-ac33a374e7b7","0198f767-55c9-7875-8d21-563b3c0b86ed","2025-08-29_17h19.18.812",NA,NA,268.8195,268.8195,268.8196,269.1694,NA,NA,NA,NA,NA,NA,NA,TRUE,1,1.0943,265.8214,268.8194,0,49,49,50,1,40,35,NA,NA,NA,NA,NA,1,50,"binary"
"FAC2AA4E8E61415A854BA76B9E54D48B",1,"0198f7ab-21ac-7e29-95b1-ac33a374e7b7","0198f767-55c9-7875-8d21-563b3c0b86ed","2025-08-29_17h19.18.812",NA,NA,272.1698,272.1699,272.1699,272.5196,NA,NA,NA,NA,NA,NA,NA,TRUE,1,0.9508,269.1715,272.1697,0,50,50,66,1,60,29,NA,NA,NA,NA,NA,1,51,"binary"
"FAC2AA4E8E61415A854BA76B9E54D48B",1,"0198f7ab-21ac-7e29-95b1-ac33a374e7b7","0198f767-55c9-7875-8d21-563b3c0b86ed","2025-08-29_17h19.18.812",NA,NA,275.5199,275.52,275.52,275.87,NA,NA,NA,NA,NA,NA,NA,TRUE,1,1.1181,272.5216,275.5198,0,51,51,67,1,60,33,NA,NA,NA,NA,NA,1,52,"binary"
"FAC2AA4E8E61415A854BA76B9E54D48B",1,"0198f7ab-21ac-7e29-95b1-ac33a374e7b7","0198f767-55c9-7875-8d21-563b3c0b86ed","2025-08-29_17h19.18.812",NA,NA,278.8702,278.8702,278.8702,279.22,NA,NA,NA,NA,NA,NA,NA,TRUE,1,0.7219,275.8717,278.8699,0,52,52,85,1,100,31,NA,NA,NA,NA,NA,1,53,"binary"
"FAC2AA4E8E61415A854BA76B9E54D48B",1,"0198f7ab-21ac-7e29-95b1-ac33a374e7b7","0198f767-55c9-7875-8d21-563b3c0b86ed","2025-08-29_17h19.18.812",NA,NA,282.2192,282.2192,282.2192,282.5691,NA,NA,NA,NA,NA,NA,NA,TRUE,1,1.5355,279.222,282.2191,0,53,53,31,1,25,29,NA,NA,NA,NA,NA,1,54,"binary"
"FAC2AA4E8E61415A854BA76B9E54D48B",1,"0198f7ab-21ac-7e29-95b1-ac33a374e7b7","0198f767-55c9-7875-8d21-563b3c0b86ed","2025-08-29_17h19.18.812",NA,NA,285.5704,285.5704,285.5704,285.9194,NA,NA,NA,NA,NA,NA,NA,TRUE,1,1.9831,282.5713,285.5702,0,54,54,53,1,40,54,NA,NA,NA,NA,NA,1,55,"binary"
"FAC2AA4E8E61415A854BA76B9E54D48B",1,"0198f7ab-21ac-7e29-95b1-ac33a374e7b7","0198f767-55c9-7875-8d21-563b3c0b86ed","2025-08-29_17h19.18.812",NA,NA,288.9205,288.9205,288.9205,289.2703,NA,NA,NA,NA,NA,NA,NA,TRUE,1,1.3342,285.9211,288.9203,0,55,55,75,1,90,40,NA,NA,NA,NA,NA,1,56,"binary"
"FAC2AA4E8E61415A854BA76B9E54D48B",1,"0198f7ab-21ac-7e29-95b1-ac33a374e7b7","0198f767-55c9-7875-8d21-563b3c0b86ed","2025-08-29_17h19.18.812",NA,NA,292.2706,292.2706,292.2707,292.6196,NA,NA,NA,NA,NA,NA,NA,TRUE,1,1.361,289.2728,292.2705,0,56,56,101,1,180,54,NA,NA,NA,NA,NA,1,57,"binary"
"FAC2AA4E8E61415A854BA76B9E54D48B",1,"0198f7ab-21ac-7e29-95b1-ac33a374e7b7","0198f767-55c9-7875-8d21-563b3c0b86ed","2025-08-29_17h19.18.812",NA,NA,295.6209,295.6209,295.6209,295.9707,NA,NA,NA,NA,NA,NA,NA,TRUE,1,1.4681,292.6215,295.6207,0,57,57,59,1,45,46,NA,NA,NA,NA,NA,1,58,"binary"
"FAC2AA4E8E61415A854BA76B9E54D48B",1,"0198f7ab-21ac-7e29-95b1-ac33a374e7b7","0198f767-55c9-7875-8d21-563b3c0b86ed","2025-08-29_17h19.18.812",NA,NA,298.9709,298.9709,298.971,299.3198,NA,NA,NA,NA,NA,NA,NA,TRUE,1,0.8007,295.9727,298.9707,0,58,58,81,1,95,40,NA,NA,NA,NA,NA,1,59,"binary"
"FAC2AA4E8E61415A854BA76B9E54D48B",1,"0198f7ab-21ac-7e29-95b1-ac33a374e7b7","0198f767-55c9-7875-8d21-563b3c0b86ed","2025-08-29_17h19.18.812",NA,NA,302.3201,302.3201,302.3201,302.671,NA,NA,NA,NA,NA,NA,NA,TRUE,1,1.718,299.3217,302.32,0,59,59,7,1,10,26,NA,NA,NA,NA,NA,1,60,"binary"
"FAC2AA4E8E61415A854BA76B9E54D48B",1,"0198f7ab-21ac-7e29-95b1-ac33a374e7b7","0198f767-55c9-7875-8d21-563b3c0b86ed","2025-08-29_17h19.18.812",NA,NA,305.6712,305.6713,305.6713,306.0211,NA,NA,NA,NA,NA,NA,NA,TRUE,1,0.737,302.6732,305.671,0,60,60,82,1,95,47,NA,NA,NA,NA,NA,1,61,"binary"
"FAC2AA4E8E61415A854BA76B9E54D48B",1,"0198f7ab-21ac-7e29-95b1-ac33a374e7b7","0198f767-55c9-7875-8d21-563b3c0b86ed","2025-08-29_17h19.18.812",NA,NA,309.0213,309.0214,309.0214,309.3712,NA,NA,NA,NA,NA,NA,NA,TRUE,1,1.7175,306.0229,309.0212,0,61,61,80,1,95,35,NA,NA,NA,NA,NA,1,62,"binary"
"FAC2AA4E8E61415A854BA76B9E54D48B",1,"0198f7ab-21ac-7e29-95b1-ac33a374e7b7","0198f767-55c9-7875-8d21-563b3c0b86ed","2025-08-29_17h19.18.812",NA,NA,312.3715,312.3715,312.3716,312.7214,NA,NA,NA,NA,NA,NA,NA,TRUE,2,0.8513,309.3732,312.3713,0,62,62,5,1,7,35,NA,NA,NA,NA,NA,1,63,"binary"
"FAC2AA4E8E61415A854BA76B9E54D48B",1,"0198f7ab-21ac-7e29-95b1-ac33a374e7b7","0198f767-55c9-7875-8d21-563b3c0b86ed","2025-08-29_17h19.18.812",NA,NA,315.7216,315.7216,315.7216,316.0705,NA,NA,NA,NA,NA,NA,NA,TRUE,2,1.1663,312.7229,315.7215,0,63,63,3,1,7,30,NA,NA,NA,NA,NA,1,64,"binary"
"FAC2AA4E8E61415A854BA76B9E54D48B",1,"0198f7ab-21ac-7e29-95b1-ac33a374e7b7","0198f767-55c9-7875-8d21-563b3c0b86ed","2025-08-29_17h19.18.812",NA,NA,319.0708,319.0708,319.0708,319.4208,NA,NA,NA,NA,NA,NA,NA,TRUE,1,0.6837,316.0724,319.0706,0,64,64,106,1,200,47,NA,NA,NA,NA,NA,1,65,"binary"
"FAC2AA4E8E61415A854BA76B9E54D48B",1,"0198f7ab-21ac-7e29-95b1-ac33a374e7b7","0198f767-55c9-7875-8d21-563b3c0b86ed","2025-08-29_17h19.18.812",NA,NA,322.4219,322.4219,322.422,322.7719,NA,NA,NA,NA,NA,NA,NA,TRUE,1,0.884,319.4227,322.4218,0,65,65,48,1,40,27,NA,NA,NA,NA,NA,1,66,"binary"
"FAC2AA4E8E61415A854BA76B9E54D48B",1,"0198f7ab-21ac-7e29-95b1-ac33a374e7b7","0198f767-55c9-7875-8d21-563b3c0b86ed","2025-08-29_17h19.18.812",NA,NA,325.772,325.772,325.7722,326.122,NA,NA,NA,NA,NA,NA,NA,TRUE,2,1.8718,322.7743,325.7719,0,66,66,23,1,14,39,NA,NA,NA,NA,NA,1,67,"binary"
"FAC2AA4E8E61415A854BA76B9E54D48B",1,"0198f7ab-21ac-7e29-95b1-ac33a374e7b7","0198f767-55c9-7875-8d21-563b3c0b86ed","2025-08-29_17h19.18.812",NA,NA,329.1221,329.1222,329.1222,329.472,NA,NA,NA,NA,NA,NA,NA,TRUE,1,1.4518,326.124,329.122,0,67,67,28,1,21,32,NA,NA,NA,NA,NA,1,68,"binary"
"FAC2AA4E8E61415A854BA76B9E54D48B",1,"0198f7ab-21ac-7e29-95b1-ac33a374e7b7","0198f767-55c9-7875-8d21-563b3c0b86ed","2025-08-29_17h19.18.812",NA,NA,332.4724,332.4724,332.4725,332.8223,NA,NA,NA,NA,NA,NA,NA,TRUE,1,1.0954,329.4741,332.4723,0,68,68,8,1,10,27,NA,NA,NA,NA,NA,1,69,"binary"
"FAC2AA4E8E61415A854BA76B9E54D48B",1,"0198f7ab-21ac-7e29-95b1-ac33a374e7b7","0198f767-55c9-7875-8d21-563b3c0b86ed","2025-08-29_17h19.18.812",NA,NA,335.8213,335.8214,335.8214,336.1723,NA,NA,NA,NA,NA,NA,NA,TRUE,1,1.1008,332.8245,335.8212,0,69,69,60,1,50,27,NA,NA,NA,NA,NA,1,70,"binary"
"FAC2AA4E8E61415A854BA76B9E54D48B",1,"0198f7ab-21ac-7e29-95b1-ac33a374e7b7","0198f767-55c9-7875-8d21-563b3c0b86ed","2025-08-29_17h19.18.812",NA,NA,339.1726,339.1727,339.1727,339.5215,NA,NA,NA,NA,NA,NA,NA,TRUE,1,0.7184,336.1743,339.1724,0,70,70,87,1,100,39,NA,NA,NA,NA,NA,1,71,"binary"
"FAC2AA4E8E61415A854BA76B9E54D48B",1,"0198f7ab-21ac-7e29-95b1-ac33a374e7b7","0198f767-55c9-7875-8d21-563b3c0b86ed","2025-08-29_17h19.18.812",NA,NA,342.5226,342.5226,342.5226,342.8726,NA,NA,NA,NA,NA,NA,NA,TRUE,1,1.2954,339.5234,342.5224,0,71,71,19,1,14,26,NA,NA,NA,NA,NA,1,72,"binary"
"FAC2AA4E8E61415A854BA76B9E54D48B",1,"0198f7ab-21ac-7e29-95b1-ac33a374e7b7","0198f767-55c9-7875-8d21-563b3c0b86ed","2025-08-29_17h19.18.812",NA,NA,345.8727,345.8727,345.8727,346.2226,NA,NA,NA,NA,NA,NA,NA,TRUE,1,0.9999,342.8749,345.8725,0,72,72,26,1,21,29,NA,NA,NA,NA,NA,1,73,"binary"
"FAC2AA4E8E61415A854BA76B9E54D48B",1,"0198f7ab-21ac-7e29-95b1-ac33a374e7b7","0198f767-55c9-7875-8d21-563b3c0b86ed","2025-08-29_17h19.18.812",NA,NA,349.2232,349.2232,349.2232,349.5729,NA,NA,NA,NA,NA,NA,NA,TRUE,1,0.8047,346.2241,349.223,0,73,73,89,1,100,54,NA,NA,NA,NA,NA,1,74,"binary"
"FAC2AA4E8E61415A854BA76B9E54D48B",1,"0198f7ab-21ac-7e29-95b1-ac33a374e7b7","0198f767-55c9-7875-8d21-563b3c0b86ed","2025-08-29_17h19.18.812",NA,NA,352.5722,352.5723,352.5723,352.9224,NA,NA,NA,NA,NA,NA,NA,TRUE,1,1.4352,349.5749,352.5721,0,74,74,13,1,12,26,NA,NA,NA,NA,NA,1,75,"binary"
"FAC2AA4E8E61415A854BA76B9E54D48B",1,"0198f7ab-21ac-7e29-95b1-ac33a374e7b7","0198f767-55c9-7875-8d21-563b3c0b86ed","2025-08-29_17h19.18.812",NA,NA,355.9232,355.9232,355.9232,356.2728,NA,NA,NA,NA,NA,NA,NA,TRUE,1,1.4287,352.9244,355.923,0,75,75,83,1,95,54,NA,NA,NA,NA,NA,1,76,"binary"
"FAC2AA4E8E61415A854BA76B9E54D48B",1,"0198f7ab-21ac-7e29-95b1-ac33a374e7b7","0198f767-55c9-7875-8d21-563b3c0b86ed","2025-08-29_17h19.18.812",NA,NA,359.2734,359.2734,359.2734,359.6226,NA,NA,NA,NA,NA,NA,NA,TRUE,1,2.0674,356.2748,359.2732,0,76,76,68,1,60,35,NA,NA,NA,NA,NA,1,77,"binary"
"FAC2AA4E8E61415A854BA76B9E54D48B",1,"0198f7ab-21ac-7e29-95b1-ac33a374e7b7","0198f767-55c9-7875-8d21-563b3c0b86ed","2025-08-29_17h19.18.812",NA,NA,362.6235,362.6235,362.6235,362.9732,NA,NA,NA,NA,NA,NA,NA,TRUE,2,1.4779,359.6242,362.6233,0,77,77,46,1,30,32,NA,NA,NA,NA,NA,1,78,"binary"
"FAC2AA4E8E61415A854BA76B9E54D48B",1,"0198f7ab-21ac-7e29-95b1-ac33a374e7b7","0198f767-55c9-7875-8d21-563b3c0b86ed","2025-08-29_17h19.18.812",NA,NA,365.9729,365.9729,365.9729,366.3237,NA,NA,NA,NA,NA,NA,NA,TRUE,1,1.2004,362.9742,365.9727,0,78,78,24,1,21,26,NA,NA,NA,NA,NA,1,79,"binary"
"FAC2AA4E8E61415A854BA76B9E54D48B",1,"0198f7ab-21ac-7e29-95b1-ac33a374e7b7","0198f767-55c9-7875-8d21-563b3c0b86ed","2025-08-29_17h19.18.812",NA,NA,369.3238,369.3238,369.3238,369.6727,NA,NA,NA,NA,NA,NA,NA,TRUE,2,1.5011,366.3255,369.3236,0,79,79,32,1,25,31,NA,NA,NA,NA,NA,1,80,"binary"
"FAC2AA4E8E61415A854BA76B9E54D48B",1,"0198f7ab-21ac-7e29-95b1-ac33a374e7b7","0198f767-55c9-7875-8d21-563b3c0b86ed","2025-08-29_17h19.18.812",NA,NA,372.674,372.6741,372.6741,373.0239,NA,NA,NA,NA,NA,NA,NA,TRUE,1,1.9874,369.6743,372.6739,0,80,80,102,1,200,26,NA,NA,NA,NA,NA,1,81,"binary"
"FAC2AA4E8E61415A854BA76B9E54D48B",1,"0198f7ab-21ac-7e29-95b1-ac33a374e7b7","0198f767-55c9-7875-8d21-563b3c0b86ed","2025-08-29_17h19.18.812",NA,NA,376.0243,376.0243,376.0243,376.3739,NA,NA,NA,NA,NA,NA,NA,TRUE,1,2.0723,373.0259,376.0241,0,81,81,25,1,21,27,NA,NA,NA,NA,NA,1,82,"binary"
"FAC2AA4E8E61415A854BA76B9E54D48B",1,"0198f7ab-21ac-7e29-95b1-ac33a374e7b7","0198f767-55c9-7875-8d21-563b3c0b86ed","2025-08-29_17h19.18.812",NA,NA,379.3744,379.3744,379.3744,379.7241,NA,NA,NA,NA,NA,NA,NA,TRUE,1,1.9512,376.3758,379.3742,0,82,82,107,1,200,54,NA,NA,NA,NA,NA,1,83,"binary"
"FAC2AA4E8E61415A854BA76B9E54D48B",1,"0198f7ab-21ac-7e29-95b1-ac33a374e7b7","0198f767-55c9-7875-8d21-563b3c0b86ed","2025-08-29_17h19.18.812",NA,NA,382.7244,382.7245,382.7245,383.0743,NA,NA,NA,NA,NA,NA,NA,TRUE,1,1.2175,379.7266,382.7242,0,83,83,90,1,150,31,NA,NA,NA,NA,NA,1,84,"binary"
"FAC2AA4E8E61415A854BA76B9E54D48B",1,"0198f7ab-21ac-7e29-95b1-ac33a374e7b7","0198f767-55c9-7875-8d21-563b3c0b86ed","2025-08-29_17h19.18.812",NA,NA,386.0734,386.0734,386.0734,386.4235,NA,NA,NA,NA,NA,NA,NA,TRUE,1,1.5335,383.0763,386.0733,0,84,84,14,1,12,28,NA,NA,NA,NA,NA,1,85,"binary"
"FAC2AA4E8E61415A854BA76B9E54D48B",1,"0198f7ab-21ac-7e29-95b1-ac33a374e7b7","0198f767-55c9-7875-8d21-563b3c0b86ed","2025-08-29_17h19.18.812",NA,NA,389.4239,389.4239,389.4239,389.7737,NA,NA,NA,NA,NA,NA,NA,TRUE,1,2.0183,386.4256,389.4237,0,85,85,71,1,60,54,NA,NA,NA,NA,NA,1,86,"binary"
"FAC2AA4E8E61415A854BA76B9E54D48B",1,"0198f7ab-21ac-7e29-95b1-ac33a374e7b7","0198f767-55c9-7875-8d21-563b3c0b86ed","2025-08-29_17h19.18.812",NA,NA,392.7749,392.7749,392.7749,393.1238,NA,NA,NA,NA,NA,NA,NA,TRUE,1,2.7159,389.7758,392.7747,0,86,86,38,1,28,32,NA,NA,NA,NA,NA,1,87,"binary"
"FAC2AA4E8E61415A854BA76B9E54D48B",1,"0198f7ab-21ac-7e29-95b1-ac33a374e7b7","0198f767-55c9-7875-8d21-563b3c0b86ed","2025-08-29_17h19.18.812",NA,NA,396.124,396.1241,396.1241,396.474,NA,NA,NA,NA,NA,NA,NA,TRUE,1,2.6655,393.1258,396.1239,0,87,87,95,1,150,54,NA,NA,NA,NA,NA,1,88,"binary"
"FAC2AA4E8E61415A854BA76B9E54D48B",1,"0198f7ab-21ac-7e29-95b1-ac33a374e7b7","0198f767-55c9-7875-8d21-563b3c0b86ed","2025-08-29_17h19.18.812",NA,NA,399.4742,399.4742,399.4742,399.824,NA,NA,NA,NA,NA,NA,NA,TRUE,1,2.4838,396.4759,399.474,0,88,88,61,1,50,30,NA,NA,NA,NA,NA,1,89,"binary"
"FAC2AA4E8E61415A854BA76B9E54D48B",1,"0198f7ab-21ac-7e29-95b1-ac33a374e7b7","0198f767-55c9-7875-8d21-563b3c0b86ed","2025-08-29_17h19.18.812",NA,NA,402.825,402.825,402.8251,403.1751,NA,NA,NA,NA,NA,NA,NA,TRUE,1,2.0952,399.8258,402.8249,0,89,89,12,1,12,25,NA,NA,NA,NA,NA,1,90,"binary"
"FAC2AA4E8E61415A854BA76B9E54D48B",1,"0198f7ab-21ac-7e29-95b1-ac33a374e7b7","0198f767-55c9-7875-8d21-563b3c0b86ed","2025-08-29_17h19.18.812",NA,NA,406.1755,406.1755,406.1755,406.5243,NA,NA,NA,NA,NA,NA,NA,TRUE,1,2.2333,403.1771,406.1752,0,90,90,35,1,25,46,NA,NA,NA,NA,NA,1,91,"binary"
"FAC2AA4E8E61415A854BA76B9E54D48B",1,"0198f7ab-21ac-7e29-95b1-ac33a374e7b7","0198f767-55c9-7875-8d21-563b3c0b86ed","2025-08-29_17h19.18.812",NA,NA,409.5246,409.5246,409.5246,409.8753,NA,NA,NA,NA,NA,NA,NA,TRUE,1,2.5021,406.5259,409.5244,0,91,91,92,1,150,35,NA,NA,NA,NA,NA,1,92,"binary"
"FAC2AA4E8E61415A854BA76B9E54D48B",1,"0198f7ab-21ac-7e29-95b1-ac33a374e7b7","0198f767-55c9-7875-8d21-563b3c0b86ed","2025-08-29_17h19.18.812",NA,NA,412.8747,412.8747,412.8747,413.2246,NA,NA,NA,NA,NA,NA,NA,TRUE,1,1.8798,409.8771,412.8746,0,92,92,62,1,50,35,NA,NA,NA,NA,NA,1,93,"binary"
"FAC2AA4E8E61415A854BA76B9E54D48B",1,"0198f7ab-21ac-7e29-95b1-ac33a374e7b7","0198f767-55c9-7875-8d21-563b3c0b86ed","2025-08-29_17h19.18.812",NA,NA,416.2259,416.2259,416.2259,416.5748,NA,NA,NA,NA,NA,NA,NA,TRUE,2,2.7851,413.2267,416.2257,0,93,93,47,1,30,38,NA,NA,NA,NA,NA,1,94,"binary"
"FAC2AA4E8E61415A854BA76B9E54D48B",1,"0198f7ab-21ac-7e29-95b1-ac33a374e7b7","0198f767-55c9-7875-8d21-563b3c0b86ed","2025-08-29_17h19.18.812",NA,NA,419.575,419.575,419.5751,419.9258,NA,NA,NA,NA,NA,NA,NA,TRUE,1,2.6804,416.5767,419.5748,0,94,94,52,1,40,47,NA,NA,NA,NA,NA,1,95,"binary"
"FAC2AA4E8E61415A854BA76B9E54D48B",1,"0198f7ab-21ac-7e29-95b1-ac33a374e7b7","0198f767-55c9-7875-8d21-563b3c0b86ed","2025-08-29_17h19.18.812",NA,NA,422.9261,422.9261,422.9261,423.2759,NA,NA,NA,NA,NA,NA,NA,TRUE,1,2.5327,419.9274,422.9259,0,95,95,30,1,25,27,NA,NA,NA,NA,NA,1,96,"binary"
"FAC2AA4E8E61415A854BA76B9E54D48B",1,"0198f7ab-21ac-7e29-95b1-ac33a374e7b7","0198f767-55c9-7875-8d21-563b3c0b86ed","2025-08-29_17h19.18.812",NA,NA,426.2762,426.2762,426.2762,426.6256,NA,NA,NA,NA,NA,NA,NA,TRUE,1,2.4191,423.2779,426.2761,0,96,96,64,1,50,46,NA,NA,NA,NA,NA,1,97,"binary"
"FAC2AA4E8E61415A854BA76B9E54D48B",1,"0198f7ab-21ac-7e29-95b1-ac33a374e7b7","0198f767-55c9-7875-8d21-563b3c0b86ed","2025-08-29_17h19.18.812",NA,NA,429.6264,429.6264,429.6264,429.9761,NA,NA,NA,NA,NA,NA,NA,TRUE,1,2.138,426.6274,429.6262,0,97,97,20,1,14,28,NA,NA,NA,NA,NA,1,98,"binary"
"FAC2AA4E8E61415A854BA76B9E54D48B",1,"0198f7ab-21ac-7e29-95b1-ac33a374e7b7","0198f767-55c9-7875-8d21-563b3c0b86ed","2025-08-29_17h19.18.812",NA,NA,432.9765,432.9766,432.9766,433.3264,NA,NA,NA,NA,NA,NA,NA,TRUE,1,2.51,429.9778,432.9764,0,98,98,98,1,180,35,NA,NA,NA,NA,NA,1,99,"binary"
"FAC2AA4E8E61415A854BA76B9E54D48B",1,"0198f7ab-21ac-7e29-95b1-ac33a374e7b7","0198f767-55c9-7875-8d21-563b3c0b86ed","2025-08-29_17h19.18.812",NA,NA,436.3266,436.3266,436.3267,436.6765,NA,NA,NA,NA,NA,NA,NA,TRUE,2,2.8681,433.3285,436.3265,0,99,99,45,1,30,30,NA,NA,NA,NA,NA,1,100,"binary"
"FAC2AA4E8E61415A854BA76B9E54D48B",1,"0198f7ab-21ac-7e29-95b1-ac33a374e7b7","0198f767-55c9-7875-8d21-563b3c0b86ed","2025-08-29_17h19.18.812",NA,NA,439.6768,439.6768,439.6768,440.0268,NA,NA,NA,NA,NA,NA,NA,TRUE,2,2.8338,436.6786,439.6767,0,100,100,29,1,21,38,NA,NA,NA,NA,NA,1,101,"binary"
"FAC2AA4E8E61415A854BA76B9E54D48B",1,"0198f7ab-21ac-7e29-95b1-ac33a374e7b7","0198f767-55c9-7875-8d21-563b3c0b86ed","2025-08-29_17h19.18.812",NA,NA,443.0269,443.0269,443.0269,443.3768,NA,NA,NA,NA,NA,NA,NA,TRUE,1,2.5691,440.0286,443.0268,0,101,101,42,1,30,26,NA,NA,NA,NA,NA,1,102,"binary"
"FAC2AA4E8E61415A854BA76B9E54D48B",1,"0198f7ab-21ac-7e29-95b1-ac33a374e7b7","0198f767-55c9-7875-8d21-563b3c0b86ed","2025-08-29_17h19.18.812",NA,NA,446.3768,446.3768,446.3769,446.7259,NA,NA,NA,NA,NA,NA,NA,TRUE,2,2.3857,443.3788,446.3766,0,102,102,4,1,7,32,NA,NA,NA,NA,NA,1,103,"binary"
"FAC2AA4E8E61415A854BA76B9E54D48B",1,"0198f7ab-21ac-7e29-95b1-ac33a374e7b7","0198f767-55c9-7875-8d21-563b3c0b86ed","2025-08-29_17h19.18.812",NA,NA,449.7272,449.7273,449.7273,450.0771,NA,NA,NA,NA,NA,NA,NA,TRUE,2,1.8346,446.7278,449.7271,0,103,103,17,1,12,35,NA,NA,NA,NA,NA,1,104,"binary"
"FAC2AA4E8E61415A854BA76B9E54D48B",1,"0198f7ab-21ac-7e29-95b1-ac33a374e7b7","0198f767-55c9-7875-8d21-563b3c0b86ed","2025-08-29_17h19.18.812",NA,NA,453.0774,453.0774,453.0774,453.4272,NA,NA,NA,NA,NA,NA,NA,TRUE,1,2.0023,450.0789,453.0772,0,104,104,70,1,60,47,NA,NA,NA,NA,NA,1,105,"binary"
"FAC2AA4E8E61415A854BA76B9E54D48B",1,"0198f7ab-21ac-7e29-95b1-ac33a374e7b7","0198f767-55c9-7875-8d21-563b3c0b86ed","2025-08-29_17h19.18.812",NA,NA,456.4275,456.4276,456.4276,456.7775,NA,NA,NA,NA,NA,NA,NA,TRUE,1,2.1216,453.4293,456.4273,0,105,105,73,1,90,30,NA,NA,NA,NA,NA,1,106,"binary"
"FAC2AA4E8E61415A854BA76B9E54D48B",1,"0198f7ab-21ac-7e29-95b1-ac33a374e7b7","0198f767-55c9-7875-8d21-563b3c0b86ed","2025-08-29_17h19.18.812",NA,NA,459.7777,459.7777,459.7777,460.1275,NA,NA,NA,NA,NA,NA,NA,TRUE,1,2.6506,456.7795,459.7775,0,106,106,37,1,28,28,NA,NA,NA,NA,NA,1,107,"binary"
"FAC2AA4E8E61415A854BA76B9E54D48B",1,"0198f7ab-21ac-7e29-95b1-ac33a374e7b7","0198f767-55c9-7875-8d21-563b3c0b86ed","2025-08-29_17h19.18.812",NA,NA,463.1277,463.1278,463.1278,463.4776,NA,NA,NA,NA,NA,NA,NA,TRUE,1,1.1848,460.1295,463.1276,0,107,107,54,1,45,26,NA,NA,NA,NA,NA,1,108,"binary"
"FAC2AA4E8E61415A854BA76B9E54D48B",1,"0198f7ab-21ac-7e29-95b1-ac33a374e7b7","0198f767-55c9-7875-8d21-563b3c0b86ed","2025-08-29_17h19.18.812",NA,NA,470.1281,470.1281,470.1281,470.4779,NA,NA,NA,NA,NA,NA,NA,TRUE,1,1.7536,467.1487,470.1279,NA,NA,NA,NA,NA,100,39,0,0,0,87,1,2,1,"binary"
"FAC2AA4E8E61415A854BA76B9E54D48B",1,"0198f7ab-21ac-7e29-95b1-ac33a374e7b7","0198f767-55c9-7875-8d21-563b3c0b86ed","2025-08-29_17h19.18.812",NA,NA,473.4781,473.4781,473.4781,473.8281,NA,NA,NA,NA,NA,NA,NA,TRUE,2,2.2578,470.4796,473.4779,NA,NA,NA,NA,NA,7,35,0,1,1,5,1,2,2,"binary"
"FAC2AA4E8E61415A854BA76B9E54D48B",1,"0198f7ab-21ac-7e29-95b1-ac33a374e7b7","0198f767-55c9-7875-8d21-563b3c0b86ed","2025-08-29_17h19.18.812",NA,NA,476.8285,476.8285,476.8285,477.1783,NA,NA,NA,NA,NA,NA,NA,TRUE,1,0.9747,473.83,476.8284,NA,NA,NA,NA,NA,40,47,0,2,2,52,1,2,3,"binary"
"FAC2AA4E8E61415A854BA76B9E54D48B",1,"0198f7ab-21ac-7e29-95b1-ac33a374e7b7","0198f767-55c9-7875-8d21-563b3c0b86ed","2025-08-29_17h19.18.812",NA,NA,480.1785,480.1785,480.1786,480.528,NA,NA,NA,NA,NA,NA,NA,TRUE,1,0.6914,477.1802,480.1784,NA,NA,NA,NA,NA,60,54,0,3,3,71,1,2,4,"binary"
"FAC2AA4E8E61415A854BA76B9E54D48B",1,"0198f7ab-21ac-7e29-95b1-ac33a374e7b7","0198f767-55c9-7875-8d21-563b3c0b86ed","2025-08-29_17h19.18.812",NA,NA,483.5287,483.5287,483.5287,483.8785,NA,NA,NA,NA,NA,NA,NA,TRUE,1,1.0973,480.5291,483.5285,NA,NA,NA,NA,NA,60,29,0,4,4,66,1,2,5,"binary"
"FAC2AA4E8E61415A854BA76B9E54D48B",1,"0198f7ab-21ac-7e29-95b1-ac33a374e7b7","0198f767-55c9-7875-8d21-563b3c0b86ed","2025-08-29_17h19.18.812",NA,NA,486.8788,486.8789,486.879,487.2287,NA,NA,NA,NA,NA,NA,NA,TRUE,1,0.774,483.8806,486.8787,NA,NA,NA,NA,NA,95,33,0,5,5,79,1,2,6,"binary"
"FAC2AA4E8E61415A854BA76B9E54D48B",1,"0198f7ab-21ac-7e29-95b1-ac33a374e7b7","0198f767-55c9-7875-8d21-563b3c0b86ed","2025-08-29_17h19.18.812",NA,NA,490.2289,490.229,490.229,490.5787,NA,NA,NA,NA,NA,NA,NA,TRUE,1,1.0909,487.2305,490.2288,NA,NA,NA,NA,NA,21,26,0,6,6,24,1,2,7,"binary"
"FAC2AA4E8E61415A854BA76B9E54D48B",1,"0198f7ab-21ac-7e29-95b1-ac33a374e7b7","0198f767-55c9-7875-8d21-563b3c0b86ed","2025-08-29_17h19.18.812",NA,NA,493.5791,493.5791,493.5791,493.9289,NA,NA,NA,NA,NA,NA,NA,TRUE,1,1.1395,490.5809,493.5789,NA,NA,NA,NA,NA,45,31,0,7,7,56,1,2,8,"binary"
"FAC2AA4E8E61415A854BA76B9E54D48B",1,"0198f7ab-21ac-7e29-95b1-ac33a374e7b7","0198f767-55c9-7875-8d21-563b3c0b86ed","2025-08-29_17h19.18.812",NA,NA,496.9293,496.9294,496.9294,497.2792,NA,NA,NA,NA,NA,NA,NA,TRUE,1,1.8949,493.931,496.9292,NA,NA,NA,NA,NA,30,38,0,8,8,47,1,2,9,"binary"
"FAC2AA4E8E61415A854BA76B9E54D48B",1,"0198f7ab-21ac-7e29-95b1-ac33a374e7b7","0198f767-55c9-7875-8d21-563b3c0b86ed","2025-08-29_17h19.18.812",NA,NA,500.2795,500.2796,500.2796,500.6291,NA,NA,NA,NA,NA,NA,NA,TRUE,1,1.9076,497.2811,500.2793,NA,NA,NA,NA,NA,90,30,0,9,9,73,1,2,10,"binary"
"FAC2AA4E8E61415A854BA76B9E54D48B",1,"0198f7ab-21ac-7e29-95b1-ac33a374e7b7","0198f767-55c9-7875-8d21-563b3c0b86ed","2025-08-29_17h19.18.812",NA,NA,503.6295,503.6296,503.6296,503.9794,NA,NA,NA,NA,NA,NA,NA,TRUE,2,2.6184,500.6312,503.6293,NA,NA,NA,NA,NA,28,35,0,10,10,39,1,2,11,"binary"
"FAC2AA4E8E61415A854BA76B9E54D48B",1,"0198f7ab-21ac-7e29-95b1-ac33a374e7b7","0198f767-55c9-7875-8d21-563b3c0b86ed","2025-08-29_17h19.18.812",NA,NA,506.9798,506.9798,506.9799,507.3296,NA,NA,NA,NA,NA,NA,NA,TRUE,1,1.857,503.9815,506.9796,NA,NA,NA,NA,NA,100,26,0,11,11,84,1,2,12,"binary"
"FAC2AA4E8E61415A854BA76B9E54D48B",1,"0198f7ab-21ac-7e29-95b1-ac33a374e7b7","0198f767-55c9-7875-8d21-563b3c0b86ed","2025-08-29_17h19.18.812",NA,NA,510.3298,510.3298,510.3298,510.6798,NA,NA,NA,NA,NA,NA,NA,TRUE,1,1.6451,507.3316,510.3296,NA,NA,NA,NA,NA,10,29,0,12,12,9,1,2,13,"binary"
"FAC2AA4E8E61415A854BA76B9E54D48B",1,"0198f7ab-21ac-7e29-95b1-ac33a374e7b7","0198f767-55c9-7875-8d21-563b3c0b86ed","2025-08-29_17h19.18.812",NA,NA,513.6799,513.68,513.68,514.0297,NA,NA,NA,NA,NA,NA,NA,TRUE,2,2.0412,510.6817,513.6797,NA,NA,NA,NA,NA,14,28,0,13,13,20,1,2,14,"binary"
"FAC2AA4E8E61415A854BA76B9E54D48B",1,"0198f7ab-21ac-7e29-95b1-ac33a374e7b7","0198f767-55c9-7875-8d21-563b3c0b86ed","2025-08-29_17h19.18.812",NA,NA,517.0301,517.0301,517.0302,517.38,NA,NA,NA,NA,NA,NA,NA,TRUE,1,1.0905,514.0313,517.03,NA,NA,NA,NA,NA,100,54,0,14,14,89,1,2,15,"binary"
"FAC2AA4E8E61415A854BA76B9E54D48B",1,"0198f7ab-21ac-7e29-95b1-ac33a374e7b7","0198f767-55c9-7875-8d21-563b3c0b86ed","2025-08-29_17h19.18.812",NA,NA,520.3792,520.6301,520.6301,520.73,NA,NA,NA,NA,NA,NA,NA,FALSE,NA,NA,517.3816,520.3791,NA,NA,NA,NA,NA,25,35,0,15,15,34,1,2,16,"binary"
"FAC2AA4E8E61415A854BA76B9E54D48B",1,"0198f7ab-21ac-7e29-95b1-ac33a374e7b7","0198f767-55c9-7875-8d21-563b3c0b86ed","2025-08-29_17h19.18.812",NA,NA,523.7294,523.7295,523.7295,524.0801,NA,NA,NA,NA,NA,NA,NA,TRUE,1,1.8417,520.7322,523.7292,NA,NA,NA,NA,NA,10,27,0,16,16,8,1,2,17,"binary"
"FAC2AA4E8E61415A854BA76B9E54D48B",1,"0198f7ab-21ac-7e29-95b1-ac33a374e7b7","0198f767-55c9-7875-8d21-563b3c0b86ed","2025-08-29_17h19.18.812",NA,NA,527.0805,527.0806,527.0806,527.4303,NA,NA,NA,NA,NA,NA,NA,TRUE,1,1.1395,524.0823,527.0804,NA,NA,NA,NA,NA,30,29,0,17,17,44,1,2,18,"binary"
"FAC2AA4E8E61415A854BA76B9E54D48B",1,"0198f7ab-21ac-7e29-95b1-ac33a374e7b7","0198f767-55c9-7875-8d21-563b3c0b86ed","2025-08-29_17h19.18.812",NA,NA,530.4306,530.4307,530.4307,530.7801,NA,NA,NA,NA,NA,NA,NA,TRUE,1,1.3188,527.4321,530.4304,NA,NA,NA,NA,NA,150,33,0,18,18,91,1,2,19,"binary"
"FAC2AA4E8E61415A854BA76B9E54D48B",1,"0198f7ab-21ac-7e29-95b1-ac33a374e7b7","0198f767-55c9-7875-8d21-563b3c0b86ed","2025-08-29_17h19.18.812",NA,NA,533.7808,533.7809,533.7809,534.1297,NA,NA,NA,NA,NA,NA,NA,TRUE,2,0.8735,530.782,533.7806,NA,NA,NA,NA,NA,12,33,0,19,19,16,1,2,20,"binary"
"FAC2AA4E8E61415A854BA76B9E54D48B",1,"0198f7ab-21ac-7e29-95b1-ac33a374e7b7","0198f767-55c9-7875-8d21-563b3c0b86ed","2025-08-29_17h19.18.812",NA,NA,537.1299,537.13,537.13,537.4805,NA,NA,NA,NA,NA,NA,NA,TRUE,1,0.8759,534.1314,537.1299,NA,NA,NA,NA,NA,95,35,0,20,20,80,1,2,21,"binary"
"FAC2AA4E8E61415A854BA76B9E54D48B",1,"0198f7ab-21ac-7e29-95b1-ac33a374e7b7","0198f767-55c9-7875-8d21-563b3c0b86ed","2025-08-29_17h19.18.812",NA,NA,540.4808,540.4808,540.4808,540.8317,NA,NA,NA,NA,NA,NA,NA,TRUE,1,1.901,537.4814,540.4807,NA,NA,NA,NA,NA,21,27,0,21,21,25,1,2,22,"binary"
"FAC2AA4E8E61415A854BA76B9E54D48B",1,"0198f7ab-21ac-7e29-95b1-ac33a374e7b7","0198f767-55c9-7875-8d21-563b3c0b86ed","2025-08-29_17h19.18.812",NA,NA,543.83,543.83,543.83,544.1808,NA,NA,NA,NA,NA,NA,NA,TRUE,1,1.8272,540.8324,543.8298,NA,NA,NA,NA,NA,40,27,0,22,22,48,1,2,23,"binary"
"FAC2AA4E8E61415A854BA76B9E54D48B",1,"0198f7ab-21ac-7e29-95b1-ac33a374e7b7","0198f767-55c9-7875-8d21-563b3c0b86ed","2025-08-29_17h19.18.812",NA,NA,547.181,547.181,547.181,547.5143,NA,NA,NA,NA,NA,NA,NA,TRUE,1,2.0626,544.1818,547.1809,NA,NA,NA,NA,NA,200,28,0,23,23,103,1,2,24,"binary"
"FAC2AA4E8E61415A854BA76B9E54D48B",1,"0198f7ab-21ac-7e29-95b1-ac33a374e7b7","0198f767-55c9-7875-8d21-563b3c0b86ed","2025-08-29_17h19.18.812",NA,NA,550.5139,550.5141,550.5141,550.8814,NA,NA,NA,NA,NA,NA,NA,TRUE,1,1.6248,547.5156,550.5138,NA,NA,NA,NA,NA,150,35,0,24,24,92,1,2,25,"binary"
"FAC2AA4E8E61415A854BA76B9E54D48B",1,"0198f7ab-21ac-7e29-95b1-ac33a374e7b7","0198f767-55c9-7875-8d21-563b3c0b86ed","2025-08-29_17h19.18.812",NA,NA,553.8817,553.8818,553.8818,554.2139,NA,NA,NA,NA,NA,NA,NA,TRUE,1,1.0784,550.8838,553.8815,NA,NA,NA,NA,NA,28,28,0,25,25,37,1,2,26,"binary"
"FAC2AA4E8E61415A854BA76B9E54D48B",1,"0198f7ab-21ac-7e29-95b1-ac33a374e7b7","0198f767-55c9-7875-8d21-563b3c0b86ed","2025-08-29_17h19.18.812",NA,NA,557.2152,557.2153,557.2153,557.5816,NA,NA,NA,NA,NA,NA,NA,TRUE,1,2.012,554.2163,557.2151,NA,NA,NA,NA,NA,25,46,0,26,26,35,1,2,27,"binary"
"FAC2AA4E8E61415A854BA76B9E54D48B",1,"0198f7ab-21ac-7e29-95b1-ac33a374e7b7","0198f767-55c9-7875-8d21-563b3c0b86ed","2025-08-29_17h19.18.812",NA,NA,560.582,560.5822,560.5822,560.915,NA,NA,NA,NA,NA,NA,NA,TRUE,1,1.7449,557.5842,560.5818,NA,NA,NA,NA,NA,30,32,0,27,27,46,1,2,28,"binary"
"FAC2AA4E8E61415A854BA76B9E54D48B",1,"0198f7ab-21ac-7e29-95b1-ac33a374e7b7","0198f767-55c9-7875-8d21-563b3c0b86ed","2025-08-29_17h19.18.812",NA,NA,563.9155,563.9155,563.9155,564.2819,NA,NA,NA,NA,NA,NA,NA,TRUE,1,1.6478,560.9177,563.9152,NA,NA,NA,NA,NA,60,47,0,28,28,70,1,2,29,"binary"
"FAC2AA4E8E61415A854BA76B9E54D48B",1,"0198f7ab-21ac-7e29-95b1-ac33a374e7b7","0198f767-55c9-7875-8d21-563b3c0b86ed","2025-08-29_17h19.18.812",NA,NA,567.2824,567.2825,567.2825,567.6153,NA,NA,NA,NA,NA,NA,NA,TRUE,1,0.8258,564.2843,567.2823,NA,NA,NA,NA,NA,28,26,0,29,29,36,1,2,30,"binary"
"FAC2AA4E8E61415A854BA76B9E54D48B",1,"0198f7ab-21ac-7e29-95b1-ac33a374e7b7","0198f767-55c9-7875-8d21-563b3c0b86ed","2025-08-29_17h19.18.812",NA,NA,570.6157,570.6158,570.6158,570.9822,NA,NA,NA,NA,NA,NA,NA,TRUE,1,0.0387,567.6176,570.6155,NA,NA,NA,NA,NA,21,30,0,30,30,27,1,2,31,"binary"
"FAC2AA4E8E61415A854BA76B9E54D48B",1,"0198f7ab-21ac-7e29-95b1-ac33a374e7b7","0198f767-55c9-7875-8d21-563b3c0b86ed","2025-08-29_17h19.18.812",NA,NA,573.9816,573.9817,573.9817,574.3157,NA,NA,NA,NA,NA,NA,NA,TRUE,1,0.9836,570.9847,573.9814,NA,NA,NA,NA,NA,50,54,0,31,31,65,1,2,32,"binary"
"FAC2AA4E8E61415A854BA76B9E54D48B",1,"0198f7ab-21ac-7e29-95b1-ac33a374e7b7","0198f767-55c9-7875-8d21-563b3c0b86ed","2025-08-29_17h19.18.812",NA,NA,577.3152,577.3152,577.3152,577.6825,NA,NA,NA,NA,NA,NA,NA,TRUE,1,1.5011,574.3181,577.315,NA,NA,NA,NA,NA,25,29,0,32,32,31,1,2,33,"binary"
"FAC2AA4E8E61415A854BA76B9E54D48B",1,"0198f7ab-21ac-7e29-95b1-ac33a374e7b7","0198f767-55c9-7875-8d21-563b3c0b86ed","2025-08-29_17h19.18.812",NA,NA,580.6828,580.6828,580.6828,581.016,NA,NA,NA,NA,NA,NA,NA,TRUE,1,1.4121,577.6852,580.6825,NA,NA,NA,NA,NA,60,35,0,33,33,68,1,2,34,"binary"
"FAC2AA4E8E61415A854BA76B9E54D48B",1,"0198f7ab-21ac-7e29-95b1-ac33a374e7b7","0198f767-55c9-7875-8d21-563b3c0b86ed","2025-08-29_17h19.18.812",NA,NA,584.0164,584.0164,584.0164,584.3828,NA,NA,NA,NA,NA,NA,NA,TRUE,2,1.9252,581.0185,584.0161,NA,NA,NA,NA,NA,10,30,0,34,34,10,1,2,35,"binary"
"FAC2AA4E8E61415A854BA76B9E54D48B",1,"0198f7ab-21ac-7e29-95b1-ac33a374e7b7","0198f767-55c9-7875-8d21-563b3c0b86ed","2025-08-29_17h19.18.812",NA,NA,587.3831,587.3831,587.3831,587.7152,NA,NA,NA,NA,NA,NA,NA,TRUE,1,0.7029,584.3852,587.3829,NA,NA,NA,NA,NA,50,27,0,35,35,60,1,2,36,"binary"
"FAC2AA4E8E61415A854BA76B9E54D48B",1,"0198f7ab-21ac-7e29-95b1-ac33a374e7b7","0198f767-55c9-7875-8d21-563b3c0b86ed","2025-08-29_17h19.18.812",NA,NA,590.7165,590.7166,590.7166,591.083,NA,NA,NA,NA,NA,NA,NA,TRUE,2,1.0342,587.7176,590.7164,NA,NA,NA,NA,NA,14,32,0,36,36,21,1,2,37,"binary"
"FAC2AA4E8E61415A854BA76B9E54D48B",1,"0198f7ab-21ac-7e29-95b1-ac33a374e7b7","0198f767-55c9-7875-8d21-563b3c0b86ed","2025-08-29_17h19.18.812",NA,NA,594.0834,594.0834,594.0834,594.4165,NA,NA,NA,NA,NA,NA,NA,TRUE,2,1.4459,591.0853,594.0832,NA,NA,NA,NA,NA,10,32,0,37,37,11,1,2,38,"binary"
"FAC2AA4E8E61415A854BA76B9E54D48B",1,"0198f7ab-21ac-7e29-95b1-ac33a374e7b7","0198f767-55c9-7875-8d21-563b3c0b86ed","2025-08-29_17h19.18.812",NA,NA,597.417,597.417,597.417,597.7833,NA,NA,NA,NA,NA,NA,NA,TRUE,2,1.5697,594.4189,597.4168,NA,NA,NA,NA,NA,21,38,0,38,38,29,1,2,39,"binary"
"FAC2AA4E8E61415A854BA76B9E54D48B",1,"0198f7ab-21ac-7e29-95b1-ac33a374e7b7","0198f767-55c9-7875-8d21-563b3c0b86ed","2025-08-29_17h19.18.812",NA,NA,600.7838,600.7839,600.7839,601.1168,NA,NA,NA,NA,NA,NA,NA,TRUE,1,1.0808,597.7855,600.7836,NA,NA,NA,NA,NA,60,33,0,39,39,67,1,2,40,"binary"
"FAC2AA4E8E61415A854BA76B9E54D48B",1,"0198f7ab-21ac-7e29-95b1-ac33a374e7b7","0198f767-55c9-7875-8d21-563b3c0b86ed","2025-08-29_17h19.18.812",NA,NA,604.1172,604.1172,604.1172,604.4836,NA,NA,NA,NA,NA,NA,NA,TRUE,1,1.6465,601.1191,604.117,NA,NA,NA,NA,NA,90,46,0,40,40,76,1,2,41,"binary"
"FAC2AA4E8E61415A854BA76B9E54D48B",1,"0198f7ab-21ac-7e29-95b1-ac33a374e7b7","0198f767-55c9-7875-8d21-563b3c0b86ed","2025-08-29_17h19.18.812",NA,NA,607.4839,607.4839,607.4839,607.817,NA,NA,NA,NA,NA,NA,NA,TRUE,1,0.7922,604.4859,607.4837,NA,NA,NA,NA,NA,95,54,0,41,41,83,1,2,42,"binary"
"FAC2AA4E8E61415A854BA76B9E54D48B",1,"0198f7ab-21ac-7e29-95b1-ac33a374e7b7","0198f767-55c9-7875-8d21-563b3c0b86ed","2025-08-29_17h19.18.812",NA,NA,610.8174,610.8174,610.8174,611.1839,NA,NA,NA,NA,NA,NA,NA,TRUE,1,1.4999,607.8194,610.8172,NA,NA,NA,NA,NA,180,27,0,42,42,96,1,2,43,"binary"
"FAC2AA4E8E61415A854BA76B9E54D48B",1,"0198f7ab-21ac-7e29-95b1-ac33a374e7b7","0198f767-55c9-7875-8d21-563b3c0b86ed","2025-08-29_17h19.18.812",NA,NA,614.1841,614.1842,614.1842,614.5172,NA,NA,NA,NA,NA,NA,NA,TRUE,1,1.6348,611.1863,614.1839,NA,NA,NA,NA,NA,180,46,0,43,43,100,1,2,44,"binary"
"FAC2AA4E8E61415A854BA76B9E54D48B",1,"0198f7ab-21ac-7e29-95b1-ac33a374e7b7","0198f767-55c9-7875-8d21-563b3c0b86ed","2025-08-29_17h19.18.812",NA,NA,617.5173,617.5173,617.5173,617.8839,NA,NA,NA,NA,NA,NA,NA,TRUE,2,1.8138,614.5195,617.5171,NA,NA,NA,NA,NA,25,31,0,44,44,32,1,2,45,"binary"
"FAC2AA4E8E61415A854BA76B9E54D48B",1,"0198f7ab-21ac-7e29-95b1-ac33a374e7b7","0198f767-55c9-7875-8d21-563b3c0b86ed","2025-08-29_17h19.18.812",NA,NA,620.8845,620.8847,620.8847,621.2177,NA,NA,NA,NA,NA,NA,NA,TRUE,1,1.3705,617.886,620.8844,NA,NA,NA,NA,NA,45,35,0,45,45,57,1,2,46,"binary"
"FAC2AA4E8E61415A854BA76B9E54D48B",1,"0198f7ab-21ac-7e29-95b1-ac33a374e7b7","0198f767-55c9-7875-8d21-563b3c0b86ed","2025-08-29_17h19.18.812",NA,NA,624.2178,624.2179,624.2179,624.5843,NA,NA,NA,NA,NA,NA,NA,TRUE,2,1.7678,621.22,624.2177,NA,NA,NA,NA,NA,21,32,0,46,46,28,1,2,47,"binary"
"FAC2AA4E8E61415A854BA76B9E54D48B",1,"0198f7ab-21ac-7e29-95b1-ac33a374e7b7","0198f767-55c9-7875-8d21-563b3c0b86ed","2025-08-29_17h19.18.812",NA,NA,627.5846,627.5847,627.5847,627.9178,NA,NA,NA,NA,NA,NA,NA,TRUE,1,0.9507,624.5867,627.5844,NA,NA,NA,NA,NA,50,35,0,47,47,62,1,2,48,"binary"
"FAC2AA4E8E61415A854BA76B9E54D48B",1,"0198f7ab-21ac-7e29-95b1-ac33a374e7b7","0198f767-55c9-7875-8d21-563b3c0b86ed","2025-08-29_17h19.18.812",NA,NA,630.9182,630.9182,630.9182,631.2847,NA,NA,NA,NA,NA,NA,NA,TRUE,1,0.6138,627.9201,630.918,NA,NA,NA,NA,NA,90,33,0,48,48,74,1,2,49,"binary"
"FAC2AA4E8E61415A854BA76B9E54D48B",1,"0198f7ab-21ac-7e29-95b1-ac33a374e7b7","0198f767-55c9-7875-8d21-563b3c0b86ed","2025-08-29_17h19.18.812",NA,NA,634.285,634.2851,634.2851,634.6182,NA,NA,NA,NA,NA,NA,NA,TRUE,1,0.5709,631.287,634.2847,NA,NA,NA,NA,NA,90,54,0,49,49,77,1,2,50,"binary"
"FAC2AA4E8E61415A854BA76B9E54D48B",1,"0198f7ab-21ac-7e29-95b1-ac33a374e7b7","0198f767-55c9-7875-8d21-563b3c0b86ed","2025-08-29_17h19.18.812",NA,NA,637.6185,637.6185,637.6185,637.9849,NA,NA,NA,NA,NA,NA,NA,TRUE,1,1.9136,634.6206,637.6183,NA,NA,NA,NA,NA,180,54,0,50,50,101,1,2,51,"binary"
"FAC2AA4E8E61415A854BA76B9E54D48B",1,"0198f7ab-21ac-7e29-95b1-ac33a374e7b7","0198f767-55c9-7875-8d21-563b3c0b86ed","2025-08-29_17h19.18.812",NA,NA,640.9852,640.9853,640.9853,641.3184,NA,NA,NA,NA,NA,NA,NA,TRUE,2,2.3249,637.9874,640.9851,NA,NA,NA,NA,NA,28,46,0,51,51,41,1,2,52,"binary"
"FAC2AA4E8E61415A854BA76B9E54D48B",1,"0198f7ab-21ac-7e29-95b1-ac33a374e7b7","0198f767-55c9-7875-8d21-563b3c0b86ed","2025-08-29_17h19.18.812",NA,NA,644.3189,644.3189,644.319,644.6854,NA,NA,NA,NA,NA,NA,NA,TRUE,2,2.3534,641.3207,644.3188,NA,NA,NA,NA,NA,25,33,0,52,52,33,1,2,53,"binary"
"FAC2AA4E8E61415A854BA76B9E54D48B",1,"0198f7ab-21ac-7e29-95b1-ac33a374e7b7","0198f767-55c9-7875-8d21-563b3c0b86ed","2025-08-29_17h19.18.812",NA,NA,647.6856,647.6856,647.6856,648.0187,NA,NA,NA,NA,NA,NA,NA,TRUE,1,2.4707,644.6876,647.6854,NA,NA,NA,NA,NA,45,29,0,53,53,55,1,2,54,"binary"
"FAC2AA4E8E61415A854BA76B9E54D48B",1,"0198f7ab-21ac-7e29-95b1-ac33a374e7b7","0198f767-55c9-7875-8d21-563b3c0b86ed","2025-08-29_17h19.18.812",NA,NA,651.019,651.019,651.019,651.3855,NA,NA,NA,NA,NA,NA,NA,TRUE,1,2.2683,648.0211,651.0188,NA,NA,NA,NA,NA,100,38,0,54,54,86,1,2,55,"binary"
"FAC2AA4E8E61415A854BA76B9E54D48B",1,"0198f7ab-21ac-7e29-95b1-ac33a374e7b7","0198f767-55c9-7875-8d21-563b3c0b86ed","2025-08-29_17h19.18.812",NA,NA,654.3854,654.3854,654.3855,654.7191,NA,NA,NA,NA,NA,NA,NA,TRUE,1,2.4283,651.3879,654.3852,NA,NA,NA,NA,NA,50,40,0,55,55,63,1,2,56,"binary"
"FAC2AA4E8E61415A854BA76B9E54D48B",1,"0198f7ab-21ac-7e29-95b1-ac33a374e7b7","0198f767-55c9-7875-8d21-563b3c0b86ed","2025-08-29_17h19.18.812",NA,NA,657.7193,657.7193,657.7193,658.0858,NA,NA,NA,NA,NA,NA,NA,TRUE,2,2.2817,654.7215,657.7191,NA,NA,NA,NA,NA,28,32,0,56,56,38,1,2,57,"binary"
"FAC2AA4E8E61415A854BA76B9E54D48B",1,"0198f7ab-21ac-7e29-95b1-ac33a374e7b7","0198f767-55c9-7875-8d21-563b3c0b86ed","2025-08-29_17h19.18.812",NA,NA,661.0862,661.0863,661.0863,661.4193,NA,NA,NA,NA,NA,NA,NA,TRUE,1,0.9407,658.0872,661.086,NA,NA,NA,NA,NA,100,46,0,57,57,88,1,2,58,"binary"
"FAC2AA4E8E61415A854BA76B9E54D48B",1,"0198f7ab-21ac-7e29-95b1-ac33a374e7b7","0198f767-55c9-7875-8d21-563b3c0b86ed","2025-08-29_17h19.18.812",NA,NA,664.4195,664.4195,664.4196,664.7861,NA,NA,NA,NA,NA,NA,NA,TRUE,1,2.2138,661.4217,664.4194,NA,NA,NA,NA,NA,40,33,0,58,58,49,1,2,59,"binary"
"FAC2AA4E8E61415A854BA76B9E54D48B",1,"0198f7ab-21ac-7e29-95b1-ac33a374e7b7","0198f767-55c9-7875-8d21-563b3c0b86ed","2025-08-29_17h19.18.812",NA,NA,667.7531,667.7532,667.7532,668.1196,NA,NA,NA,NA,NA,NA,NA,TRUE,1,2.4446,664.7885,667.7529,NA,NA,NA,NA,NA,7,26,0,59,59,1,1,2,60,"binary"
"FAC2AA4E8E61415A854BA76B9E54D48B",1,"0198f7ab-21ac-7e29-95b1-ac33a374e7b7","0198f767-55c9-7875-8d21-563b3c0b86ed","2025-08-29_17h19.18.812",NA,NA,671.12,671.12,671.12,671.486,NA,NA,NA,NA,NA,NA,NA,TRUE,1,2.6878,668.1219,671.1197,NA,NA,NA,NA,NA,30,30,0,60,60,45,1,2,61,"binary"
"FAC2AA4E8E61415A854BA76B9E54D48B",1,"0198f7ab-21ac-7e29-95b1-ac33a374e7b7","0198f767-55c9-7875-8d21-563b3c0b86ed","2025-08-29_17h19.18.812",NA,NA,674.4866,674.4868,674.4868,674.8197,NA,NA,NA,NA,NA,NA,NA,TRUE,1,2.6003,671.4866,674.4865,NA,NA,NA,NA,NA,14,25,0,61,61,18,1,2,62,"binary"
"FAC2AA4E8E61415A854BA76B9E54D48B",1,"0198f7ab-21ac-7e29-95b1-ac33a374e7b7","0198f767-55c9-7875-8d21-563b3c0b86ed","2025-08-29_17h19.18.812",NA,NA,677.8202,677.8203,677.8203,678.1866,NA,NA,NA,NA,NA,NA,NA,TRUE,1,2.434,674.8219,677.8201,NA,NA,NA,NA,NA,150,31,0,62,62,90,1,2,63,"binary"
"FAC2AA4E8E61415A854BA76B9E54D48B",1,"0198f7ab-21ac-7e29-95b1-ac33a374e7b7","0198f767-55c9-7875-8d21-563b3c0b86ed","2025-08-29_17h19.18.812",NA,NA,681.1871,681.1871,681.1871,681.52,NA,NA,NA,NA,NA,NA,NA,TRUE,2,2.326,678.1889,681.1869,NA,NA,NA,NA,NA,7,30,0,63,63,3,1,2,64,"binary"
"FAC2AA4E8E61415A854BA76B9E54D48B",1,"0198f7ab-21ac-7e29-95b1-ac33a374e7b7","0198f767-55c9-7875-8d21-563b3c0b86ed","2025-08-29_17h19.18.812",NA,NA,684.5204,684.5204,684.5204,684.8535,NA,NA,NA,NA,NA,NA,NA,TRUE,1,2.5009,681.522,684.5202,NA,NA,NA,NA,NA,45,46,0,64,64,59,1,2,65,"binary"
"FAC2AA4E8E61415A854BA76B9E54D48B",1,"0198f7ab-21ac-7e29-95b1-ac33a374e7b7","0198f767-55c9-7875-8d21-563b3c0b86ed","2025-08-29_17h19.18.812",NA,NA,687.8541,687.8541,687.8542,688.2206,NA,NA,NA,NA,NA,NA,NA,TRUE,1,2.6803,684.856,687.8539,NA,NA,NA,NA,NA,200,26,0,65,65,102,1,2,66,"binary"
"FAC2AA4E8E61415A854BA76B9E54D48B",1,"0198f7ab-21ac-7e29-95b1-ac33a374e7b7","0198f767-55c9-7875-8d21-563b3c0b86ed","2025-08-29_17h19.18.812",NA,NA,691.2208,691.2208,691.2208,691.5538,NA,NA,NA,NA,NA,NA,NA,TRUE,1,2.4468,688.2228,691.2206,NA,NA,NA,NA,NA,200,47,0,66,66,106,1,2,67,"binary"
"FAC2AA4E8E61415A854BA76B9E54D48B",1,"0198f7ab-21ac-7e29-95b1-ac33a374e7b7","0198f767-55c9-7875-8d21-563b3c0b86ed","2025-08-29_17h19.18.812",NA,NA,694.5543,694.5543,694.5543,694.9207,NA,NA,NA,NA,NA,NA,NA,TRUE,1,1.7347,691.5563,694.5541,NA,NA,NA,NA,NA,150,40,0,67,67,93,1,2,68,"binary"
"FAC2AA4E8E61415A854BA76B9E54D48B",1,"0198f7ab-21ac-7e29-95b1-ac33a374e7b7","0198f767-55c9-7875-8d21-563b3c0b86ed","2025-08-29_17h19.18.812",NA,NA,697.921,697.9211,697.9211,698.254,NA,NA,NA,NA,NA,NA,NA,TRUE,1,0.6382,694.9231,697.9209,NA,NA,NA,NA,NA,180,39,0,68,68,99,1,2,69,"binary"
"FAC2AA4E8E61415A854BA76B9E54D48B",1,"0198f7ab-21ac-7e29-95b1-ac33a374e7b7","0198f767-55c9-7875-8d21-563b3c0b86ed","2025-08-29_17h19.18.812",NA,NA,701.2545,701.2546,701.2546,701.621,NA,NA,NA,NA,NA,NA,NA,TRUE,1,0.7175,698.2561,701.2543,NA,NA,NA,NA,NA,200,54,0,69,69,107,1,2,70,"binary"
"FAC2AA4E8E61415A854BA76B9E54D48B",1,"0198f7ab-21ac-7e29-95b1-ac33a374e7b7","0198f767-55c9-7875-8d21-563b3c0b86ed","2025-08-29_17h19.18.812",NA,NA,704.6212,704.6213,704.6213,704.9544,NA,NA,NA,NA,NA,NA,NA,TRUE,1,0.8936,701.6234,704.621,NA,NA,NA,NA,NA,150,54,0,70,70,95,1,2,71,"binary"
"FAC2AA4E8E61415A854BA76B9E54D48B",1,"0198f7ab-21ac-7e29-95b1-ac33a374e7b7","0198f767-55c9-7875-8d21-563b3c0b86ed","2025-08-29_17h19.18.812",NA,NA,707.9549,707.9549,707.9549,708.3214,NA,NA,NA,NA,NA,NA,NA,TRUE,1,2.1256,704.9567,707.9547,NA,NA,NA,NA,NA,90,26,0,71,71,72,1,2,72,"binary"
"FAC2AA4E8E61415A854BA76B9E54D48B",1,"0198f7ab-21ac-7e29-95b1-ac33a374e7b7","0198f767-55c9-7875-8d21-563b3c0b86ed","2025-08-29_17h19.18.812",NA,NA,711.3216,711.3217,711.3217,711.6546,NA,NA,NA,NA,NA,NA,NA,TRUE,2,2.2572,708.3237,711.3214,NA,NA,NA,NA,NA,14,35,0,72,72,22,1,2,73,"binary"
"FAC2AA4E8E61415A854BA76B9E54D48B",1,"0198f7ab-21ac-7e29-95b1-ac33a374e7b7","0198f767-55c9-7875-8d21-563b3c0b86ed","2025-08-29_17h19.18.812",NA,NA,714.655,714.655,714.655,715.0215,NA,NA,NA,NA,NA,NA,NA,TRUE,2,1.9011,711.6574,714.6549,NA,NA,NA,NA,NA,12,35,0,73,73,17,1,2,74,"binary"
"FAC2AA4E8E61415A854BA76B9E54D48B",1,"0198f7ab-21ac-7e29-95b1-ac33a374e7b7","0198f767-55c9-7875-8d21-563b3c0b86ed","2025-08-29_17h19.18.812",NA,NA,718.0221,718.0221,718.0221,718.355,NA,NA,NA,NA,NA,NA,NA,TRUE,2,2.2908,715.024,718.0218,NA,NA,NA,NA,NA,12,31,0,74,74,15,1,2,75,"binary"
"FAC2AA4E8E61415A854BA76B9E54D48B",1,"0198f7ab-21ac-7e29-95b1-ac33a374e7b7","0198f767-55c9-7875-8d21-563b3c0b86ed","2025-08-29_17h19.18.812",NA,NA,721.3553,721.3553,721.3554,721.7217,NA,NA,NA,NA,NA,NA,NA,TRUE,2,2.1798,718.3571,721.3552,NA,NA,NA,NA,NA,14,39,0,75,75,23,1,2,76,"binary"
"FAC2AA4E8E61415A854BA76B9E54D48B",1,"0198f7ab-21ac-7e29-95b1-ac33a374e7b7","0198f767-55c9-7875-8d21-563b3c0b86ed","2025-08-29_17h19.18.812",NA,NA,724.7221,724.7222,724.7222,725.0542,NA,NA,NA,NA,NA,NA,NA,TRUE,1,1.9509,721.7242,724.722,NA,NA,NA,NA,NA,50,30,0,76,76,61,1,2,77,"binary"
"FAC2AA4E8E61415A854BA76B9E54D48B",1,"0198f7ab-21ac-7e29-95b1-ac33a374e7b7","0198f767-55c9-7875-8d21-563b3c0b86ed","2025-08-29_17h19.18.812",NA,NA,728.0557,728.0557,728.0558,728.4221,NA,NA,NA,NA,NA,NA,NA,TRUE,1,1.3565,725.0564,728.0556,NA,NA,NA,NA,NA,12,25,0,77,77,12,1,2,78,"binary"
"FAC2AA4E8E61415A854BA76B9E54D48B",1,"0198f7ab-21ac-7e29-95b1-ac33a374e7b7","0198f767-55c9-7875-8d21-563b3c0b86ed","2025-08-29_17h19.18.812",NA,NA,731.4225,731.4226,731.4226,731.7556,NA,NA,NA,NA,NA,NA,NA,TRUE,1,0.8003,728.4241,731.4223,NA,NA,NA,NA,NA,200,39,0,78,78,105,1,2,79,"binary"
"FAC2AA4E8E61415A854BA76B9E54D48B",1,"0198f7ab-21ac-7e29-95b1-ac33a374e7b7","0198f767-55c9-7875-8d21-563b3c0b86ed","2025-08-29_17h19.18.812",NA,NA,734.7562,734.7562,734.7563,735.1225,NA,NA,NA,NA,NA,NA,NA,TRUE,2,0.9336,731.7579,734.756,NA,NA,NA,NA,NA,7,32,0,79,79,4,1,2,80,"binary"
"FAC2AA4E8E61415A854BA76B9E54D48B",1,"0198f7ab-21ac-7e29-95b1-ac33a374e7b7","0198f767-55c9-7875-8d21-563b3c0b86ed","2025-08-29_17h19.18.812",NA,NA,738.1229,738.1229,738.1229,738.4559,NA,NA,NA,NA,NA,NA,NA,TRUE,1,0.7004,735.1248,738.1226,NA,NA,NA,NA,NA,95,31,0,80,80,78,1,2,81,"binary"
"FAC2AA4E8E61415A854BA76B9E54D48B",1,"0198f7ab-21ac-7e29-95b1-ac33a374e7b7","0198f767-55c9-7875-8d21-563b3c0b86ed","2025-08-29_17h19.18.812",NA,NA,741.4557,741.4558,741.4558,741.8225,NA,NA,NA,NA,NA,NA,NA,TRUE,1,0.6137,738.4582,741.4557,NA,NA,NA,NA,NA,200,35,0,81,81,104,1,2,82,"binary"
"FAC2AA4E8E61415A854BA76B9E54D48B",1,"0198f7ab-21ac-7e29-95b1-ac33a374e7b7","0198f767-55c9-7875-8d21-563b3c0b86ed","2025-08-29_17h19.18.812",NA,NA,744.8228,744.8228,744.8228,745.1553,NA,NA,NA,NA,NA,NA,NA,TRUE,1,1.0878,741.824,744.8226,NA,NA,NA,NA,NA,95,47,0,82,82,82,1,2,83,"binary"
"FAC2AA4E8E61415A854BA76B9E54D48B",1,"0198f7ab-21ac-7e29-95b1-ac33a374e7b7","0198f767-55c9-7875-8d21-563b3c0b86ed","2025-08-29_17h19.18.812",NA,NA,748.1565,748.1565,748.1565,748.523,NA,NA,NA,NA,NA,NA,NA,TRUE,1,1.1466,745.157,748.1563,NA,NA,NA,NA,NA,95,40,0,83,83,81,1,2,84,"binary"
"FAC2AA4E8E61415A854BA76B9E54D48B",1,"0198f7ab-21ac-7e29-95b1-ac33a374e7b7","0198f767-55c9-7875-8d21-563b3c0b86ed","2025-08-29_17h19.18.812",NA,NA,751.5221,751.5222,751.5222,751.8564,NA,NA,NA,NA,NA,NA,NA,TRUE,1,1.0665,748.5252,751.522,NA,NA,NA,NA,NA,45,26,0,84,84,54,1,2,85,"binary"
"FAC2AA4E8E61415A854BA76B9E54D48B",1,"0198f7ab-21ac-7e29-95b1-ac33a374e7b7","0198f767-55c9-7875-8d21-563b3c0b86ed","2025-08-29_17h19.18.812",NA,NA,754.8569,754.8569,754.8569,755.2231,NA,NA,NA,NA,NA,NA,NA,TRUE,1,1.4271,751.8588,754.8566,NA,NA,NA,NA,NA,12,28,0,85,85,14,1,2,86,"binary"
"FAC2AA4E8E61415A854BA76B9E54D48B",1,"0198f7ab-21ac-7e29-95b1-ac33a374e7b7","0198f767-55c9-7875-8d21-563b3c0b86ed","2025-08-29_17h19.18.812",NA,NA,758.2236,758.2237,758.2237,758.5568,NA,NA,NA,NA,NA,NA,NA,TRUE,1,2.0887,755.2256,758.2235,NA,NA,NA,NA,NA,50,46,0,86,86,64,1,2,87,"binary"
"FAC2AA4E8E61415A854BA76B9E54D48B",1,"0198f7ab-21ac-7e29-95b1-ac33a374e7b7","0198f767-55c9-7875-8d21-563b3c0b86ed","2025-08-29_17h19.18.812",NA,NA,761.5559,761.556,761.556,761.9235,NA,NA,NA,NA,NA,NA,NA,TRUE,2,2.067,758.559,761.5558,NA,NA,NA,NA,NA,28,39,0,87,87,40,1,2,88,"binary"
"FAC2AA4E8E61415A854BA76B9E54D48B",1,"0198f7ab-21ac-7e29-95b1-ac33a374e7b7","0198f767-55c9-7875-8d21-563b3c0b86ed","2025-08-29_17h19.18.812",NA,NA,764.9238,764.9239,764.9239,765.257,NA,NA,NA,NA,NA,NA,NA,TRUE,1,1.4864,761.926,764.9236,NA,NA,NA,NA,NA,21,29,0,88,88,26,1,2,89,"binary"
"FAC2AA4E8E61415A854BA76B9E54D48B",1,"0198f7ab-21ac-7e29-95b1-ac33a374e7b7","0198f767-55c9-7875-8d21-563b3c0b86ed","2025-08-29_17h19.18.812",NA,NA,768.2573,768.2574,768.2574,768.6239,NA,NA,NA,NA,NA,NA,NA,TRUE,1,1.1558,765.2594,768.2572,NA,NA,NA,NA,NA,30,26,0,89,89,42,1,2,90,"binary"
"FAC2AA4E8E61415A854BA76B9E54D48B",1,"0198f7ab-21ac-7e29-95b1-ac33a374e7b7","0198f767-55c9-7875-8d21-563b3c0b86ed","2025-08-29_17h19.18.812",NA,NA,771.6241,771.6242,771.6242,771.9572,NA,NA,NA,NA,NA,NA,NA,TRUE,1,1.2041,768.6262,771.6239,NA,NA,NA,NA,NA,30,27,0,90,90,43,1,2,91,"binary"
"FAC2AA4E8E61415A854BA76B9E54D48B",1,"0198f7ab-21ac-7e29-95b1-ac33a374e7b7","0198f767-55c9-7875-8d21-563b3c0b86ed","2025-08-29_17h19.18.812",NA,NA,774.9576,774.9576,774.9576,775.3241,NA,NA,NA,NA,NA,NA,NA,TRUE,1,1.4143,771.9595,774.9574,NA,NA,NA,NA,NA,40,35,0,91,91,50,1,2,92,"binary"
"FAC2AA4E8E61415A854BA76B9E54D48B",1,"0198f7ab-21ac-7e29-95b1-ac33a374e7b7","0198f767-55c9-7875-8d21-563b3c0b86ed","2025-08-29_17h19.18.812",NA,NA,778.3236,778.3236,778.3236,778.6567,NA,NA,NA,NA,NA,NA,NA,TRUE,1,0.8699,775.3265,778.3234,NA,NA,NA,NA,NA,150,47,0,92,92,94,1,2,93,"binary"
"FAC2AA4E8E61415A854BA76B9E54D48B",1,"0198f7ab-21ac-7e29-95b1-ac33a374e7b7","0198f767-55c9-7875-8d21-563b3c0b86ed","2025-08-29_17h19.18.812",NA,NA,781.6568,781.6569,781.6569,782.0244,NA,NA,NA,NA,NA,NA,NA,TRUE,1,1.4123,778.6591,781.6566,NA,NA,NA,NA,NA,40,54,0,93,93,53,1,2,94,"binary"
"FAC2AA4E8E61415A854BA76B9E54D48B",1,"0198f7ab-21ac-7e29-95b1-ac33a374e7b7","0198f767-55c9-7875-8d21-563b3c0b86ed","2025-08-29_17h19.18.812",NA,NA,785.0247,785.0248,785.0248,785.3578,NA,NA,NA,NA,NA,NA,NA,TRUE,1,1.0484,782.026,785.0246,NA,NA,NA,NA,NA,10,25,0,94,94,6,1,2,95,"binary"
"FAC2AA4E8E61415A854BA76B9E54D48B",1,"0198f7ab-21ac-7e29-95b1-ac33a374e7b7","0198f767-55c9-7875-8d21-563b3c0b86ed","2025-08-29_17h19.18.812",NA,NA,788.3581,788.3581,788.3582,788.7245,NA,NA,NA,NA,NA,NA,NA,TRUE,1,2.1924,785.36,788.3579,NA,NA,NA,NA,NA,40,40,0,95,95,51,1,2,96,"binary"
"FAC2AA4E8E61415A854BA76B9E54D48B",1,"0198f7ab-21ac-7e29-95b1-ac33a374e7b7","0198f767-55c9-7875-8d21-563b3c0b86ed","2025-08-29_17h19.18.812",NA,NA,791.7249,791.725,791.7251,792.057,NA,NA,NA,NA,NA,NA,NA,TRUE,1,1.4131,788.7269,791.7248,NA,NA,NA,NA,NA,10,26,0,96,96,7,1,2,97,"binary"
"FAC2AA4E8E61415A854BA76B9E54D48B",1,"0198f7ab-21ac-7e29-95b1-ac33a374e7b7","0198f767-55c9-7875-8d21-563b3c0b86ed","2025-08-29_17h19.18.812",NA,NA,795.0585,795.0585,795.0585,795.424,NA,NA,NA,NA,NA,NA,NA,TRUE,1,0.7201,792.0594,795.0583,NA,NA,NA,NA,NA,180,31,0,97,97,97,1,2,98,"binary"
"FAC2AA4E8E61415A854BA76B9E54D48B",1,"0198f7ab-21ac-7e29-95b1-ac33a374e7b7","0198f767-55c9-7875-8d21-563b3c0b86ed","2025-08-29_17h19.18.812",NA,NA,798.4255,798.4255,798.4255,798.7583,NA,NA,NA,NA,NA,NA,NA,TRUE,1,1.2542,795.4262,798.4253,NA,NA,NA,NA,NA,25,27,0,98,98,30,1,2,99,"binary"
"FAC2AA4E8E61415A854BA76B9E54D48B",1,"0198f7ab-21ac-7e29-95b1-ac33a374e7b7","0198f767-55c9-7875-8d21-563b3c0b86ed","2025-08-29_17h19.18.812",NA,NA,801.7588,801.7588,801.7589,802.1253,NA,NA,NA,NA,NA,NA,NA,TRUE,1,2.5949,798.7607,801.7587,NA,NA,NA,NA,NA,60,40,0,99,99,69,1,2,100,"binary"
"FAC2AA4E8E61415A854BA76B9E54D48B",1,"0198f7ab-21ac-7e29-95b1-ac33a374e7b7","0198f767-55c9-7875-8d21-563b3c0b86ed","2025-08-29_17h19.18.812",NA,NA,805.1256,805.1256,805.1256,805.4577,NA,NA,NA,NA,NA,NA,NA,TRUE,1,2.146,802.1275,805.1253,NA,NA,NA,NA,NA,90,40,0,100,100,75,1,2,101,"binary"
"FAC2AA4E8E61415A854BA76B9E54D48B",1,"0198f7ab-21ac-7e29-95b1-ac33a374e7b7","0198f767-55c9-7875-8d21-563b3c0b86ed","2025-08-29_17h19.18.812",NA,NA,808.4591,808.4592,808.4592,808.8245,NA,NA,NA,NA,NA,NA,NA,TRUE,1,2.3265,805.46,808.459,NA,NA,NA,NA,NA,7,25,0,101,101,0,1,2,102,"binary"
"FAC2AA4E8E61415A854BA76B9E54D48B",1,"0198f7ab-21ac-7e29-95b1-ac33a374e7b7","0198f767-55c9-7875-8d21-563b3c0b86ed","2025-08-29_17h19.18.812",NA,NA,811.8259,811.8259,811.8259,812.1579,NA,NA,NA,NA,NA,NA,NA,TRUE,1,2.3474,808.8268,811.8257,NA,NA,NA,NA,NA,14,26,0,102,102,19,1,2,103,"binary"
"FAC2AA4E8E61415A854BA76B9E54D48B",1,"0198f7ab-21ac-7e29-95b1-ac33a374e7b7","0198f767-55c9-7875-8d21-563b3c0b86ed","2025-08-29_17h19.18.812",NA,NA,815.1593,815.1593,815.1593,815.5256,NA,NA,NA,NA,NA,NA,NA,TRUE,1,1.4933,812.1602,815.1591,NA,NA,NA,NA,NA,12,26,0,103,103,13,1,2,104,"binary"
"FAC2AA4E8E61415A854BA76B9E54D48B",1,"0198f7ab-21ac-7e29-95b1-ac33a374e7b7","0198f767-55c9-7875-8d21-563b3c0b86ed","2025-08-29_17h19.18.812",NA,NA,818.5262,818.5262,818.5262,818.8593,NA,NA,NA,NA,NA,NA,NA,TRUE,1,2.1667,815.5278,818.526,NA,NA,NA,NA,NA,100,31,0,104,104,85,1,2,105,"binary"
"FAC2AA4E8E61415A854BA76B9E54D48B",1,"0198f7ab-21ac-7e29-95b1-ac33a374e7b7","0198f767-55c9-7875-8d21-563b3c0b86ed","2025-08-29_17h19.18.812",NA,NA,821.8596,821.8596,821.8596,822.2261,NA,NA,NA,NA,NA,NA,NA,TRUE,1,1.7181,818.8616,821.8594,NA,NA,NA,NA,NA,180,35,0,105,105,98,1,2,106,"binary"
"FAC2AA4E8E61415A854BA76B9E54D48B",1,"0198f7ab-21ac-7e29-95b1-ac33a374e7b7","0198f767-55c9-7875-8d21-563b3c0b86ed","2025-08-29_17h19.18.812",NA,NA,825.2254,825.2255,825.2255,825.5594,NA,NA,NA,NA,NA,NA,NA,TRUE,1,1.4606,822.2285,825.2253,NA,NA,NA,NA,NA,45,40,0,106,106,58,1,2,107,"binary"
"FAC2AA4E8E61415A854BA76B9E54D48B",1,"0198f7ab-21ac-7e29-95b1-ac33a374e7b7","0198f767-55c9-7875-8d21-563b3c0b86ed","2025-08-29_17h19.18.812",NA,NA,828.559,828.559,828.559,828.9263,NA,NA,NA,NA,NA,NA,NA,TRUE,1,2.3254,825.5618,828.5587,NA,NA,NA,NA,NA,7,28,0,107,107,2,1,2,108,"binary"
