"participant","session","assignmentId","projectId","date","practiceTrial.started","practiceTrial.stopped","tooLate.started","tooLate.stopped","blank.started","blank.stopped","trials_pract.thisRepN","trials_pract.thisTrialN","trials_pract.thisN","trials_pract.thisIndex","trials_pract.ran","delay_pract","amount_pract","responseMade","key","rt","trial.started","trial.stopped","trials.thisRepN","trials.thisTrialN","trials.thisN","trials.thisIndex","trials.ran","delay","amount","trials_2.thisRepN","trials_2.thisTrialN","trials_2.thisN","trials_2.thisIndex","trials_2.ran","block","trial","taskType"
"FD2A6686546A4D689BE4A684CD264636",1,"0198ecee-3bda-772b-bf84-84e2073f57f3","0198c47e-224f-7cc7-87e7-f5ab0011d1ce","2025-08-27_15h08.36.491",20.1908,23.1569,23.1586,23.175,23.1752,23.5063,0,0,0,1,1,100,50,TRUE,2,0.937,NA,NA,NA,NA,NA,NA,NA,NA,NA,NA,NA,NA,NA,NA,0,1,"binary"
"FD2A6686546A4D689BE4A684CD264636",1,"0198ecee-3bda-772b-bf84-84e2073f57f3","0198c47e-224f-7cc7-87e7-f5ab0011d1ce","2025-08-27_15h08.36.491",23.5102,26.5058,26.5061,26.5062,26.5062,26.8558,0,1,1,3,1,3,27,TRUE,2,1.239,NA,NA,NA,NA,NA,NA,NA,NA,NA,NA,NA,NA,NA,NA,0,2,"binary"
"FD2A6686546A4D689BE4A684CD264636",1,"0198ecee-3bda-772b-bf84-84e2073f57f3","0198c47e-224f-7cc7-87e7-f5ab0011d1ce","2025-08-27_15h08.36.491",26.8591,29.8545,29.8546,29.8547,29.8547,30.2057,0,2,2,0,1,7,30,TRUE,2,0.4978,NA,NA,NA,NA,NA,NA,NA,NA,NA,NA,NA,NA,NA,NA,0,3,"binary"
"FD2A6686546A4D689BE4A684CD264636",1,"0198ecee-3bda-772b-bf84-84e2073f57f3","0198c47e-224f-7cc7-87e7-f5ab0011d1ce","2025-08-27_15h08.36.491",30.2094,33.2058,33.206,33.2062,33.2062,33.5557,0,3,3,2,1,14,45,TRUE,2,0.3929,NA,NA,NA,NA,NA,NA,NA,NA,NA,NA,NA,NA,NA,NA,0,4,"binary"
"FD2A6686546A4D689BE4A684CD264636",1,"0198ecee-3bda-772b-bf84-84e2073f57f3","0198c47e-224f-7cc7-87e7-f5ab0011d1ce","2025-08-27_15h08.36.491",33.5592,36.5555,36.556,36.5561,36.5562,36.9057,0,4,4,4,1,30,40,TRUE,2,0.505,NA,NA,NA,NA,NA,NA,NA,NA,NA,NA,NA,NA,NA,NA,0,5,"binary"
"FD2A6686546A4D689BE4A684CD264636",1,"0198ecee-3bda-772b-bf84-84e2073f57f3","0198c47e-224f-7cc7-87e7-f5ab0011d1ce","2025-08-27_15h08.36.491",NA,NA,54.374,54.3743,54.3744,54.7227,NA,NA,NA,NA,NA,NA,NA,TRUE,2,0.6711,51.4018,54.3735,0,0,0,53,1,40,54,NA,NA,NA,NA,NA,1,1,"binary"
"FD2A6686546A4D689BE4A684CD264636",1,"0198ecee-3bda-772b-bf84-84e2073f57f3","0198c47e-224f-7cc7-87e7-f5ab0011d1ce","2025-08-27_15h08.36.491",NA,NA,57.7229,57.7229,57.7229,58.0722,NA,NA,NA,NA,NA,NA,NA,TRUE,2,0.8822,54.7262,57.7226,0,1,1,28,1,21,32,NA,NA,NA,NA,NA,1,2,"binary"
"FD2A6686546A4D689BE4A684CD264636",1,"0198ecee-3bda-772b-bf84-84e2073f57f3","0198c47e-224f-7cc7-87e7-f5ab0011d1ce","2025-08-27_15h08.36.491",NA,NA,61.0728,61.0728,61.0728,61.4219,NA,NA,NA,NA,NA,NA,NA,TRUE,2,0.522,58.0751,61.0726,0,2,2,78,1,95,31,NA,NA,NA,NA,NA,1,3,"binary"
"FD2A6686546A4D689BE4A684CD264636",1,"0198ecee-3bda-772b-bf84-84e2073f57f3","0198c47e-224f-7cc7-87e7-f5ab0011d1ce","2025-08-27_15h08.36.491",NA,NA,64.4234,64.4234,64.4235,64.7723,NA,NA,NA,NA,NA,NA,NA,TRUE,2,0.6862,61.4237,64.4232,0,3,3,60,1,50,27,NA,NA,NA,NA,NA,1,4,"binary"
"FD2A6686546A4D689BE4A684CD264636",1,"0198ecee-3bda-772b-bf84-84e2073f57f3","0198c47e-224f-7cc7-87e7-f5ab0011d1ce","2025-08-27_15h08.36.491",NA,NA,67.7721,67.7724,67.7724,68.1223,NA,NA,NA,NA,NA,NA,NA,TRUE,2,0.5182,64.7763,67.772,0,4,4,102,1,200,26,NA,NA,NA,NA,NA,1,5,"binary"
"FD2A6686546A4D689BE4A684CD264636",1,"0198ecee-3bda-772b-bf84-84e2073f57f3","0198c47e-224f-7cc7-87e7-f5ab0011d1ce","2025-08-27_15h08.36.491",NA,NA,71.1232,71.1233,71.1233,71.472,NA,NA,NA,NA,NA,NA,NA,TRUE,1,1.1182,68.1255,71.1227,0,5,5,0,1,7,25,NA,NA,NA,NA,NA,1,6,"binary"
"FD2A6686546A4D689BE4A684CD264636",1,"0198ecee-3bda-772b-bf84-84e2073f57f3","0198c47e-224f-7cc7-87e7-f5ab0011d1ce","2025-08-27_15h08.36.491",NA,NA,74.4731,74.4733,74.4733,74.8226,NA,NA,NA,NA,NA,NA,NA,TRUE,2,0.7853,71.4745,74.4728,0,6,6,61,1,50,30,NA,NA,NA,NA,NA,1,7,"binary"
"FD2A6686546A4D689BE4A684CD264636",1,"0198ecee-3bda-772b-bf84-84e2073f57f3","0198c47e-224f-7cc7-87e7-f5ab0011d1ce","2025-08-27_15h08.36.491",NA,NA,77.8222,77.8224,77.8226,78.1724,NA,NA,NA,NA,NA,NA,NA,TRUE,2,0.5888,74.8256,77.8217,0,7,7,77,1,90,54,NA,NA,NA,NA,NA,1,8,"binary"
"FD2A6686546A4D689BE4A684CD264636",1,"0198ecee-3bda-772b-bf84-84e2073f57f3","0198c47e-224f-7cc7-87e7-f5ab0011d1ce","2025-08-27_15h08.36.491",NA,NA,81.1725,81.1727,81.1728,81.5221,NA,NA,NA,NA,NA,NA,NA,TRUE,2,0.5292,78.176,81.1723,0,8,8,100,1,180,46,NA,NA,NA,NA,NA,1,9,"binary"
"FD2A6686546A4D689BE4A684CD264636",1,"0198ecee-3bda-772b-bf84-84e2073f57f3","0198c47e-224f-7cc7-87e7-f5ab0011d1ce","2025-08-27_15h08.36.491",NA,NA,84.5225,84.5226,84.5226,84.8722,NA,NA,NA,NA,NA,NA,NA,TRUE,2,0.541,81.5246,84.5223,0,9,9,34,1,25,35,NA,NA,NA,NA,NA,1,10,"binary"
"FD2A6686546A4D689BE4A684CD264636",1,"0198ecee-3bda-772b-bf84-84e2073f57f3","0198c47e-224f-7cc7-87e7-f5ab0011d1ce","2025-08-27_15h08.36.491",NA,NA,87.8728,87.8729,87.873,88.222,NA,NA,NA,NA,NA,NA,NA,TRUE,2,0.6834,84.8753,87.8725,0,10,10,45,1,30,30,NA,NA,NA,NA,NA,1,11,"binary"
"FD2A6686546A4D689BE4A684CD264636",1,"0198ecee-3bda-772b-bf84-84e2073f57f3","0198c47e-224f-7cc7-87e7-f5ab0011d1ce","2025-08-27_15h08.36.491",NA,NA,91.223,91.2231,91.2231,91.5731,NA,NA,NA,NA,NA,NA,NA,TRUE,2,0.7269,88.2254,91.2225,0,11,11,59,1,45,46,NA,NA,NA,NA,NA,1,12,"binary"
"FD2A6686546A4D689BE4A684CD264636",1,"0198ecee-3bda-772b-bf84-84e2073f57f3","0198c47e-224f-7cc7-87e7-f5ab0011d1ce","2025-08-27_15h08.36.491",NA,NA,94.5726,94.5728,94.5729,94.9225,NA,NA,NA,NA,NA,NA,NA,TRUE,2,0.5037,91.5766,94.5724,0,12,12,40,1,28,39,NA,NA,NA,NA,NA,1,13,"binary"
"FD2A6686546A4D689BE4A684CD264636",1,"0198ecee-3bda-772b-bf84-84e2073f57f3","0198c47e-224f-7cc7-87e7-f5ab0011d1ce","2025-08-27_15h08.36.491",NA,NA,97.9233,97.9234,97.9234,98.2732,NA,NA,NA,NA,NA,NA,NA,TRUE,2,0.4614,94.9259,97.9231,0,13,13,107,1,200,54,NA,NA,NA,NA,NA,1,14,"binary"
"FD2A6686546A4D689BE4A684CD264636",1,"0198ecee-3bda-772b-bf84-84e2073f57f3","0198c47e-224f-7cc7-87e7-f5ab0011d1ce","2025-08-27_15h08.36.491",NA,NA,101.2725,101.2727,101.2728,101.6218,NA,NA,NA,NA,NA,NA,NA,TRUE,2,0.6015,98.2767,101.2723,0,14,14,22,1,14,35,NA,NA,NA,NA,NA,1,15,"binary"
"FD2A6686546A4D689BE4A684CD264636",1,"0198ecee-3bda-772b-bf84-84e2073f57f3","0198c47e-224f-7cc7-87e7-f5ab0011d1ce","2025-08-27_15h08.36.491",NA,NA,104.6223,104.6225,104.6225,104.9719,NA,NA,NA,NA,NA,NA,NA,TRUE,2,0.4451,101.6253,104.6219,0,15,15,6,1,10,25,NA,NA,NA,NA,NA,1,16,"binary"
"FD2A6686546A4D689BE4A684CD264636",1,"0198ecee-3bda-772b-bf84-84e2073f57f3","0198c47e-224f-7cc7-87e7-f5ab0011d1ce","2025-08-27_15h08.36.491",NA,NA,107.9729,107.973,107.9733,108.3225,NA,NA,NA,NA,NA,NA,NA,TRUE,2,0.5199,104.9756,107.9727,0,16,16,51,1,40,40,NA,NA,NA,NA,NA,1,17,"binary"
"FD2A6686546A4D689BE4A684CD264636",1,"0198ecee-3bda-772b-bf84-84e2073f57f3","0198c47e-224f-7cc7-87e7-f5ab0011d1ce","2025-08-27_15h08.36.491",NA,NA,111.3224,111.3226,111.3226,111.6725,NA,NA,NA,NA,NA,NA,NA,TRUE,1,1.219,108.3257,111.3222,0,17,17,24,1,21,26,NA,NA,NA,NA,NA,1,18,"binary"
"FD2A6686546A4D689BE4A684CD264636",1,"0198ecee-3bda-772b-bf84-84e2073f57f3","0198c47e-224f-7cc7-87e7-f5ab0011d1ce","2025-08-27_15h08.36.491",NA,NA,114.6727,114.6727,114.6728,115.0224,NA,NA,NA,NA,NA,NA,NA,TRUE,1,1.238,111.6755,114.6725,0,18,18,13,1,12,26,NA,NA,NA,NA,NA,1,19,"binary"
"FD2A6686546A4D689BE4A684CD264636",1,"0198ecee-3bda-772b-bf84-84e2073f57f3","0198c47e-224f-7cc7-87e7-f5ab0011d1ce","2025-08-27_15h08.36.491",NA,NA,118.0226,118.0226,118.0228,118.372,NA,NA,NA,NA,NA,NA,NA,TRUE,2,0.6559,115.0259,118.0222,0,19,19,10,1,10,30,NA,NA,NA,NA,NA,1,20,"binary"
"FD2A6686546A4D689BE4A684CD264636",1,"0198ecee-3bda-772b-bf84-84e2073f57f3","0198c47e-224f-7cc7-87e7-f5ab0011d1ce","2025-08-27_15h08.36.491",NA,NA,121.373,121.3732,121.3732,121.7223,NA,NA,NA,NA,NA,NA,NA,TRUE,2,0.6603,118.3755,121.3725,0,20,20,80,1,95,35,NA,NA,NA,NA,NA,1,21,"binary"
"FD2A6686546A4D689BE4A684CD264636",1,"0198ecee-3bda-772b-bf84-84e2073f57f3","0198c47e-224f-7cc7-87e7-f5ab0011d1ce","2025-08-27_15h08.36.491",NA,NA,124.7222,124.7222,124.7222,125.0717,NA,NA,NA,NA,NA,NA,NA,TRUE,2,0.6856,121.7256,124.7219,0,21,21,66,1,60,29,NA,NA,NA,NA,NA,1,22,"binary"
"FD2A6686546A4D689BE4A684CD264636",1,"0198ecee-3bda-772b-bf84-84e2073f57f3","0198c47e-224f-7cc7-87e7-f5ab0011d1ce","2025-08-27_15h08.36.491",NA,NA,128.0728,128.0728,128.0728,128.4229,NA,NA,NA,NA,NA,NA,NA,TRUE,2,0.6861,125.0751,128.0724,0,22,22,44,1,30,29,NA,NA,NA,NA,NA,1,23,"binary"
"FD2A6686546A4D689BE4A684CD264636",1,"0198ecee-3bda-772b-bf84-84e2073f57f3","0198c47e-224f-7cc7-87e7-f5ab0011d1ce","2025-08-27_15h08.36.491",NA,NA,131.4234,131.4236,131.4237,131.7722,NA,NA,NA,NA,NA,NA,NA,TRUE,2,0.7356,128.4267,131.4232,0,23,23,98,1,180,35,NA,NA,NA,NA,NA,1,24,"binary"
"FD2A6686546A4D689BE4A684CD264636",1,"0198ecee-3bda-772b-bf84-84e2073f57f3","0198c47e-224f-7cc7-87e7-f5ab0011d1ce","2025-08-27_15h08.36.491",NA,NA,134.7725,134.7725,134.7725,135.1229,NA,NA,NA,NA,NA,NA,NA,TRUE,2,0.5851,131.7757,134.7723,0,24,24,56,1,45,31,NA,NA,NA,NA,NA,1,25,"binary"
"FD2A6686546A4D689BE4A684CD264636",1,"0198ecee-3bda-772b-bf84-84e2073f57f3","0198c47e-224f-7cc7-87e7-f5ab0011d1ce","2025-08-27_15h08.36.491",NA,NA,138.1225,138.1225,138.1227,138.4719,NA,NA,NA,NA,NA,NA,NA,TRUE,2,0.4916,135.1263,138.1221,0,25,25,3,1,7,30,NA,NA,NA,NA,NA,1,26,"binary"
"FD2A6686546A4D689BE4A684CD264636",1,"0198ecee-3bda-772b-bf84-84e2073f57f3","0198c47e-224f-7cc7-87e7-f5ab0011d1ce","2025-08-27_15h08.36.491",NA,NA,141.4728,141.4728,141.4729,141.8228,NA,NA,NA,NA,NA,NA,NA,TRUE,2,0.6336,138.4752,141.4722,0,26,26,97,1,180,31,NA,NA,NA,NA,NA,1,27,"binary"
"FD2A6686546A4D689BE4A684CD264636",1,"0198ecee-3bda-772b-bf84-84e2073f57f3","0198c47e-224f-7cc7-87e7-f5ab0011d1ce","2025-08-27_15h08.36.491",NA,NA,144.8234,144.8235,144.8235,145.1737,NA,NA,NA,NA,NA,NA,NA,TRUE,2,0.6131,141.8259,144.8232,0,27,27,15,1,12,31,NA,NA,NA,NA,NA,1,28,"binary"
"FD2A6686546A4D689BE4A684CD264636",1,"0198ecee-3bda-772b-bf84-84e2073f57f3","0198c47e-224f-7cc7-87e7-f5ab0011d1ce","2025-08-27_15h08.36.491",NA,NA,148.1728,148.1728,148.1729,148.5229,NA,NA,NA,NA,NA,NA,NA,TRUE,2,0.5198,145.1772,148.1726,0,28,28,106,1,200,47,NA,NA,NA,NA,NA,1,29,"binary"
"FD2A6686546A4D689BE4A684CD264636",1,"0198ecee-3bda-772b-bf84-84e2073f57f3","0198c47e-224f-7cc7-87e7-f5ab0011d1ce","2025-08-27_15h08.36.491",NA,NA,151.5218,151.522,151.5221,151.8728,NA,NA,NA,NA,NA,NA,NA,TRUE,2,0.5527,148.5257,151.5215,0,29,29,47,1,30,38,NA,NA,NA,NA,NA,1,30,"binary"
"FD2A6686546A4D689BE4A684CD264636",1,"0198ecee-3bda-772b-bf84-84e2073f57f3","0198c47e-224f-7cc7-87e7-f5ab0011d1ce","2025-08-27_15h08.36.491",NA,NA,154.8728,154.8729,154.8729,155.223,NA,NA,NA,NA,NA,NA,NA,TRUE,2,0.5527,151.8758,154.8726,0,30,30,105,1,200,39,NA,NA,NA,NA,NA,1,31,"binary"
"FD2A6686546A4D689BE4A684CD264636",1,"0198ecee-3bda-772b-bf84-84e2073f57f3","0198c47e-224f-7cc7-87e7-f5ab0011d1ce","2025-08-27_15h08.36.491",NA,NA,158.2227,158.2227,158.2227,158.5724,NA,NA,NA,NA,NA,NA,NA,TRUE,2,0.5725,155.2265,158.2224,0,31,31,87,1,100,39,NA,NA,NA,NA,NA,1,32,"binary"
"FD2A6686546A4D689BE4A684CD264636",1,"0198ecee-3bda-772b-bf84-84e2073f57f3","0198c47e-224f-7cc7-87e7-f5ab0011d1ce","2025-08-27_15h08.36.491",NA,NA,161.5725,161.5727,161.5728,161.923,NA,NA,NA,NA,NA,NA,NA,TRUE,2,0.644,158.5753,161.5722,0,32,32,92,1,150,35,NA,NA,NA,NA,NA,1,33,"binary"
"FD2A6686546A4D689BE4A684CD264636",1,"0198ecee-3bda-772b-bf84-84e2073f57f3","0198c47e-224f-7cc7-87e7-f5ab0011d1ce","2025-08-27_15h08.36.491",NA,NA,164.9233,164.9233,164.9234,165.2725,NA,NA,NA,NA,NA,NA,NA,TRUE,2,0.7195,161.9265,164.923,0,33,33,46,1,30,32,NA,NA,NA,NA,NA,1,34,"binary"
"FD2A6686546A4D689BE4A684CD264636",1,"0198ecee-3bda-772b-bf84-84e2073f57f3","0198c47e-224f-7cc7-87e7-f5ab0011d1ce","2025-08-27_15h08.36.491",NA,NA,168.273,168.2731,168.2731,168.6227,NA,NA,NA,NA,NA,NA,NA,TRUE,2,0.7629,165.2769,168.2727,0,34,34,14,1,12,28,NA,NA,NA,NA,NA,1,35,"binary"
"FD2A6686546A4D689BE4A684CD264636",1,"0198ecee-3bda-772b-bf84-84e2073f57f3","0198c47e-224f-7cc7-87e7-f5ab0011d1ce","2025-08-27_15h08.36.491",NA,NA,171.6229,171.6229,171.6229,171.9721,NA,NA,NA,NA,NA,NA,NA,TRUE,2,0.4686,168.6261,171.6227,0,35,35,82,1,95,47,NA,NA,NA,NA,NA,1,36,"binary"
"FD2A6686546A4D689BE4A684CD264636",1,"0198ecee-3bda-772b-bf84-84e2073f57f3","0198c47e-224f-7cc7-87e7-f5ab0011d1ce","2025-08-27_15h08.36.491",NA,NA,174.9727,174.9727,174.9728,175.3226,NA,NA,NA,NA,NA,NA,NA,TRUE,2,0.5016,171.975,174.9722,0,36,36,90,1,150,31,NA,NA,NA,NA,NA,1,37,"binary"
"FD2A6686546A4D689BE4A684CD264636",1,"0198ecee-3bda-772b-bf84-84e2073f57f3","0198c47e-224f-7cc7-87e7-f5ab0011d1ce","2025-08-27_15h08.36.491",NA,NA,178.3231,178.3232,178.3233,178.6719,NA,NA,NA,NA,NA,NA,NA,TRUE,2,0.7017,175.3255,178.3228,0,37,37,55,1,45,29,NA,NA,NA,NA,NA,1,38,"binary"
"FD2A6686546A4D689BE4A684CD264636",1,"0198ecee-3bda-772b-bf84-84e2073f57f3","0198c47e-224f-7cc7-87e7-f5ab0011d1ce","2025-08-27_15h08.36.491",NA,NA,181.6725,181.6726,181.6727,182.021,NA,NA,NA,NA,NA,NA,NA,TRUE,2,0.8838,178.6755,181.6722,0,38,38,17,1,12,35,NA,NA,NA,NA,NA,1,39,"binary"
"FD2A6686546A4D689BE4A684CD264636",1,"0198ecee-3bda-772b-bf84-84e2073f57f3","0198c47e-224f-7cc7-87e7-f5ab0011d1ce","2025-08-27_15h08.36.491",NA,NA,185.0228,185.0228,185.0228,185.3724,NA,NA,NA,NA,NA,NA,NA,TRUE,2,0.6016,182.0245,185.0225,0,39,39,83,1,95,54,NA,NA,NA,NA,NA,1,40,"binary"
"FD2A6686546A4D689BE4A684CD264636",1,"0198ecee-3bda-772b-bf84-84e2073f57f3","0198c47e-224f-7cc7-87e7-f5ab0011d1ce","2025-08-27_15h08.36.491",NA,NA,188.3728,188.3728,188.3729,188.7232,NA,NA,NA,NA,NA,NA,NA,TRUE,2,0.4843,185.3754,188.3726,0,40,40,11,1,10,32,NA,NA,NA,NA,NA,1,41,"binary"
"FD2A6686546A4D689BE4A684CD264636",1,"0198ecee-3bda-772b-bf84-84e2073f57f3","0198c47e-224f-7cc7-87e7-f5ab0011d1ce","2025-08-27_15h08.36.491",NA,NA,191.7228,191.7229,191.723,192.0721,NA,NA,NA,NA,NA,NA,NA,TRUE,2,0.4206,188.7264,191.7226,0,41,41,104,1,200,35,NA,NA,NA,NA,NA,1,42,"binary"
"FD2A6686546A4D689BE4A684CD264636",1,"0198ecee-3bda-772b-bf84-84e2073f57f3","0198c47e-224f-7cc7-87e7-f5ab0011d1ce","2025-08-27_15h08.36.491",NA,NA,195.073,195.0731,195.0732,195.4234,NA,NA,NA,NA,NA,NA,NA,TRUE,2,0.5861,192.0758,195.0727,0,42,42,91,1,150,33,NA,NA,NA,NA,NA,1,43,"binary"
"FD2A6686546A4D689BE4A684CD264636",1,"0198ecee-3bda-772b-bf84-84e2073f57f3","0198c47e-224f-7cc7-87e7-f5ab0011d1ce","2025-08-27_15h08.36.491",NA,NA,198.4244,198.4244,198.4245,198.7726,NA,NA,NA,NA,NA,NA,NA,TRUE,2,0.4011,195.4275,198.4236,0,43,43,96,1,180,27,NA,NA,NA,NA,NA,1,44,"binary"
"FD2A6686546A4D689BE4A684CD264636",1,"0198ecee-3bda-772b-bf84-84e2073f57f3","0198c47e-224f-7cc7-87e7-f5ab0011d1ce","2025-08-27_15h08.36.491",NA,NA,201.7718,201.7719,201.7719,202.122,NA,NA,NA,NA,NA,NA,NA,TRUE,2,0.5009,198.7757,201.7718,0,44,44,65,1,50,54,NA,NA,NA,NA,NA,1,45,"binary"
"FD2A6686546A4D689BE4A684CD264636",1,"0198ecee-3bda-772b-bf84-84e2073f57f3","0198c47e-224f-7cc7-87e7-f5ab0011d1ce","2025-08-27_15h08.36.491",NA,NA,205.1228,205.1228,205.1229,205.4725,NA,NA,NA,NA,NA,NA,NA,TRUE,2,0.5027,202.1255,205.1226,0,45,45,79,1,95,33,NA,NA,NA,NA,NA,1,46,"binary"
"FD2A6686546A4D689BE4A684CD264636",1,"0198ecee-3bda-772b-bf84-84e2073f57f3","0198c47e-224f-7cc7-87e7-f5ab0011d1ce","2025-08-27_15h08.36.491",NA,NA,208.4727,208.4728,208.4729,208.8222,NA,NA,NA,NA,NA,NA,NA,TRUE,2,0.5014,205.4759,208.4722,0,46,46,43,1,30,27,NA,NA,NA,NA,NA,1,47,"binary"
"FD2A6686546A4D689BE4A684CD264636",1,"0198ecee-3bda-772b-bf84-84e2073f57f3","0198c47e-224f-7cc7-87e7-f5ab0011d1ce","2025-08-27_15h08.36.491",NA,NA,211.8226,211.8226,211.8226,212.1721,NA,NA,NA,NA,NA,NA,NA,TRUE,2,0.4555,208.8256,211.8224,0,47,47,2,1,7,28,NA,NA,NA,NA,NA,1,48,"binary"
"FD2A6686546A4D689BE4A684CD264636",1,"0198ecee-3bda-772b-bf84-84e2073f57f3","0198c47e-224f-7cc7-87e7-f5ab0011d1ce","2025-08-27_15h08.36.491",NA,NA,215.1725,215.1726,215.1726,215.5228,NA,NA,NA,NA,NA,NA,NA,TRUE,2,0.4362,212.1755,215.1722,0,48,48,38,1,28,32,NA,NA,NA,NA,NA,1,49,"binary"
"FD2A6686546A4D689BE4A684CD264636",1,"0198ecee-3bda-772b-bf84-84e2073f57f3","0198c47e-224f-7cc7-87e7-f5ab0011d1ce","2025-08-27_15h08.36.491",NA,NA,218.5221,218.5222,218.5222,218.8719,NA,NA,NA,NA,NA,NA,NA,TRUE,2,0.3961,215.5255,218.5219,0,49,49,62,1,50,35,NA,NA,NA,NA,NA,1,50,"binary"
"FD2A6686546A4D689BE4A684CD264636",1,"0198ecee-3bda-772b-bf84-84e2073f57f3","0198c47e-224f-7cc7-87e7-f5ab0011d1ce","2025-08-27_15h08.36.491",NA,NA,221.8727,221.8727,221.8727,222.2223,NA,NA,NA,NA,NA,NA,NA,TRUE,2,0.5768,218.8758,221.872,0,50,50,5,1,7,35,NA,NA,NA,NA,NA,1,51,"binary"
"FD2A6686546A4D689BE4A684CD264636",1,"0198ecee-3bda-772b-bf84-84e2073f57f3","0198c47e-224f-7cc7-87e7-f5ab0011d1ce","2025-08-27_15h08.36.491",NA,NA,225.2229,225.2229,225.223,225.5722,NA,NA,NA,NA,NA,NA,NA,TRUE,2,0.4489,222.2257,225.2227,0,51,51,70,1,60,47,NA,NA,NA,NA,NA,1,52,"binary"
"FD2A6686546A4D689BE4A684CD264636",1,"0198ecee-3bda-772b-bf84-84e2073f57f3","0198c47e-224f-7cc7-87e7-f5ab0011d1ce","2025-08-27_15h08.36.491",NA,NA,228.5722,228.5722,228.5723,228.9228,NA,NA,NA,NA,NA,NA,NA,TRUE,2,0.3801,225.5744,228.5718,0,52,52,35,1,25,46,NA,NA,NA,NA,NA,1,53,"binary"
"FD2A6686546A4D689BE4A684CD264636",1,"0198ecee-3bda-772b-bf84-84e2073f57f3","0198c47e-224f-7cc7-87e7-f5ab0011d1ce","2025-08-27_15h08.36.491",NA,NA,231.9231,231.9231,231.9232,232.2709,NA,NA,NA,NA,NA,NA,NA,TRUE,2,0.4005,228.9254,231.9229,0,53,53,86,1,100,38,NA,NA,NA,NA,NA,1,54,"binary"
"FD2A6686546A4D689BE4A684CD264636",1,"0198ecee-3bda-772b-bf84-84e2073f57f3","0198c47e-224f-7cc7-87e7-f5ab0011d1ce","2025-08-27_15h08.36.491",NA,NA,235.273,235.273,235.2731,235.623,NA,NA,NA,NA,NA,NA,NA,TRUE,2,0.4075,232.2722,235.2729,0,54,54,20,1,14,28,NA,NA,NA,NA,NA,1,55,"binary"
"FD2A6686546A4D689BE4A684CD264636",1,"0198ecee-3bda-772b-bf84-84e2073f57f3","0198c47e-224f-7cc7-87e7-f5ab0011d1ce","2025-08-27_15h08.36.491",NA,NA,238.6211,238.6212,238.6212,238.9723,NA,NA,NA,NA,NA,NA,NA,TRUE,2,0.4521,235.6262,238.6208,0,55,55,7,1,10,26,NA,NA,NA,NA,NA,1,56,"binary"
"FD2A6686546A4D689BE4A684CD264636",1,"0198ecee-3bda-772b-bf84-84e2073f57f3","0198c47e-224f-7cc7-87e7-f5ab0011d1ce","2025-08-27_15h08.36.491",NA,NA,241.9726,241.9729,241.9729,242.3235,NA,NA,NA,NA,NA,NA,NA,TRUE,2,0.4848,238.9757,241.9724,0,56,56,63,1,50,40,NA,NA,NA,NA,NA,1,57,"binary"
"FD2A6686546A4D689BE4A684CD264636",1,"0198ecee-3bda-772b-bf84-84e2073f57f3","0198c47e-224f-7cc7-87e7-f5ab0011d1ce","2025-08-27_15h08.36.491",NA,NA,245.3228,245.3228,245.3229,245.6728,NA,NA,NA,NA,NA,NA,NA,TRUE,2,0.4699,242.3271,245.3225,0,57,57,27,1,21,30,NA,NA,NA,NA,NA,1,58,"binary"
"FD2A6686546A4D689BE4A684CD264636",1,"0198ecee-3bda-772b-bf84-84e2073f57f3","0198c47e-224f-7cc7-87e7-f5ab0011d1ce","2025-08-27_15h08.36.491",NA,NA,248.6723,248.6723,248.6723,249.0222,NA,NA,NA,NA,NA,NA,NA,TRUE,2,0.4379,245.6768,248.672,0,58,58,94,1,150,47,NA,NA,NA,NA,NA,1,59,"binary"
"FD2A6686546A4D689BE4A684CD264636",1,"0198ecee-3bda-772b-bf84-84e2073f57f3","0198c47e-224f-7cc7-87e7-f5ab0011d1ce","2025-08-27_15h08.36.491",NA,NA,252.0225,252.0225,252.0225,252.3725,NA,NA,NA,NA,NA,NA,NA,TRUE,2,0.4189,249.0253,252.0222,0,59,59,52,1,40,47,NA,NA,NA,NA,NA,1,60,"binary"
"FD2A6686546A4D689BE4A684CD264636",1,"0198ecee-3bda-772b-bf84-84e2073f57f3","0198c47e-224f-7cc7-87e7-f5ab0011d1ce","2025-08-27_15h08.36.491",NA,NA,255.373,255.373,255.3731,255.7229,NA,NA,NA,NA,NA,NA,NA,TRUE,2,0.42,252.3754,255.3727,0,60,60,42,1,30,26,NA,NA,NA,NA,NA,1,61,"binary"
"FD2A6686546A4D689BE4A684CD264636",1,"0198ecee-3bda-772b-bf84-84e2073f57f3","0198c47e-224f-7cc7-87e7-f5ab0011d1ce","2025-08-27_15h08.36.491",NA,NA,258.7227,258.7228,258.7228,259.0721,NA,NA,NA,NA,NA,NA,NA,TRUE,2,0.6711,255.7264,258.722,0,61,61,57,1,45,35,NA,NA,NA,NA,NA,1,62,"binary"
"FD2A6686546A4D689BE4A684CD264636",1,"0198ecee-3bda-772b-bf84-84e2073f57f3","0198c47e-224f-7cc7-87e7-f5ab0011d1ce","2025-08-27_15h08.36.491",NA,NA,262.0726,262.0727,262.0728,262.4239,NA,NA,NA,NA,NA,NA,NA,TRUE,2,0.4511,259.0751,262.0724,0,62,62,29,1,21,38,NA,NA,NA,NA,NA,1,63,"binary"
"FD2A6686546A4D689BE4A684CD264636",1,"0198ecee-3bda-772b-bf84-84e2073f57f3","0198c47e-224f-7cc7-87e7-f5ab0011d1ce","2025-08-27_15h08.36.491",NA,NA,265.424,265.4241,265.4241,265.7722,NA,NA,NA,NA,NA,NA,NA,TRUE,2,0.8866,262.4271,265.4238,0,63,63,25,1,21,27,NA,NA,NA,NA,NA,1,64,"binary"
"FD2A6686546A4D689BE4A684CD264636",1,"0198ecee-3bda-772b-bf84-84e2073f57f3","0198c47e-224f-7cc7-87e7-f5ab0011d1ce","2025-08-27_15h08.36.491",NA,NA,268.771,268.7711,268.7712,269.1224,NA,NA,NA,NA,NA,NA,NA,TRUE,2,0.6859,265.7753,268.7708,0,64,64,48,1,40,27,NA,NA,NA,NA,NA,1,65,"binary"
"FD2A6686546A4D689BE4A684CD264636",1,"0198ecee-3bda-772b-bf84-84e2073f57f3","0198c47e-224f-7cc7-87e7-f5ab0011d1ce","2025-08-27_15h08.36.491",NA,NA,272.1225,272.1225,272.1226,272.4723,NA,NA,NA,NA,NA,NA,NA,TRUE,2,0.4827,269.1258,272.1222,0,65,65,67,1,60,33,NA,NA,NA,NA,NA,1,66,"binary"
"FD2A6686546A4D689BE4A684CD264636",1,"0198ecee-3bda-772b-bf84-84e2073f57f3","0198c47e-224f-7cc7-87e7-f5ab0011d1ce","2025-08-27_15h08.36.491",NA,NA,275.4725,275.4725,275.4725,275.8232,NA,NA,NA,NA,NA,NA,NA,TRUE,2,0.5691,272.4757,275.4723,0,66,66,68,1,60,35,NA,NA,NA,NA,NA,1,67,"binary"
"FD2A6686546A4D689BE4A684CD264636",1,"0198ecee-3bda-772b-bf84-84e2073f57f3","0198c47e-224f-7cc7-87e7-f5ab0011d1ce","2025-08-27_15h08.36.491",NA,NA,278.8229,278.823,278.823,279.1727,NA,NA,NA,NA,NA,NA,NA,TRUE,2,0.4176,275.8258,278.8223,0,67,67,33,1,25,33,NA,NA,NA,NA,NA,1,68,"binary"
"FD2A6686546A4D689BE4A684CD264636",1,"0198ecee-3bda-772b-bf84-84e2073f57f3","0198c47e-224f-7cc7-87e7-f5ab0011d1ce","2025-08-27_15h08.36.491",NA,NA,282.1724,282.1724,282.1724,282.522,NA,NA,NA,NA,NA,NA,NA,TRUE,2,0.4037,279.1753,282.1721,0,68,68,74,1,90,33,NA,NA,NA,NA,NA,1,69,"binary"
"FD2A6686546A4D689BE4A684CD264636",1,"0198ecee-3bda-772b-bf84-84e2073f57f3","0198c47e-224f-7cc7-87e7-f5ab0011d1ce","2025-08-27_15h08.36.491",NA,NA,285.5224,285.5225,285.5225,285.8723,NA,NA,NA,NA,NA,NA,NA,TRUE,2,0.5863,282.5251,285.5222,0,69,69,103,1,200,28,NA,NA,NA,NA,NA,1,70,"binary"
"FD2A6686546A4D689BE4A684CD264636",1,"0198ecee-3bda-772b-bf84-84e2073f57f3","0198c47e-224f-7cc7-87e7-f5ab0011d1ce","2025-08-27_15h08.36.491",NA,NA,288.8724,288.8724,288.8725,289.2226,NA,NA,NA,NA,NA,NA,NA,TRUE,1,1.4351,285.8753,288.8722,0,70,70,12,1,12,25,NA,NA,NA,NA,NA,1,71,"binary"
"FD2A6686546A4D689BE4A684CD264636",1,"0198ecee-3bda-772b-bf84-84e2073f57f3","0198c47e-224f-7cc7-87e7-f5ab0011d1ce","2025-08-27_15h08.36.491",NA,NA,292.2227,292.2228,292.2228,292.5722,NA,NA,NA,NA,NA,NA,NA,TRUE,2,0.4526,289.2262,292.2225,0,71,71,75,1,90,40,NA,NA,NA,NA,NA,1,72,"binary"
"FD2A6686546A4D689BE4A684CD264636",1,"0198ecee-3bda-772b-bf84-84e2073f57f3","0198c47e-224f-7cc7-87e7-f5ab0011d1ce","2025-08-27_15h08.36.491",NA,NA,295.5731,295.5732,295.5733,295.9221,NA,NA,NA,NA,NA,NA,NA,TRUE,2,0.5021,292.5752,295.5728,0,72,72,9,1,10,29,NA,NA,NA,NA,NA,1,73,"binary"
"FD2A6686546A4D689BE4A684CD264636",1,"0198ecee-3bda-772b-bf84-84e2073f57f3","0198c47e-224f-7cc7-87e7-f5ab0011d1ce","2025-08-27_15h08.36.491",NA,NA,298.9235,298.9237,298.9237,299.2722,NA,NA,NA,NA,NA,NA,NA,TRUE,2,0.4349,295.9249,298.9233,0,73,73,58,1,45,40,NA,NA,NA,NA,NA,1,74,"binary"
"FD2A6686546A4D689BE4A684CD264636",1,"0198ecee-3bda-772b-bf84-84e2073f57f3","0198c47e-224f-7cc7-87e7-f5ab0011d1ce","2025-08-27_15h08.36.491",NA,NA,302.2729,302.2729,302.273,302.6229,NA,NA,NA,NA,NA,NA,NA,TRUE,2,0.5242,299.2752,302.2726,0,74,74,95,1,150,54,NA,NA,NA,NA,NA,1,75,"binary"
"FD2A6686546A4D689BE4A684CD264636",1,"0198ecee-3bda-772b-bf84-84e2073f57f3","0198c47e-224f-7cc7-87e7-f5ab0011d1ce","2025-08-27_15h08.36.491",NA,NA,305.6227,305.6228,305.6228,305.9729,NA,NA,NA,NA,NA,NA,NA,TRUE,2,0.462,302.626,305.6225,0,75,75,4,1,7,32,NA,NA,NA,NA,NA,1,76,"binary"
"FD2A6686546A4D689BE4A684CD264636",1,"0198ecee-3bda-772b-bf84-84e2073f57f3","0198c47e-224f-7cc7-87e7-f5ab0011d1ce","2025-08-27_15h08.36.491",NA,NA,308.9729,308.9729,308.973,309.3228,NA,NA,NA,NA,NA,NA,NA,TRUE,2,0.4379,305.9757,308.9727,0,76,76,85,1,100,31,NA,NA,NA,NA,NA,1,77,"binary"
"FD2A6686546A4D689BE4A684CD264636",1,"0198ecee-3bda-772b-bf84-84e2073f57f3","0198c47e-224f-7cc7-87e7-f5ab0011d1ce","2025-08-27_15h08.36.491",NA,NA,312.3229,312.3229,312.323,312.6728,NA,NA,NA,NA,NA,NA,NA,TRUE,2,1.3692,309.3261,312.3227,0,77,77,89,1,100,54,NA,NA,NA,NA,NA,1,78,"binary"
"FD2A6686546A4D689BE4A684CD264636",1,"0198ecee-3bda-772b-bf84-84e2073f57f3","0198c47e-224f-7cc7-87e7-f5ab0011d1ce","2025-08-27_15h08.36.491",NA,NA,315.6731,315.6731,315.6731,316.0226,NA,NA,NA,NA,NA,NA,NA,TRUE,2,0.8285,312.6754,315.6729,0,78,78,76,1,90,46,NA,NA,NA,NA,NA,1,79,"binary"
"FD2A6686546A4D689BE4A684CD264636",1,"0198ecee-3bda-772b-bf84-84e2073f57f3","0198c47e-224f-7cc7-87e7-f5ab0011d1ce","2025-08-27_15h08.36.491",NA,NA,319.0228,319.0228,319.0229,319.3724,NA,NA,NA,NA,NA,NA,NA,TRUE,2,0.4898,316.0253,319.0226,0,79,79,16,1,12,33,NA,NA,NA,NA,NA,1,80,"binary"
"FD2A6686546A4D689BE4A684CD264636",1,"0198ecee-3bda-772b-bf84-84e2073f57f3","0198c47e-224f-7cc7-87e7-f5ab0011d1ce","2025-08-27_15h08.36.491",NA,NA,322.3725,322.3726,322.3727,322.7227,NA,NA,NA,NA,NA,NA,NA,TRUE,2,0.5185,319.3755,322.372,0,80,80,8,1,10,27,NA,NA,NA,NA,NA,1,81,"binary"
"FD2A6686546A4D689BE4A684CD264636",1,"0198ecee-3bda-772b-bf84-84e2073f57f3","0198c47e-224f-7cc7-87e7-f5ab0011d1ce","2025-08-27_15h08.36.491",NA,NA,325.7228,325.7229,325.723,326.0733,NA,NA,NA,NA,NA,NA,NA,TRUE,2,0.4072,322.7262,325.7222,0,81,81,49,1,40,33,NA,NA,NA,NA,NA,1,82,"binary"
"FD2A6686546A4D689BE4A684CD264636",1,"0198ecee-3bda-772b-bf84-84e2073f57f3","0198c47e-224f-7cc7-87e7-f5ab0011d1ce","2025-08-27_15h08.36.491",NA,NA,329.073,329.0731,329.0733,329.4237,NA,NA,NA,NA,NA,NA,NA,TRUE,2,0.4497,326.0768,329.0725,0,82,82,32,1,25,31,NA,NA,NA,NA,NA,1,83,"binary"
"FD2A6686546A4D689BE4A684CD264636",1,"0198ecee-3bda-772b-bf84-84e2073f57f3","0198c47e-224f-7cc7-87e7-f5ab0011d1ce","2025-08-27_15h08.36.491",NA,NA,332.4238,332.4239,332.424,332.7723,NA,NA,NA,NA,NA,NA,NA,TRUE,2,0.5017,329.4273,332.4237,0,83,83,50,1,40,35,NA,NA,NA,NA,NA,1,84,"binary"
"FD2A6686546A4D689BE4A684CD264636",1,"0198ecee-3bda-772b-bf84-84e2073f57f3","0198c47e-224f-7cc7-87e7-f5ab0011d1ce","2025-08-27_15h08.36.491",NA,NA,335.7728,335.7729,335.7729,336.1227,NA,NA,NA,NA,NA,NA,NA,TRUE,2,0.3525,332.7756,335.7723,0,84,84,18,1,14,25,NA,NA,NA,NA,NA,1,85,"binary"
"FD2A6686546A4D689BE4A684CD264636",1,"0198ecee-3bda-772b-bf84-84e2073f57f3","0198c47e-224f-7cc7-87e7-f5ab0011d1ce","2025-08-27_15h08.36.491",NA,NA,339.1225,339.1226,339.1226,339.4724,NA,NA,NA,NA,NA,NA,NA,TRUE,2,0.3709,336.126,339.1223,0,85,85,81,1,95,40,NA,NA,NA,NA,NA,1,86,"binary"
"FD2A6686546A4D689BE4A684CD264636",1,"0198ecee-3bda-772b-bf84-84e2073f57f3","0198c47e-224f-7cc7-87e7-f5ab0011d1ce","2025-08-27_15h08.36.491",NA,NA,342.4718,342.4718,342.4719,342.823,NA,NA,NA,NA,NA,NA,NA,TRUE,2,0.7554,339.4754,342.4715,0,86,86,69,1,60,40,NA,NA,NA,NA,NA,1,87,"binary"
"FD2A6686546A4D689BE4A684CD264636",1,"0198ecee-3bda-772b-bf84-84e2073f57f3","0198c47e-224f-7cc7-87e7-f5ab0011d1ce","2025-08-27_15h08.36.491",NA,NA,345.8232,345.8233,345.8233,346.1729,NA,NA,NA,NA,NA,NA,NA,TRUE,2,0.6672,342.8264,345.8226,0,87,87,26,1,21,29,NA,NA,NA,NA,NA,1,88,"binary"
"FD2A6686546A4D689BE4A684CD264636",1,"0198ecee-3bda-772b-bf84-84e2073f57f3","0198c47e-224f-7cc7-87e7-f5ab0011d1ce","2025-08-27_15h08.36.491",NA,NA,349.1733,349.1733,349.1734,349.5226,NA,NA,NA,NA,NA,NA,NA,TRUE,1,0.8722,346.1759,349.173,0,88,88,84,1,100,26,NA,NA,NA,NA,NA,1,89,"binary"
"FD2A6686546A4D689BE4A684CD264636",1,"0198ecee-3bda-772b-bf84-84e2073f57f3","0198c47e-224f-7cc7-87e7-f5ab0011d1ce","2025-08-27_15h08.36.491",NA,NA,352.5229,352.523,352.523,352.8719,NA,NA,NA,NA,NA,NA,NA,TRUE,2,0.7175,349.5258,352.5227,0,89,89,99,1,180,39,NA,NA,NA,NA,NA,1,90,"binary"
"FD2A6686546A4D689BE4A684CD264636",1,"0198ecee-3bda-772b-bf84-84e2073f57f3","0198c47e-224f-7cc7-87e7-f5ab0011d1ce","2025-08-27_15h08.36.491",NA,NA,355.8727,355.8728,355.8729,356.2219,NA,NA,NA,NA,NA,NA,NA,TRUE,2,0.5183,352.8751,355.8725,0,90,90,39,1,28,35,NA,NA,NA,NA,NA,1,91,"binary"
"FD2A6686546A4D689BE4A684CD264636",1,"0198ecee-3bda-772b-bf84-84e2073f57f3","0198c47e-224f-7cc7-87e7-f5ab0011d1ce","2025-08-27_15h08.36.491",NA,NA,359.2228,359.2229,359.2229,359.5725,NA,NA,NA,NA,NA,NA,NA,TRUE,2,0.4523,356.2251,359.2224,0,91,91,93,1,150,40,NA,NA,NA,NA,NA,1,92,"binary"
"FD2A6686546A4D689BE4A684CD264636",1,"0198ecee-3bda-772b-bf84-84e2073f57f3","0198c47e-224f-7cc7-87e7-f5ab0011d1ce","2025-08-27_15h08.36.491",NA,NA,362.5724,362.5724,362.5725,362.9225,NA,NA,NA,NA,NA,NA,NA,TRUE,2,0.5013,359.5756,362.5721,0,92,92,64,1,50,46,NA,NA,NA,NA,NA,1,93,"binary"
"FD2A6686546A4D689BE4A684CD264636",1,"0198ecee-3bda-772b-bf84-84e2073f57f3","0198c47e-224f-7cc7-87e7-f5ab0011d1ce","2025-08-27_15h08.36.491",NA,NA,365.9231,365.9232,365.9235,366.2728,NA,NA,NA,NA,NA,NA,NA,TRUE,2,1.3352,362.9262,365.9229,0,93,93,54,1,45,26,NA,NA,NA,NA,NA,1,94,"binary"
"FD2A6686546A4D689BE4A684CD264636",1,"0198ecee-3bda-772b-bf84-84e2073f57f3","0198c47e-224f-7cc7-87e7-f5ab0011d1ce","2025-08-27_15h08.36.491",NA,NA,369.2725,369.2725,369.2727,369.623,NA,NA,NA,NA,NA,NA,NA,TRUE,2,2.4454,366.2769,369.2723,0,94,94,36,1,28,26,NA,NA,NA,NA,NA,1,95,"binary"
"FD2A6686546A4D689BE4A684CD264636",1,"0198ecee-3bda-772b-bf84-84e2073f57f3","0198c47e-224f-7cc7-87e7-f5ab0011d1ce","2025-08-27_15h08.36.491",NA,NA,372.6229,372.6229,372.6229,372.9721,NA,NA,NA,NA,NA,NA,NA,TRUE,2,1.5889,369.6266,372.6224,0,95,95,19,1,14,26,NA,NA,NA,NA,NA,1,96,"binary"
"FD2A6686546A4D689BE4A684CD264636",1,"0198ecee-3bda-772b-bf84-84e2073f57f3","0198c47e-224f-7cc7-87e7-f5ab0011d1ce","2025-08-27_15h08.36.491",NA,NA,375.9725,375.9726,375.9726,376.3219,NA,NA,NA,NA,NA,NA,NA,TRUE,2,0.9176,372.9752,375.9722,0,96,96,1,1,7,26,NA,NA,NA,NA,NA,1,97,"binary"
"FD2A6686546A4D689BE4A684CD264636",1,"0198ecee-3bda-772b-bf84-84e2073f57f3","0198c47e-224f-7cc7-87e7-f5ab0011d1ce","2025-08-27_15h08.36.491",NA,NA,379.323,379.323,379.323,379.6727,NA,NA,NA,NA,NA,NA,NA,TRUE,2,0.7176,376.3256,379.3228,0,97,97,30,1,25,27,NA,NA,NA,NA,NA,1,98,"binary"
"FD2A6686546A4D689BE4A684CD264636",1,"0198ecee-3bda-772b-bf84-84e2073f57f3","0198c47e-224f-7cc7-87e7-f5ab0011d1ce","2025-08-27_15h08.36.491",NA,NA,382.6734,382.6735,382.6735,383.0229,NA,NA,NA,NA,NA,NA,NA,TRUE,2,0.5172,379.6757,382.673,0,98,98,23,1,14,39,NA,NA,NA,NA,NA,1,99,"binary"
"FD2A6686546A4D689BE4A684CD264636",1,"0198ecee-3bda-772b-bf84-84e2073f57f3","0198c47e-224f-7cc7-87e7-f5ab0011d1ce","2025-08-27_15h08.36.491",NA,NA,386.0234,386.0235,386.0235,386.3724,NA,NA,NA,NA,NA,NA,NA,TRUE,2,0.8361,383.0265,386.0232,0,99,99,31,1,25,29,NA,NA,NA,NA,NA,1,100,"binary"
"FD2A6686546A4D689BE4A684CD264636",1,"0198ecee-3bda-772b-bf84-84e2073f57f3","0198c47e-224f-7cc7-87e7-f5ab0011d1ce","2025-08-27_15h08.36.491",NA,NA,389.3748,389.3748,389.3748,389.7226,NA,NA,NA,NA,NA,NA,NA,TRUE,2,0.5878,386.375,389.3746,0,100,100,41,1,28,46,NA,NA,NA,NA,NA,1,101,"binary"
"FD2A6686546A4D689BE4A684CD264636",1,"0198ecee-3bda-772b-bf84-84e2073f57f3","0198c47e-224f-7cc7-87e7-f5ab0011d1ce","2025-08-27_15h08.36.491",NA,NA,392.7231,392.7231,392.7232,393.0727,NA,NA,NA,NA,NA,NA,NA,TRUE,2,0.5013,389.7257,392.7228,0,101,101,73,1,90,30,NA,NA,NA,NA,NA,1,102,"binary"
"FD2A6686546A4D689BE4A684CD264636",1,"0198ecee-3bda-772b-bf84-84e2073f57f3","0198c47e-224f-7cc7-87e7-f5ab0011d1ce","2025-08-27_15h08.36.491",NA,NA,396.0728,396.0731,396.0732,396.424,NA,NA,NA,NA,NA,NA,NA,TRUE,2,0.8011,393.0762,396.0727,0,102,102,101,1,180,54,NA,NA,NA,NA,NA,1,103,"binary"
"FD2A6686546A4D689BE4A684CD264636",1,"0198ecee-3bda-772b-bf84-84e2073f57f3","0198c47e-224f-7cc7-87e7-f5ab0011d1ce","2025-08-27_15h08.36.491",NA,NA,399.4243,399.4245,399.4246,399.7728,NA,NA,NA,NA,NA,NA,NA,TRUE,2,0.7344,396.4268,399.4239,0,103,103,72,1,90,26,NA,NA,NA,NA,NA,1,104,"binary"
"FD2A6686546A4D689BE4A684CD264636",1,"0198ecee-3bda-772b-bf84-84e2073f57f3","0198c47e-224f-7cc7-87e7-f5ab0011d1ce","2025-08-27_15h08.36.491",NA,NA,402.7727,402.7727,402.7727,403.1228,NA,NA,NA,NA,NA,NA,NA,TRUE,2,0.6452,399.7764,402.772,0,104,104,37,1,28,28,NA,NA,NA,NA,NA,1,105,"binary"
"FD2A6686546A4D689BE4A684CD264636",1,"0198ecee-3bda-772b-bf84-84e2073f57f3","0198c47e-224f-7cc7-87e7-f5ab0011d1ce","2025-08-27_15h08.36.491",NA,NA,406.1232,406.1233,406.1233,406.4727,NA,NA,NA,NA,NA,NA,NA,TRUE,2,0.5367,403.1256,406.1226,0,105,105,88,1,100,46,NA,NA,NA,NA,NA,1,106,"binary"
"FD2A6686546A4D689BE4A684CD264636",1,"0198ecee-3bda-772b-bf84-84e2073f57f3","0198c47e-224f-7cc7-87e7-f5ab0011d1ce","2025-08-27_15h08.36.491",NA,NA,409.4736,409.4737,409.4737,409.8226,NA,NA,NA,NA,NA,NA,NA,TRUE,2,0.4677,406.476,409.4733,0,106,106,71,1,60,54,NA,NA,NA,NA,NA,1,107,"binary"
"FD2A6686546A4D689BE4A684CD264636",1,"0198ecee-3bda-772b-bf84-84e2073f57f3","0198c47e-224f-7cc7-87e7-f5ab0011d1ce","2025-08-27_15h08.36.491",NA,NA,412.8228,412.8228,412.8229,413.1717,NA,NA,NA,NA,NA,NA,NA,TRUE,2,1.1531,409.8257,412.8224,0,107,107,21,1,14,32,NA,NA,NA,NA,NA,1,108,"binary"
"FD2A6686546A4D689BE4A684CD264636",1,"0198ecee-3bda-772b-bf84-84e2073f57f3","0198c47e-224f-7cc7-87e7-f5ab0011d1ce","2025-08-27_15h08.36.491",NA,NA,420.7068,420.707,420.707,421.0559,NA,NA,NA,NA,NA,NA,NA,TRUE,2,0.7177,417.7223,420.7061,NA,NA,NA,NA,NA,100,54,0,0,0,89,1,2,1,"binary"
"FD2A6686546A4D689BE4A684CD264636",1,"0198ecee-3bda-772b-bf84-84e2073f57f3","0198c47e-224f-7cc7-87e7-f5ab0011d1ce","2025-08-27_15h08.36.491",NA,NA,424.0571,424.0573,424.0576,424.4061,NA,NA,NA,NA,NA,NA,NA,TRUE,2,0.7915,421.061,424.0565,NA,NA,NA,NA,NA,25,27,0,1,1,30,1,2,2,"binary"
"FD2A6686546A4D689BE4A684CD264636",1,"0198ecee-3bda-772b-bf84-84e2073f57f3","0198c47e-224f-7cc7-87e7-f5ab0011d1ce","2025-08-27_15h08.36.491",NA,NA,427.407,427.4071,427.4072,427.7549,NA,NA,NA,NA,NA,NA,NA,TRUE,2,0.4595,424.4107,427.4067,NA,NA,NA,NA,NA,40,47,0,2,2,52,1,2,3,"binary"
"FD2A6686546A4D689BE4A684CD264636",1,"0198ecee-3bda-772b-bf84-84e2073f57f3","0198c47e-224f-7cc7-87e7-f5ab0011d1ce","2025-08-27_15h08.36.491",NA,NA,430.756,430.7562,430.7562,431.1058,NA,NA,NA,NA,NA,NA,NA,TRUE,2,0.553,427.7562,430.7558,NA,NA,NA,NA,NA,14,32,0,3,3,21,1,2,4,"binary"
"FD2A6686546A4D689BE4A684CD264636",1,"0198ecee-3bda-772b-bf84-84e2073f57f3","0198c47e-224f-7cc7-87e7-f5ab0011d1ce","2025-08-27_15h08.36.491",NA,NA,434.1059,434.1062,434.1062,434.456,NA,NA,NA,NA,NA,NA,NA,TRUE,2,0.8656,431.1089,434.1057,NA,NA,NA,NA,NA,10,32,0,4,4,11,1,2,5,"binary"
"FD2A6686546A4D689BE4A684CD264636",1,"0198ecee-3bda-772b-bf84-84e2073f57f3","0198c47e-224f-7cc7-87e7-f5ab0011d1ce","2025-08-27_15h08.36.491",NA,NA,437.4565,437.4567,437.4568,437.8058,NA,NA,NA,NA,NA,NA,NA,TRUE,2,0.6464,434.4591,437.4561,NA,NA,NA,NA,NA,95,35,0,5,5,80,1,2,6,"binary"
"FD2A6686546A4D689BE4A684CD264636",1,"0198ecee-3bda-772b-bf84-84e2073f57f3","0198c47e-224f-7cc7-87e7-f5ab0011d1ce","2025-08-27_15h08.36.491",NA,NA,440.8064,440.8066,440.8066,441.1554,NA,NA,NA,NA,NA,NA,NA,TRUE,2,1.6145,437.8084,440.8058,NA,NA,NA,NA,NA,28,35,0,6,6,39,1,2,7,"binary"
"FD2A6686546A4D689BE4A684CD264636",1,"0198ecee-3bda-772b-bf84-84e2073f57f3","0198c47e-224f-7cc7-87e7-f5ab0011d1ce","2025-08-27_15h08.36.491",NA,NA,444.1565,444.1566,444.1567,444.5068,NA,NA,NA,NA,NA,NA,NA,TRUE,2,0.5157,441.1578,444.156,NA,NA,NA,NA,NA,10,27,0,7,7,8,1,2,8,"binary"
"FD2A6686546A4D689BE4A684CD264636",1,"0198ecee-3bda-772b-bf84-84e2073f57f3","0198c47e-224f-7cc7-87e7-f5ab0011d1ce","2025-08-27_15h08.36.491",NA,NA,447.5059,447.5062,447.5062,447.8564,NA,NA,NA,NA,NA,NA,NA,TRUE,2,0.3125,444.5097,447.5056,NA,NA,NA,NA,NA,25,31,0,8,8,32,1,2,9,"binary"
"FD2A6686546A4D689BE4A684CD264636",1,"0198ecee-3bda-772b-bf84-84e2073f57f3","0198c47e-224f-7cc7-87e7-f5ab0011d1ce","2025-08-27_15h08.36.491",NA,NA,450.8562,450.8563,450.8563,451.2057,NA,NA,NA,NA,NA,NA,NA,TRUE,2,0.6621,447.8593,450.856,NA,NA,NA,NA,NA,28,39,0,9,9,40,1,2,10,"binary"
"FD2A6686546A4D689BE4A684CD264636",1,"0198ecee-3bda-772b-bf84-84e2073f57f3","0198c47e-224f-7cc7-87e7-f5ab0011d1ce","2025-08-27_15h08.36.491",NA,NA,454.2062,454.2063,454.2063,454.5542,NA,NA,NA,NA,NA,NA,NA,TRUE,2,0.5466,451.2088,454.2059,NA,NA,NA,NA,NA,60,47,0,10,10,70,1,2,11,"binary"
"FD2A6686546A4D689BE4A684CD264636",1,"0198ecee-3bda-772b-bf84-84e2073f57f3","0198c47e-224f-7cc7-87e7-f5ab0011d1ce","2025-08-27_15h08.36.491",NA,NA,457.5564,457.5565,457.5565,457.9063,NA,NA,NA,NA,NA,NA,NA,TRUE,2,0.5518,454.5565,457.5562,NA,NA,NA,NA,NA,50,35,0,11,11,62,1,2,12,"binary"
"FD2A6686546A4D689BE4A684CD264636",1,"0198ecee-3bda-772b-bf84-84e2073f57f3","0198c47e-224f-7cc7-87e7-f5ab0011d1ce","2025-08-27_15h08.36.491",NA,NA,460.9053,460.9054,460.9054,461.2561,NA,NA,NA,NA,NA,NA,NA,TRUE,2,0.7107,457.9094,460.9052,NA,NA,NA,NA,NA,40,27,0,12,12,48,1,2,13,"binary"
"FD2A6686546A4D689BE4A684CD264636",1,"0198ecee-3bda-772b-bf84-84e2073f57f3","0198c47e-224f-7cc7-87e7-f5ab0011d1ce","2025-08-27_15h08.36.491",NA,NA,464.257,464.2571,464.2572,464.6042,NA,NA,NA,NA,NA,NA,NA,TRUE,1,0.8438,461.2594,464.2566,NA,NA,NA,NA,NA,14,25,0,13,13,18,1,2,14,"binary"
"FD2A6686546A4D689BE4A684CD264636",1,"0198ecee-3bda-772b-bf84-84e2073f57f3","0198c47e-224f-7cc7-87e7-f5ab0011d1ce","2025-08-27_15h08.36.491",NA,NA,467.6062,467.6063,467.6064,467.9553,NA,NA,NA,NA,NA,NA,NA,TRUE,2,0.7368,464.606,467.6055,NA,NA,NA,NA,NA,21,29,0,14,14,26,1,2,15,"binary"
"FD2A6686546A4D689BE4A684CD264636",1,"0198ecee-3bda-772b-bf84-84e2073f57f3","0198c47e-224f-7cc7-87e7-f5ab0011d1ce","2025-08-27_15h08.36.491",NA,NA,470.9562,470.9563,470.9563,471.3057,NA,NA,NA,NA,NA,NA,NA,TRUE,2,0.7625,467.9581,470.9561,NA,NA,NA,NA,NA,14,39,0,15,15,23,1,2,16,"binary"
"FD2A6686546A4D689BE4A684CD264636",1,"0198ecee-3bda-772b-bf84-84e2073f57f3","0198c47e-224f-7cc7-87e7-f5ab0011d1ce","2025-08-27_15h08.36.491",NA,NA,474.3062,474.3065,474.3065,474.6556,NA,NA,NA,NA,NA,NA,NA,TRUE,2,0.7623,471.3086,474.306,NA,NA,NA,NA,NA,40,35,0,16,16,50,1,2,17,"binary"
"FD2A6686546A4D689BE4A684CD264636",1,"0198ecee-3bda-772b-bf84-84e2073f57f3","0198c47e-224f-7cc7-87e7-f5ab0011d1ce","2025-08-27_15h08.36.491",NA,NA,477.6563,477.6563,477.6564,478.0055,NA,NA,NA,NA,NA,NA,NA,TRUE,2,0.8318,474.6586,477.6556,NA,NA,NA,NA,NA,95,40,0,17,17,81,1,2,18,"binary"
"FD2A6686546A4D689BE4A684CD264636",1,"0198ecee-3bda-772b-bf84-84e2073f57f3","0198c47e-224f-7cc7-87e7-f5ab0011d1ce","2025-08-27_15h08.36.491",NA,NA,481.0059,481.006,481.0061,481.3558,NA,NA,NA,NA,NA,NA,NA,TRUE,2,0.3833,478.009,481.0057,NA,NA,NA,NA,NA,150,31,0,18,18,90,1,2,19,"binary"
"FD2A6686546A4D689BE4A684CD264636",1,"0198ecee-3bda-772b-bf84-84e2073f57f3","0198c47e-224f-7cc7-87e7-f5ab0011d1ce","2025-08-27_15h08.36.491",NA,NA,484.356,484.356,484.3561,484.7057,NA,NA,NA,NA,NA,NA,NA,TRUE,2,0.7463,481.3592,484.3556,NA,NA,NA,NA,NA,50,27,0,19,19,60,1,2,20,"binary"
"FD2A6686546A4D689BE4A684CD264636",1,"0198ecee-3bda-772b-bf84-84e2073f57f3","0198c47e-224f-7cc7-87e7-f5ab0011d1ce","2025-08-27_15h08.36.491",NA,NA,487.7064,487.7067,487.7067,488.0557,NA,NA,NA,NA,NA,NA,NA,TRUE,2,0.4787,484.7092,487.7061,NA,NA,NA,NA,NA,45,35,0,20,20,57,1,2,21,"binary"
"FD2A6686546A4D689BE4A684CD264636",1,"0198ecee-3bda-772b-bf84-84e2073f57f3","0198c47e-224f-7cc7-87e7-f5ab0011d1ce","2025-08-27_15h08.36.491",NA,NA,491.0563,491.0564,491.0564,491.4054,NA,NA,NA,NA,NA,NA,NA,TRUE,2,0.8452,488.0588,491.0556,NA,NA,NA,NA,NA,200,28,0,21,21,103,1,2,22,"binary"
"FD2A6686546A4D689BE4A684CD264636",1,"0198ecee-3bda-772b-bf84-84e2073f57f3","0198c47e-224f-7cc7-87e7-f5ab0011d1ce","2025-08-27_15h08.36.491",NA,NA,494.4058,494.4061,494.4061,494.7554,NA,NA,NA,NA,NA,NA,NA,TRUE,2,0.6659,491.4081,494.4056,NA,NA,NA,NA,NA,90,54,0,22,22,77,1,2,23,"binary"
"FD2A6686546A4D689BE4A684CD264636",1,"0198ecee-3bda-772b-bf84-84e2073f57f3","0198c47e-224f-7cc7-87e7-f5ab0011d1ce","2025-08-27_15h08.36.491",NA,NA,497.7568,497.7569,497.7569,498.1066,NA,NA,NA,NA,NA,NA,NA,TRUE,2,0.486,494.7588,497.7566,NA,NA,NA,NA,NA,95,31,0,23,23,78,1,2,24,"binary"
"FD2A6686546A4D689BE4A684CD264636",1,"0198ecee-3bda-772b-bf84-84e2073f57f3","0198c47e-224f-7cc7-87e7-f5ab0011d1ce","2025-08-27_15h08.36.491",NA,NA,501.1063,501.1064,501.1064,501.4559,NA,NA,NA,NA,NA,NA,NA,TRUE,2,0.5339,498.1097,501.1059,NA,NA,NA,NA,NA,45,29,0,24,24,55,1,2,25,"binary"
"FD2A6686546A4D689BE4A684CD264636",1,"0198ecee-3bda-772b-bf84-84e2073f57f3","0198c47e-224f-7cc7-87e7-f5ab0011d1ce","2025-08-27_15h08.36.491",NA,NA,504.4568,504.4569,504.4569,504.8056,NA,NA,NA,NA,NA,NA,NA,TRUE,2,0.4745,501.4583,504.4565,NA,NA,NA,NA,NA,30,30,0,25,25,45,1,2,26,"binary"
"FD2A6686546A4D689BE4A684CD264636",1,"0198ecee-3bda-772b-bf84-84e2073f57f3","0198c47e-224f-7cc7-87e7-f5ab0011d1ce","2025-08-27_15h08.36.491",NA,NA,507.8063,507.8064,507.8064,508.1559,NA,NA,NA,NA,NA,NA,NA,TRUE,2,1.1966,504.81,507.8062,NA,NA,NA,NA,NA,7,26,0,26,26,1,1,2,27,"binary"
"FD2A6686546A4D689BE4A684CD264636",1,"0198ecee-3bda-772b-bf84-84e2073f57f3","0198c47e-224f-7cc7-87e7-f5ab0011d1ce","2025-08-27_15h08.36.491",NA,NA,511.1567,511.1569,511.1569,511.5057,NA,NA,NA,NA,NA,NA,NA,TRUE,2,0.4963,508.1591,511.1564,NA,NA,NA,NA,NA,10,30,0,27,27,10,1,2,28,"binary"
"FD2A6686546A4D689BE4A684CD264636",1,"0198ecee-3bda-772b-bf84-84e2073f57f3","0198c47e-224f-7cc7-87e7-f5ab0011d1ce","2025-08-27_15h08.36.491",NA,NA,514.5061,514.5063,514.5063,514.8543,NA,NA,NA,NA,NA,NA,NA,TRUE,2,0.5457,511.5085,514.5058,NA,NA,NA,NA,NA,200,54,0,28,28,107,1,2,29,"binary"
"FD2A6686546A4D689BE4A684CD264636",1,"0198ecee-3bda-772b-bf84-84e2073f57f3","0198c47e-224f-7cc7-87e7-f5ab0011d1ce","2025-08-27_15h08.36.491",NA,NA,517.8564,517.8565,517.8565,518.2062,NA,NA,NA,NA,NA,NA,NA,TRUE,2,1.0527,514.8563,517.8562,NA,NA,NA,NA,NA,7,32,0,29,29,4,1,2,30,"binary"
"FD2A6686546A4D689BE4A684CD264636",1,"0198ecee-3bda-772b-bf84-84e2073f57f3","0198c47e-224f-7cc7-87e7-f5ab0011d1ce","2025-08-27_15h08.36.491",NA,NA,521.2059,521.2061,521.2061,521.5556,NA,NA,NA,NA,NA,NA,NA,TRUE,2,1.0223,518.2087,521.2057,NA,NA,NA,NA,NA,60,35,0,30,30,68,1,2,31,"binary"
"FD2A6686546A4D689BE4A684CD264636",1,"0198ecee-3bda-772b-bf84-84e2073f57f3","0198c47e-224f-7cc7-87e7-f5ab0011d1ce","2025-08-27_15h08.36.491",NA,NA,524.5565,524.5568,524.5569,524.9057,NA,NA,NA,NA,NA,NA,NA,TRUE,2,0.3805,521.5586,524.5561,NA,NA,NA,NA,NA,25,29,0,31,31,31,1,2,32,"binary"
"FD2A6686546A4D689BE4A684CD264636",1,"0198ecee-3bda-772b-bf84-84e2073f57f3","0198c47e-224f-7cc7-87e7-f5ab0011d1ce","2025-08-27_15h08.36.491",NA,NA,527.9063,527.9063,527.9064,528.2561,NA,NA,NA,NA,NA,NA,NA,TRUE,2,0.7128,524.9086,527.9061,NA,NA,NA,NA,NA,30,29,0,32,32,44,1,2,33,"binary"
"FD2A6686546A4D689BE4A684CD264636",1,"0198ecee-3bda-772b-bf84-84e2073f57f3","0198c47e-224f-7cc7-87e7-f5ab0011d1ce","2025-08-27_15h08.36.491",NA,NA,531.2566,531.2566,531.2567,531.6061,NA,NA,NA,NA,NA,NA,NA,TRUE,2,0.4427,528.2598,531.2562,NA,NA,NA,NA,NA,25,46,0,33,33,35,1,2,34,"binary"
"FD2A6686546A4D689BE4A684CD264636",1,"0198ecee-3bda-772b-bf84-84e2073f57f3","0198c47e-224f-7cc7-87e7-f5ab0011d1ce","2025-08-27_15h08.36.491",NA,NA,534.6059,534.6061,534.6062,534.9556,NA,NA,NA,NA,NA,NA,NA,TRUE,2,0.4009,531.6094,534.6056,NA,NA,NA,NA,NA,50,40,0,34,34,63,1,2,35,"binary"
"FD2A6686546A4D689BE4A684CD264636",1,"0198ecee-3bda-772b-bf84-84e2073f57f3","0198c47e-224f-7cc7-87e7-f5ab0011d1ce","2025-08-27_15h08.36.491",NA,NA,537.9565,537.9566,537.9567,538.3056,NA,NA,NA,NA,NA,NA,NA,TRUE,2,0.4101,534.959,537.9564,NA,NA,NA,NA,NA,50,46,0,35,35,64,1,2,36,"binary"
"FD2A6686546A4D689BE4A684CD264636",1,"0198ecee-3bda-772b-bf84-84e2073f57f3","0198c47e-224f-7cc7-87e7-f5ab0011d1ce","2025-08-27_15h08.36.491",NA,NA,541.3062,541.3063,541.3064,541.656,NA,NA,NA,NA,NA,NA,NA,TRUE,2,0.5888,538.309,541.306,NA,NA,NA,NA,NA,21,26,0,36,36,24,1,2,37,"binary"
"FD2A6686546A4D689BE4A684CD264636",1,"0198ecee-3bda-772b-bf84-84e2073f57f3","0198c47e-224f-7cc7-87e7-f5ab0011d1ce","2025-08-27_15h08.36.491",NA,NA,544.6561,544.6561,544.6561,545.0061,NA,NA,NA,NA,NA,NA,NA,TRUE,2,0.565,541.6589,544.6559,NA,NA,NA,NA,NA,180,27,0,37,37,96,1,2,38,"binary"
"FD2A6686546A4D689BE4A684CD264636",1,"0198ecee-3bda-772b-bf84-84e2073f57f3","0198c47e-224f-7cc7-87e7-f5ab0011d1ce","2025-08-27_15h08.36.491",NA,NA,548.0064,548.0066,548.0066,548.3562,NA,NA,NA,NA,NA,NA,NA,TRUE,2,0.4793,545.0094,548.0063,NA,NA,NA,NA,NA,30,32,0,38,38,46,1,2,39,"binary"
"FD2A6686546A4D689BE4A684CD264636",1,"0198ecee-3bda-772b-bf84-84e2073f57f3","0198c47e-224f-7cc7-87e7-f5ab0011d1ce","2025-08-27_15h08.36.491",NA,NA,551.3573,551.3575,551.3575,551.7059,NA,NA,NA,NA,NA,NA,NA,TRUE,2,0.9282,548.3598,551.3569,NA,NA,NA,NA,NA,180,39,0,39,39,99,1,2,40,"binary"
"FD2A6686546A4D689BE4A684CD264636",1,"0198ecee-3bda-772b-bf84-84e2073f57f3","0198c47e-224f-7cc7-87e7-f5ab0011d1ce","2025-08-27_15h08.36.491",NA,NA,554.706,554.7062,554.7062,555.0556,NA,NA,NA,NA,NA,NA,NA,TRUE,2,0.9126,551.7087,554.7058,NA,NA,NA,NA,NA,100,39,0,40,40,87,1,2,41,"binary"
"FD2A6686546A4D689BE4A684CD264636",1,"0198ecee-3bda-772b-bf84-84e2073f57f3","0198c47e-224f-7cc7-87e7-f5ab0011d1ce","2025-08-27_15h08.36.491",NA,NA,558.056,558.056,558.056,558.4057,NA,NA,NA,NA,NA,NA,NA,TRUE,2,0.623,555.0594,558.0557,NA,NA,NA,NA,NA,60,29,0,41,41,66,1,2,42,"binary"
"FD2A6686546A4D689BE4A684CD264636",1,"0198ecee-3bda-772b-bf84-84e2073f57f3","0198c47e-224f-7cc7-87e7-f5ab0011d1ce","2025-08-27_15h08.36.491",NA,NA,561.4044,561.4045,561.4045,561.7545,NA,NA,NA,NA,NA,NA,NA,TRUE,2,0.5122,558.409,561.4044,NA,NA,NA,NA,NA,45,46,0,42,42,59,1,2,43,"binary"
"FD2A6686546A4D689BE4A684CD264636",1,"0198ecee-3bda-772b-bf84-84e2073f57f3","0198c47e-224f-7cc7-87e7-f5ab0011d1ce","2025-08-27_15h08.36.491",NA,NA,564.7569,564.757,564.7571,565.1064,NA,NA,NA,NA,NA,NA,NA,TRUE,2,0.4355,561.7565,564.7567,NA,NA,NA,NA,NA,12,31,0,43,43,15,1,2,44,"binary"
"FD2A6686546A4D689BE4A684CD264636",1,"0198ecee-3bda-772b-bf84-84e2073f57f3","0198c47e-224f-7cc7-87e7-f5ab0011d1ce","2025-08-27_15h08.36.491",NA,NA,568.1064,568.1065,568.1065,568.4562,NA,NA,NA,NA,NA,NA,NA,TRUE,2,0.5167,565.1091,568.1061,NA,NA,NA,NA,NA,180,54,0,44,44,101,1,2,45,"binary"
"FD2A6686546A4D689BE4A684CD264636",1,"0198ecee-3bda-772b-bf84-84e2073f57f3","0198c47e-224f-7cc7-87e7-f5ab0011d1ce","2025-08-27_15h08.36.491",NA,NA,571.4569,571.4571,571.4572,571.8054,NA,NA,NA,NA,NA,NA,NA,TRUE,2,0.3837,568.459,571.4568,NA,NA,NA,NA,NA,90,46,0,45,45,76,1,2,46,"binary"
"FD2A6686546A4D689BE4A684CD264636",1,"0198ecee-3bda-772b-bf84-84e2073f57f3","0198c47e-224f-7cc7-87e7-f5ab0011d1ce","2025-08-27_15h08.36.491",NA,NA,574.8065,574.8068,574.8068,575.1546,NA,NA,NA,NA,NA,NA,NA,TRUE,2,0.7276,571.8085,574.8062,NA,NA,NA,NA,NA,12,35,0,46,46,17,1,2,47,"binary"
"FD2A6686546A4D689BE4A684CD264636",1,"0198ecee-3bda-772b-bf84-84e2073f57f3","0198c47e-224f-7cc7-87e7-f5ab0011d1ce","2025-08-27_15h08.36.491",NA,NA,578.1559,578.1561,578.1562,578.5055,NA,NA,NA,NA,NA,NA,NA,TRUE,2,0.485,575.1561,578.1557,NA,NA,NA,NA,NA,28,46,0,47,47,41,1,2,48,"binary"
"FD2A6686546A4D689BE4A684CD264636",1,"0198ecee-3bda-772b-bf84-84e2073f57f3","0198c47e-224f-7cc7-87e7-f5ab0011d1ce","2025-08-27_15h08.36.491",NA,NA,581.5059,581.506,581.506,581.8559,NA,NA,NA,NA,NA,NA,NA,TRUE,2,0.3685,578.5089,581.5057,NA,NA,NA,NA,NA,12,28,0,48,48,14,1,2,49,"binary"
"FD2A6686546A4D689BE4A684CD264636",1,"0198ecee-3bda-772b-bf84-84e2073f57f3","0198c47e-224f-7cc7-87e7-f5ab0011d1ce","2025-08-27_15h08.36.491",NA,NA,584.8553,584.8555,584.8558,585.2087,NA,NA,NA,NA,NA,NA,NA,TRUE,2,0.4463,581.8592,584.8548,NA,NA,NA,NA,NA,40,54,0,49,49,53,1,2,50,"binary"
"FD2A6686546A4D689BE4A684CD264636",1,"0198ecee-3bda-772b-bf84-84e2073f57f3","0198c47e-224f-7cc7-87e7-f5ab0011d1ce","2025-08-27_15h08.36.491",NA,NA,588.2061,588.2062,588.2063,588.5563,NA,NA,NA,NA,NA,NA,NA,TRUE,2,0.3443,585.2147,588.206,NA,NA,NA,NA,NA,14,26,0,50,50,19,1,2,51,"binary"
"FD2A6686546A4D689BE4A684CD264636",1,"0198ecee-3bda-772b-bf84-84e2073f57f3","0198c47e-224f-7cc7-87e7-f5ab0011d1ce","2025-08-27_15h08.36.491",NA,NA,591.5544,591.5545,591.5545,591.9042,NA,NA,NA,NA,NA,NA,NA,TRUE,2,0.4255,588.56,591.5543,NA,NA,NA,NA,NA,7,30,0,51,51,3,1,2,52,"binary"
"FD2A6686546A4D689BE4A684CD264636",1,"0198ecee-3bda-772b-bf84-84e2073f57f3","0198c47e-224f-7cc7-87e7-f5ab0011d1ce","2025-08-27_15h08.36.491",NA,NA,594.9044,594.9044,594.9045,595.2545,NA,NA,NA,NA,NA,NA,NA,TRUE,2,0.3661,591.9063,594.9043,NA,NA,NA,NA,NA,45,40,0,52,52,58,1,2,53,"binary"
"FD2A6686546A4D689BE4A684CD264636",1,"0198ecee-3bda-772b-bf84-84e2073f57f3","0198c47e-224f-7cc7-87e7-f5ab0011d1ce","2025-08-27_15h08.36.491",NA,NA,598.2545,598.2545,598.2546,598.6049,NA,NA,NA,NA,NA,NA,NA,TRUE,2,0.5659,595.2566,598.2544,NA,NA,NA,NA,NA,50,54,0,53,53,65,1,2,54,"binary"
"FD2A6686546A4D689BE4A684CD264636",1,"0198ecee-3bda-772b-bf84-84e2073f57f3","0198c47e-224f-7cc7-87e7-f5ab0011d1ce","2025-08-27_15h08.36.491",NA,NA,601.6064,601.6066,601.6066,601.9559,NA,NA,NA,NA,NA,NA,NA,TRUE,2,1.2454,598.607,601.6062,NA,NA,NA,NA,NA,180,46,0,54,54,100,1,2,55,"binary"
"FD2A6686546A4D689BE4A684CD264636",1,"0198ecee-3bda-772b-bf84-84e2073f57f3","0198c47e-224f-7cc7-87e7-f5ab0011d1ce","2025-08-27_15h08.36.491",NA,NA,604.9547,604.9547,604.9547,605.3043,NA,NA,NA,NA,NA,NA,NA,TRUE,2,0.4506,601.9586,604.9544,NA,NA,NA,NA,NA,45,26,0,55,55,54,1,2,56,"binary"
"FD2A6686546A4D689BE4A684CD264636",1,"0198ecee-3bda-772b-bf84-84e2073f57f3","0198c47e-224f-7cc7-87e7-f5ab0011d1ce","2025-08-27_15h08.36.491",NA,NA,608.3044,608.3044,608.3044,608.6544,NA,NA,NA,NA,NA,NA,NA,TRUE,2,0.3488,605.3057,608.3043,NA,NA,NA,NA,NA,40,33,0,56,56,49,1,2,57,"binary"
"FD2A6686546A4D689BE4A684CD264636",1,"0198ecee-3bda-772b-bf84-84e2073f57f3","0198c47e-224f-7cc7-87e7-f5ab0011d1ce","2025-08-27_15h08.36.491",NA,NA,611.6545,611.6546,611.6546,612.0042,NA,NA,NA,NA,NA,NA,NA,TRUE,2,0.3568,608.6555,611.6543,NA,NA,NA,NA,NA,50,30,0,57,57,61,1,2,58,"binary"
"FD2A6686546A4D689BE4A684CD264636",1,"0198ecee-3bda-772b-bf84-84e2073f57f3","0198c47e-224f-7cc7-87e7-f5ab0011d1ce","2025-08-27_15h08.36.491",NA,NA,615.0043,615.0043,615.0043,615.3546,NA,NA,NA,NA,NA,NA,NA,TRUE,2,0.4199,612.0059,615.0042,NA,NA,NA,NA,NA,95,33,0,58,58,79,1,2,59,"binary"
"FD2A6686546A4D689BE4A684CD264636",1,"0198ecee-3bda-772b-bf84-84e2073f57f3","0198c47e-224f-7cc7-87e7-f5ab0011d1ce","2025-08-27_15h08.36.491",NA,NA,618.3547,618.3547,618.3547,618.7043,NA,NA,NA,NA,NA,NA,NA,TRUE,2,0.5585,615.3557,618.3544,NA,NA,NA,NA,NA,21,27,0,59,59,25,1,2,60,"binary"
"FD2A6686546A4D689BE4A684CD264636",1,"0198ecee-3bda-772b-bf84-84e2073f57f3","0198c47e-224f-7cc7-87e7-f5ab0011d1ce","2025-08-27_15h08.36.491",NA,NA,621.7044,621.7045,621.7045,622.0544,NA,NA,NA,NA,NA,NA,NA,TRUE,2,0.4695,618.706,621.7043,NA,NA,NA,NA,NA,28,32,0,60,60,38,1,2,61,"binary"
"FD2A6686546A4D689BE4A684CD264636",1,"0198ecee-3bda-772b-bf84-84e2073f57f3","0198c47e-224f-7cc7-87e7-f5ab0011d1ce","2025-08-27_15h08.36.491",NA,NA,625.0544,625.0545,625.0546,625.4043,NA,NA,NA,NA,NA,NA,NA,TRUE,2,0.2551,622.0555,625.0543,NA,NA,NA,NA,NA,28,26,0,61,61,36,1,2,62,"binary"
"FD2A6686546A4D689BE4A684CD264636",1,"0198ecee-3bda-772b-bf84-84e2073f57f3","0198c47e-224f-7cc7-87e7-f5ab0011d1ce","2025-08-27_15h08.36.491",NA,NA,628.4067,628.4068,628.407,628.7567,NA,NA,NA,NA,NA,NA,NA,TRUE,2,0.542,625.4066,628.4065,NA,NA,NA,NA,NA,25,35,0,62,62,34,1,2,63,"binary"
"FD2A6686546A4D689BE4A684CD264636",1,"0198ecee-3bda-772b-bf84-84e2073f57f3","0198c47e-224f-7cc7-87e7-f5ab0011d1ce","2025-08-27_15h08.36.491",NA,NA,631.7555,631.7555,631.7556,632.1058,NA,NA,NA,NA,NA,NA,NA,TRUE,2,0.2723,628.7602,631.7554,NA,NA,NA,NA,NA,60,54,0,63,63,71,1,2,64,"binary"
"FD2A6686546A4D689BE4A684CD264636",1,"0198ecee-3bda-772b-bf84-84e2073f57f3","0198c47e-224f-7cc7-87e7-f5ab0011d1ce","2025-08-27_15h08.36.491",NA,NA,635.1064,635.1064,635.1065,635.4544,NA,NA,NA,NA,NA,NA,NA,TRUE,2,0.389,632.1085,635.1062,NA,NA,NA,NA,NA,30,27,0,64,64,43,1,2,65,"binary"
"FD2A6686546A4D689BE4A684CD264636",1,"0198ecee-3bda-772b-bf84-84e2073f57f3","0198c47e-224f-7cc7-87e7-f5ab0011d1ce","2025-08-27_15h08.36.491",NA,NA,638.4564,638.4565,638.4565,638.8064,NA,NA,NA,NA,NA,NA,NA,TRUE,2,0.326,635.4559,638.4562,NA,NA,NA,NA,NA,28,28,0,65,65,37,1,2,66,"binary"
"FD2A6686546A4D689BE4A684CD264636",1,"0198ecee-3bda-772b-bf84-84e2073f57f3","0198c47e-224f-7cc7-87e7-f5ab0011d1ce","2025-08-27_15h08.36.491",NA,NA,641.806,641.8061,641.8061,642.1559,NA,NA,NA,NA,NA,NA,NA,TRUE,2,0.4805,638.8093,641.8058,NA,NA,NA,NA,NA,95,54,0,66,66,83,1,2,67,"binary"
"FD2A6686546A4D689BE4A684CD264636",1,"0198ecee-3bda-772b-bf84-84e2073f57f3","0198c47e-224f-7cc7-87e7-f5ab0011d1ce","2025-08-27_15h08.36.491",NA,NA,645.1565,645.1566,645.1566,645.5057,NA,NA,NA,NA,NA,NA,NA,TRUE,2,0.3954,642.1584,645.1562,NA,NA,NA,NA,NA,200,47,0,67,67,106,1,2,68,"binary"
"FD2A6686546A4D689BE4A684CD264636",1,"0198ecee-3bda-772b-bf84-84e2073f57f3","0198c47e-224f-7cc7-87e7-f5ab0011d1ce","2025-08-27_15h08.36.491",NA,NA,648.5064,648.5066,648.5066,648.8564,NA,NA,NA,NA,NA,NA,NA,TRUE,2,0.9617,645.5094,648.506,NA,NA,NA,NA,NA,200,35,0,68,68,104,1,2,69,"binary"
"FD2A6686546A4D689BE4A684CD264636",1,"0198ecee-3bda-772b-bf84-84e2073f57f3","0198c47e-224f-7cc7-87e7-f5ab0011d1ce","2025-08-27_15h08.36.491",NA,NA,651.8574,651.8576,651.8576,652.2066,NA,NA,NA,NA,NA,NA,NA,TRUE,2,0.5122,648.8596,651.8573,NA,NA,NA,NA,NA,10,25,0,69,69,6,1,2,70,"binary"
"FD2A6686546A4D689BE4A684CD264636",1,"0198ecee-3bda-772b-bf84-84e2073f57f3","0198c47e-224f-7cc7-87e7-f5ab0011d1ce","2025-08-27_15h08.36.491",NA,NA,655.207,655.2072,655.2072,655.5569,NA,NA,NA,NA,NA,NA,NA,TRUE,2,0.3607,652.2093,655.2067,NA,NA,NA,NA,NA,14,35,0,70,70,22,1,2,71,"binary"
"FD2A6686546A4D689BE4A684CD264636",1,"0198ecee-3bda-772b-bf84-84e2073f57f3","0198c47e-224f-7cc7-87e7-f5ab0011d1ce","2025-08-27_15h08.36.491",NA,NA,658.5564,658.5565,658.5565,658.9056,NA,NA,NA,NA,NA,NA,NA,TRUE,2,0.4253,655.5606,658.5563,NA,NA,NA,NA,NA,150,54,0,71,71,95,1,2,72,"binary"
"FD2A6686546A4D689BE4A684CD264636",1,"0198ecee-3bda-772b-bf84-84e2073f57f3","0198c47e-224f-7cc7-87e7-f5ab0011d1ce","2025-08-27_15h08.36.491",NA,NA,661.9058,661.9059,661.9059,662.2562,NA,NA,NA,NA,NA,NA,NA,TRUE,2,0.6811,658.9088,661.9055,NA,NA,NA,NA,NA,30,26,0,72,72,42,1,2,73,"binary"
"FD2A6686546A4D689BE4A684CD264636",1,"0198ecee-3bda-772b-bf84-84e2073f57f3","0198c47e-224f-7cc7-87e7-f5ab0011d1ce","2025-08-27_15h08.36.491",NA,NA,665.2567,665.2567,665.2568,665.606,NA,NA,NA,NA,NA,NA,NA,TRUE,2,0.4776,662.2592,665.2565,NA,NA,NA,NA,NA,150,35,0,73,73,92,1,2,74,"binary"
"FD2A6686546A4D689BE4A684CD264636",1,"0198ecee-3bda-772b-bf84-84e2073f57f3","0198c47e-224f-7cc7-87e7-f5ab0011d1ce","2025-08-27_15h08.36.491",NA,NA,668.6043,668.6043,668.6044,668.9561,NA,NA,NA,NA,NA,NA,NA,TRUE,2,0.4105,665.6091,668.6043,NA,NA,NA,NA,NA,150,33,0,74,74,91,1,2,75,"binary"
"FD2A6686546A4D689BE4A684CD264636",1,"0198ecee-3bda-772b-bf84-84e2073f57f3","0198c47e-224f-7cc7-87e7-f5ab0011d1ce","2025-08-27_15h08.36.491",NA,NA,671.9562,671.9564,671.9564,672.3061,NA,NA,NA,NA,NA,NA,NA,TRUE,2,0.4451,668.9594,671.956,NA,NA,NA,NA,NA,21,30,0,75,75,27,1,2,76,"binary"
"FD2A6686546A4D689BE4A684CD264636",1,"0198ecee-3bda-772b-bf84-84e2073f57f3","0198c47e-224f-7cc7-87e7-f5ab0011d1ce","2025-08-27_15h08.36.491",NA,NA,675.3065,675.3067,675.3068,675.6558,NA,NA,NA,NA,NA,NA,NA,TRUE,2,0.8971,672.3092,675.3062,NA,NA,NA,NA,NA,25,33,0,76,76,33,1,2,77,"binary"
"FD2A6686546A4D689BE4A684CD264636",1,"0198ecee-3bda-772b-bf84-84e2073f57f3","0198c47e-224f-7cc7-87e7-f5ab0011d1ce","2025-08-27_15h08.36.491",NA,NA,678.656,678.6561,678.6562,679.0061,NA,NA,NA,NA,NA,NA,NA,TRUE,2,1.2545,675.6589,678.6557,NA,NA,NA,NA,NA,40,40,0,77,77,51,1,2,78,"binary"
"FD2A6686546A4D689BE4A684CD264636",1,"0198ecee-3bda-772b-bf84-84e2073f57f3","0198c47e-224f-7cc7-87e7-f5ab0011d1ce","2025-08-27_15h08.36.491",NA,NA,682.0065,682.0065,682.0065,682.3564,NA,NA,NA,NA,NA,NA,NA,TRUE,2,0.7813,679.009,682.0063,NA,NA,NA,NA,NA,14,28,0,78,78,20,1,2,79,"binary"
"FD2A6686546A4D689BE4A684CD264636",1,"0198ecee-3bda-772b-bf84-84e2073f57f3","0198c47e-224f-7cc7-87e7-f5ab0011d1ce","2025-08-27_15h08.36.491",NA,NA,685.357,685.3571,685.3571,685.706,NA,NA,NA,NA,NA,NA,NA,TRUE,2,0.6792,682.3592,685.3568,NA,NA,NA,NA,NA,200,26,0,79,79,102,1,2,80,"binary"
"FD2A6686546A4D689BE4A684CD264636",1,"0198ecee-3bda-772b-bf84-84e2073f57f3","0198c47e-224f-7cc7-87e7-f5ab0011d1ce","2025-08-27_15h08.36.491",NA,NA,688.7066,688.7071,688.7071,689.0562,NA,NA,NA,NA,NA,NA,NA,TRUE,2,0.3619,685.7091,688.7064,NA,NA,NA,NA,NA,10,26,0,80,80,7,1,2,81,"binary"
"FD2A6686546A4D689BE4A684CD264636",1,"0198ecee-3bda-772b-bf84-84e2073f57f3","0198c47e-224f-7cc7-87e7-f5ab0011d1ce","2025-08-27_15h08.36.491",NA,NA,692.0567,692.0568,692.0569,692.4059,NA,NA,NA,NA,NA,NA,NA,TRUE,2,0.5831,689.0589,692.0564,NA,NA,NA,NA,NA,100,26,0,81,81,84,1,2,82,"binary"
"FD2A6686546A4D689BE4A684CD264636",1,"0198ecee-3bda-772b-bf84-84e2073f57f3","0198c47e-224f-7cc7-87e7-f5ab0011d1ce","2025-08-27_15h08.36.491",NA,NA,695.4061,695.4062,695.4063,695.7543,NA,NA,NA,NA,NA,NA,NA,TRUE,2,0.5646,692.4092,695.4059,NA,NA,NA,NA,NA,200,39,0,82,82,105,1,2,83,"binary"
"FD2A6686546A4D689BE4A684CD264636",1,"0198ecee-3bda-772b-bf84-84e2073f57f3","0198c47e-224f-7cc7-87e7-f5ab0011d1ce","2025-08-27_15h08.36.491",NA,NA,698.7564,698.7564,698.7565,699.1069,NA,NA,NA,NA,NA,NA,NA,TRUE,2,2.9792,695.7556,698.7561,NA,NA,NA,NA,NA,150,47,0,83,83,94,1,2,84,"binary"
"FD2A6686546A4D689BE4A684CD264636",1,"0198ecee-3bda-772b-bf84-84e2073f57f3","0198c47e-224f-7cc7-87e7-f5ab0011d1ce","2025-08-27_15h08.36.491",NA,NA,702.107,702.1071,702.1071,702.4563,NA,NA,NA,NA,NA,NA,NA,TRUE,2,0.3938,699.1099,702.1068,NA,NA,NA,NA,NA,90,33,0,84,84,74,1,2,85,"binary"
"FD2A6686546A4D689BE4A684CD264636",1,"0198ecee-3bda-772b-bf84-84e2073f57f3","0198c47e-224f-7cc7-87e7-f5ab0011d1ce","2025-08-27_15h08.36.491",NA,NA,705.4553,705.4553,705.4554,705.8043,NA,NA,NA,NA,NA,NA,NA,TRUE,2,0.5144,702.4593,705.4552,NA,NA,NA,NA,NA,60,40,0,85,85,69,1,2,86,"binary"
"FD2A6686546A4D689BE4A684CD264636",1,"0198ecee-3bda-772b-bf84-84e2073f57f3","0198c47e-224f-7cc7-87e7-f5ab0011d1ce","2025-08-27_15h08.36.491",NA,NA,708.8065,708.8066,708.8067,709.1564,NA,NA,NA,NA,NA,NA,NA,TRUE,2,0.7045,705.8054,708.8062,NA,NA,NA,NA,NA,100,38,0,86,86,86,1,2,87,"binary"
"FD2A6686546A4D689BE4A684CD264636",1,"0198ecee-3bda-772b-bf84-84e2073f57f3","0198c47e-224f-7cc7-87e7-f5ab0011d1ce","2025-08-27_15h08.36.491",NA,NA,712.1558,712.1559,712.1559,712.5054,NA,NA,NA,NA,NA,NA,NA,TRUE,2,0.331,709.1597,712.1556,NA,NA,NA,NA,NA,21,32,0,87,87,28,1,2,88,"binary"
"FD2A6686546A4D689BE4A684CD264636",1,"0198ecee-3bda-772b-bf84-84e2073f57f3","0198c47e-224f-7cc7-87e7-f5ab0011d1ce","2025-08-27_15h08.36.491",NA,NA,715.5064,715.5066,715.5066,715.8555,NA,NA,NA,NA,NA,NA,NA,TRUE,2,0.0891,712.5082,715.5059,NA,NA,NA,NA,NA,7,25,0,88,88,0,1,2,89,"binary"
"FD2A6686546A4D689BE4A684CD264636",1,"0198ecee-3bda-772b-bf84-84e2073f57f3","0198c47e-224f-7cc7-87e7-f5ab0011d1ce","2025-08-27_15h08.36.491",NA,NA,718.8565,718.8566,718.8567,719.2064,NA,NA,NA,NA,NA,NA,NA,TRUE,2,0.3818,715.8588,718.8561,NA,NA,NA,NA,NA,90,26,0,89,89,72,1,2,90,"binary"
"FD2A6686546A4D689BE4A684CD264636",1,"0198ecee-3bda-772b-bf84-84e2073f57f3","0198c47e-224f-7cc7-87e7-f5ab0011d1ce","2025-08-27_15h08.36.491",NA,NA,722.2065,722.2066,722.2067,722.5564,NA,NA,NA,NA,NA,NA,NA,TRUE,2,0.3826,719.2093,722.2062,NA,NA,NA,NA,NA,180,35,0,90,90,98,1,2,91,"binary"
"FD2A6686546A4D689BE4A684CD264636",1,"0198ecee-3bda-772b-bf84-84e2073f57f3","0198c47e-224f-7cc7-87e7-f5ab0011d1ce","2025-08-27_15h08.36.491",NA,NA,725.5561,725.5563,725.5563,725.9057,NA,NA,NA,NA,NA,NA,NA,TRUE,2,0.2789,722.5589,725.5559,NA,NA,NA,NA,NA,95,47,0,91,91,82,1,2,92,"binary"
"FD2A6686546A4D689BE4A684CD264636",1,"0198ecee-3bda-772b-bf84-84e2073f57f3","0198c47e-224f-7cc7-87e7-f5ab0011d1ce","2025-08-27_15h08.36.491",NA,NA,728.906,728.906,728.9061,729.2561,NA,NA,NA,NA,NA,NA,NA,TRUE,2,0.397,725.9089,728.9057,NA,NA,NA,NA,NA,90,30,0,92,92,73,1,2,93,"binary"
"FD2A6686546A4D689BE4A684CD264636",1,"0198ecee-3bda-772b-bf84-84e2073f57f3","0198c47e-224f-7cc7-87e7-f5ab0011d1ce","2025-08-27_15h08.36.491",NA,NA,732.2563,732.2567,732.2567,732.6057,NA,NA,NA,NA,NA,NA,NA,TRUE,2,0.2787,729.2594,732.256,NA,NA,NA,NA,NA,7,28,0,93,93,2,1,2,94,"binary"
"FD2A6686546A4D689BE4A684CD264636",1,"0198ecee-3bda-772b-bf84-84e2073f57f3","0198c47e-224f-7cc7-87e7-f5ab0011d1ce","2025-08-27_15h08.36.491",NA,NA,735.6072,735.6073,735.6074,735.9557,NA,NA,NA,NA,NA,NA,NA,TRUE,2,0.6232,732.6092,735.6067,NA,NA,NA,NA,NA,45,31,0,94,94,56,1,2,95,"binary"
"FD2A6686546A4D689BE4A684CD264636",1,"0198ecee-3bda-772b-bf84-84e2073f57f3","0198c47e-224f-7cc7-87e7-f5ab0011d1ce","2025-08-27_15h08.36.491",NA,NA,738.9558,738.9559,738.956,739.3056,NA,NA,NA,NA,NA,NA,NA,TRUE,2,0.6221,735.9587,738.9555,NA,NA,NA,NA,NA,7,35,0,95,95,5,1,2,96,"binary"
"FD2A6686546A4D689BE4A684CD264636",1,"0198ecee-3bda-772b-bf84-84e2073f57f3","0198c47e-224f-7cc7-87e7-f5ab0011d1ce","2025-08-27_15h08.36.491",NA,NA,742.3064,742.3066,742.3066,742.6566,NA,NA,NA,NA,NA,NA,NA,TRUE,2,0.7134,739.3089,742.3062,NA,NA,NA,NA,NA,180,31,0,96,96,97,1,2,97,"binary"
"FD2A6686546A4D689BE4A684CD264636",1,"0198ecee-3bda-772b-bf84-84e2073f57f3","0198c47e-224f-7cc7-87e7-f5ab0011d1ce","2025-08-27_15h08.36.491",NA,NA,745.6547,745.6548,745.6549,746.0058,NA,NA,NA,NA,NA,NA,NA,TRUE,2,0.2207,742.6599,745.6547,NA,NA,NA,NA,NA,100,46,0,97,97,88,1,2,98,"binary"
"FD2A6686546A4D689BE4A684CD264636",1,"0198ecee-3bda-772b-bf84-84e2073f57f3","0198c47e-224f-7cc7-87e7-f5ab0011d1ce","2025-08-27_15h08.36.491",NA,NA,749.0061,749.0063,749.0063,749.3557,NA,NA,NA,NA,NA,NA,NA,TRUE,2,0.2296,746.0087,749.0059,NA,NA,NA,NA,NA,21,38,0,98,98,29,1,2,99,"binary"
"FD2A6686546A4D689BE4A684CD264636",1,"0198ecee-3bda-772b-bf84-84e2073f57f3","0198c47e-224f-7cc7-87e7-f5ab0011d1ce","2025-08-27_15h08.36.491",NA,NA,752.3566,752.357,752.357,752.7056,NA,NA,NA,NA,NA,NA,NA,TRUE,2,0.3623,749.3591,752.3565,NA,NA,NA,NA,NA,150,40,0,99,99,93,1,2,100,"binary"
"FD2A6686546A4D689BE4A684CD264636",1,"0198ecee-3bda-772b-bf84-84e2073f57f3","0198c47e-224f-7cc7-87e7-f5ab0011d1ce","2025-08-27_15h08.36.491",NA,NA,755.7057,755.7059,755.7059,756.0544,NA,NA,NA,NA,NA,NA,NA,TRUE,2,0.5296,752.7086,755.7056,NA,NA,NA,NA,NA,30,38,0,100,100,47,1,2,101,"binary"
"FD2A6686546A4D689BE4A684CD264636",1,"0198ecee-3bda-772b-bf84-84e2073f57f3","0198c47e-224f-7cc7-87e7-f5ab0011d1ce","2025-08-27_15h08.36.491",NA,NA,759.0573,759.0574,759.0574,759.4062,NA,NA,NA,NA,NA,NA,NA,TRUE,1,0.9193,756.0558,759.0568,NA,NA,NA,NA,NA,12,25,0,101,101,12,1,2,102,"binary"
"FD2A6686546A4D689BE4A684CD264636",1,"0198ecee-3bda-772b-bf84-84e2073f57f3","0198c47e-224f-7cc7-87e7-f5ab0011d1ce","2025-08-27_15h08.36.491",NA,NA,762.4057,762.4059,762.4059,762.7569,NA,NA,NA,NA,NA,NA,NA,TRUE,2,0.796,759.4093,762.4056,NA,NA,NA,NA,NA,60,33,0,102,102,67,1,2,103,"binary"
"FD2A6686546A4D689BE4A684CD264636",1,"0198ecee-3bda-772b-bf84-84e2073f57f3","0198c47e-224f-7cc7-87e7-f5ab0011d1ce","2025-08-27_15h08.36.491",NA,NA,765.7547,765.7547,765.7547,766.1061,NA,NA,NA,NA,NA,NA,NA,TRUE,2,0.4779,762.7604,765.7544,NA,NA,NA,NA,NA,12,33,0,103,103,16,1,2,104,"binary"
"FD2A6686546A4D689BE4A684CD264636",1,"0198ecee-3bda-772b-bf84-84e2073f57f3","0198c47e-224f-7cc7-87e7-f5ab0011d1ce","2025-08-27_15h08.36.491",NA,NA,769.1069,769.107,769.107,769.4566,NA,NA,NA,NA,NA,NA,NA,TRUE,1,0.9494,766.1083,769.1068,NA,NA,NA,NA,NA,12,26,0,104,104,13,1,2,105,"binary"
"FD2A6686546A4D689BE4A684CD264636",1,"0198ecee-3bda-772b-bf84-84e2073f57f3","0198c47e-224f-7cc7-87e7-f5ab0011d1ce","2025-08-27_15h08.36.491",NA,NA,772.4566,772.4568,772.4568,772.8066,NA,NA,NA,NA,NA,NA,NA,TRUE,2,0.445,769.4596,772.4564,NA,NA,NA,NA,NA,100,31,0,105,105,85,1,2,106,"binary"
"FD2A6686546A4D689BE4A684CD264636",1,"0198ecee-3bda-772b-bf84-84e2073f57f3","0198c47e-224f-7cc7-87e7-f5ab0011d1ce","2025-08-27_15h08.36.491",NA,NA,775.8061,775.8062,775.8063,776.1564,NA,NA,NA,NA,NA,NA,NA,TRUE,2,0.6497,772.809,775.8059,NA,NA,NA,NA,NA,10,29,0,106,106,9,1,2,107,"binary"
"FD2A6686546A4D689BE4A684CD264636",1,"0198ecee-3bda-772b-bf84-84e2073f57f3","0198c47e-224f-7cc7-87e7-f5ab0011d1ce","2025-08-27_15h08.36.491",NA,NA,779.1568,779.1572,779.1573,779.506,NA,NA,NA,NA,NA,NA,NA,TRUE,2,0.562,776.1597,779.1563,NA,NA,NA,NA,NA,90,40,0,107,107,75,1,2,108,"binary"
