"participant","session","assignmentId","projectId","date","practiceTrial.started","practiceTrial.stopped","tooLate.started","tooLate.stopped","blank.started","blank.stopped","trials_pract.thisRepN","trials_pract.thisTrialN","trials_pract.thisN","trials_pract.thisIndex","trials_pract.ran","delay_pract","amount_pract","responseMade","key","rt","trial.started","trial.stopped","trials.thisRepN","trials.thisTrialN","trials.thisN","trials.thisIndex","trials.ran","delay","amount","trials_2.thisRepN","trials_2.thisTrialN","trials_2.thisN","trials_2.thisIndex","trials_2.ran","block","trial","taskType"
"FE82391208714D90B59CBCF927ECE95B",1,"01990a99-8aa9-7d37-9d5c-eef591330ef8","01990a83-7673-7c0c-a792-bbd8fbbaf673","2025-09-02_08h25.20.939",80.1721,82.55,82.5517,82.8,82.8001,82.9,0,0,0,4,1,30,40,FALSE,NA,NA,NA,NA,NA,NA,NA,NA,NA,NA,NA,NA,NA,NA,NA,NA,0,1,"binary"
"FE82391208714D90B59CBCF927ECE95B",1,"01990a99-8aa9-7d37-9d5c-eef591330ef8","01990a83-7673-7c0c-a792-bbd8fbbaf673","2025-09-02_08h25.20.939",82.905,85.8987,85.8989,85.899,85.899,86.2497,0,1,1,2,1,14,45,TRUE,2,1.3974,NA,NA,NA,NA,NA,NA,NA,NA,NA,NA,NA,NA,NA,NA,0,2,"binary"
"FE82391208714D90B59CBCF927ECE95B",1,"01990a99-8aa9-7d37-9d5c-eef591330ef8","01990a83-7673-7c0c-a792-bbd8fbbaf673","2025-09-02_08h25.20.939",86.2523,89.2498,89.2501,89.2502,89.2502,89.5997,0,2,2,0,1,7,30,TRUE,2,1.8358,NA,NA,NA,NA,NA,NA,NA,NA,NA,NA,NA,NA,NA,NA,0,3,"binary"
"FE82391208714D90B59CBCF927ECE95B",1,"01990a99-8aa9-7d37-9d5c-eef591330ef8","01990a83-7673-7c0c-a792-bbd8fbbaf673","2025-09-02_08h25.20.939",89.6022,92.5997,92.6,92.6001,92.6001,92.9496,0,3,3,1,1,100,50,TRUE,2,1.3013,NA,NA,NA,NA,NA,NA,NA,NA,NA,NA,NA,NA,NA,NA,0,4,"binary"
"FE82391208714D90B59CBCF927ECE95B",1,"01990a99-8aa9-7d37-9d5c-eef591330ef8","01990a83-7673-7c0c-a792-bbd8fbbaf673","2025-09-02_08h25.20.939",92.9522,95.9498,95.95,96.1997,96.1997,96.2989,0,4,4,3,1,3,27,FALSE,NA,NA,NA,NA,NA,NA,NA,NA,NA,NA,NA,NA,NA,NA,NA,NA,0,5,"binary"
"FE82391208714D90B59CBCF927ECE95B",1,"01990a99-8aa9-7d37-9d5c-eef591330ef8","01990a83-7673-7c0c-a792-bbd8fbbaf673","2025-09-02_08h25.20.939",NA,NA,150.1669,150.1672,150.1672,150.5163,NA,NA,NA,NA,NA,NA,NA,TRUE,2,1.5626,147.1888,150.1665,0,0,0,101,1,180,54,NA,NA,NA,NA,NA,1,1,"binary"
"FE82391208714D90B59CBCF927ECE95B",1,"01990a99-8aa9-7d37-9d5c-eef591330ef8","01990a83-7673-7c0c-a792-bbd8fbbaf673","2025-09-02_08h25.20.939",NA,NA,153.5165,153.5165,153.5165,153.8663,NA,NA,NA,NA,NA,NA,NA,TRUE,1,1.3302,150.5182,153.5163,0,1,1,97,1,180,31,NA,NA,NA,NA,NA,1,2,"binary"
"FE82391208714D90B59CBCF927ECE95B",1,"01990a99-8aa9-7d37-9d5c-eef591330ef8","01990a83-7673-7c0c-a792-bbd8fbbaf673","2025-09-02_08h25.20.939",NA,NA,156.8661,156.8661,156.8662,157.2163,NA,NA,NA,NA,NA,NA,NA,TRUE,1,1.4856,153.868,156.866,0,2,2,84,1,100,26,NA,NA,NA,NA,NA,1,3,"binary"
"FE82391208714D90B59CBCF927ECE95B",1,"01990a99-8aa9-7d37-9d5c-eef591330ef8","01990a83-7673-7c0c-a792-bbd8fbbaf673","2025-09-02_08h25.20.939",NA,NA,160.2155,160.2157,160.2157,160.5657,NA,NA,NA,NA,NA,NA,NA,TRUE,2,2.093,157.2183,160.2154,0,3,3,79,1,95,33,NA,NA,NA,NA,NA,1,4,"binary"
"FE82391208714D90B59CBCF927ECE95B",1,"01990a99-8aa9-7d37-9d5c-eef591330ef8","01990a83-7673-7c0c-a792-bbd8fbbaf673","2025-09-02_08h25.20.939",NA,NA,163.5664,163.5664,163.5664,163.9162,NA,NA,NA,NA,NA,NA,NA,TRUE,1,1.3105,160.5676,163.5662,0,4,4,25,1,21,27,NA,NA,NA,NA,NA,1,5,"binary"
"FE82391208714D90B59CBCF927ECE95B",1,"01990a99-8aa9-7d37-9d5c-eef591330ef8","01990a83-7673-7c0c-a792-bbd8fbbaf673","2025-09-02_08h25.20.939",NA,NA,166.9164,166.9165,166.9165,167.2663,NA,NA,NA,NA,NA,NA,NA,TRUE,1,1.1256,163.9181,166.9163,0,5,5,7,1,10,26,NA,NA,NA,NA,NA,1,6,"binary"
"FE82391208714D90B59CBCF927ECE95B",1,"01990a99-8aa9-7d37-9d5c-eef591330ef8","01990a83-7673-7c0c-a792-bbd8fbbaf673","2025-09-02_08h25.20.939",NA,NA,170.2651,170.2651,170.2651,170.6162,NA,NA,NA,NA,NA,NA,NA,TRUE,2,1.1977,167.2682,170.265,0,6,6,94,1,150,47,NA,NA,NA,NA,NA,1,7,"binary"
"FE82391208714D90B59CBCF927ECE95B",1,"01990a99-8aa9-7d37-9d5c-eef591330ef8","01990a83-7673-7c0c-a792-bbd8fbbaf673","2025-09-02_08h25.20.939",NA,NA,173.6164,173.6165,173.6166,173.9663,NA,NA,NA,NA,NA,NA,NA,TRUE,2,2.0725,170.618,173.6163,0,7,7,70,1,60,47,NA,NA,NA,NA,NA,1,8,"binary"
"FE82391208714D90B59CBCF927ECE95B",1,"01990a99-8aa9-7d37-9d5c-eef591330ef8","01990a83-7673-7c0c-a792-bbd8fbbaf673","2025-09-02_08h25.20.939",NA,NA,176.9654,176.9654,176.9654,177.3156,NA,NA,NA,NA,NA,NA,NA,TRUE,2,1.2484,173.9681,176.9653,0,8,8,11,1,10,32,NA,NA,NA,NA,NA,1,9,"binary"
"FE82391208714D90B59CBCF927ECE95B",1,"01990a99-8aa9-7d37-9d5c-eef591330ef8","01990a83-7673-7c0c-a792-bbd8fbbaf673","2025-09-02_08h25.20.939",NA,NA,180.3164,180.3165,180.3166,180.6662,NA,NA,NA,NA,NA,NA,NA,TRUE,1,1.3155,177.3173,180.3162,0,9,9,30,1,25,27,NA,NA,NA,NA,NA,1,10,"binary"
"FE82391208714D90B59CBCF927ECE95B",1,"01990a99-8aa9-7d37-9d5c-eef591330ef8","01990a83-7673-7c0c-a792-bbd8fbbaf673","2025-09-02_08h25.20.939",NA,NA,183.6664,183.6664,183.6665,184.0162,NA,NA,NA,NA,NA,NA,NA,TRUE,2,1.6695,180.6679,183.6663,0,10,10,27,1,21,30,NA,NA,NA,NA,NA,1,11,"binary"
"FE82391208714D90B59CBCF927ECE95B",1,"01990a99-8aa9-7d37-9d5c-eef591330ef8","01990a83-7673-7c0c-a792-bbd8fbbaf673","2025-09-02_08h25.20.939",NA,NA,187.0163,187.0164,187.0164,187.3661,NA,NA,NA,NA,NA,NA,NA,TRUE,2,1.0198,184.018,187.0163,0,11,11,75,1,90,40,NA,NA,NA,NA,NA,1,12,"binary"
"FE82391208714D90B59CBCF927ECE95B",1,"01990a99-8aa9-7d37-9d5c-eef591330ef8","01990a83-7673-7c0c-a792-bbd8fbbaf673","2025-09-02_08h25.20.939",NA,NA,190.3665,190.3665,190.3665,190.7163,NA,NA,NA,NA,NA,NA,NA,TRUE,1,1.9822,187.3679,190.3663,0,12,12,72,1,90,26,NA,NA,NA,NA,NA,1,13,"binary"
"FE82391208714D90B59CBCF927ECE95B",1,"01990a99-8aa9-7d37-9d5c-eef591330ef8","01990a83-7673-7c0c-a792-bbd8fbbaf673","2025-09-02_08h25.20.939",NA,NA,193.7165,193.7165,193.7165,194.0663,NA,NA,NA,NA,NA,NA,NA,TRUE,2,1.0031,190.7183,193.7164,0,13,13,41,1,28,46,NA,NA,NA,NA,NA,1,14,"binary"
"FE82391208714D90B59CBCF927ECE95B",1,"01990a99-8aa9-7d37-9d5c-eef591330ef8","01990a83-7673-7c0c-a792-bbd8fbbaf673","2025-09-02_08h25.20.939",NA,NA,197.0665,197.0665,197.0665,197.4158,NA,NA,NA,NA,NA,NA,NA,TRUE,2,1.2125,194.0679,197.0663,0,14,14,81,1,95,40,NA,NA,NA,NA,NA,1,15,"binary"
"FE82391208714D90B59CBCF927ECE95B",1,"01990a99-8aa9-7d37-9d5c-eef591330ef8","01990a83-7673-7c0c-a792-bbd8fbbaf673","2025-09-02_08h25.20.939",NA,NA,200.4164,200.4165,200.4165,200.7655,NA,NA,NA,NA,NA,NA,NA,TRUE,2,0.9,197.4175,200.4162,0,15,15,63,1,50,40,NA,NA,NA,NA,NA,1,16,"binary"
"FE82391208714D90B59CBCF927ECE95B",1,"01990a99-8aa9-7d37-9d5c-eef591330ef8","01990a83-7673-7c0c-a792-bbd8fbbaf673","2025-09-02_08h25.20.939",NA,NA,203.7665,203.7665,203.7666,204.1153,NA,NA,NA,NA,NA,NA,NA,TRUE,2,2.4208,200.7673,203.7663,0,16,16,59,1,45,46,NA,NA,NA,NA,NA,1,17,"binary"
"FE82391208714D90B59CBCF927ECE95B",1,"01990a99-8aa9-7d37-9d5c-eef591330ef8","01990a83-7673-7c0c-a792-bbd8fbbaf673","2025-09-02_08h25.20.939",NA,NA,207.1162,207.1162,207.1162,207.4662,NA,NA,NA,NA,NA,NA,NA,TRUE,1,2.0636,204.1171,207.116,0,17,17,13,1,12,26,NA,NA,NA,NA,NA,1,18,"binary"
"FE82391208714D90B59CBCF927ECE95B",1,"01990a99-8aa9-7d37-9d5c-eef591330ef8","01990a83-7673-7c0c-a792-bbd8fbbaf673","2025-09-02_08h25.20.939",NA,NA,210.4652,210.4652,210.4653,210.8163,NA,NA,NA,NA,NA,NA,NA,TRUE,2,1.1529,207.4679,210.4652,0,18,18,99,1,180,39,NA,NA,NA,NA,NA,1,19,"binary"
"FE82391208714D90B59CBCF927ECE95B",1,"01990a99-8aa9-7d37-9d5c-eef591330ef8","01990a83-7673-7c0c-a792-bbd8fbbaf673","2025-09-02_08h25.20.939",NA,NA,213.8154,213.8154,213.8154,214.1657,NA,NA,NA,NA,NA,NA,NA,TRUE,2,1.9129,210.8179,213.8153,0,19,19,22,1,14,35,NA,NA,NA,NA,NA,1,20,"binary"
"FE82391208714D90B59CBCF927ECE95B",1,"01990a99-8aa9-7d37-9d5c-eef591330ef8","01990a83-7673-7c0c-a792-bbd8fbbaf673","2025-09-02_08h25.20.939",NA,NA,217.1663,217.1664,217.1664,217.5162,NA,NA,NA,NA,NA,NA,NA,TRUE,2,1.0115,214.1671,217.1663,0,20,20,29,1,21,38,NA,NA,NA,NA,NA,1,21,"binary"
"FE82391208714D90B59CBCF927ECE95B",1,"01990a99-8aa9-7d37-9d5c-eef591330ef8","01990a83-7673-7c0c-a792-bbd8fbbaf673","2025-09-02_08h25.20.939",NA,NA,220.5164,220.5165,220.5165,220.8663,NA,NA,NA,NA,NA,NA,NA,TRUE,2,1.0639,217.5179,220.5163,0,21,21,34,1,25,35,NA,NA,NA,NA,NA,1,22,"binary"
"FE82391208714D90B59CBCF927ECE95B",1,"01990a99-8aa9-7d37-9d5c-eef591330ef8","01990a83-7673-7c0c-a792-bbd8fbbaf673","2025-09-02_08h25.20.939",NA,NA,223.8663,223.8664,223.8665,224.2162,NA,NA,NA,NA,NA,NA,NA,TRUE,2,0.8136,220.868,223.8663,0,22,22,76,1,90,46,NA,NA,NA,NA,NA,1,23,"binary"
"FE82391208714D90B59CBCF927ECE95B",1,"01990a99-8aa9-7d37-9d5c-eef591330ef8","01990a83-7673-7c0c-a792-bbd8fbbaf673","2025-09-02_08h25.20.939",NA,NA,227.2164,227.2164,227.2164,227.5663,NA,NA,NA,NA,NA,NA,NA,TRUE,1,1.2197,224.218,227.2162,0,23,23,48,1,40,27,NA,NA,NA,NA,NA,1,24,"binary"
"FE82391208714D90B59CBCF927ECE95B",1,"01990a99-8aa9-7d37-9d5c-eef591330ef8","01990a83-7673-7c0c-a792-bbd8fbbaf673","2025-09-02_08h25.20.939",NA,NA,230.5663,230.5664,230.5664,230.9163,NA,NA,NA,NA,NA,NA,NA,TRUE,2,0.9106,227.568,230.5663,0,24,24,39,1,28,35,NA,NA,NA,NA,NA,1,25,"binary"
"FE82391208714D90B59CBCF927ECE95B",1,"01990a99-8aa9-7d37-9d5c-eef591330ef8","01990a83-7673-7c0c-a792-bbd8fbbaf673","2025-09-02_08h25.20.939",NA,NA,233.9163,233.9164,233.9164,234.266,NA,NA,NA,NA,NA,NA,NA,TRUE,1,0.9106,230.918,233.9162,0,25,25,1,1,7,26,NA,NA,NA,NA,NA,1,26,"binary"
"FE82391208714D90B59CBCF927ECE95B",1,"01990a99-8aa9-7d37-9d5c-eef591330ef8","01990a83-7673-7c0c-a792-bbd8fbbaf673","2025-09-02_08h25.20.939",NA,NA,237.2664,237.2664,237.2664,237.6153,NA,NA,NA,NA,NA,NA,NA,TRUE,1,1.7548,234.2679,237.2663,0,26,26,98,1,180,35,NA,NA,NA,NA,NA,1,27,"binary"
"FE82391208714D90B59CBCF927ECE95B",1,"01990a99-8aa9-7d37-9d5c-eef591330ef8","01990a83-7673-7c0c-a792-bbd8fbbaf673","2025-09-02_08h25.20.939",NA,NA,240.6164,240.6164,240.6165,240.9651,NA,NA,NA,NA,NA,NA,NA,TRUE,2,2.7652,237.6171,240.6163,0,27,27,87,1,100,39,NA,NA,NA,NA,NA,1,28,"binary"
"FE82391208714D90B59CBCF927ECE95B",1,"01990a99-8aa9-7d37-9d5c-eef591330ef8","01990a83-7673-7c0c-a792-bbd8fbbaf673","2025-09-02_08h25.20.939",NA,NA,243.9663,243.9664,243.9664,244.3163,NA,NA,NA,NA,NA,NA,NA,TRUE,1,1.8877,240.9667,243.9662,0,28,28,62,1,50,35,NA,NA,NA,NA,NA,1,29,"binary"
"FE82391208714D90B59CBCF927ECE95B",1,"01990a99-8aa9-7d37-9d5c-eef591330ef8","01990a83-7673-7c0c-a792-bbd8fbbaf673","2025-09-02_08h25.20.939",NA,NA,247.3157,247.3158,247.3158,247.6663,NA,NA,NA,NA,NA,NA,NA,TRUE,2,1.0023,244.3179,247.3155,0,29,29,77,1,90,54,NA,NA,NA,NA,NA,1,30,"binary"
"FE82391208714D90B59CBCF927ECE95B",1,"01990a99-8aa9-7d37-9d5c-eef591330ef8","01990a83-7673-7c0c-a792-bbd8fbbaf673","2025-09-02_08h25.20.939",NA,NA,250.6665,250.6666,250.6666,251.0163,NA,NA,NA,NA,NA,NA,NA,TRUE,2,1.0726,247.6679,250.6663,0,30,30,82,1,95,47,NA,NA,NA,NA,NA,1,31,"binary"
"FE82391208714D90B59CBCF927ECE95B",1,"01990a99-8aa9-7d37-9d5c-eef591330ef8","01990a83-7673-7c0c-a792-bbd8fbbaf673","2025-09-02_08h25.20.939",NA,NA,254.0164,254.0165,254.0165,254.3663,NA,NA,NA,NA,NA,NA,NA,TRUE,1,1.1125,251.0179,254.0162,0,31,31,102,1,200,26,NA,NA,NA,NA,NA,1,32,"binary"
"FE82391208714D90B59CBCF927ECE95B",1,"01990a99-8aa9-7d37-9d5c-eef591330ef8","01990a83-7673-7c0c-a792-bbd8fbbaf673","2025-09-02_08h25.20.939",NA,NA,257.3663,257.3664,257.3665,257.7162,NA,NA,NA,NA,NA,NA,NA,TRUE,1,1.2125,254.3681,257.3662,0,32,32,96,1,180,27,NA,NA,NA,NA,NA,1,33,"binary"
"FE82391208714D90B59CBCF927ECE95B",1,"01990a99-8aa9-7d37-9d5c-eef591330ef8","01990a83-7673-7c0c-a792-bbd8fbbaf673","2025-09-02_08h25.20.939",NA,NA,260.7164,260.7164,260.7164,261.0663,NA,NA,NA,NA,NA,NA,NA,TRUE,2,1.0032,257.7179,260.7163,0,33,33,51,1,40,40,NA,NA,NA,NA,NA,1,34,"binary"
"FE82391208714D90B59CBCF927ECE95B",1,"01990a99-8aa9-7d37-9d5c-eef591330ef8","01990a83-7673-7c0c-a792-bbd8fbbaf673","2025-09-02_08h25.20.939",NA,NA,264.0664,264.0665,264.0665,264.4162,NA,NA,NA,NA,NA,NA,NA,TRUE,2,1.8479,261.0679,264.0662,0,34,34,86,1,100,38,NA,NA,NA,NA,NA,1,35,"binary"
"FE82391208714D90B59CBCF927ECE95B",1,"01990a99-8aa9-7d37-9d5c-eef591330ef8","01990a83-7673-7c0c-a792-bbd8fbbaf673","2025-09-02_08h25.20.939",NA,NA,267.4163,267.4164,267.4164,267.7662,NA,NA,NA,NA,NA,NA,NA,TRUE,1,0.819,264.418,267.4163,0,35,35,60,1,50,27,NA,NA,NA,NA,NA,1,36,"binary"
"FE82391208714D90B59CBCF927ECE95B",1,"01990a99-8aa9-7d37-9d5c-eef591330ef8","01990a83-7673-7c0c-a792-bbd8fbbaf673","2025-09-02_08h25.20.939",NA,NA,270.7664,270.7664,270.7664,271.1162,NA,NA,NA,NA,NA,NA,NA,TRUE,2,1.3632,267.7679,270.7662,0,36,36,93,1,150,40,NA,NA,NA,NA,NA,1,37,"binary"
"FE82391208714D90B59CBCF927ECE95B",1,"01990a99-8aa9-7d37-9d5c-eef591330ef8","01990a83-7673-7c0c-a792-bbd8fbbaf673","2025-09-02_08h25.20.939",NA,NA,274.1164,274.1164,274.1164,274.4662,NA,NA,NA,NA,NA,NA,NA,TRUE,2,1.0485,271.1181,274.1163,0,37,37,53,1,40,54,NA,NA,NA,NA,NA,1,38,"binary"
"FE82391208714D90B59CBCF927ECE95B",1,"01990a99-8aa9-7d37-9d5c-eef591330ef8","01990a83-7673-7c0c-a792-bbd8fbbaf673","2025-09-02_08h25.20.939",NA,NA,277.4665,277.4665,277.4665,277.8162,NA,NA,NA,NA,NA,NA,NA,TRUE,1,1.1305,274.4679,277.4663,0,38,38,55,1,45,29,NA,NA,NA,NA,NA,1,39,"binary"
"FE82391208714D90B59CBCF927ECE95B",1,"01990a99-8aa9-7d37-9d5c-eef591330ef8","01990a83-7673-7c0c-a792-bbd8fbbaf673","2025-09-02_08h25.20.939",NA,NA,280.8158,280.8159,280.8159,281.1662,NA,NA,NA,NA,NA,NA,NA,TRUE,1,2.4792,277.8181,280.8158,0,39,39,18,1,14,25,NA,NA,NA,NA,NA,1,40,"binary"
"FE82391208714D90B59CBCF927ECE95B",1,"01990a99-8aa9-7d37-9d5c-eef591330ef8","01990a83-7673-7c0c-a792-bbd8fbbaf673","2025-09-02_08h25.20.939",NA,NA,284.1658,284.1658,284.1658,284.5162,NA,NA,NA,NA,NA,NA,NA,TRUE,1,1.5358,281.1679,284.1657,0,40,40,31,1,25,29,NA,NA,NA,NA,NA,1,41,"binary"
"FE82391208714D90B59CBCF927ECE95B",1,"01990a99-8aa9-7d37-9d5c-eef591330ef8","01990a83-7673-7c0c-a792-bbd8fbbaf673","2025-09-02_08h25.20.939",NA,NA,287.5153,287.5153,287.5154,287.8662,NA,NA,NA,NA,NA,NA,NA,TRUE,1,0.8289,284.518,287.5152,0,41,41,20,1,14,28,NA,NA,NA,NA,NA,1,42,"binary"
"FE82391208714D90B59CBCF927ECE95B",1,"01990a99-8aa9-7d37-9d5c-eef591330ef8","01990a83-7673-7c0c-a792-bbd8fbbaf673","2025-09-02_08h25.20.939",NA,NA,290.8653,290.8653,290.8653,291.2162,NA,NA,NA,NA,NA,NA,NA,TRUE,2,1.4195,287.868,290.8651,0,42,42,68,1,60,35,NA,NA,NA,NA,NA,1,43,"binary"
"FE82391208714D90B59CBCF927ECE95B",1,"01990a99-8aa9-7d37-9d5c-eef591330ef8","01990a83-7673-7c0c-a792-bbd8fbbaf673","2025-09-02_08h25.20.939",NA,NA,294.2164,294.2164,294.2164,294.5664,NA,NA,NA,NA,NA,NA,NA,TRUE,2,1.1785,291.218,294.2162,0,43,43,16,1,12,33,NA,NA,NA,NA,NA,1,44,"binary"
"FE82391208714D90B59CBCF927ECE95B",1,"01990a99-8aa9-7d37-9d5c-eef591330ef8","01990a83-7673-7c0c-a792-bbd8fbbaf673","2025-09-02_08h25.20.939",NA,NA,297.5663,297.5664,297.5664,297.9163,NA,NA,NA,NA,NA,NA,NA,TRUE,2,1.103,294.5682,297.5662,0,44,44,83,1,95,54,NA,NA,NA,NA,NA,1,45,"binary"
"FE82391208714D90B59CBCF927ECE95B",1,"01990a99-8aa9-7d37-9d5c-eef591330ef8","01990a83-7673-7c0c-a792-bbd8fbbaf673","2025-09-02_08h25.20.939",NA,NA,300.9165,300.9165,300.9165,301.2664,NA,NA,NA,NA,NA,NA,NA,TRUE,2,1.6554,297.9179,300.9163,0,45,45,50,1,40,35,NA,NA,NA,NA,NA,1,46,"binary"
"FE82391208714D90B59CBCF927ECE95B",1,"01990a99-8aa9-7d37-9d5c-eef591330ef8","01990a83-7673-7c0c-a792-bbd8fbbaf673","2025-09-02_08h25.20.939",NA,NA,304.2663,304.2664,304.2664,304.6163,NA,NA,NA,NA,NA,NA,NA,TRUE,2,2.1147,301.2681,304.2662,0,46,46,104,1,200,35,NA,NA,NA,NA,NA,1,47,"binary"
"FE82391208714D90B59CBCF927ECE95B",1,"01990a99-8aa9-7d37-9d5c-eef591330ef8","01990a83-7673-7c0c-a792-bbd8fbbaf673","2025-09-02_08h25.20.939",NA,NA,307.6161,307.6161,307.6162,307.9662,NA,NA,NA,NA,NA,NA,NA,TRUE,2,2.3167,304.618,307.616,0,47,47,3,1,7,30,NA,NA,NA,NA,NA,1,48,"binary"
"FE82391208714D90B59CBCF927ECE95B",1,"01990a99-8aa9-7d37-9d5c-eef591330ef8","01990a83-7673-7c0c-a792-bbd8fbbaf673","2025-09-02_08h25.20.939",NA,NA,310.9665,310.9665,310.9665,311.3151,NA,NA,NA,NA,NA,NA,NA,TRUE,2,1.0027,307.9678,310.9663,0,48,48,80,1,95,35,NA,NA,NA,NA,NA,1,49,"binary"
"FE82391208714D90B59CBCF927ECE95B",1,"01990a99-8aa9-7d37-9d5c-eef591330ef8","01990a83-7673-7c0c-a792-bbd8fbbaf673","2025-09-02_08h25.20.939",NA,NA,314.3164,314.3165,314.3165,314.6652,NA,NA,NA,NA,NA,NA,NA,TRUE,2,1.3121,311.3168,314.3163,0,49,49,17,1,12,35,NA,NA,NA,NA,NA,1,50,"binary"
"FE82391208714D90B59CBCF927ECE95B",1,"01990a99-8aa9-7d37-9d5c-eef591330ef8","01990a83-7673-7c0c-a792-bbd8fbbaf673","2025-09-02_08h25.20.939",NA,NA,317.666,317.6661,317.6661,318.0162,NA,NA,NA,NA,NA,NA,NA,TRUE,2,1.1279,314.6669,317.666,0,50,50,46,1,30,32,NA,NA,NA,NA,NA,1,51,"binary"
"FE82391208714D90B59CBCF927ECE95B",1,"01990a99-8aa9-7d37-9d5c-eef591330ef8","01990a83-7673-7c0c-a792-bbd8fbbaf673","2025-09-02_08h25.20.939",NA,NA,321.0159,321.016,321.016,321.3662,NA,NA,NA,NA,NA,NA,NA,TRUE,2,2.0776,318.0179,321.0159,0,51,51,19,1,14,26,NA,NA,NA,NA,NA,1,52,"binary"
"FE82391208714D90B59CBCF927ECE95B",1,"01990a99-8aa9-7d37-9d5c-eef591330ef8","01990a83-7673-7c0c-a792-bbd8fbbaf673","2025-09-02_08h25.20.939",NA,NA,324.3657,324.3657,324.3658,324.7163,NA,NA,NA,NA,NA,NA,NA,TRUE,2,0.8517,321.3679,324.3655,0,52,52,33,1,25,33,NA,NA,NA,NA,NA,1,53,"binary"
"FE82391208714D90B59CBCF927ECE95B",1,"01990a99-8aa9-7d37-9d5c-eef591330ef8","01990a83-7673-7c0c-a792-bbd8fbbaf673","2025-09-02_08h25.20.939",NA,NA,327.7153,327.7153,327.7153,328.0663,NA,NA,NA,NA,NA,NA,NA,TRUE,2,0.8387,324.7179,327.7151,0,53,53,28,1,21,32,NA,NA,NA,NA,NA,1,54,"binary"
"FE82391208714D90B59CBCF927ECE95B",1,"01990a99-8aa9-7d37-9d5c-eef591330ef8","01990a83-7673-7c0c-a792-bbd8fbbaf673","2025-09-02_08h25.20.939",NA,NA,331.0664,331.0665,331.0665,331.4163,NA,NA,NA,NA,NA,NA,NA,TRUE,2,1.0729,328.0681,331.0662,0,54,54,90,1,150,31,NA,NA,NA,NA,NA,1,55,"binary"
"FE82391208714D90B59CBCF927ECE95B",1,"01990a99-8aa9-7d37-9d5c-eef591330ef8","01990a83-7673-7c0c-a792-bbd8fbbaf673","2025-09-02_08h25.20.939",NA,NA,334.4163,334.4164,334.4164,334.7662,NA,NA,NA,NA,NA,NA,NA,TRUE,2,0.7364,331.4179,334.4163,0,55,55,52,1,40,47,NA,NA,NA,NA,NA,1,56,"binary"
"FE82391208714D90B59CBCF927ECE95B",1,"01990a99-8aa9-7d37-9d5c-eef591330ef8","01990a83-7673-7c0c-a792-bbd8fbbaf673","2025-09-02_08h25.20.939",NA,NA,337.7664,337.7664,337.7664,338.115,NA,NA,NA,NA,NA,NA,NA,TRUE,2,1.4628,334.7679,337.7662,0,56,56,92,1,150,35,NA,NA,NA,NA,NA,1,57,"binary"
"FE82391208714D90B59CBCF927ECE95B",1,"01990a99-8aa9-7d37-9d5c-eef591330ef8","01990a83-7673-7c0c-a792-bbd8fbbaf673","2025-09-02_08h25.20.939",NA,NA,341.1163,341.1164,341.1164,341.4663,NA,NA,NA,NA,NA,NA,NA,TRUE,2,0.8549,338.1163,341.1162,0,57,57,35,1,25,46,NA,NA,NA,NA,NA,1,58,"binary"
"FE82391208714D90B59CBCF927ECE95B",1,"01990a99-8aa9-7d37-9d5c-eef591330ef8","01990a83-7673-7c0c-a792-bbd8fbbaf673","2025-09-02_08h25.20.939",NA,NA,344.4663,344.4664,344.4664,344.8162,NA,NA,NA,NA,NA,NA,NA,TRUE,2,1.3496,341.4681,344.4663,0,58,58,4,1,7,32,NA,NA,NA,NA,NA,1,59,"binary"
"FE82391208714D90B59CBCF927ECE95B",1,"01990a99-8aa9-7d37-9d5c-eef591330ef8","01990a83-7673-7c0c-a792-bbd8fbbaf673","2025-09-02_08h25.20.939",NA,NA,347.8164,347.8165,347.8165,348.1659,NA,NA,NA,NA,NA,NA,NA,TRUE,2,0.8517,344.8179,347.8162,0,59,59,23,1,14,39,NA,NA,NA,NA,NA,1,60,"binary"
"FE82391208714D90B59CBCF927ECE95B",1,"01990a99-8aa9-7d37-9d5c-eef591330ef8","01990a83-7673-7c0c-a792-bbd8fbbaf673","2025-09-02_08h25.20.939",NA,NA,351.1663,351.1664,351.1664,351.5154,NA,NA,NA,NA,NA,NA,NA,TRUE,2,2.0057,348.1672,351.1662,0,60,60,2,1,7,28,NA,NA,NA,NA,NA,1,61,"binary"
"FE82391208714D90B59CBCF927ECE95B",1,"01990a99-8aa9-7d37-9d5c-eef591330ef8","01990a83-7673-7c0c-a792-bbd8fbbaf673","2025-09-02_08h25.20.939",NA,NA,354.5164,354.5164,354.5164,354.8662,NA,NA,NA,NA,NA,NA,NA,TRUE,1,0.9543,351.517,354.5163,0,61,61,0,1,7,25,NA,NA,NA,NA,NA,1,62,"binary"
"FE82391208714D90B59CBCF927ECE95B",1,"01990a99-8aa9-7d37-9d5c-eef591330ef8","01990a83-7673-7c0c-a792-bbd8fbbaf673","2025-09-02_08h25.20.939",NA,NA,357.866,357.866,357.8661,358.2162,NA,NA,NA,NA,NA,NA,NA,TRUE,2,1.0689,354.868,357.8658,0,62,62,10,1,10,30,NA,NA,NA,NA,NA,1,63,"binary"
"FE82391208714D90B59CBCF927ECE95B",1,"01990a99-8aa9-7d37-9d5c-eef591330ef8","01990a83-7673-7c0c-a792-bbd8fbbaf673","2025-09-02_08h25.20.939",NA,NA,361.2152,361.2152,361.2153,361.5653,NA,NA,NA,NA,NA,NA,NA,TRUE,2,0.8764,358.2181,361.2151,0,63,63,15,1,12,31,NA,NA,NA,NA,NA,1,64,"binary"
"FE82391208714D90B59CBCF927ECE95B",1,"01990a99-8aa9-7d37-9d5c-eef591330ef8","01990a83-7673-7c0c-a792-bbd8fbbaf673","2025-09-02_08h25.20.939",NA,NA,364.5653,364.5653,364.5653,364.9163,NA,NA,NA,NA,NA,NA,NA,TRUE,2,0.7544,361.567,364.5652,0,64,64,64,1,50,46,NA,NA,NA,NA,NA,1,65,"binary"
"FE82391208714D90B59CBCF927ECE95B",1,"01990a99-8aa9-7d37-9d5c-eef591330ef8","01990a83-7673-7c0c-a792-bbd8fbbaf673","2025-09-02_08h25.20.939",NA,NA,367.9164,367.9165,367.9165,368.2663,NA,NA,NA,NA,NA,NA,NA,TRUE,1,0.9135,364.918,367.9163,0,65,65,6,1,10,25,NA,NA,NA,NA,NA,1,66,"binary"
"FE82391208714D90B59CBCF927ECE95B",1,"01990a99-8aa9-7d37-9d5c-eef591330ef8","01990a83-7673-7c0c-a792-bbd8fbbaf673","2025-09-02_08h25.20.939",NA,NA,371.2664,371.2665,371.2665,371.6163,NA,NA,NA,NA,NA,NA,NA,TRUE,2,1.1526,368.2682,371.2663,0,66,66,5,1,7,35,NA,NA,NA,NA,NA,1,67,"binary"
"FE82391208714D90B59CBCF927ECE95B",1,"01990a99-8aa9-7d37-9d5c-eef591330ef8","01990a83-7673-7c0c-a792-bbd8fbbaf673","2025-09-02_08h25.20.939",NA,NA,374.6164,374.6165,374.6165,374.9663,NA,NA,NA,NA,NA,NA,NA,TRUE,1,0.8197,371.618,374.6163,0,67,67,8,1,10,27,NA,NA,NA,NA,NA,1,68,"binary"
"FE82391208714D90B59CBCF927ECE95B",1,"01990a99-8aa9-7d37-9d5c-eef591330ef8","01990a83-7673-7c0c-a792-bbd8fbbaf673","2025-09-02_08h25.20.939",NA,NA,377.9664,377.9664,377.9665,378.3152,NA,NA,NA,NA,NA,NA,NA,TRUE,2,1.8061,374.9681,377.9663,0,68,68,9,1,10,29,NA,NA,NA,NA,NA,1,69,"binary"
"FE82391208714D90B59CBCF927ECE95B",1,"01990a99-8aa9-7d37-9d5c-eef591330ef8","01990a83-7673-7c0c-a792-bbd8fbbaf673","2025-09-02_08h25.20.939",NA,NA,381.3161,381.3161,381.3161,381.6651,NA,NA,NA,NA,NA,NA,NA,TRUE,2,0.9533,378.3171,381.3159,0,69,69,47,1,30,38,NA,NA,NA,NA,NA,1,70,"binary"
"FE82391208714D90B59CBCF927ECE95B",1,"01990a99-8aa9-7d37-9d5c-eef591330ef8","01990a83-7673-7c0c-a792-bbd8fbbaf673","2025-09-02_08h25.20.939",NA,NA,384.6662,384.6663,384.6664,385.0158,NA,NA,NA,NA,NA,NA,NA,TRUE,2,1.7582,381.6661,384.6661,0,70,70,14,1,12,28,NA,NA,NA,NA,NA,1,71,"binary"
"FE82391208714D90B59CBCF927ECE95B",1,"01990a99-8aa9-7d37-9d5c-eef591330ef8","01990a83-7673-7c0c-a792-bbd8fbbaf673","2025-09-02_08h25.20.939",NA,NA,388.0164,388.0165,388.0165,388.3662,NA,NA,NA,NA,NA,NA,NA,TRUE,1,1.1274,385.0174,388.0163,0,71,71,103,1,200,28,NA,NA,NA,NA,NA,1,72,"binary"
"FE82391208714D90B59CBCF927ECE95B",1,"01990a99-8aa9-7d37-9d5c-eef591330ef8","01990a83-7673-7c0c-a792-bbd8fbbaf673","2025-09-02_08h25.20.939",NA,NA,391.3665,391.3665,391.3665,391.7151,NA,NA,NA,NA,NA,NA,NA,TRUE,2,1.2055,388.368,391.3663,0,72,72,67,1,60,33,NA,NA,NA,NA,NA,1,73,"binary"
"FE82391208714D90B59CBCF927ECE95B",1,"01990a99-8aa9-7d37-9d5c-eef591330ef8","01990a83-7673-7c0c-a792-bbd8fbbaf673","2025-09-02_08h25.20.939",NA,NA,394.716,394.716,394.7161,395.0663,NA,NA,NA,NA,NA,NA,NA,TRUE,2,1.2541,391.7167,394.7159,0,73,73,85,1,100,31,NA,NA,NA,NA,NA,1,74,"binary"
"FE82391208714D90B59CBCF927ECE95B",1,"01990a99-8aa9-7d37-9d5c-eef591330ef8","01990a83-7673-7c0c-a792-bbd8fbbaf673","2025-09-02_08h25.20.939",NA,NA,398.0657,398.0658,398.0659,398.4162,NA,NA,NA,NA,NA,NA,NA,TRUE,1,0.8173,395.0679,398.0656,0,74,74,12,1,12,25,NA,NA,NA,NA,NA,1,75,"binary"
"FE82391208714D90B59CBCF927ECE95B",1,"01990a99-8aa9-7d37-9d5c-eef591330ef8","01990a83-7673-7c0c-a792-bbd8fbbaf673","2025-09-02_08h25.20.939",NA,NA,401.4163,401.4164,401.4164,401.7662,NA,NA,NA,NA,NA,NA,NA,TRUE,1,1.572,398.418,401.4162,0,75,75,42,1,30,26,NA,NA,NA,NA,NA,1,76,"binary"
"FE82391208714D90B59CBCF927ECE95B",1,"01990a99-8aa9-7d37-9d5c-eef591330ef8","01990a83-7673-7c0c-a792-bbd8fbbaf673","2025-09-02_08h25.20.939",NA,NA,404.7663,404.7664,404.7665,405.1162,NA,NA,NA,NA,NA,NA,NA,TRUE,2,0.9946,401.7679,404.7662,0,76,76,49,1,40,33,NA,NA,NA,NA,NA,1,77,"binary"
"FE82391208714D90B59CBCF927ECE95B",1,"01990a99-8aa9-7d37-9d5c-eef591330ef8","01990a83-7673-7c0c-a792-bbd8fbbaf673","2025-09-02_08h25.20.939",NA,NA,408.1153,408.1153,408.1154,408.4662,NA,NA,NA,NA,NA,NA,NA,TRUE,1,2.1363,405.118,408.1152,0,77,77,66,1,60,29,NA,NA,NA,NA,NA,1,78,"binary"
"FE82391208714D90B59CBCF927ECE95B",1,"01990a99-8aa9-7d37-9d5c-eef591330ef8","01990a83-7673-7c0c-a792-bbd8fbbaf673","2025-09-02_08h25.20.939",NA,NA,411.4664,411.4664,411.4664,411.8162,NA,NA,NA,NA,NA,NA,NA,TRUE,2,1.037,408.468,411.4663,0,78,78,89,1,100,54,NA,NA,NA,NA,NA,1,79,"binary"
"FE82391208714D90B59CBCF927ECE95B",1,"01990a99-8aa9-7d37-9d5c-eef591330ef8","01990a83-7673-7c0c-a792-bbd8fbbaf673","2025-09-02_08h25.20.939",NA,NA,414.8164,414.8164,414.8164,415.1663,NA,NA,NA,NA,NA,NA,NA,TRUE,2,1.6775,411.818,414.8162,0,79,79,40,1,28,39,NA,NA,NA,NA,NA,1,80,"binary"
"FE82391208714D90B59CBCF927ECE95B",1,"01990a99-8aa9-7d37-9d5c-eef591330ef8","01990a83-7673-7c0c-a792-bbd8fbbaf673","2025-09-02_08h25.20.939",NA,NA,418.1663,418.1664,418.1665,418.5163,NA,NA,NA,NA,NA,NA,NA,TRUE,2,1.078,415.168,418.1662,0,80,80,71,1,60,54,NA,NA,NA,NA,NA,1,81,"binary"
"FE82391208714D90B59CBCF927ECE95B",1,"01990a99-8aa9-7d37-9d5c-eef591330ef8","01990a83-7673-7c0c-a792-bbd8fbbaf673","2025-09-02_08h25.20.939",NA,NA,421.5164,421.5164,421.5164,421.8657,NA,NA,NA,NA,NA,NA,NA,TRUE,2,1.5269,418.5181,421.5163,0,81,81,78,1,95,31,NA,NA,NA,NA,NA,1,82,"binary"
"FE82391208714D90B59CBCF927ECE95B",1,"01990a99-8aa9-7d37-9d5c-eef591330ef8","01990a83-7673-7c0c-a792-bbd8fbbaf673","2025-09-02_08h25.20.939",NA,NA,424.8663,424.8665,424.8665,425.2155,NA,NA,NA,NA,NA,NA,NA,TRUE,1,1.7894,421.8675,424.8662,0,82,82,43,1,30,27,NA,NA,NA,NA,NA,1,83,"binary"
"FE82391208714D90B59CBCF927ECE95B",1,"01990a99-8aa9-7d37-9d5c-eef591330ef8","01990a83-7673-7c0c-a792-bbd8fbbaf673","2025-09-02_08h25.20.939",NA,NA,428.2164,428.2164,428.2165,428.5652,NA,NA,NA,NA,NA,NA,NA,TRUE,2,0.9154,425.2173,428.2163,0,83,83,91,1,150,33,NA,NA,NA,NA,NA,1,84,"binary"
"FE82391208714D90B59CBCF927ECE95B",1,"01990a99-8aa9-7d37-9d5c-eef591330ef8","01990a83-7673-7c0c-a792-bbd8fbbaf673","2025-09-02_08h25.20.939",NA,NA,431.5661,431.5661,431.5661,431.9162,NA,NA,NA,NA,NA,NA,NA,TRUE,2,0.8115,428.5669,431.566,0,84,84,95,1,150,54,NA,NA,NA,NA,NA,1,85,"binary"
"FE82391208714D90B59CBCF927ECE95B",1,"01990a99-8aa9-7d37-9d5c-eef591330ef8","01990a83-7673-7c0c-a792-bbd8fbbaf673","2025-09-02_08h25.20.939",NA,NA,434.9158,434.916,434.916,435.2662,NA,NA,NA,NA,NA,NA,NA,TRUE,2,1.9037,431.9178,434.9157,0,85,85,73,1,90,30,NA,NA,NA,NA,NA,1,86,"binary"
"FE82391208714D90B59CBCF927ECE95B",1,"01990a99-8aa9-7d37-9d5c-eef591330ef8","01990a83-7673-7c0c-a792-bbd8fbbaf673","2025-09-02_08h25.20.939",NA,NA,438.2653,438.2653,438.2653,438.6164,NA,NA,NA,NA,NA,NA,NA,TRUE,2,0.9222,435.2679,438.2651,0,86,86,88,1,100,46,NA,NA,NA,NA,NA,1,87,"binary"
"FE82391208714D90B59CBCF927ECE95B",1,"01990a99-8aa9-7d37-9d5c-eef591330ef8","01990a83-7673-7c0c-a792-bbd8fbbaf673","2025-09-02_08h25.20.939",NA,NA,441.6164,441.6165,441.6165,441.9659,NA,NA,NA,NA,NA,NA,NA,TRUE,2,1.1186,438.6179,441.6162,0,87,87,65,1,50,54,NA,NA,NA,NA,NA,1,88,"binary"
"FE82391208714D90B59CBCF927ECE95B",1,"01990a99-8aa9-7d37-9d5c-eef591330ef8","01990a83-7673-7c0c-a792-bbd8fbbaf673","2025-09-02_08h25.20.939",NA,NA,444.9664,444.9664,444.9664,445.3163,NA,NA,NA,NA,NA,NA,NA,TRUE,1,1.5129,441.9672,444.9662,0,88,88,36,1,28,26,NA,NA,NA,NA,NA,1,89,"binary"
"FE82391208714D90B59CBCF927ECE95B",1,"01990a99-8aa9-7d37-9d5c-eef591330ef8","01990a83-7673-7c0c-a792-bbd8fbbaf673","2025-09-02_08h25.20.939",NA,NA,448.3164,448.3165,448.3165,448.6663,NA,NA,NA,NA,NA,NA,NA,TRUE,2,0.6654,445.318,448.3163,0,89,89,107,1,200,54,NA,NA,NA,NA,NA,1,90,"binary"
"FE82391208714D90B59CBCF927ECE95B",1,"01990a99-8aa9-7d37-9d5c-eef591330ef8","01990a83-7673-7c0c-a792-bbd8fbbaf673","2025-09-02_08h25.20.939",NA,NA,451.6663,451.6663,451.6665,452.0163,NA,NA,NA,NA,NA,NA,NA,TRUE,2,0.7453,448.6679,451.6662,0,90,90,32,1,25,31,NA,NA,NA,NA,NA,1,91,"binary"
"FE82391208714D90B59CBCF927ECE95B",1,"01990a99-8aa9-7d37-9d5c-eef591330ef8","01990a83-7673-7c0c-a792-bbd8fbbaf673","2025-09-02_08h25.20.939",NA,NA,455.0163,455.0163,455.0163,455.3662,NA,NA,NA,NA,NA,NA,NA,TRUE,2,0.9895,452.018,455.0162,0,91,91,44,1,30,29,NA,NA,NA,NA,NA,1,92,"binary"
"FE82391208714D90B59CBCF927ECE95B",1,"01990a99-8aa9-7d37-9d5c-eef591330ef8","01990a83-7673-7c0c-a792-bbd8fbbaf673","2025-09-02_08h25.20.939",NA,NA,458.3664,458.3664,458.3664,458.716,NA,NA,NA,NA,NA,NA,NA,TRUE,2,0.7339,455.3679,458.3662,0,92,92,57,1,45,35,NA,NA,NA,NA,NA,1,93,"binary"
"FE82391208714D90B59CBCF927ECE95B",1,"01990a99-8aa9-7d37-9d5c-eef591330ef8","01990a83-7673-7c0c-a792-bbd8fbbaf673","2025-09-02_08h25.20.939",NA,NA,461.7164,461.7165,461.7165,462.0662,NA,NA,NA,NA,NA,NA,NA,TRUE,2,0.8791,458.718,461.7163,0,93,93,100,1,180,46,NA,NA,NA,NA,NA,1,94,"binary"
"FE82391208714D90B59CBCF927ECE95B",1,"01990a99-8aa9-7d37-9d5c-eef591330ef8","01990a83-7673-7c0c-a792-bbd8fbbaf673","2025-09-02_08h25.20.939",NA,NA,465.0664,465.0665,465.0665,465.4151,NA,NA,NA,NA,NA,NA,NA,TRUE,2,1.4696,462.0678,465.0663,0,94,94,74,1,90,33,NA,NA,NA,NA,NA,1,95,"binary"
"FE82391208714D90B59CBCF927ECE95B",1,"01990a99-8aa9-7d37-9d5c-eef591330ef8","01990a83-7673-7c0c-a792-bbd8fbbaf673","2025-09-02_08h25.20.939",NA,NA,468.4153,468.4153,468.4153,468.7662,NA,NA,NA,NA,NA,NA,NA,TRUE,2,1.5454,465.4167,468.4152,0,95,95,45,1,30,30,NA,NA,NA,NA,NA,1,96,"binary"
"FE82391208714D90B59CBCF927ECE95B",1,"01990a99-8aa9-7d37-9d5c-eef591330ef8","01990a83-7673-7c0c-a792-bbd8fbbaf673","2025-09-02_08h25.20.939",NA,NA,471.7652,471.7652,471.7653,472.1162,NA,NA,NA,NA,NA,NA,NA,TRUE,2,0.8958,468.768,471.7651,0,96,96,56,1,45,31,NA,NA,NA,NA,NA,1,97,"binary"
"FE82391208714D90B59CBCF927ECE95B",1,"01990a99-8aa9-7d37-9d5c-eef591330ef8","01990a83-7673-7c0c-a792-bbd8fbbaf673","2025-09-02_08h25.20.939",NA,NA,475.1151,475.1151,475.1152,475.4661,NA,NA,NA,NA,NA,NA,NA,TRUE,1,0.9375,472.1179,475.115,0,97,97,54,1,45,26,NA,NA,NA,NA,NA,1,98,"binary"
"FE82391208714D90B59CBCF927ECE95B",1,"01990a99-8aa9-7d37-9d5c-eef591330ef8","01990a83-7673-7c0c-a792-bbd8fbbaf673","2025-09-02_08h25.20.939",NA,NA,478.4665,478.4665,478.4666,478.8163,NA,NA,NA,NA,NA,NA,NA,TRUE,2,0.7143,475.468,478.4664,0,98,98,106,1,200,47,NA,NA,NA,NA,NA,1,99,"binary"
"FE82391208714D90B59CBCF927ECE95B",1,"01990a99-8aa9-7d37-9d5c-eef591330ef8","01990a83-7673-7c0c-a792-bbd8fbbaf673","2025-09-02_08h25.20.939",NA,NA,481.8164,481.8165,481.8165,482.1663,NA,NA,NA,NA,NA,NA,NA,TRUE,2,1.3506,478.818,481.8163,0,99,99,21,1,14,32,NA,NA,NA,NA,NA,1,100,"binary"
"FE82391208714D90B59CBCF927ECE95B",1,"01990a99-8aa9-7d37-9d5c-eef591330ef8","01990a83-7673-7c0c-a792-bbd8fbbaf673","2025-09-02_08h25.20.939",NA,NA,485.1663,485.1664,485.1664,485.5163,NA,NA,NA,NA,NA,NA,NA,TRUE,2,1.5367,482.1681,485.1663,0,100,100,61,1,50,30,NA,NA,NA,NA,NA,1,101,"binary"
"FE82391208714D90B59CBCF927ECE95B",1,"01990a99-8aa9-7d37-9d5c-eef591330ef8","01990a83-7673-7c0c-a792-bbd8fbbaf673","2025-09-02_08h25.20.939",NA,NA,488.5163,488.5163,488.5163,488.8662,NA,NA,NA,NA,NA,NA,NA,TRUE,2,1.2119,485.518,488.5161,0,101,101,69,1,60,40,NA,NA,NA,NA,NA,1,102,"binary"
"FE82391208714D90B59CBCF927ECE95B",1,"01990a99-8aa9-7d37-9d5c-eef591330ef8","01990a83-7673-7c0c-a792-bbd8fbbaf673","2025-09-02_08h25.20.939",NA,NA,491.8664,491.8665,491.8665,492.2162,NA,NA,NA,NA,NA,NA,NA,TRUE,2,0.7271,488.868,491.8663,0,102,102,105,1,200,39,NA,NA,NA,NA,NA,1,103,"binary"
"FE82391208714D90B59CBCF927ECE95B",1,"01990a99-8aa9-7d37-9d5c-eef591330ef8","01990a83-7673-7c0c-a792-bbd8fbbaf673","2025-09-02_08h25.20.939",NA,NA,495.2164,495.2164,495.2164,495.5656,NA,NA,NA,NA,NA,NA,NA,TRUE,1,1.7996,492.2178,495.2163,0,103,103,37,1,28,28,NA,NA,NA,NA,NA,1,104,"binary"
"FE82391208714D90B59CBCF927ECE95B",1,"01990a99-8aa9-7d37-9d5c-eef591330ef8","01990a83-7673-7c0c-a792-bbd8fbbaf673","2025-09-02_08h25.20.939",NA,NA,498.5664,498.5664,498.5665,498.9151,NA,NA,NA,NA,NA,NA,NA,TRUE,2,0.8147,495.5673,498.5663,0,104,104,58,1,45,40,NA,NA,NA,NA,NA,1,105,"binary"
"FE82391208714D90B59CBCF927ECE95B",1,"01990a99-8aa9-7d37-9d5c-eef591330ef8","01990a83-7673-7c0c-a792-bbd8fbbaf673","2025-09-02_08h25.20.939",NA,NA,501.9164,501.9165,501.9165,502.2652,NA,NA,NA,NA,NA,NA,NA,TRUE,2,1.247,498.9167,501.9163,0,105,105,38,1,28,32,NA,NA,NA,NA,NA,1,106,"binary"
"FE82391208714D90B59CBCF927ECE95B",1,"01990a99-8aa9-7d37-9d5c-eef591330ef8","01990a83-7673-7c0c-a792-bbd8fbbaf673","2025-09-02_08h25.20.939",NA,NA,505.266,505.2662,505.2662,505.6162,NA,NA,NA,NA,NA,NA,NA,TRUE,2,1.3369,502.2669,505.266,0,106,106,26,1,21,29,NA,NA,NA,NA,NA,1,107,"binary"
"FE82391208714D90B59CBCF927ECE95B",1,"01990a99-8aa9-7d37-9d5c-eef591330ef8","01990a83-7673-7c0c-a792-bbd8fbbaf673","2025-09-02_08h25.20.939",NA,NA,508.6158,508.6159,508.6159,508.9662,NA,NA,NA,NA,NA,NA,NA,TRUE,1,1.8836,505.6179,508.6157,0,107,107,24,1,21,26,NA,NA,NA,NA,NA,1,108,"binary"
"FE82391208714D90B59CBCF927ECE95B",1,"01990a99-8aa9-7d37-9d5c-eef591330ef8","01990a83-7673-7c0c-a792-bbd8fbbaf673","2025-09-02_08h25.20.939",NA,NA,556.1497,556.1497,556.1497,556.4995,NA,NA,NA,NA,NA,NA,NA,TRUE,2,1.4169,553.1621,556.1495,NA,NA,NA,NA,NA,95,40,0,0,0,81,1,2,1,"binary"
"FE82391208714D90B59CBCF927ECE95B",1,"01990a99-8aa9-7d37-9d5c-eef591330ef8","01990a83-7673-7c0c-a792-bbd8fbbaf673","2025-09-02_08h25.20.939",NA,NA,559.4997,559.4998,559.4998,559.833,NA,NA,NA,NA,NA,NA,NA,TRUE,2,1.7827,556.5015,559.4996,NA,NA,NA,NA,NA,40,40,0,1,1,51,1,2,2,"binary"
"FE82391208714D90B59CBCF927ECE95B",1,"01990a99-8aa9-7d37-9d5c-eef591330ef8","01990a83-7673-7c0c-a792-bbd8fbbaf673","2025-09-02_08h25.20.939",NA,NA,562.8331,562.8332,562.8332,563.1995,NA,NA,NA,NA,NA,NA,NA,TRUE,2,1.5345,559.8346,562.833,NA,NA,NA,NA,NA,60,47,0,2,2,70,1,2,3,"binary"
"FE82391208714D90B59CBCF927ECE95B",1,"01990a99-8aa9-7d37-9d5c-eef591330ef8","01990a83-7673-7c0c-a792-bbd8fbbaf673","2025-09-02_08h25.20.939",NA,NA,566.1997,566.1997,566.1998,566.5324,NA,NA,NA,NA,NA,NA,NA,TRUE,2,1.6863,563.2013,566.1996,NA,NA,NA,NA,NA,21,29,0,3,3,26,1,2,4,"binary"
"FE82391208714D90B59CBCF927ECE95B",1,"01990a99-8aa9-7d37-9d5c-eef591330ef8","01990a83-7673-7c0c-a792-bbd8fbbaf673","2025-09-02_08h25.20.939",NA,NA,569.533,569.533,569.533,569.8989,NA,NA,NA,NA,NA,NA,NA,TRUE,2,1.2202,566.534,569.5329,NA,NA,NA,NA,NA,30,29,0,4,4,44,1,2,5,"binary"
"FE82391208714D90B59CBCF927ECE95B",1,"01990a99-8aa9-7d37-9d5c-eef591330ef8","01990a83-7673-7c0c-a792-bbd8fbbaf673","2025-09-02_08h25.20.939",NA,NA,572.8997,572.8997,572.8997,573.2329,NA,NA,NA,NA,NA,NA,NA,TRUE,2,2.3074,569.9005,572.8995,NA,NA,NA,NA,NA,95,31,0,5,5,78,1,2,6,"binary"
"FE82391208714D90B59CBCF927ECE95B",1,"01990a99-8aa9-7d37-9d5c-eef591330ef8","01990a83-7673-7c0c-a792-bbd8fbbaf673","2025-09-02_08h25.20.939",NA,NA,576.2326,576.2327,576.2327,576.5996,NA,NA,NA,NA,NA,NA,NA,TRUE,2,2.1476,573.2346,576.2325,NA,NA,NA,NA,NA,30,27,0,6,6,43,1,2,7,"binary"
"FE82391208714D90B59CBCF927ECE95B",1,"01990a99-8aa9-7d37-9d5c-eef591330ef8","01990a83-7673-7c0c-a792-bbd8fbbaf673","2025-09-02_08h25.20.939",NA,NA,579.5993,579.5994,579.5994,579.9319,NA,NA,NA,NA,NA,NA,NA,TRUE,2,0.766,576.6012,579.5992,NA,NA,NA,NA,NA,45,46,0,7,7,59,1,2,8,"binary"
"FE82391208714D90B59CBCF927ECE95B",1,"01990a99-8aa9-7d37-9d5c-eef591330ef8","01990a83-7673-7c0c-a792-bbd8fbbaf673","2025-09-02_08h25.20.939",NA,NA,582.9331,582.9332,582.9332,583.2996,NA,NA,NA,NA,NA,NA,NA,TRUE,2,1.0451,579.9338,582.933,NA,NA,NA,NA,NA,10,29,0,8,8,9,1,2,9,"binary"
"FE82391208714D90B59CBCF927ECE95B",1,"01990a99-8aa9-7d37-9d5c-eef591330ef8","01990a83-7673-7c0c-a792-bbd8fbbaf673","2025-09-02_08h25.20.939",NA,NA,586.2998,586.2998,586.2998,586.6329,NA,NA,NA,NA,NA,NA,NA,TRUE,2,0.87,583.3014,586.2996,NA,NA,NA,NA,NA,30,38,0,9,9,47,1,2,10,"binary"
"FE82391208714D90B59CBCF927ECE95B",1,"01990a99-8aa9-7d37-9d5c-eef591330ef8","01990a83-7673-7c0c-a792-bbd8fbbaf673","2025-09-02_08h25.20.939",NA,NA,589.6331,589.6331,589.6331,589.9996,NA,NA,NA,NA,NA,NA,NA,TRUE,2,1.6773,586.6346,589.633,NA,NA,NA,NA,NA,50,30,0,10,10,61,1,2,11,"binary"
"FE82391208714D90B59CBCF927ECE95B",1,"01990a99-8aa9-7d37-9d5c-eef591330ef8","01990a83-7673-7c0c-a792-bbd8fbbaf673","2025-09-02_08h25.20.939",NA,NA,592.9997,592.9998,592.9998,593.333,NA,NA,NA,NA,NA,NA,NA,TRUE,2,0.7458,590.0014,592.9996,NA,NA,NA,NA,NA,95,33,0,11,11,79,1,2,12,"binary"
"FE82391208714D90B59CBCF927ECE95B",1,"01990a99-8aa9-7d37-9d5c-eef591330ef8","01990a83-7673-7c0c-a792-bbd8fbbaf673","2025-09-02_08h25.20.939",NA,NA,596.3327,596.3327,596.3327,596.6987,NA,NA,NA,NA,NA,NA,NA,TRUE,1,0.9759,593.3347,596.3325,NA,NA,NA,NA,NA,100,26,0,12,12,84,1,2,13,"binary"
"FE82391208714D90B59CBCF927ECE95B",1,"01990a99-8aa9-7d37-9d5c-eef591330ef8","01990a83-7673-7c0c-a792-bbd8fbbaf673","2025-09-02_08h25.20.939",NA,NA,599.6992,599.6993,599.6993,600.0326,NA,NA,NA,NA,NA,NA,NA,TRUE,1,1.0885,596.7003,599.6992,NA,NA,NA,NA,NA,7,25,0,13,13,0,1,2,14,"binary"
"FE82391208714D90B59CBCF927ECE95B",1,"01990a99-8aa9-7d37-9d5c-eef591330ef8","01990a83-7673-7c0c-a792-bbd8fbbaf673","2025-09-02_08h25.20.939",NA,NA,603.0331,603.0331,603.0331,603.3994,NA,NA,NA,NA,NA,NA,NA,TRUE,2,1.2517,600.0345,603.0329,NA,NA,NA,NA,NA,45,31,0,14,14,56,1,2,15,"binary"
"FE82391208714D90B59CBCF927ECE95B",1,"01990a99-8aa9-7d37-9d5c-eef591330ef8","01990a83-7673-7c0c-a792-bbd8fbbaf673","2025-09-02_08h25.20.939",NA,NA,606.3998,606.3998,606.3998,606.7319,NA,NA,NA,NA,NA,NA,NA,TRUE,1,0.8704,603.4012,606.3997,NA,NA,NA,NA,NA,10,25,0,15,15,6,1,2,16,"binary"
"FE82391208714D90B59CBCF927ECE95B",1,"01990a99-8aa9-7d37-9d5c-eef591330ef8","01990a83-7673-7c0c-a792-bbd8fbbaf673","2025-09-02_08h25.20.939",NA,NA,609.733,609.733,609.733,610.0986,NA,NA,NA,NA,NA,NA,NA,TRUE,2,1.1452,606.7337,609.7329,NA,NA,NA,NA,NA,180,46,0,16,16,100,1,2,17,"binary"
"FE82391208714D90B59CBCF927ECE95B",1,"01990a99-8aa9-7d37-9d5c-eef591330ef8","01990a83-7673-7c0c-a792-bbd8fbbaf673","2025-09-02_08h25.20.939",NA,NA,613.0998,613.0998,613.0998,613.4328,NA,NA,NA,NA,NA,NA,NA,TRUE,2,0.8318,610.1005,613.0996,NA,NA,NA,NA,NA,10,32,0,17,17,11,1,2,18,"binary"
"FE82391208714D90B59CBCF927ECE95B",1,"01990a99-8aa9-7d37-9d5c-eef591330ef8","01990a83-7673-7c0c-a792-bbd8fbbaf673","2025-09-02_08h25.20.939",NA,NA,616.432,616.432,616.432,616.7996,NA,NA,NA,NA,NA,NA,NA,TRUE,2,1.6498,613.4345,616.4318,NA,NA,NA,NA,NA,150,31,0,18,18,90,1,2,19,"binary"
"FE82391208714D90B59CBCF927ECE95B",1,"01990a99-8aa9-7d37-9d5c-eef591330ef8","01990a83-7673-7c0c-a792-bbd8fbbaf673","2025-09-02_08h25.20.939",NA,NA,619.7997,619.7997,619.7998,620.1329,NA,NA,NA,NA,NA,NA,NA,TRUE,2,1.8536,616.8013,619.7996,NA,NA,NA,NA,NA,45,40,0,19,19,58,1,2,20,"binary"
"FE82391208714D90B59CBCF927ECE95B",1,"01990a99-8aa9-7d37-9d5c-eef591330ef8","01990a83-7673-7c0c-a792-bbd8fbbaf673","2025-09-02_08h25.20.939",NA,NA,623.1331,623.1331,623.1331,623.4996,NA,NA,NA,NA,NA,NA,NA,TRUE,1,1.0081,620.1345,623.133,NA,NA,NA,NA,NA,30,26,0,20,20,42,1,2,21,"binary"
"FE82391208714D90B59CBCF927ECE95B",1,"01990a99-8aa9-7d37-9d5c-eef591330ef8","01990a83-7673-7c0c-a792-bbd8fbbaf673","2025-09-02_08h25.20.939",NA,NA,626.4997,626.4997,626.4998,626.8329,NA,NA,NA,NA,NA,NA,NA,TRUE,2,1.1024,623.5014,626.4996,NA,NA,NA,NA,NA,14,35,0,21,21,22,1,2,22,"binary"
"FE82391208714D90B59CBCF927ECE95B",1,"01990a99-8aa9-7d37-9d5c-eef591330ef8","01990a83-7673-7c0c-a792-bbd8fbbaf673","2025-09-02_08h25.20.939",NA,NA,629.833,629.833,629.8331,630.1995,NA,NA,NA,NA,NA,NA,NA,TRUE,1,1.0421,626.8347,629.8329,NA,NA,NA,NA,NA,7,26,0,22,22,1,1,2,23,"binary"
"FE82391208714D90B59CBCF927ECE95B",1,"01990a99-8aa9-7d37-9d5c-eef591330ef8","01990a83-7673-7c0c-a792-bbd8fbbaf673","2025-09-02_08h25.20.939",NA,NA,633.1997,633.1997,633.1997,633.5329,NA,NA,NA,NA,NA,NA,NA,TRUE,2,0.8527,630.2015,633.1996,NA,NA,NA,NA,NA,150,40,0,23,23,93,1,2,24,"binary"
"FE82391208714D90B59CBCF927ECE95B",1,"01990a99-8aa9-7d37-9d5c-eef591330ef8","01990a83-7673-7c0c-a792-bbd8fbbaf673","2025-09-02_08h25.20.939",NA,NA,636.5331,636.5331,636.5331,636.8996,NA,NA,NA,NA,NA,NA,NA,TRUE,2,0.9544,633.5345,636.5329,NA,NA,NA,NA,NA,150,47,0,24,24,94,1,2,25,"binary"
"FE82391208714D90B59CBCF927ECE95B",1,"01990a99-8aa9-7d37-9d5c-eef591330ef8","01990a83-7673-7c0c-a792-bbd8fbbaf673","2025-09-02_08h25.20.939",NA,NA,639.8995,639.8995,639.8995,640.2324,NA,NA,NA,NA,NA,NA,NA,TRUE,2,2.8707,636.9013,639.8994,NA,NA,NA,NA,NA,45,29,0,25,25,55,1,2,26,"binary"
"FE82391208714D90B59CBCF927ECE95B",1,"01990a99-8aa9-7d37-9d5c-eef591330ef8","01990a83-7673-7c0c-a792-bbd8fbbaf673","2025-09-02_08h25.20.939",NA,NA,643.233,643.233,643.233,643.599,NA,NA,NA,NA,NA,NA,NA,TRUE,2,1.2233,640.2341,643.2329,NA,NA,NA,NA,NA,12,35,0,26,26,17,1,2,27,"binary"
"FE82391208714D90B59CBCF927ECE95B",1,"01990a99-8aa9-7d37-9d5c-eef591330ef8","01990a83-7673-7c0c-a792-bbd8fbbaf673","2025-09-02_08h25.20.939",NA,NA,646.5997,646.5997,646.5997,646.933,NA,NA,NA,NA,NA,NA,NA,TRUE,2,0.8994,643.6008,646.5996,NA,NA,NA,NA,NA,150,35,0,27,27,92,1,2,28,"binary"
"FE82391208714D90B59CBCF927ECE95B",1,"01990a99-8aa9-7d37-9d5c-eef591330ef8","01990a83-7673-7c0c-a792-bbd8fbbaf673","2025-09-02_08h25.20.939",NA,NA,649.9324,649.9325,649.9325,650.2985,NA,NA,NA,NA,NA,NA,NA,TRUE,1,0.779,646.9346,649.9323,NA,NA,NA,NA,NA,14,25,0,28,28,18,1,2,29,"binary"
"FE82391208714D90B59CBCF927ECE95B",1,"01990a99-8aa9-7d37-9d5c-eef591330ef8","01990a83-7673-7c0c-a792-bbd8fbbaf673","2025-09-02_08h25.20.939",NA,NA,653.2993,653.2994,653.2994,653.6329,NA,NA,NA,NA,NA,NA,NA,TRUE,2,1.1656,650.3005,653.2992,NA,NA,NA,NA,NA,60,29,0,29,29,66,1,2,30,"binary"
"FE82391208714D90B59CBCF927ECE95B",1,"01990a99-8aa9-7d37-9d5c-eef591330ef8","01990a83-7673-7c0c-a792-bbd8fbbaf673","2025-09-02_08h25.20.939",NA,NA,656.633,656.6331,656.6331,656.9989,NA,NA,NA,NA,NA,NA,NA,TRUE,2,0.6372,653.6346,656.6329,NA,NA,NA,NA,NA,200,47,0,30,30,106,1,2,31,"binary"
"FE82391208714D90B59CBCF927ECE95B",1,"01990a99-8aa9-7d37-9d5c-eef591330ef8","01990a83-7673-7c0c-a792-bbd8fbbaf673","2025-09-02_08h25.20.939",NA,NA,659.9986,659.9987,659.9987,660.3329,NA,NA,NA,NA,NA,NA,NA,TRUE,1,0.7707,657.0007,659.9985,NA,NA,NA,NA,NA,21,26,0,31,31,24,1,2,32,"binary"
"FE82391208714D90B59CBCF927ECE95B",1,"01990a99-8aa9-7d37-9d5c-eef591330ef8","01990a83-7673-7c0c-a792-bbd8fbbaf673","2025-09-02_08h25.20.939",NA,NA,663.3331,663.3331,663.3333,663.6995,NA,NA,NA,NA,NA,NA,NA,TRUE,2,0.6324,660.3349,663.333,NA,NA,NA,NA,NA,28,39,0,32,32,40,1,2,33,"binary"
"FE82391208714D90B59CBCF927ECE95B",1,"01990a99-8aa9-7d37-9d5c-eef591330ef8","01990a83-7673-7c0c-a792-bbd8fbbaf673","2025-09-02_08h25.20.939",NA,NA,666.6997,666.6997,666.6997,667.0329,NA,NA,NA,NA,NA,NA,NA,TRUE,1,2.3735,663.7013,666.6996,NA,NA,NA,NA,NA,50,27,0,33,33,60,1,2,34,"binary"
"FE82391208714D90B59CBCF927ECE95B",1,"01990a99-8aa9-7d37-9d5c-eef591330ef8","01990a83-7673-7c0c-a792-bbd8fbbaf673","2025-09-02_08h25.20.939",NA,NA,670.033,670.0331,670.0331,670.3996,NA,NA,NA,NA,NA,NA,NA,TRUE,2,0.8785,667.0345,670.033,NA,NA,NA,NA,NA,100,31,0,34,34,85,1,2,35,"binary"
"FE82391208714D90B59CBCF927ECE95B",1,"01990a99-8aa9-7d37-9d5c-eef591330ef8","01990a83-7673-7c0c-a792-bbd8fbbaf673","2025-09-02_08h25.20.939",NA,NA,673.3997,673.3998,673.3998,673.7327,NA,NA,NA,NA,NA,NA,NA,TRUE,2,0.7729,670.4013,673.3997,NA,NA,NA,NA,NA,14,39,0,35,35,23,1,2,36,"binary"
"FE82391208714D90B59CBCF927ECE95B",1,"01990a99-8aa9-7d37-9d5c-eef591330ef8","01990a83-7673-7c0c-a792-bbd8fbbaf673","2025-09-02_08h25.20.939",NA,NA,676.7331,676.7331,676.7331,677.0995,NA,NA,NA,NA,NA,NA,NA,TRUE,1,1.6085,673.7343,676.733,NA,NA,NA,NA,NA,200,28,0,36,36,103,1,2,37,"binary"
"FE82391208714D90B59CBCF927ECE95B",1,"01990a99-8aa9-7d37-9d5c-eef591330ef8","01990a83-7673-7c0c-a792-bbd8fbbaf673","2025-09-02_08h25.20.939",NA,NA,680.0997,680.0997,680.0997,680.4319,NA,NA,NA,NA,NA,NA,NA,TRUE,2,1.2203,677.1011,680.0996,NA,NA,NA,NA,NA,14,28,0,37,37,20,1,2,38,"binary"
"FE82391208714D90B59CBCF927ECE95B",1,"01990a99-8aa9-7d37-9d5c-eef591330ef8","01990a83-7673-7c0c-a792-bbd8fbbaf673","2025-09-02_08h25.20.939",NA,NA,683.4326,683.4326,683.4326,683.7988,NA,NA,NA,NA,NA,NA,NA,TRUE,1,1.3168,680.4335,683.4325,NA,NA,NA,NA,NA,180,27,0,38,38,96,1,2,39,"binary"
"FE82391208714D90B59CBCF927ECE95B",1,"01990a99-8aa9-7d37-9d5c-eef591330ef8","01990a83-7673-7c0c-a792-bbd8fbbaf673","2025-09-02_08h25.20.939",NA,NA,686.7998,686.7998,686.7998,687.1329,NA,NA,NA,NA,NA,NA,NA,TRUE,2,0.806,683.8005,686.7997,NA,NA,NA,NA,NA,40,54,0,39,39,53,1,2,40,"binary"
"FE82391208714D90B59CBCF927ECE95B",1,"01990a99-8aa9-7d37-9d5c-eef591330ef8","01990a83-7673-7c0c-a792-bbd8fbbaf673","2025-09-02_08h25.20.939",NA,NA,690.1322,690.1322,690.1322,690.4989,NA,NA,NA,NA,NA,NA,NA,TRUE,2,1.3116,687.1346,690.132,NA,NA,NA,NA,NA,12,28,0,40,40,14,1,2,41,"binary"
"FE82391208714D90B59CBCF927ECE95B",1,"01990a99-8aa9-7d37-9d5c-eef591330ef8","01990a83-7673-7c0c-a792-bbd8fbbaf673","2025-09-02_08h25.20.939",NA,NA,693.4989,693.4989,693.4989,693.8329,NA,NA,NA,NA,NA,NA,NA,TRUE,2,0.7111,690.5006,693.4987,NA,NA,NA,NA,NA,90,46,0,41,41,76,1,2,42,"binary"
"FE82391208714D90B59CBCF927ECE95B",1,"01990a99-8aa9-7d37-9d5c-eef591330ef8","01990a83-7673-7c0c-a792-bbd8fbbaf673","2025-09-02_08h25.20.939",NA,NA,696.8331,696.8331,696.8331,697.1996,NA,NA,NA,NA,NA,NA,NA,TRUE,2,0.6806,693.8347,696.833,NA,NA,NA,NA,NA,50,35,0,42,42,62,1,2,43,"binary"
"FE82391208714D90B59CBCF927ECE95B",1,"01990a99-8aa9-7d37-9d5c-eef591330ef8","01990a83-7673-7c0c-a792-bbd8fbbaf673","2025-09-02_08h25.20.939",NA,NA,700.1997,700.1997,700.1997,700.5329,NA,NA,NA,NA,NA,NA,NA,TRUE,1,1.065,697.2014,700.1996,NA,NA,NA,NA,NA,200,26,0,43,43,102,1,2,44,"binary"
"FE82391208714D90B59CBCF927ECE95B",1,"01990a99-8aa9-7d37-9d5c-eef591330ef8","01990a83-7673-7c0c-a792-bbd8fbbaf673","2025-09-02_08h25.20.939",NA,NA,703.533,703.5331,703.5331,703.8994,NA,NA,NA,NA,NA,NA,NA,TRUE,2,1.5829,700.5345,703.5329,NA,NA,NA,NA,NA,90,30,0,44,44,73,1,2,45,"binary"
"FE82391208714D90B59CBCF927ECE95B",1,"01990a99-8aa9-7d37-9d5c-eef591330ef8","01990a83-7673-7c0c-a792-bbd8fbbaf673","2025-09-02_08h25.20.939",NA,NA,706.8997,706.8998,706.8998,707.2329,NA,NA,NA,NA,NA,NA,NA,TRUE,2,1.1226,703.9015,706.8996,NA,NA,NA,NA,NA,7,32,0,45,45,4,1,2,46,"binary"
"FE82391208714D90B59CBCF927ECE95B",1,"01990a99-8aa9-7d37-9d5c-eef591330ef8","01990a83-7673-7c0c-a792-bbd8fbbaf673","2025-09-02_08h25.20.939",NA,NA,710.2328,710.2329,710.2329,710.5996,NA,NA,NA,NA,NA,NA,NA,TRUE,2,0.8122,707.2348,710.2327,NA,NA,NA,NA,NA,12,31,0,46,46,15,1,2,47,"binary"
"FE82391208714D90B59CBCF927ECE95B",1,"01990a99-8aa9-7d37-9d5c-eef591330ef8","01990a83-7673-7c0c-a792-bbd8fbbaf673","2025-09-02_08h25.20.939",NA,NA,713.5997,713.5997,713.5998,713.9316,NA,NA,NA,NA,NA,NA,NA,TRUE,1,1.0101,710.6011,713.5997,NA,NA,NA,NA,NA,28,26,0,47,47,36,1,2,48,"binary"
"FE82391208714D90B59CBCF927ECE95B",1,"01990a99-8aa9-7d37-9d5c-eef591330ef8","01990a83-7673-7c0c-a792-bbd8fbbaf673","2025-09-02_08h25.20.939",NA,NA,716.933,716.9331,716.9331,717.2992,NA,NA,NA,NA,NA,NA,NA,TRUE,2,0.8529,713.9328,716.9329,NA,NA,NA,NA,NA,40,33,0,48,48,49,1,2,49,"binary"
"FE82391208714D90B59CBCF927ECE95B",1,"01990a99-8aa9-7d37-9d5c-eef591330ef8","01990a83-7673-7c0c-a792-bbd8fbbaf673","2025-09-02_08h25.20.939",NA,NA,720.2997,720.2997,720.2998,720.6329,NA,NA,NA,NA,NA,NA,NA,TRUE,2,1.4212,717.3008,720.2996,NA,NA,NA,NA,NA,50,46,0,49,49,64,1,2,50,"binary"
"FE82391208714D90B59CBCF927ECE95B",1,"01990a99-8aa9-7d37-9d5c-eef591330ef8","01990a83-7673-7c0c-a792-bbd8fbbaf673","2025-09-02_08h25.20.939",NA,NA,723.6326,723.6326,723.6326,723.9991,NA,NA,NA,NA,NA,NA,NA,TRUE,2,1.0424,720.6348,723.6325,NA,NA,NA,NA,NA,14,32,0,50,50,21,1,2,51,"binary"
"FE82391208714D90B59CBCF927ECE95B",1,"01990a99-8aa9-7d37-9d5c-eef591330ef8","01990a83-7673-7c0c-a792-bbd8fbbaf673","2025-09-02_08h25.20.939",NA,NA,726.9995,726.9995,726.9995,727.333,NA,NA,NA,NA,NA,NA,NA,TRUE,1,1.289,724.0008,726.9993,NA,NA,NA,NA,NA,90,26,0,51,51,72,1,2,52,"binary"
"FE82391208714D90B59CBCF927ECE95B",1,"01990a99-8aa9-7d37-9d5c-eef591330ef8","01990a83-7673-7c0c-a792-bbd8fbbaf673","2025-09-02_08h25.20.939",NA,NA,730.3319,730.3319,730.3319,730.6996,NA,NA,NA,NA,NA,NA,NA,TRUE,2,1.1554,727.3346,730.3318,NA,NA,NA,NA,NA,25,31,0,52,52,32,1,2,53,"binary"
"FE82391208714D90B59CBCF927ECE95B",1,"01990a99-8aa9-7d37-9d5c-eef591330ef8","01990a83-7673-7c0c-a792-bbd8fbbaf673","2025-09-02_08h25.20.939",NA,NA,733.6985,733.6986,733.6986,734.0328,NA,NA,NA,NA,NA,NA,NA,TRUE,2,0.9114,730.7013,733.6984,NA,NA,NA,NA,NA,25,46,0,53,53,35,1,2,54,"binary"
"FE82391208714D90B59CBCF927ECE95B",1,"01990a99-8aa9-7d37-9d5c-eef591330ef8","01990a83-7673-7c0c-a792-bbd8fbbaf673","2025-09-02_08h25.20.939",NA,NA,737.0331,737.0331,737.0331,737.3996,NA,NA,NA,NA,NA,NA,NA,TRUE,2,0.8907,734.0346,737.033,NA,NA,NA,NA,NA,21,30,0,54,54,27,1,2,55,"binary"
"FE82391208714D90B59CBCF927ECE95B",1,"01990a99-8aa9-7d37-9d5c-eef591330ef8","01990a83-7673-7c0c-a792-bbd8fbbaf673","2025-09-02_08h25.20.939",NA,NA,740.3998,740.3998,740.3998,740.7329,NA,NA,NA,NA,NA,NA,NA,TRUE,2,0.6703,737.4014,740.3996,NA,NA,NA,NA,NA,95,35,0,55,55,80,1,2,56,"binary"
"FE82391208714D90B59CBCF927ECE95B",1,"01990a99-8aa9-7d37-9d5c-eef591330ef8","01990a83-7673-7c0c-a792-bbd8fbbaf673","2025-09-02_08h25.20.939",NA,NA,743.7331,743.7331,743.7331,744.0986,NA,NA,NA,NA,NA,NA,NA,TRUE,2,1.6581,740.7346,743.733,NA,NA,NA,NA,NA,200,54,0,56,56,107,1,2,57,"binary"
"FE82391208714D90B59CBCF927ECE95B",1,"01990a99-8aa9-7d37-9d5c-eef591330ef8","01990a83-7673-7c0c-a792-bbd8fbbaf673","2025-09-02_08h25.20.939",NA,NA,747.0988,747.0989,747.0989,747.4328,NA,NA,NA,NA,NA,NA,NA,TRUE,2,1.8995,744.1001,747.0986,NA,NA,NA,NA,NA,60,33,0,57,57,67,1,2,58,"binary"
"FE82391208714D90B59CBCF927ECE95B",1,"01990a99-8aa9-7d37-9d5c-eef591330ef8","01990a83-7673-7c0c-a792-bbd8fbbaf673","2025-09-02_08h25.20.939",NA,NA,750.4331,750.4331,750.4331,750.7995,NA,NA,NA,NA,NA,NA,NA,TRUE,2,0.6188,747.4345,750.433,NA,NA,NA,NA,NA,95,47,0,58,58,82,1,2,59,"binary"
"FE82391208714D90B59CBCF927ECE95B",1,"01990a99-8aa9-7d37-9d5c-eef591330ef8","01990a83-7673-7c0c-a792-bbd8fbbaf673","2025-09-02_08h25.20.939",NA,NA,753.7999,753.7999,753.7999,754.132,NA,NA,NA,NA,NA,NA,NA,TRUE,2,0.6162,750.8013,753.7997,NA,NA,NA,NA,NA,28,32,0,59,59,38,1,2,60,"binary"
"FE82391208714D90B59CBCF927ECE95B",1,"01990a99-8aa9-7d37-9d5c-eef591330ef8","01990a83-7673-7c0c-a792-bbd8fbbaf673","2025-09-02_08h25.20.939",NA,NA,757.133,757.1331,757.1331,757.4996,NA,NA,NA,NA,NA,NA,NA,TRUE,2,2.1368,754.1337,757.1329,NA,NA,NA,NA,NA,150,33,0,60,60,91,1,2,61,"binary"
"FE82391208714D90B59CBCF927ECE95B",1,"01990a99-8aa9-7d37-9d5c-eef591330ef8","01990a83-7673-7c0c-a792-bbd8fbbaf673","2025-09-02_08h25.20.939",NA,NA,760.4997,760.4997,760.4997,760.833,NA,NA,NA,NA,NA,NA,NA,TRUE,2,0.577,757.5013,760.4995,NA,NA,NA,NA,NA,180,39,0,61,61,99,1,2,62,"binary"
"FE82391208714D90B59CBCF927ECE95B",1,"01990a99-8aa9-7d37-9d5c-eef591330ef8","01990a83-7673-7c0c-a792-bbd8fbbaf673","2025-09-02_08h25.20.939",NA,NA,763.8323,763.8323,763.8323,764.1997,NA,NA,NA,NA,NA,NA,NA,TRUE,2,0.6623,760.8345,763.8322,NA,NA,NA,NA,NA,7,30,0,62,62,3,1,2,63,"binary"
"FE82391208714D90B59CBCF927ECE95B",1,"01990a99-8aa9-7d37-9d5c-eef591330ef8","01990a83-7673-7c0c-a792-bbd8fbbaf673","2025-09-02_08h25.20.939",NA,NA,767.1993,767.1993,767.1993,767.5323,NA,NA,NA,NA,NA,NA,NA,TRUE,2,0.6027,764.2019,767.1992,NA,NA,NA,NA,NA,60,40,0,63,63,69,1,2,64,"binary"
"FE82391208714D90B59CBCF927ECE95B",1,"01990a99-8aa9-7d37-9d5c-eef591330ef8","01990a83-7673-7c0c-a792-bbd8fbbaf673","2025-09-02_08h25.20.939",NA,NA,770.5331,770.5331,770.5332,770.8995,NA,NA,NA,NA,NA,NA,NA,TRUE,2,0.67,767.534,770.533,NA,NA,NA,NA,NA,60,54,0,64,64,71,1,2,65,"binary"
"FE82391208714D90B59CBCF927ECE95B",1,"01990a99-8aa9-7d37-9d5c-eef591330ef8","01990a83-7673-7c0c-a792-bbd8fbbaf673","2025-09-02_08h25.20.939",NA,NA,773.8997,773.8997,773.8997,774.2329,NA,NA,NA,NA,NA,NA,NA,TRUE,2,0.6497,770.9012,773.8996,NA,NA,NA,NA,NA,10,30,0,65,65,10,1,2,66,"binary"
"FE82391208714D90B59CBCF927ECE95B",1,"01990a99-8aa9-7d37-9d5c-eef591330ef8","01990a83-7673-7c0c-a792-bbd8fbbaf673","2025-09-02_08h25.20.939",NA,NA,777.2331,777.2331,777.2331,777.5995,NA,NA,NA,NA,NA,NA,NA,TRUE,2,0.9081,774.2346,777.233,NA,NA,NA,NA,NA,40,27,0,66,66,48,1,2,67,"binary"
"FE82391208714D90B59CBCF927ECE95B",1,"01990a99-8aa9-7d37-9d5c-eef591330ef8","01990a83-7673-7c0c-a792-bbd8fbbaf673","2025-09-02_08h25.20.939",NA,NA,780.5997,780.5997,780.5997,780.9328,NA,NA,NA,NA,NA,NA,NA,TRUE,1,2.7019,777.6011,780.5996,NA,NA,NA,NA,NA,25,27,0,67,67,30,1,2,68,"binary"
"FE82391208714D90B59CBCF927ECE95B",1,"01990a99-8aa9-7d37-9d5c-eef591330ef8","01990a83-7673-7c0c-a792-bbd8fbbaf673","2025-09-02_08h25.20.939",NA,NA,783.9332,783.9332,783.9332,784.2997,NA,NA,NA,NA,NA,NA,NA,TRUE,2,0.9588,780.9346,783.933,NA,NA,NA,NA,NA,100,54,0,68,68,89,1,2,69,"binary"
"FE82391208714D90B59CBCF927ECE95B",1,"01990a99-8aa9-7d37-9d5c-eef591330ef8","01990a83-7673-7c0c-a792-bbd8fbbaf673","2025-09-02_08h25.20.939",NA,NA,787.2997,787.2998,787.2998,787.6323,NA,NA,NA,NA,NA,NA,NA,TRUE,2,0.694,784.3013,787.2996,NA,NA,NA,NA,NA,90,33,0,69,69,74,1,2,70,"binary"
"FE82391208714D90B59CBCF927ECE95B",1,"01990a99-8aa9-7d37-9d5c-eef591330ef8","01990a83-7673-7c0c-a792-bbd8fbbaf673","2025-09-02_08h25.20.939",NA,NA,790.633,790.633,790.633,790.9985,NA,NA,NA,NA,NA,NA,NA,TRUE,2,0.647,787.6341,790.6329,NA,NA,NA,NA,NA,150,54,0,70,70,95,1,2,71,"binary"
"FE82391208714D90B59CBCF927ECE95B",1,"01990a99-8aa9-7d37-9d5c-eef591330ef8","01990a83-7673-7c0c-a792-bbd8fbbaf673","2025-09-02_08h25.20.939",NA,NA,793.9987,793.9987,793.9987,794.332,NA,NA,NA,NA,NA,NA,NA,TRUE,2,0.7737,791.0001,793.9985,NA,NA,NA,NA,NA,30,30,0,71,71,45,1,2,72,"binary"
"FE82391208714D90B59CBCF927ECE95B",1,"01990a99-8aa9-7d37-9d5c-eef591330ef8","01990a83-7673-7c0c-a792-bbd8fbbaf673","2025-09-02_08h25.20.939",NA,NA,797.3328,797.3329,797.3329,797.6985,NA,NA,NA,NA,NA,NA,NA,TRUE,2,1.1433,794.3339,797.3328,NA,NA,NA,NA,NA,90,54,0,72,72,77,1,2,73,"binary"
"FE82391208714D90B59CBCF927ECE95B",1,"01990a99-8aa9-7d37-9d5c-eef591330ef8","01990a83-7673-7c0c-a792-bbd8fbbaf673","2025-09-02_08h25.20.939",NA,NA,800.6996,800.6996,800.6996,801.032,NA,NA,NA,NA,NA,NA,NA,TRUE,2,1.6998,797.7003,800.6994,NA,NA,NA,NA,NA,21,32,0,73,73,28,1,2,74,"binary"
"FE82391208714D90B59CBCF927ECE95B",1,"01990a99-8aa9-7d37-9d5c-eef591330ef8","01990a83-7673-7c0c-a792-bbd8fbbaf673","2025-09-02_08h25.20.939",NA,NA,804.0319,804.0319,804.0319,804.3995,NA,NA,NA,NA,NA,NA,NA,TRUE,2,1.6128,801.0336,804.0318,NA,NA,NA,NA,NA,25,29,0,74,74,31,1,2,75,"binary"
"FE82391208714D90B59CBCF927ECE95B",1,"01990a99-8aa9-7d37-9d5c-eef591330ef8","01990a83-7673-7c0c-a792-bbd8fbbaf673","2025-09-02_08h25.20.939",NA,NA,807.3986,807.3986,807.3987,807.7328,NA,NA,NA,NA,NA,NA,NA,TRUE,2,0.6709,804.4011,807.3985,NA,NA,NA,NA,NA,30,32,0,75,75,46,1,2,76,"binary"
"FE82391208714D90B59CBCF927ECE95B",1,"01990a99-8aa9-7d37-9d5c-eef591330ef8","01990a83-7673-7c0c-a792-bbd8fbbaf673","2025-09-02_08h25.20.939",NA,NA,810.733,810.7331,810.7331,811.0996,NA,NA,NA,NA,NA,NA,NA,TRUE,2,0.9096,807.7346,810.7329,NA,NA,NA,NA,NA,100,38,0,76,76,86,1,2,77,"binary"
"FE82391208714D90B59CBCF927ECE95B",1,"01990a99-8aa9-7d37-9d5c-eef591330ef8","01990a83-7673-7c0c-a792-bbd8fbbaf673","2025-09-02_08h25.20.939",NA,NA,814.0985,814.0985,814.0985,814.4321,NA,NA,NA,NA,NA,NA,NA,TRUE,2,1.1512,811.1013,814.0984,NA,NA,NA,NA,NA,95,54,0,77,77,83,1,2,78,"binary"
"FE82391208714D90B59CBCF927ECE95B",1,"01990a99-8aa9-7d37-9d5c-eef591330ef8","01990a83-7673-7c0c-a792-bbd8fbbaf673","2025-09-02_08h25.20.939",NA,NA,817.4322,817.4322,817.4322,817.7995,NA,NA,NA,NA,NA,NA,NA,TRUE,2,1.2425,814.4334,817.4322,NA,NA,NA,NA,NA,200,35,0,78,78,104,1,2,79,"binary"
"FE82391208714D90B59CBCF927ECE95B",1,"01990a99-8aa9-7d37-9d5c-eef591330ef8","01990a83-7673-7c0c-a792-bbd8fbbaf673","2025-09-02_08h25.20.939",NA,NA,820.7998,820.7998,820.7998,821.133,NA,NA,NA,NA,NA,NA,NA,TRUE,1,0.7741,817.8012,820.7997,NA,NA,NA,NA,NA,14,26,0,79,79,19,1,2,80,"binary"
"FE82391208714D90B59CBCF927ECE95B",1,"01990a99-8aa9-7d37-9d5c-eef591330ef8","01990a83-7673-7c0c-a792-bbd8fbbaf673","2025-09-02_08h25.20.939",NA,NA,824.1331,824.1331,824.1331,824.4995,NA,NA,NA,NA,NA,NA,NA,TRUE,2,1.341,821.1347,824.1329,NA,NA,NA,NA,NA,180,54,0,80,80,101,1,2,81,"binary"
"FE82391208714D90B59CBCF927ECE95B",1,"01990a99-8aa9-7d37-9d5c-eef591330ef8","01990a83-7673-7c0c-a792-bbd8fbbaf673","2025-09-02_08h25.20.939",NA,NA,827.4997,827.4997,827.4997,827.832,NA,NA,NA,NA,NA,NA,NA,TRUE,2,0.8623,824.5013,827.4995,NA,NA,NA,NA,NA,28,46,0,81,81,41,1,2,82,"binary"
"FE82391208714D90B59CBCF927ECE95B",1,"01990a99-8aa9-7d37-9d5c-eef591330ef8","01990a83-7673-7c0c-a792-bbd8fbbaf673","2025-09-02_08h25.20.939",NA,NA,830.8332,830.8332,830.8332,831.199,NA,NA,NA,NA,NA,NA,NA,TRUE,2,0.6802,827.8335,830.833,NA,NA,NA,NA,NA,40,47,0,82,82,52,1,2,83,"binary"
"FE82391208714D90B59CBCF927ECE95B",1,"01990a99-8aa9-7d37-9d5c-eef591330ef8","01990a83-7673-7c0c-a792-bbd8fbbaf673","2025-09-02_08h25.20.939",NA,NA,834.1996,834.1997,834.1997,834.5329,NA,NA,NA,NA,NA,NA,NA,TRUE,2,0.5477,831.2006,834.1996,NA,NA,NA,NA,NA,200,39,0,83,83,105,1,2,84,"binary"
"FE82391208714D90B59CBCF927ECE95B",1,"01990a99-8aa9-7d37-9d5c-eef591330ef8","01990a83-7673-7c0c-a792-bbd8fbbaf673","2025-09-02_08h25.20.939",NA,NA,837.533,837.533,837.533,837.8995,NA,NA,NA,NA,NA,NA,NA,TRUE,2,2.1746,834.5345,837.5329,NA,NA,NA,NA,NA,21,27,0,84,84,25,1,2,85,"binary"
"FE82391208714D90B59CBCF927ECE95B",1,"01990a99-8aa9-7d37-9d5c-eef591330ef8","01990a83-7673-7c0c-a792-bbd8fbbaf673","2025-09-02_08h25.20.939",NA,NA,840.8994,840.8994,840.8995,841.2329,NA,NA,NA,NA,NA,NA,NA,TRUE,2,1.1061,837.9013,840.8993,NA,NA,NA,NA,NA,7,28,0,85,85,2,1,2,86,"binary"
"FE82391208714D90B59CBCF927ECE95B",1,"01990a99-8aa9-7d37-9d5c-eef591330ef8","01990a83-7673-7c0c-a792-bbd8fbbaf673","2025-09-02_08h25.20.939",NA,NA,844.2331,844.2332,844.2332,844.5997,NA,NA,NA,NA,NA,NA,NA,TRUE,2,0.7499,841.2346,844.233,NA,NA,NA,NA,NA,180,35,0,86,86,98,1,2,87,"binary"
"FE82391208714D90B59CBCF927ECE95B",1,"01990a99-8aa9-7d37-9d5c-eef591330ef8","01990a83-7673-7c0c-a792-bbd8fbbaf673","2025-09-02_08h25.20.939",NA,NA,847.5997,847.5998,847.5998,847.9329,NA,NA,NA,NA,NA,NA,NA,TRUE,2,1.5396,844.6016,847.5996,NA,NA,NA,NA,NA,28,35,0,87,87,39,1,2,88,"binary"
"FE82391208714D90B59CBCF927ECE95B",1,"01990a99-8aa9-7d37-9d5c-eef591330ef8","01990a83-7673-7c0c-a792-bbd8fbbaf673","2025-09-02_08h25.20.939",NA,NA,850.9331,850.9332,850.9332,851.2996,NA,NA,NA,NA,NA,NA,NA,TRUE,2,0.7083,847.9348,850.9329,NA,NA,NA,NA,NA,60,35,0,88,88,68,1,2,89,"binary"
"FE82391208714D90B59CBCF927ECE95B",1,"01990a99-8aa9-7d37-9d5c-eef591330ef8","01990a83-7673-7c0c-a792-bbd8fbbaf673","2025-09-02_08h25.20.939",NA,NA,854.2997,854.2997,854.2997,854.633,NA,NA,NA,NA,NA,NA,NA,TRUE,2,0.5767,851.3013,854.2996,NA,NA,NA,NA,NA,50,54,0,89,89,65,1,2,90,"binary"
"FE82391208714D90B59CBCF927ECE95B",1,"01990a99-8aa9-7d37-9d5c-eef591330ef8","01990a83-7673-7c0c-a792-bbd8fbbaf673","2025-09-02_08h25.20.939",NA,NA,857.633,857.6331,857.6331,857.9996,NA,NA,NA,NA,NA,NA,NA,TRUE,2,1.5408,854.6345,857.6329,NA,NA,NA,NA,NA,10,27,0,90,90,8,1,2,91,"binary"
"FE82391208714D90B59CBCF927ECE95B",1,"01990a99-8aa9-7d37-9d5c-eef591330ef8","01990a83-7673-7c0c-a792-bbd8fbbaf673","2025-09-02_08h25.20.939",NA,NA,860.9997,860.9998,860.9998,861.3325,NA,NA,NA,NA,NA,NA,NA,TRUE,2,0.6038,858.0012,860.9996,NA,NA,NA,NA,NA,180,31,0,91,91,97,1,2,92,"binary"
"FE82391208714D90B59CBCF927ECE95B",1,"01990a99-8aa9-7d37-9d5c-eef591330ef8","01990a83-7673-7c0c-a792-bbd8fbbaf673","2025-09-02_08h25.20.939",NA,NA,864.333,864.333,864.333,864.699,NA,NA,NA,NA,NA,NA,NA,TRUE,2,0.5735,861.3343,864.3328,NA,NA,NA,NA,NA,12,33,0,92,92,16,1,2,93,"binary"
"FE82391208714D90B59CBCF927ECE95B",1,"01990a99-8aa9-7d37-9d5c-eef591330ef8","01990a83-7673-7c0c-a792-bbd8fbbaf673","2025-09-02_08h25.20.939",NA,NA,867.6997,867.6998,867.6998,868.0318,NA,NA,NA,NA,NA,NA,NA,TRUE,2,0.5766,864.7008,867.6996,NA,NA,NA,NA,NA,25,35,0,93,93,34,1,2,94,"binary"
"FE82391208714D90B59CBCF927ECE95B",1,"01990a99-8aa9-7d37-9d5c-eef591330ef8","01990a83-7673-7c0c-a792-bbd8fbbaf673","2025-09-02_08h25.20.939",NA,NA,871.0329,871.0329,871.0329,871.3986,NA,NA,NA,NA,NA,NA,NA,TRUE,2,0.8115,868.0337,871.0327,NA,NA,NA,NA,NA,45,26,0,94,94,54,1,2,95,"binary"
"FE82391208714D90B59CBCF927ECE95B",1,"01990a99-8aa9-7d37-9d5c-eef591330ef8","01990a83-7673-7c0c-a792-bbd8fbbaf673","2025-09-02_08h25.20.939",NA,NA,874.3996,874.3997,874.3997,874.7329,NA,NA,NA,NA,NA,NA,NA,TRUE,2,1.6193,871.4002,874.3996,NA,NA,NA,NA,NA,28,28,0,95,95,37,1,2,96,"binary"
"FE82391208714D90B59CBCF927ECE95B",1,"01990a99-8aa9-7d37-9d5c-eef591330ef8","01990a83-7673-7c0c-a792-bbd8fbbaf673","2025-09-02_08h25.20.939",NA,NA,877.7331,877.7331,877.7331,878.0986,NA,NA,NA,NA,NA,NA,NA,TRUE,1,0.9722,874.7347,877.7329,NA,NA,NA,NA,NA,12,25,0,96,96,12,1,2,97,"binary"
"FE82391208714D90B59CBCF927ECE95B",1,"01990a99-8aa9-7d37-9d5c-eef591330ef8","01990a83-7673-7c0c-a792-bbd8fbbaf673","2025-09-02_08h25.20.939",NA,NA,881.0988,881.0988,881.0988,881.4329,NA,NA,NA,NA,NA,NA,NA,TRUE,1,1.7966,878.1002,881.0987,NA,NA,NA,NA,NA,12,26,0,97,97,13,1,2,98,"binary"
"FE82391208714D90B59CBCF927ECE95B",1,"01990a99-8aa9-7d37-9d5c-eef591330ef8","01990a83-7673-7c0c-a792-bbd8fbbaf673","2025-09-02_08h25.20.939",NA,NA,884.433,884.433,884.4331,884.7995,NA,NA,NA,NA,NA,NA,NA,TRUE,2,0.7867,881.4345,884.4329,NA,NA,NA,NA,NA,21,38,0,98,98,29,1,2,99,"binary"
"FE82391208714D90B59CBCF927ECE95B",1,"01990a99-8aa9-7d37-9d5c-eef591330ef8","01990a83-7673-7c0c-a792-bbd8fbbaf673","2025-09-02_08h25.20.939",NA,NA,887.7998,887.7998,887.7998,888.1328,NA,NA,NA,NA,NA,NA,NA,TRUE,2,0.7974,884.8014,887.7997,NA,NA,NA,NA,NA,50,40,0,99,99,63,1,2,100,"binary"
"FE82391208714D90B59CBCF927ECE95B",1,"01990a99-8aa9-7d37-9d5c-eef591330ef8","01990a83-7673-7c0c-a792-bbd8fbbaf673","2025-09-02_08h25.20.939",NA,NA,891.1331,891.1331,891.1332,891.4995,NA,NA,NA,NA,NA,NA,NA,TRUE,1,1.6664,888.1346,891.133,NA,NA,NA,NA,NA,10,26,0,100,100,7,1,2,101,"binary"
"FE82391208714D90B59CBCF927ECE95B",1,"01990a99-8aa9-7d37-9d5c-eef591330ef8","01990a83-7673-7c0c-a792-bbd8fbbaf673","2025-09-02_08h25.20.939",NA,NA,894.4997,894.4997,894.4998,894.8329,NA,NA,NA,NA,NA,NA,NA,TRUE,2,0.6727,891.5012,894.4996,NA,NA,NA,NA,NA,45,35,0,101,101,57,1,2,102,"binary"
"FE82391208714D90B59CBCF927ECE95B",1,"01990a99-8aa9-7d37-9d5c-eef591330ef8","01990a83-7673-7c0c-a792-bbd8fbbaf673","2025-09-02_08h25.20.939",NA,NA,897.833,897.833,897.833,898.1994,NA,NA,NA,NA,NA,NA,NA,TRUE,2,0.8478,894.8346,897.8328,NA,NA,NA,NA,NA,100,39,0,102,102,87,1,2,103,"binary"
"FE82391208714D90B59CBCF927ECE95B",1,"01990a99-8aa9-7d37-9d5c-eef591330ef8","01990a83-7673-7c0c-a792-bbd8fbbaf673","2025-09-02_08h25.20.939",NA,NA,901.1997,901.1998,901.1998,901.5323,NA,NA,NA,NA,NA,NA,NA,TRUE,2,1,898.2011,901.1995,NA,NA,NA,NA,NA,100,46,0,103,103,88,1,2,104,"binary"
"FE82391208714D90B59CBCF927ECE95B",1,"01990a99-8aa9-7d37-9d5c-eef591330ef8","01990a83-7673-7c0c-a792-bbd8fbbaf673","2025-09-02_08h25.20.939",NA,NA,904.5321,904.5321,904.5321,904.8996,NA,NA,NA,NA,NA,NA,NA,TRUE,2,0.8269,901.5342,904.5319,NA,NA,NA,NA,NA,40,35,0,104,104,50,1,2,105,"binary"
"FE82391208714D90B59CBCF927ECE95B",1,"01990a99-8aa9-7d37-9d5c-eef591330ef8","01990a83-7673-7c0c-a792-bbd8fbbaf673","2025-09-02_08h25.20.939",NA,NA,907.8997,907.8998,907.8998,908.2328,NA,NA,NA,NA,NA,NA,NA,TRUE,2,1.1355,904.9012,907.8996,NA,NA,NA,NA,NA,90,40,0,105,105,75,1,2,106,"binary"
"FE82391208714D90B59CBCF927ECE95B",1,"01990a99-8aa9-7d37-9d5c-eef591330ef8","01990a83-7673-7c0c-a792-bbd8fbbaf673","2025-09-02_08h25.20.939",NA,NA,911.2326,911.2327,911.2327,911.599,NA,NA,NA,NA,NA,NA,NA,TRUE,2,0.7094,908.2344,911.2325,NA,NA,NA,NA,NA,7,35,0,106,106,5,1,2,107,"binary"
"FE82391208714D90B59CBCF927ECE95B",1,"01990a99-8aa9-7d37-9d5c-eef591330ef8","01990a83-7673-7c0c-a792-bbd8fbbaf673","2025-09-02_08h25.20.939",NA,NA,914.599,914.599,914.5991,914.9329,NA,NA,NA,NA,NA,NA,NA,TRUE,2,0.6312,911.6005,914.5988,NA,NA,NA,NA,NA,25,33,0,107,107,33,1,2,108,"binary"
